hh:mm:ss.ms,gyroX[mdps],gyroY[mdps],gyroZ[mdps],accX[mg],accY[mg],accZ[mg],magX[mG],magY[mG],magZ[mG]
19:30:46.149000,-128.0,-40.0,-9.0,-1117.0,-178.0,-88.0,622.0,-337.0,405.0
19:30:46.154000,-115.0,-37.0,-25.0,-1175.0,-128.0,-106.0,625.0,-330.0,402.0
19:30:46.159000,-110.0,-21.0,-58.0,-1258.0,-78.0,-125.0,625.0,-330.0,402.0
19:30:46.163000,-103.0,-2.0,-88.0,-1340.0,-34.0,-145.0,625.0,-333.0,406.0
19:30:46.168000,-85.0,11.0,-133.0,-1386.0,-4.0,-160.0,625.0,-333.0,406.0
19:30:46.172000,-87.0,38.0,-170.0,-1398.0,-15.0,-173.0,625.0,-333.0,406.0
19:30:46.177000,-90.0,60.0,-184.0,-1389.0,-44.0,-184.0,625.0,-342.0,406.0
19:30:46.182000,-86.0,77.0,-198.0,-1360.0,-66.0,-187.0,625.0,-342.0,406.0
19:30:46.187000,-90.0,95.0,-211.0,-1322.0,-80.0,-192.0,619.0,-343.0,406.0
19:30:46.192000,-84.0,107.0,-211.0,-1286.0,-79.0,-197.0,619.0,-343.0,406.0
19:30:46.196000,-88.0,123.0,-223.0,-1270.0,-98.0,-199.0,619.0,-343.0,406.0
19:30:46.201000,-93.0,141.0,-229.0,-1282.0,-140.0,-209.0,613.0,-330.0,403.0
19:30:46.205000,-77.0,155.0,-247.0,-1294.0,-174.0,-221.0,613.0,-330.0,403.0
19:30:46.210000,-57.0,167.0,-303.0,-1294.0,-174.0,-221.0,607.0,-325.0,423.0
19:30:46.215000,-30.0,165.0,-362.0,-1286.0,-200.0,-224.0,607.0,-325.0,423.0
19:30:46.220000,4.0,158.0,-385.0,-1222.0,-226.0,-232.0,616.0,-331.0,403.0
19:30:46.224000,16.0,169.0,-370.0,-1146.0,-230.0,-233.0,616.0,-331.0,403.0
19:30:46.229000,37.0,175.0,-387.0,-1164.0,-166.0,-230.0,616.0,-331.0,403.0
19:30:46.234000,60.0,169.0,-358.0,-1188.0,-113.0,-228.0,621.0,-333.0,405.0
19:30:46.239000,62.0,174.0,-290.0,-1145.0,-117.0,-222.0,621.0,-333.0,405.0
19:30:46.243000,57.0,187.0,-305.0,-1168.0,-77.0,-224.0,621.0,-322.0,406.0
19:30:46.248000,69.0,183.0,-287.0,-1213.0,-48.0,-221.0,621.0,-322.0,406.0
19:30:46.252000,69.0,183.0,-287.0,-1159.0,-70.0,-224.0,621.0,-322.0,406.0
19:30:46.257000,83.0,178.0,-200.0,-1136.0,-63.0,-205.0,607.0,-327.0,417.0
19:30:46.262000,49.0,205.0,-218.0,-1177.0,-6.0,-215.0,607.0,-327.0,417.0
19:30:46.267000,102.0,199.0,-322.0,-1172.0,-4.0,-220.0,610.0,-316.0,411.0
19:30:46.271000,63.0,207.0,-322.0,-1128.0,-36.0,-210.0,610.0,-316.0,411.0
19:30:46.276000,109.0,203.0,-327.0,-1089.0,-22.0,-222.0,610.0,-316.0,411.0
19:30:46.281000,135.0,193.0,-391.0,-1050.0,-12.0,-209.0,609.0,-316.0,411.0
19:30:46.286000,147.0,198.0,-390.0,-978.0,40.0,-211.0,609.0,-316.0,411.0
19:30:46.290000,170.0,191.0,-337.0,-832.0,249.0,-213.0,616.0,-315.0,411.0
19:30:46.295000,203.0,177.0,-293.0,-862.0,404.0,-182.0,616.0,-315.0,411.0
19:30:46.299000,155.0,158.0,-228.0,-1077.0,168.0,-173.0,616.0,-315.0,411.0
19:30:46.304000,39.0,168.0,-107.0,-1175.0,-182.0,-189.0,594.0,-321.0,415.0
19:30:46.309000,30.0,156.0,-22.0,-1119.0,-269.0,-207.0,594.0,-321.0,415.0
19:30:46.314000,43.0,153.0,5.0,-1119.0,-269.0,-207.0,616.0,-306.0,412.0
19:30:46.318000,72.0,150.0,-15.0,-995.0,-70.0,-210.0,616.0,-306.0,412.0
19:30:46.322000,84.0,153.0,-95.0,-973.0,211.0,-200.0,616.0,-306.0,412.0
19:30:46.328000,106.0,151.0,-186.0,-1025.0,364.0,-203.0,601.0,-310.0,414.0
19:30:46.333000,81.0,159.0,-234.0,-997.0,352.0,-197.0,601.0,-310.0,414.0
19:30:46.337000,84.0,165.0,-225.0,-933.0,219.0,-197.0,606.0,-316.0,415.0
19:30:46.342000,95.0,154.0,-233.0,-971.0,168.0,-204.0,606.0,-316.0,415.0
19:30:46.346000,95.0,154.0,-233.0,-1064.0,105.0,-222.0,606.0,-316.0,415.0
19:30:46.351000,32.0,196.0,-133.0,-1064.0,24.0,-237.0,604.0,-307.0,417.0
19:30:46.356000,54.0,197.0,-39.0,-1062.0,65.0,-230.0,604.0,-307.0,417.0
19:30:46.361000,54.0,197.0,-39.0,-1141.0,68.0,-227.0,606.0,-306.0,418.0
19:30:46.365000,32.0,214.0,-30.0,-1175.0,5.0,-240.0,606.0,-306.0,418.0
19:30:46.369000,41.0,226.0,-52.0,-1153.0,-37.0,-257.0,606.0,-306.0,418.0
19:30:46.375000,59.0,235.0,-65.0,-1156.0,-10.0,-267.0,604.0,-295.0,417.0
19:30:46.380000,81.0,234.0,-110.0,-1135.0,23.0,-281.0,604.0,-295.0,417.0
19:30:46.384000,121.0,234.0,-136.0,-1082.0,24.0,-283.0,606.0,-303.0,417.0
19:30:46.389000,103.0,249.0,-150.0,-1042.0,6.0,-284.0,606.0,-303.0,417.0
19:30:46.393000,107.0,249.0,-105.0,-1027.0,-29.0,-293.0,606.0,-303.0,417.0
19:30:46.398000,119.0,232.0,-40.0,-1032.0,-27.0,-277.0,592.0,-294.0,424.0
19:30:46.403000,120.0,217.0,-60.0,-1033.0,8.0,-273.0,592.0,-294.0,424.0
19:30:46.408000,135.0,212.0,-111.0,-1025.0,24.0,-281.0,603.0,-298.0,417.0
19:30:46.412000,128.0,207.0,-123.0,-1018.0,21.0,-278.0,603.0,-298.0,417.0
19:30:46.416000,143.0,191.0,-148.0,-1019.0,23.0,-277.0,603.0,-298.0,417.0
19:30:46.422000,145.0,177.0,-193.0,-1019.0,61.0,-271.0,600.0,-309.0,424.0
19:30:46.427000,152.0,152.0,-214.0,-1000.0,61.0,-271.0,600.0,-309.0,424.0
19:30:46.431000,131.0,139.0,-240.0,-960.0,84.0,-276.0,598.0,-295.0,423.0
19:30:46.436000,109.0,123.0,-301.0,-960.0,84.0,-276.0,598.0,-295.0,423.0
19:30:46.440000,118.0,91.0,-378.0,-916.0,75.0,-272.0,598.0,-295.0,423.0
19:30:46.445000,125.0,63.0,-401.0,-870.0,98.0,-267.0,592.0,-294.0,432.0
19:30:46.450000,120.0,28.0,-331.0,-871.0,90.0,-282.0,592.0,-294.0,432.0
19:30:46.455000,114.0,-4.0,-295.0,-920.0,99.0,-290.0,600.0,-292.0,427.0
19:30:46.459000,100.0,-29.0,-305.0,-972.0,145.0,-291.0,600.0,-292.0,427.0
19:30:46.463000,100.0,-29.0,-305.0,-1003.0,185.0,-287.0,600.0,-292.0,427.0
19:30:46.469000,39.0,-64.0,-343.0,-991.0,214.0,-281.0,603.0,-292.0,424.0
19:30:46.473000,39.0,-64.0,-343.0,-948.0,200.0,-278.0,603.0,-292.0,424.0
19:30:46.478000,12.0,-80.0,-336.0,-932.0,200.0,-278.0,601.0,-282.0,429.0
19:30:46.483000,2.0,-98.0,-361.0,-934.0,239.0,-280.0,601.0,-282.0,429.0
19:30:46.488000,-13.0,-105.0,-379.0,-946.0,275.0,-281.0,594.0,-282.0,433.0
19:30:46.492000,-28.0,-103.0,-390.0,-981.0,277.0,-277.0,594.0,-282.0,433.0
19:30:46.496000,-63.0,-85.0,-396.0,-1006.0,235.0,-267.0,594.0,-282.0,433.0
19:30:46.502000,-75.0,-78.0,-393.0,-1016.0,203.0,-268.0,579.0,-283.0,430.0
19:30:46.506000,-91.0,-64.0,-372.0,-1062.0,199.0,-272.0,579.0,-283.0,430.0
19:30:46.511000,-95.0,-44.0,-359.0,-1112.0,203.0,-267.0,598.0,-276.0,424.0
19:30:46.516000,-111.0,-14.0,-355.0,-1138.0,170.0,-270.0,598.0,-276.0,424.0
19:30:46.520000,-103.0,18.0,-343.0,-1148.0,103.0,-268.0,598.0,-276.0,424.0
19:30:46.525000,-100.0,59.0,-325.0,-1146.0,78.0,-268.0,588.0,-280.0,433.0
19:30:46.530000,-58.0,87.0,-304.0,-1149.0,119.0,-268.0,588.0,-280.0,433.0
19:30:46.535000,-33.0,109.0,-285.0,-1149.0,119.0,-268.0,589.0,-267.0,423.0
19:30:46.539000,-24.0,140.0,-287.0,-1120.0,111.0,-259.0,589.0,-267.0,423.0
19:30:46.543000,30.0,156.0,-273.0,-1068.0,78.0,-262.0,589.0,-267.0,423.0
19:30:46.549000,72.0,175.0,-276.0,-1039.0,70.0,-264.0,598.0,-273.0,421.0
19:30:46.553000,133.0,186.0,-278.0,-1030.0,32.0,-261.0,598.0,-273.0,421.0
19:30:46.558000,193.0,188.0,-279.0,-1042.0,5.0,-261.0,597.0,-265.0,424.0
19:30:46.563000,247.0,186.0,-322.0,-1061.0,41.0,-252.0,597.0,-265.0,424.0
19:30:46.567000,247.0,186.0,-322.0,-1047.0,133.0,-248.0,597.0,-265.0,424.0
19:30:46.572000,307.0,191.0,-319.0,-1011.0,154.0,-247.0,595.0,-274.0,435.0
19:30:46.577000,341.0,187.0,-289.0,-988.0,134.0,-243.0,595.0,-274.0,435.0
19:30:46.582000,341.0,187.0,-289.0,-989.0,192.0,-238.0,588.0,-255.0,430.0
19:30:46.586000,349.0,185.0,-299.0,-1006.0,227.0,-230.0,588.0,-255.0,430.0
19:30:46.590000,346.0,181.0,-328.0,-1016.0,200.0,-234.0,588.0,-255.0,430.0
19:30:46.596000,357.0,172.0,-371.0,-1016.0,219.0,-247.0,592.0,-261.0,430.0
19:30:46.600000,375.0,161.0,-419.0,-1010.0,254.0,-251.0,592.0,-261.0,430.0
19:30:46.605000,364.0,151.0,-461.0,-993.0,264.0,-256.0,583.0,-259.0,441.0
19:30:46.610000,368.0,138.0,-471.0,-978.0,285.0,-262.0,583.0,-259.0,441.0
19:30:46.614000,343.0,135.0,-436.0,-1006.0,322.0,-269.0,583.0,-259.0,441.0
19:30:46.619000,326.0,135.0,-425.0,-1060.0,343.0,-282.0,577.0,-246.0,447.0
19:30:46.624000,312.0,130.0,-457.0,-1084.0,319.0,-290.0,577.0,-246.0,447.0
19:30:46.629000,301.0,116.0,-453.0,-1082.0,284.0,-289.0,574.0,-237.0,430.0
19:30:46.633000,282.0,102.0,-445.0,-1077.0,265.0,-296.0,574.0,-237.0,430.0
19:30:46.637000,270.0,89.0,-482.0,-1072.0,270.0,-308.0,574.0,-237.0,430.0
19:30:46.643000,260.0,72.0,-543.0,-1072.0,270.0,-308.0,579.0,-231.0,429.0
19:30:46.647000,259.0,53.0,-573.0,-1056.0,296.0,-315.0,579.0,-231.0,429.0
19:30:46.651000,240.0,33.0,-592.0,-1013.0,357.0,-327.0,577.0,-225.0,423.0
19:30:46.657000,219.0,10.0,-622.0,-1013.0,357.0,-327.0,577.0,-225.0,423.0
19:30:46.661000,206.0,-9.0,-676.0,-1006.0,371.0,-329.0,577.0,-225.0,423.0
19:30:46.666000,223.0,-38.0,-704.0,-999.0,373.0,-337.0,568.0,-228.0,436.0
19:30:46.671000,228.0,-66.0,-697.0,-993.0,356.0,-344.0,568.0,-228.0,436.0
19:30:46.676000,220.0,-91.0,-697.0,-1011.0,347.0,-339.0,580.0,-223.0,436.0
19:30:46.680000,235.0,-114.0,-726.0,-1036.0,372.0,-334.0,580.0,-223.0,436.0
19:30:46.684000,235.0,-114.0,-726.0,-1055.0,408.0,-329.0,580.0,-223.0,436.0
19:30:46.690000,235.0,-128.0,-764.0,-1089.0,429.0,-314.0,570.0,-225.0,439.0
19:30:46.694000,217.0,-128.0,-809.0,-1130.0,447.0,-304.0,570.0,-225.0,439.0
19:30:46.699000,215.0,-127.0,-850.0,-1150.0,466.0,-299.0,568.0,-222.0,433.0
19:30:46.704000,208.0,-117.0,-860.0,-1144.0,489.0,-287.0,568.0,-222.0,433.0
19:30:46.708000,180.0,-102.0,-835.0,-1129.0,532.0,-279.0,564.0,-207.0,433.0
19:30:46.713000,163.0,-97.0,-796.0,-1128.0,574.0,-274.0,564.0,-207.0,433.0
19:30:46.717000,126.0,-78.0,-765.0,-1149.0,588.0,-290.0,564.0,-207.0,433.0
19:30:46.723000,154.0,-65.0,-747.0,-1169.0,596.0,-291.0,564.0,-201.0,427.0
19:30:46.727000,142.0,-56.0,-798.0,-1169.0,584.0,-277.0,564.0,-201.0,427.0
19:30:46.732000,153.0,-32.0,-858.0,-1114.0,545.0,-295.0,561.0,-195.0,430.0
19:30:46.737000,196.0,-26.0,-759.0,-1073.0,520.0,-284.0,561.0,-195.0,430.0
19:30:46.741000,187.0,-37.0,-564.0,-1140.0,538.0,-278.0,561.0,-195.0,430.0
19:30:46.746000,153.0,-17.0,-494.0,-1234.0,559.0,-301.0,555.0,-193.0,438.0
19:30:46.751000,121.0,14.0,-543.0,-1234.0,591.0,-313.0,555.0,-193.0,438.0
19:30:46.755000,115.0,25.0,-605.0,-1259.0,591.0,-313.0,555.0,-189.0,427.0
19:30:46.760000,112.0,35.0,-621.0,-1214.0,644.0,-317.0,555.0,-189.0,427.0
19:30:46.764000,122.0,59.0,-572.0,-1157.0,690.0,-331.0,555.0,-189.0,427.0
19:30:46.770000,74.0,98.0,-539.0,-1159.0,738.0,-332.0,553.0,-189.0,433.0
19:30:46.774000,4.0,151.0,-574.0,-1199.0,752.0,-314.0,553.0,-189.0,433.0
19:30:46.779000,-20.0,172.0,-607.0,-1191.0,722.0,-309.0,546.0,-187.0,424.0
19:30:46.784000,-60.0,186.0,-609.0,-1164.0,667.0,-300.0,546.0,-187.0,424.0
19:30:46.788000,-60.0,186.0,-609.0,-1152.0,610.0,-296.0,546.0,-187.0,424.0
19:30:46.793000,-84.0,193.0,-430.0,-1188.0,572.0,-300.0,549.0,-178.0,436.0
19:30:46.798000,-123.0,196.0,-479.0,-1321.0,560.0,-296.0,549.0,-178.0,436.0
19:30:46.802000,-123.0,196.0,-479.0,-1463.0,547.0,-281.0,543.0,-177.0,429.0
19:30:46.807000,-142.0,176.0,-527.0,-1441.0,500.0,-278.0,543.0,-177.0,429.0
19:30:46.811000,-94.0,147.0,-415.0,-1211.0,421.0,-279.0,543.0,-177.0,429.0
19:30:46.817000,-84.0,112.0,-263.0,-970.0,400.0,-271.0,532.0,-172.0,426.0
19:30:46.821000,-55.0,85.0,-322.0,-859.0,444.0,-270.0,532.0,-172.0,426.0
19:30:46.826000,2.0,54.0,-462.0,-819.0,445.0,-260.0,529.0,-166.0,418.0
19:30:46.831000,47.0,18.0,-495.0,-803.0,412.0,-241.0,529.0,-166.0,418.0
19:30:46.835000,103.0,-21.0,-466.0,-816.0,404.0,-223.0,529.0,-166.0,418.0
19:30:46.840000,144.0,-56.0,-420.0,-847.0,420.0,-206.0,529.0,-168.0,433.0
19:30:46.845000,149.0,-72.0,-374.0,-879.0,474.0,-205.0,529.0,-168.0,433.0
19:30:46.849000,175.0,-78.0,-371.0,-879.0,537.0,-205.0,529.0,-166.0,433.0
19:30:46.854000,149.0,-63.0,-336.0,-876.0,579.0,-181.0,529.0,-166.0,433.0
19:30:46.858000,124.0,-42.0,-316.0,-889.0,594.0,-172.0,529.0,-166.0,433.0
19:30:46.864000,95.0,-14.0,-322.0,-889.0,594.0,-172.0,534.0,-166.0,436.0
19:30:46.868000,70.0,14.0,-280.0,-866.0,531.0,-158.0,534.0,-166.0,436.0
19:30:46.872000,51.0,32.0,-224.0,-853.0,404.0,-134.0,541.0,-156.0,429.0
19:30:46.878000,45.0,44.0,-166.0,-853.0,404.0,-134.0,541.0,-156.0,429.0
19:30:46.882000,46.0,51.0,-111.0,-856.0,399.0,-132.0,531.0,-153.0,436.0
19:30:46.887000,24.0,57.0,-74.0,-845.0,437.0,-130.0,531.0,-153.0,436.0
19:30:46.891000,-3.0,59.0,-28.0,-794.0,483.0,-130.0,531.0,-153.0,436.0
19:30:46.896000,-24.0,57.0,27.0,-726.0,514.0,-134.0,538.0,-156.0,442.0
19:30:46.901000,-46.0,52.0,88.0,-670.0,525.0,-133.0,538.0,-156.0,442.0
19:30:46.906000,-77.0,51.0,161.0,-602.0,517.0,-131.0,529.0,-160.0,430.0
19:30:46.911000,-77.0,51.0,161.0,-525.0,503.0,-139.0,529.0,-160.0,430.0
19:30:46.915000,-100.0,56.0,220.0,-464.0,490.0,-153.0,529.0,-160.0,430.0
19:30:46.920000,-134.0,64.0,259.0,-432.0,478.0,-164.0,532.0,-165.0,429.0
19:30:46.925000,-159.0,70.0,269.0,-433.0,469.0,-177.0,532.0,-165.0,429.0
19:30:46.929000,-181.0,78.0,236.0,-454.0,430.0,-188.0,513.0,-165.0,454.0
19:30:46.934000,-189.0,84.0,178.0,-469.0,343.0,-193.0,513.0,-165.0,454.0
19:30:46.938000,-175.0,75.0,141.0,-463.0,249.0,-203.0,513.0,-165.0,454.0
19:30:46.943000,-141.0,60.0,126.0,-461.0,208.0,-215.0,528.0,-162.0,447.0
19:30:46.948000,-100.0,41.0,88.0,-466.0,210.0,-223.0,528.0,-162.0,447.0
19:30:46.953000,-54.0,21.0,46.0,-464.0,225.0,-232.0,532.0,-163.0,441.0
19:30:46.958000,-14.0,1.0,8.0,-460.0,239.0,-238.0,532.0,-163.0,441.0
19:30:46.962000,23.0,-18.0,-8.0,-448.0,244.0,-245.0,532.0,-163.0,441.0
19:30:46.967000,60.0,-41.0,0.0,-438.0,257.0,-251.0,529.0,-162.0,438.0
19:30:46.972000,91.0,-63.0,20.0,-438.0,257.0,-251.0,529.0,-162.0,438.0
19:30:46.976000,111.0,-84.0,49.0,-440.0,291.0,-253.0,532.0,-180.0,444.0
19:30:46.981000,123.0,-100.0,88.0,-446.0,331.0,-252.0,532.0,-180.0,444.0
19:30:46.985000,123.0,-116.0,142.0,-444.0,358.0,-249.0,532.0,-180.0,444.0
19:30:46.990000,118.0,-130.0,207.0,-431.0,369.0,-241.0,529.0,-168.0,445.0
19:30:46.995000,105.0,-138.0,277.0,-410.0,376.0,-231.0,529.0,-168.0,445.0
19:30:47.000000,87.0,-141.0,344.0,-397.0,386.0,-221.0,529.0,-163.0,435.0
19:30:47.005000,65.0,-140.0,403.0,-397.0,396.0,-211.0,529.0,-163.0,435.0
19:30:47.009000,65.0,-140.0,403.0,-397.0,396.0,-201.0,529.0,-163.0,435.0
19:30:47.014000,17.0,-126.0,488.0,-400.0,386.0,-193.0,543.0,-169.0,439.0
19:30:47.019000,17.0,-126.0,488.0,-406.0,374.0,-184.0,543.0,-169.0,439.0
19:30:47.023000,-5.0,-113.0,504.0,-411.0,361.0,-173.0,538.0,-168.0,450.0
19:30:47.028000,-31.0,-95.0,500.0,-417.0,341.0,-162.0,538.0,-168.0,450.0
19:30:47.032000,-56.0,-77.0,485.0,-422.0,319.0,-152.0,538.0,-168.0,450.0
19:30:47.037000,-79.0,-60.0,461.0,-420.0,295.0,-146.0,547.0,-165.0,441.0
19:30:47.042000,-101.0,-42.0,434.0,-418.0,266.0,-144.0,547.0,-165.0,441.0
19:30:47.047000,-118.0,-26.0,403.0,-419.0,233.0,-144.0,549.0,-168.0,444.0
19:30:47.052000,-130.0,-14.0,370.0,-421.0,202.0,-147.0,549.0,-168.0,444.0
19:30:47.056000,-135.0,-6.0,336.0,-421.0,179.0,-150.0,549.0,-168.0,444.0
19:30:47.061000,-137.0,0.0,306.0,-418.0,161.0,-151.0,550.0,-171.0,442.0
19:30:47.066000,-133.0,-1.0,286.0,-410.0,145.0,-151.0,550.0,-171.0,442.0
19:30:47.070000,-122.0,-9.0,274.0,-410.0,145.0,-151.0,547.0,-177.0,435.0
19:30:47.075000,-107.0,-22.0,265.0,-391.0,123.0,-148.0,547.0,-177.0,435.0
19:30:47.079000,-87.0,-39.0,267.0,-391.0,116.0,-148.0,547.0,-177.0,435.0
19:30:47.084000,-64.0,-58.0,276.0,-383.0,116.0,-146.0,561.0,-178.0,445.0
19:30:47.089000,-44.0,-77.0,298.0,-387.0,110.0,-143.0,561.0,-178.0,445.0
19:30:47.094000,-27.0,-96.0,315.0,-405.0,110.0,-139.0,550.0,-178.0,438.0
19:30:47.099000,-12.0,-112.0,324.0,-422.0,119.0,-134.0,550.0,-178.0,438.0
19:30:47.106000,0.0,-123.0,335.0,-439.0,126.0,-126.0,558.0,-190.0,451.0
19:30:47.108000,11.0,-133.0,345.0,-439.0,126.0,-126.0,558.0,-190.0,451.0
19:30:47.112000,18.0,-142.0,349.0,-452.0,133.0,-124.0,558.0,-190.0,451.0
19:30:47.117000,25.0,-149.0,343.0,-469.0,143.0,-125.0,558.0,-184.0,435.0
19:30:47.122000,28.0,-156.0,331.0,-488.0,154.0,-126.0,558.0,-184.0,435.0
19:30:47.126000,28.0,-156.0,331.0,-502.0,162.0,-126.0,556.0,-186.0,441.0
19:30:47.131000,28.0,-163.0,324.0,-514.0,171.0,-126.0,556.0,-186.0,441.0
19:30:47.136000,24.0,-171.0,324.0,-521.0,183.0,-123.0,556.0,-186.0,441.0
19:30:47.141000,15.0,-179.0,327.0,-520.0,191.0,-119.0,562.0,-186.0,436.0
19:30:47.145000,2.0,-188.0,334.0,-512.0,194.0,-116.0,562.0,-186.0,436.0
19:30:47.150000,-9.0,-198.0,344.0,-504.0,195.0,-111.0,568.0,-186.0,436.0
19:30:47.155000,-19.0,-210.0,355.0,-500.0,195.0,-107.0,568.0,-186.0,436.0
19:30:47.160000,-30.0,-218.0,365.0,-504.0,193.0,-103.0,558.0,-195.0,432.0
19:30:47.164000,-36.0,-226.0,375.0,-517.0,183.0,-100.0,558.0,-195.0,432.0
19:30:47.168000,-38.0,-237.0,383.0,-533.0,167.0,-97.0,558.0,-195.0,432.0
19:30:47.174000,-37.0,-247.0,389.0,-543.0,147.0,-92.0,564.0,-190.0,439.0
19:30:47.178000,-31.0,-255.0,394.0,-545.0,128.0,-83.0,564.0,-190.0,439.0
19:30:47.183000,-21.0,-263.0,395.0,-545.0,128.0,-83.0,570.0,-195.0,432.0
19:30:47.188000,-9.0,-269.0,390.0,-535.0,116.0,-70.0,570.0,-195.0,432.0
19:30:47.192000,1.0,-272.0,382.0,-535.0,121.0,-72.0,570.0,-195.0,432.0
19:30:47.197000,11.0,-269.0,372.0,-535.0,121.0,-72.0,574.0,-183.0,442.0
19:30:47.202000,9.0,-263.0,359.0,-544.0,138.0,-76.0,574.0,-183.0,442.0
19:30:47.207000,-1.0,-249.0,349.0,-557.0,160.0,-79.0,580.0,-204.0,435.0
19:30:47.211000,-19.0,-228.0,346.0,-569.0,168.0,-78.0,580.0,-204.0,435.0
19:30:47.215000,-38.0,-210.0,344.0,-574.0,153.0,-71.0,580.0,-204.0,435.0
19:30:47.221000,-51.0,-196.0,340.0,-569.0,121.0,-66.0,583.0,-193.0,423.0
19:30:47.225000,-56.0,-185.0,330.0,-562.0,89.0,-66.0,583.0,-193.0,423.0
19:30:47.230000,-55.0,-176.0,311.0,-568.0,71.0,-70.0,577.0,-202.0,430.0
19:30:47.235000,-53.0,-162.0,280.0,-591.0,73.0,-76.0,577.0,-202.0,430.0
19:30:47.239000,-53.0,-162.0,280.0,-626.0,91.0,-81.0,576.0,-202.0,429.0
19:30:47.244000,-55.0,-146.0,245.0,-659.0,105.0,-84.0,576.0,-202.0,429.0
19:30:47.248000,-58.0,-128.0,214.0,-679.0,103.0,-87.0,576.0,-202.0,429.0
19:30:47.254000,-60.0,-109.0,193.0,-685.0,85.0,-92.0,573.0,-211.0,442.0
19:30:47.258000,-53.0,-92.0,178.0,-685.0,66.0,-96.0,573.0,-211.0,442.0
19:30:47.263000,-41.0,-77.0,167.0,-684.0,63.0,-101.0,597.0,-210.0,429.0
19:30:47.268000,-28.0,-62.0,158.0,-682.0,71.0,-104.0,597.0,-210.0,429.0
19:30:47.272000,-21.0,-47.0,156.0,-676.0,77.0,-104.0,597.0,-210.0,429.0
19:30:47.277000,-18.0,-32.0,163.0,-666.0,81.0,-108.0,586.0,-205.0,417.0
19:30:47.282000,-20.0,-18.0,174.0,-657.0,89.0,-117.0,586.0,-205.0,417.0
19:30:47.286000,-24.0,-3.0,177.0,-652.0,104.0,-129.0,582.0,-216.0,418.0
19:30:47.291000,-32.0,10.0,175.0,-655.0,119.0,-141.0,582.0,-216.0,418.0
19:30:47.295000,-41.0,26.0,172.0,-664.0,123.0,-150.0,582.0,-216.0,418.0
19:30:47.301000,-51.0,42.0,171.0,-664.0,123.0,-150.0,592.0,-217.0,418.0
19:30:47.305000,-59.0,53.0,168.0,-677.0,118.0,-157.0,592.0,-217.0,418.0
19:30:47.310000,-63.0,63.0,163.0,-690.0,106.0,-163.0,588.0,-216.0,433.0
19:30:47.315000,-67.0,69.0,157.0,-701.0,94.0,-171.0,588.0,-216.0,433.0
19:30:47.319000,-70.0,72.0,151.0,-717.0,92.0,-177.0,588.0,-216.0,433.0
19:30:47.324000,-74.0,75.0,147.0,-735.0,100.0,-185.0,586.0,-202.0,423.0
19:30:47.329000,-78.0,77.0,144.0,-756.0,116.0,-196.0,586.0,-202.0,423.0
19:30:47.333000,-78.0,77.0,144.0,-781.0,137.0,-207.0,588.0,-213.0,436.0
19:30:47.338000,-83.0,76.0,130.0,-807.0,159.0,-222.0,588.0,-213.0,436.0
19:30:47.342000,-83.0,76.0,130.0,-832.0,186.0,-235.0,588.0,-213.0,436.0
19:30:47.348000,-84.0,73.0,123.0,-852.0,216.0,-246.0,588.0,-216.0,427.0
19:30:47.352000,-87.0,67.0,123.0,-859.0,235.0,-252.0,588.0,-216.0,427.0
19:30:47.357000,-92.0,61.0,135.0,-853.0,238.0,-255.0,576.0,-210.0,421.0
19:30:47.362000,-99.0,53.0,160.0,-845.0,233.0,-258.0,576.0,-210.0,421.0
19:30:47.366000,-104.0,45.0,193.0,-837.0,229.0,-260.0,576.0,-210.0,421.0
19:30:47.371000,-108.0,35.0,231.0,-831.0,228.0,-260.0,589.0,-217.0,424.0
19:30:47.376000,-114.0,28.0,276.0,-830.0,227.0,-258.0,589.0,-217.0,424.0
19:30:47.381000,-118.0,17.0,323.0,-834.0,224.0,-258.0,585.0,-217.0,430.0
19:30:47.385000,-119.0,5.0,364.0,-847.0,224.0,-260.0,585.0,-217.0,430.0
19:30:47.389000,-116.0,-4.0,389.0,-870.0,236.0,-261.0,585.0,-217.0,430.0
19:30:47.395000,-116.0,-11.0,401.0,-896.0,265.0,-259.0,576.0,-219.0,430.0
19:30:47.399000,-121.0,-15.0,407.0,-913.0,296.0,-257.0,576.0,-219.0,430.0
19:30:47.404000,-127.0,-18.0,411.0,-913.0,296.0,-257.0,588.0,-220.0,429.0
19:30:47.409000,-130.0,-21.0,408.0,-916.0,364.0,-256.0,588.0,-220.0,429.0
19:30:47.413000,-133.0,-24.0,395.0,-912.0,364.0,-258.0,588.0,-220.0,429.0
19:30:47.418000,-132.0,-28.0,371.0,-904.0,415.0,-260.0,585.0,-228.0,420.0
19:30:47.423000,-128.0,-35.0,333.0,-892.0,568.0,-283.0,585.0,-228.0,420.0
19:30:47.428000,-123.0,-40.0,282.0,-892.0,568.0,-283.0,588.0,-228.0,442.0
19:30:47.432000,-121.0,-42.0,223.0,-891.0,670.0,-301.0,588.0,-228.0,442.0
19:30:47.436000,-121.0,-41.0,164.0,-889.0,779.0,-322.0,588.0,-228.0,442.0
19:30:47.442000,-126.0,-35.0,112.0,-889.0,887.0,-348.0,588.0,-232.0,424.0
19:30:47.446000,-135.0,-23.0,73.0,-899.0,988.0,-371.0,588.0,-232.0,424.0
19:30:47.451000,-140.0,-3.0,51.0,-912.0,1067.0,-401.0,601.0,-232.0,418.0
19:30:47.456000,-147.0,19.0,53.0,-928.0,1107.0,-421.0,601.0,-232.0,418.0
19:30:47.460000,-147.0,19.0,53.0,-935.0,1094.0,-421.0,601.0,-232.0,418.0
19:30:47.465000,-150.0,43.0,82.0,-909.0,1013.0,-422.0,591.0,-238.0,429.0
19:30:47.470000,-131.0,62.0,134.0,-869.0,889.0,-411.0,591.0,-238.0,429.0
19:30:47.475000,-99.0,71.0,172.0,-821.0,779.0,-376.0,588.0,-235.0,426.0
19:30:47.479000,-62.0,63.0,204.0,-735.0,709.0,-334.0,588.0,-235.0,426.0
19:30:47.483000,-18.0,46.0,256.0,-661.0,694.0,-308.0,588.0,-235.0,426.0
19:30:47.489000,17.0,30.0,277.0,-698.0,773.0,-282.0,589.0,-238.0,427.0
19:30:47.493000,29.0,14.0,219.0,-737.0,833.0,-257.0,589.0,-238.0,427.0
19:30:47.498000,42.0,-16.0,213.0,-669.0,795.0,-243.0,591.0,-241.0,424.0
19:30:47.503000,58.0,-59.0,268.0,-595.0,801.0,-246.0,591.0,-241.0,424.0
19:30:47.507000,70.0,-81.0,267.0,-623.0,931.0,-257.0,591.0,-241.0,424.0
19:30:47.512000,70.0,-102.0,175.0,-740.0,1069.0,-243.0,594.0,-238.0,411.0
19:30:47.517000,59.0,-119.0,109.0,-867.0,1096.0,-222.0,594.0,-238.0,411.0
19:30:47.522000,16.0,-107.0,79.0,-867.0,1096.0,-222.0,574.0,-237.0,430.0
19:30:47.526000,-23.0,-145.0,-181.0,-1307.0,1126.0,-209.0,574.0,-237.0,430.0
19:30:47.530000,-50.0,-128.0,135.0,-1737.0,961.0,-263.0,574.0,-237.0,430.0
19:30:47.536000,-104.0,-119.0,801.0,-1250.0,630.0,-257.0,594.0,-234.0,429.0
19:30:47.540000,-97.0,-89.0,473.0,-629.0,857.0,-234.0,594.0,-234.0,429.0
19:30:47.545000,-133.0,-105.0,-140.0,-761.0,1302.0,-225.0,600.0,-243.0,421.0
19:30:47.550000,-98.0,-100.0,60.0,-668.0,1123.0,-203.0,600.0,-243.0,421.0
19:30:47.554000,-98.0,-100.0,60.0,-348.0,812.0,-223.0,600.0,-243.0,421.0
19:30:47.559000,-67.0,-77.0,252.0,-555.0,894.0,-240.0,598.0,-243.0,426.0
19:30:47.564000,-113.0,-39.0,77.0,-1005.0,1000.0,-266.0,598.0,-243.0,426.0
19:30:47.569000,-113.0,-39.0,77.0,-1240.0,903.0,-281.0,595.0,-249.0,424.0
19:30:47.573000,-126.0,-22.0,37.0,-1266.0,731.0,-305.0,595.0,-249.0,424.0
19:30:47.577000,-140.0,-16.0,63.0,-1339.0,625.0,-334.0,595.0,-249.0,424.0
19:30:47.583000,-137.0,-9.0,70.0,-1286.0,592.0,-340.0,595.0,-249.0,424.0
19:30:47.587000,-114.0,-14.0,108.0,-1145.0,606.0,-375.0,595.0,-249.0,424.0
19:30:47.592000,-95.0,11.0,105.0,-1089.0,631.0,-384.0,601.0,-241.0,424.0
19:30:47.597000,-71.0,11.0,74.0,-1043.0,585.0,-352.0,601.0,-241.0,424.0
19:30:47.601000,-44.0,7.0,61.0,-1026.0,500.0,-381.0,601.0,-241.0,424.0
19:30:47.606000,-17.0,5.0,24.0,-1123.0,495.0,-397.0,604.0,-255.0,427.0
19:30:47.611000,-11.0,15.0,-19.0,-1236.0,431.0,-366.0,604.0,-255.0,427.0
19:30:47.616000,-31.0,2.0,161.0,-1174.0,355.0,-338.0,595.0,-249.0,421.0
19:30:47.620000,-65.0,7.0,298.0,-1049.0,415.0,-319.0,595.0,-249.0,421.0
19:30:47.624000,-79.0,-12.0,311.0,-966.0,452.0,-299.0,595.0,-249.0,421.0
19:30:47.630000,-84.0,-23.0,288.0,-966.0,452.0,-299.0,604.0,-247.0,412.0
19:30:47.634000,-109.0,-36.0,287.0,-888.0,419.0,-278.0,604.0,-247.0,412.0
19:30:47.639000,-117.0,-49.0,269.0,-808.0,364.0,-251.0,594.0,-249.0,423.0
19:30:47.644000,-147.0,-53.0,188.0,-826.0,337.0,-232.0,594.0,-249.0,423.0
19:30:47.651000,-164.0,-68.0,151.0,-1010.0,149.0,-187.0,607.0,-249.0,417.0
19:30:47.653000,-169.0,-89.0,175.0,-1010.0,149.0,-187.0,607.0,-249.0,417.0
19:30:47.657000,-157.0,-119.0,205.0,-1083.0,45.0,-179.0,607.0,-249.0,417.0
19:30:47.663000,-158.0,-131.0,221.0,-1151.0,11.0,-171.0,600.0,-244.0,411.0
19:30:47.667000,-165.0,-130.0,193.0,-1162.0,47.0,-159.0,600.0,-244.0,411.0
19:30:47.672000,-175.0,-116.0,142.0,-1148.0,131.0,-150.0,613.0,-252.0,423.0
19:30:47.677000,-175.0,-116.0,142.0,-1161.0,173.0,-143.0,613.0,-252.0,423.0
19:30:47.681000,-186.0,-96.0,88.0,-1192.0,149.0,-127.0,613.0,-252.0,423.0
19:30:47.686000,-189.0,-74.0,15.0,-1173.0,124.0,-122.0,600.0,-264.0,420.0
19:30:47.691000,-154.0,-67.0,-84.0,-1117.0,93.0,-131.0,600.0,-264.0,420.0
19:30:47.695000,-128.0,-45.0,-140.0,-1111.0,60.0,-141.0,612.0,-259.0,418.0
19:30:47.700000,-100.0,-28.0,-91.0,-1165.0,91.0,-162.0,612.0,-259.0,418.0
19:30:47.704000,-75.0,-9.0,-53.0,-1229.0,155.0,-193.0,612.0,-259.0,418.0
19:30:47.710000,-65.0,21.0,-95.0,-1262.0,184.0,-221.0,595.0,-262.0,409.0
19:30:47.714000,-37.0,44.0,-132.0,-1255.0,193.0,-245.0,595.0,-262.0,409.0
19:30:47.719000,-11.0,65.0,-116.0,-1233.0,211.0,-259.0,600.0,-256.0,420.0
19:30:47.724000,-9.0,91.0,-67.0,-1216.0,246.0,-267.0,600.0,-256.0,420.0
19:30:47.728000,-13.0,112.0,-14.0,-1199.0,273.0,-281.0,600.0,-256.0,420.0
19:30:47.733000,-11.0,126.0,27.0,-1184.0,263.0,-298.0,604.0,-262.0,418.0
19:30:47.738000,-2.0,136.0,30.0,-1173.0,239.0,-307.0,604.0,-262.0,418.0
19:30:47.742000,6.0,145.0,37.0,-1173.0,239.0,-307.0,601.0,-250.0,415.0
19:30:47.747000,2.0,154.0,74.0,-1160.0,218.0,-312.0,601.0,-250.0,415.0
19:30:47.751000,21.0,151.0,103.0,-1155.0,188.0,-324.0,601.0,-250.0,415.0
19:30:47.757000,35.0,149.0,109.0,-1161.0,167.0,-334.0,595.0,-256.0,420.0
19:30:47.761000,44.0,140.0,100.0,-1161.0,164.0,-335.0,595.0,-256.0,420.0
19:30:47.766000,52.0,130.0,97.0,-1139.0,162.0,-337.0,604.0,-255.0,427.0
19:30:47.771000,48.0,119.0,91.0,-1109.0,171.0,-340.0,604.0,-255.0,427.0
19:30:47.775000,48.0,119.0,91.0,-1101.0,197.0,-343.0,604.0,-255.0,427.0
19:30:47.780000,22.0,90.0,83.0,-1101.0,195.0,-341.0,597.0,-258.0,429.0
19:30:47.785000,6.0,80.0,89.0,-1093.0,166.0,-335.0,597.0,-258.0,429.0
19:30:47.789000,6.0,80.0,89.0,-1098.0,180.0,-327.0,597.0,-261.0,433.0
19:30:47.794000,12.0,63.0,39.0,-1110.0,212.0,-317.0,597.0,-261.0,433.0
19:30:47.798000,16.0,52.0,-81.0,-1084.0,190.0,-299.0,597.0,-261.0,433.0
19:30:47.804000,0.0,41.0,-139.0,-1026.0,149.0,-277.0,592.0,-253.0,409.0
19:30:47.808000,-7.0,19.0,-112.0,-978.0,132.0,-261.0,592.0,-253.0,409.0
19:30:47.813000,-7.0,2.0,-58.0,-981.0,141.0,-245.0,601.0,-259.0,421.0
19:30:47.818000,-17.0,-14.0,-32.0,-1013.0,152.0,-231.0,601.0,-259.0,421.0
19:30:47.822000,-16.0,-39.0,-42.0,-1025.0,157.0,-223.0,601.0,-259.0,421.0
19:30:47.827000,-34.0,-40.0,-65.0,-980.0,167.0,-208.0,595.0,-267.0,427.0
19:30:47.832000,-37.0,-57.0,-44.0,-927.0,219.0,-195.0,595.0,-267.0,427.0
19:30:47.836000,-37.0,-77.0,-35.0,-927.0,219.0,-195.0,594.0,-249.0,430.0
19:30:47.841000,-66.0,-86.0,-35.0,-945.0,157.0,-194.0,594.0,-249.0,430.0
19:30:47.845000,-65.0,-81.0,-25.0,-955.0,163.0,-211.0,594.0,-249.0,430.0
19:30:47.851000,-65.0,-78.0,-61.0,-955.0,163.0,-211.0,597.0,-265.0,424.0
19:30:47.855000,-56.0,-73.0,-78.0,-1004.0,210.0,-212.0,597.0,-265.0,424.0
19:30:47.860000,-92.0,-64.0,-62.0,-1021.0,186.0,-198.0,591.0,-258.0,420.0
19:30:47.865000,-100.0,-44.0,-74.0,-1022.0,150.0,-189.0,591.0,-258.0,420.0
19:30:47.869000,-94.0,-44.0,-71.0,-1023.0,131.0,-193.0,591.0,-258.0,420.0
19:30:47.874000,-65.0,-37.0,8.0,-1017.0,79.0,-204.0,604.0,-256.0,423.0
19:30:47.879000,-60.0,-32.0,25.0,-1072.0,29.0,-212.0,604.0,-256.0,423.0
19:30:47.883000,-66.0,8.0,-2.0,-1140.0,14.0,-211.0,585.0,-249.0,421.0
19:30:47.888000,-28.0,9.0,-6.0,-1133.0,29.0,-219.0,585.0,-249.0,421.0
19:30:47.892000,-28.0,9.0,-6.0,-1087.0,75.0,-224.0,585.0,-249.0,421.0
19:30:47.898000,-14.0,21.0,-19.0,-1050.0,128.0,-227.0,585.0,-256.0,424.0
19:30:47.902000,-3.0,29.0,-54.0,-1043.0,104.0,-235.0,585.0,-256.0,424.0
19:30:47.907000,5.0,44.0,-36.0,-1038.0,38.0,-237.0,610.0,-256.0,424.0
19:30:47.912000,37.0,37.0,-12.0,-1050.0,34.0,-238.0,610.0,-256.0,424.0
19:30:47.916000,60.0,44.0,-19.0,-1036.0,88.0,-236.0,610.0,-256.0,424.0
19:30:47.921000,102.0,44.0,-40.0,-1011.0,144.0,-226.0,606.0,-255.0,427.0
19:30:47.926000,134.0,38.0,-58.0,-961.0,144.0,-217.0,606.0,-255.0,427.0
19:30:47.930000,113.0,41.0,-72.0,-956.0,131.0,-217.0,604.0,-252.0,418.0
19:30:47.935000,106.0,37.0,-71.0,-1011.0,192.0,-218.0,604.0,-252.0,418.0
19:30:47.939000,119.0,42.0,-95.0,-1016.0,265.0,-214.0,604.0,-252.0,418.0
19:30:47.945000,124.0,47.0,-127.0,-947.0,241.0,-201.0,592.0,-256.0,412.0
19:30:47.949000,95.0,54.0,-82.0,-907.0,212.0,-189.0,592.0,-256.0,412.0
19:30:47.954000,98.0,56.0,-112.0,-907.0,212.0,-189.0,601.0,-256.0,421.0
19:30:47.959000,71.0,58.0,-116.0,-907.0,238.0,-189.0,601.0,-256.0,421.0
19:30:47.963000,59.0,50.0,-57.0,-909.0,270.0,-185.0,601.0,-256.0,421.0
19:30:47.968000,26.0,51.0,-59.0,-967.0,252.0,-185.0,592.0,-249.0,442.0
19:30:47.973000,1.0,59.0,-65.0,-967.0,252.0,-185.0,592.0,-249.0,442.0
19:30:47.977000,0.0,55.0,-35.0,-984.0,234.0,-193.0,601.0,-247.0,423.0
19:30:47.982000,-29.0,62.0,-71.0,-1025.0,256.0,-198.0,601.0,-247.0,423.0
19:30:47.986000,-42.0,70.0,-98.0,-1044.0,299.0,-202.0,601.0,-247.0,423.0
19:30:47.992000,-84.0,91.0,-97.0,-1029.0,302.0,-209.0,604.0,-253.0,435.0
19:30:47.996000,-90.0,98.0,-90.0,-1026.0,264.0,-219.0,604.0,-253.0,435.0
19:30:48.001000,-128.0,121.0,-114.0,-1055.0,209.0,-224.0,592.0,-249.0,424.0
19:30:48.006000,-128.0,121.0,-114.0,-1098.0,189.0,-235.0,592.0,-249.0,424.0
19:30:48.010000,-83.0,123.0,-121.0,-1109.0,190.0,-245.0,592.0,-249.0,424.0
19:30:48.015000,-87.0,137.0,-60.0,-1109.0,173.0,-249.0,606.0,-249.0,421.0
19:30:48.020000,-86.0,158.0,-39.0,-1130.0,203.0,-258.0,606.0,-249.0,421.0
19:30:48.024000,-56.0,165.0,-109.0,-1108.0,233.0,-260.0,571.0,-256.0,429.0
19:30:48.029000,-63.0,179.0,-135.0,-1052.0,152.0,-265.0,571.0,-256.0,429.0
19:30:48.033000,-70.0,197.0,-103.0,-1052.0,66.0,-273.0,571.0,-256.0,429.0
19:30:48.039000,-34.0,179.0,-91.0,-1098.0,85.0,-277.0,588.0,-244.0,421.0
19:30:48.043000,-32.0,175.0,-65.0,-1131.0,133.0,-290.0,588.0,-244.0,421.0
19:30:48.048000,-15.0,178.0,-71.0,-1114.0,168.0,-304.0,594.0,-253.0,432.0
19:30:48.053000,-30.0,185.0,-135.0,-1057.0,184.0,-305.0,594.0,-253.0,432.0
19:30:48.057000,-31.0,182.0,-156.0,-989.0,203.0,-304.0,594.0,-253.0,432.0
19:30:48.062000,-13.0,158.0,-138.0,-928.0,205.0,-303.0,580.0,-246.0,453.0
19:30:48.067000,-2.0,136.0,-121.0,-928.0,197.0,-303.0,580.0,-246.0,453.0
19:30:48.071000,15.0,119.0,-137.0,-905.0,197.0,-310.0,577.0,-246.0,433.0
19:30:48.076000,32.0,100.0,-189.0,-921.0,205.0,-319.0,577.0,-246.0,433.0
19:30:48.080000,43.0,84.0,-253.0,-942.0,218.0,-324.0,577.0,-246.0,433.0
19:30:48.085000,39.0,72.0,-283.0,-949.0,210.0,-330.0,583.0,-243.0,438.0
19:30:48.090000,20.0,65.0,-296.0,-971.0,193.0,-331.0,583.0,-243.0,438.0
19:30:48.095000,23.0,60.0,-319.0,-1016.0,196.0,-336.0,588.0,-247.0,438.0
19:30:48.100000,29.0,51.0,-350.0,-1058.0,221.0,-340.0,588.0,-247.0,438.0
19:30:48.104000,29.0,51.0,-350.0,-1076.0,235.0,-340.0,574.0,-238.0,430.0
19:30:48.109000,16.0,59.0,-391.0,-1075.0,227.0,-331.0,574.0,-238.0,430.0
19:30:48.113000,16.0,59.0,-391.0,-1065.0,210.0,-321.0,574.0,-238.0,430.0
19:30:48.118000,15.0,65.0,-393.0,-1053.0,188.0,-318.0,573.0,-235.0,445.0
19:30:48.123000,14.0,74.0,-420.0,-1047.0,163.0,-309.0,573.0,-235.0,445.0
19:30:48.128000,36.0,81.0,-448.0,-1055.0,134.0,-306.0,588.0,-231.0,447.0
19:30:48.132000,74.0,79.0,-452.0,-1061.0,109.0,-303.0,588.0,-231.0,447.0
19:30:48.137000,121.0,84.0,-445.0,-1078.0,101.0,-301.0,588.0,-231.0,447.0
19:30:48.142000,159.0,95.0,-435.0,-1114.0,110.0,-293.0,571.0,-232.0,438.0
19:30:48.147000,179.0,114.0,-437.0,-1166.0,143.0,-288.0,571.0,-232.0,438.0
19:30:48.151000,222.0,121.0,-464.0,-1178.0,171.0,-292.0,580.0,-220.0,436.0
19:30:48.156000,220.0,157.0,-489.0,-1144.0,197.0,-292.0,580.0,-220.0,436.0
19:30:48.160000,266.0,163.0,-498.0,-1116.0,223.0,-285.0,580.0,-220.0,436.0
19:30:48.165000,289.0,165.0,-490.0,-1083.0,231.0,-274.0,568.0,-229.0,439.0
19:30:48.170000,287.0,181.0,-486.0,-1079.0,270.0,-268.0,568.0,-229.0,439.0
19:30:48.175000,303.0,181.0,-501.0,-1079.0,270.0,-268.0,583.0,-225.0,439.0
19:30:48.179000,306.0,182.0,-524.0,-1089.0,347.0,-263.0,583.0,-225.0,439.0
19:30:48.184000,282.0,198.0,-533.0,-1072.0,411.0,-264.0,583.0,-225.0,439.0
19:30:48.189000,268.0,203.0,-515.0,-1047.0,449.0,-270.0,559.0,-210.0,438.0
19:30:48.194000,226.0,224.0,-507.0,-1076.0,514.0,-277.0,559.0,-210.0,438.0
19:30:48.198000,195.0,245.0,-518.0,-1076.0,514.0,-277.0,567.0,-204.0,442.0
19:30:48.203000,174.0,260.0,-534.0,-1109.0,539.0,-290.0,567.0,-204.0,442.0
19:30:48.207000,165.0,272.0,-532.0,-1130.0,562.0,-295.0,567.0,-204.0,442.0
19:30:48.212000,149.0,287.0,-520.0,-1131.0,579.0,-303.0,553.0,-207.0,438.0
19:30:48.217000,130.0,299.0,-524.0,-1118.0,569.0,-309.0,553.0,-207.0,438.0
19:30:48.222000,120.0,311.0,-524.0,-1093.0,545.0,-317.0,562.0,-205.0,450.0
19:30:48.226000,120.0,311.0,-524.0,-1070.0,544.0,-330.0,562.0,-205.0,450.0
19:30:48.231000,121.0,312.0,-522.0,-1062.0,538.0,-338.0,562.0,-205.0,450.0
19:30:48.236000,116.0,311.0,-495.0,-1059.0,512.0,-346.0,559.0,-198.0,454.0
19:30:48.241000,128.0,314.0,-469.0,-1059.0,536.0,-360.0,559.0,-198.0,454.0
19:30:48.245000,172.0,306.0,-466.0,-1054.0,572.0,-362.0,525.0,-199.0,447.0
19:30:48.250000,182.0,300.0,-458.0,-1062.0,551.0,-360.0,525.0,-199.0,447.0
19:30:48.254000,187.0,289.0,-427.0,-1090.0,521.0,-362.0,525.0,-199.0,447.0
19:30:48.259000,196.0,275.0,-416.0,-1143.0,540.0,-367.0,538.0,-199.0,444.0
19:30:48.264000,206.0,265.0,-434.0,-1204.0,592.0,-364.0,538.0,-199.0,444.0
19:30:48.269000,189.0,252.0,-456.0,-1182.0,601.0,-362.0,540.0,-178.0,454.0
19:30:48.273000,196.0,234.0,-406.0,-1083.0,589.0,-377.0,540.0,-178.0,454.0
19:30:48.278000,196.0,227.0,-319.0,-1052.0,596.0,-385.0,540.0,-178.0,454.0
19:30:48.283000,191.0,216.0,-242.0,-979.0,618.0,-399.0,532.0,-178.0,462.0
19:30:48.288000,181.0,243.0,-317.0,-979.0,618.0,-399.0,532.0,-178.0,462.0
19:30:48.292000,158.0,250.0,-434.0,-929.0,663.0,-391.0,531.0,-177.0,448.0
19:30:48.297000,142.0,231.0,-359.0,-1043.0,651.0,-379.0,531.0,-177.0,448.0
19:30:48.301000,129.0,234.0,-320.0,-1162.0,601.0,-389.0,531.0,-177.0,448.0
19:30:48.306000,120.0,255.0,-364.0,-1204.0,627.0,-404.0,531.0,-183.0,453.0
19:30:48.311000,94.0,263.0,-403.0,-1152.0,678.0,-400.0,531.0,-183.0,453.0
19:30:48.316000,86.0,287.0,-448.0,-1056.0,697.0,-406.0,532.0,-177.0,454.0
19:30:48.320000,59.0,305.0,-471.0,-1002.0,685.0,-412.0,532.0,-177.0,454.0
19:30:48.325000,59.0,305.0,-471.0,-1010.0,669.0,-406.0,532.0,-172.0,447.0
19:30:48.330000,32.0,338.0,-468.0,-1052.0,670.0,-413.0,532.0,-172.0,447.0
19:30:48.334000,32.0,338.0,-468.0,-1091.0,649.0,-404.0,532.0,-172.0,447.0
19:30:48.339000,13.0,346.0,-432.0,-1096.0,627.0,-399.0,522.0,-172.0,463.0
19:30:48.344000,7.0,349.0,-428.0,-1075.0,629.0,-399.0,522.0,-172.0,463.0
19:30:48.349000,0.0,352.0,-444.0,-1034.0,614.0,-393.0,517.0,-165.0,468.0
19:30:48.353000,-16.0,350.0,-401.0,-1004.0,589.0,-390.0,517.0,-165.0,468.0
19:30:48.357000,-20.0,342.0,-343.0,-997.0,590.0,-389.0,517.0,-165.0,468.0
19:30:48.363000,-21.0,332.0,-315.0,-991.0,591.0,-381.0,514.0,-163.0,465.0
19:30:48.367000,-18.0,312.0,-301.0,-967.0,573.0,-374.0,514.0,-163.0,465.0
19:30:48.372000,-12.0,289.0,-256.0,-919.0,542.0,-368.0,492.0,-166.0,477.0
19:30:48.377000,2.0,261.0,-190.0,-886.0,534.0,-356.0,492.0,-166.0,477.0
19:30:48.381000,20.0,229.0,-144.0,-864.0,539.0,-342.0,492.0,-166.0,477.0
19:30:48.386000,43.0,195.0,-101.0,-829.0,529.0,-325.0,513.0,-163.0,462.0
19:30:48.391000,66.0,161.0,-58.0,-784.0,507.0,-302.0,513.0,-163.0,462.0
19:30:48.396000,92.0,117.0,-8.0,-784.0,507.0,-302.0,495.0,-160.0,471.0
19:30:48.400000,120.0,75.0,39.0,-737.0,484.0,-278.0,495.0,-160.0,471.0
19:30:48.404000,149.0,30.0,93.0,-691.0,461.0,-260.0,495.0,-160.0,471.0
19:30:48.410000,181.0,-19.0,140.0,-657.0,442.0,-241.0,507.0,-168.0,463.0
19:30:48.414000,205.0,-60.0,165.0,-611.0,443.0,-212.0,507.0,-168.0,463.0
19:30:48.419000,221.0,-98.0,198.0,-611.0,443.0,-212.0,507.0,-162.0,462.0
19:30:48.424000,233.0,-131.0,235.0,-585.0,431.0,-202.0,507.0,-162.0,462.0
19:30:48.428000,231.0,-153.0,268.0,-573.0,427.0,-197.0,507.0,-162.0,462.0
19:30:48.433000,216.0,-165.0,289.0,-578.0,436.0,-192.0,505.0,-160.0,459.0
19:30:48.438000,191.0,-166.0,300.0,-589.0,448.0,-192.0,505.0,-160.0,459.0
19:30:48.443000,150.0,-157.0,302.0,-596.0,457.0,-200.0,511.0,-160.0,456.0
19:30:48.447000,150.0,-157.0,302.0,-607.0,467.0,-211.0,511.0,-160.0,456.0
19:30:48.451000,101.0,-140.0,299.0,-622.0,473.0,-220.0,511.0,-160.0,456.0
19:30:48.457000,45.0,-119.0,289.0,-632.0,461.0,-224.0,522.0,-165.0,457.0
19:30:48.461000,-15.0,-99.0,277.0,-627.0,431.0,-227.0,522.0,-165.0,457.0
19:30:48.466000,-70.0,-81.0,263.0,-607.0,391.0,-231.0,517.0,-156.0,459.0
19:30:48.471000,-114.0,-67.0,246.0,-580.0,347.0,-237.0,517.0,-156.0,459.0
19:30:48.475000,-147.0,-58.0,224.0,-555.0,311.0,-243.0,517.0,-156.0,459.0
19:30:48.480000,-163.0,-55.0,203.0,-537.0,288.0,-246.0,516.0,-154.0,460.0
19:30:48.485000,-168.0,-58.0,183.0,-523.0,265.0,-246.0,516.0,-154.0,460.0
19:30:48.490000,-161.0,-69.0,177.0,-507.0,228.0,-240.0,513.0,-168.0,468.0
19:30:48.494000,-145.0,-88.0,184.0,-484.0,183.0,-232.0,513.0,-168.0,468.0
19:30:48.498000,-116.0,-113.0,203.0,-453.0,135.0,-226.0,513.0,-168.0,468.0
19:30:48.504000,-77.0,-142.0,237.0,-428.0,106.0,-219.0,511.0,-172.0,463.0
19:30:48.508000,-37.0,-170.0,275.0,-428.0,106.0,-219.0,511.0,-172.0,463.0
19:30:48.513000,-4.0,-198.0,310.0,-412.0,103.0,-209.0,531.0,-174.0,454.0
19:30:48.518000,24.0,-224.0,345.0,-399.0,112.0,-200.0,531.0,-174.0,454.0
19:30:48.522000,46.0,-247.0,372.0,-392.0,126.0,-192.0,531.0,-174.0,454.0
19:30:48.527000,61.0,-268.0,382.0,-397.0,148.0,-183.0,534.0,-166.0,456.0
19:30:48.532000,71.0,-287.0,373.0,-412.0,173.0,-175.0,534.0,-166.0,456.0
19:30:48.537000,79.0,-300.0,363.0,-430.0,189.0,-174.0,529.0,-178.0,466.0
19:30:48.541000,83.0,-307.0,344.0,-455.0,199.0,-176.0,529.0,-178.0,466.0
19:30:48.545000,83.0,-307.0,344.0,-489.0,212.0,-178.0,529.0,-178.0,466.0
19:30:48.551000,73.0,-303.0,303.0,-520.0,220.0,-180.0,531.0,-171.0,472.0
19:30:48.555000,73.0,-303.0,303.0,-536.0,220.0,-183.0,531.0,-171.0,472.0
19:30:48.560000,64.0,-295.0,292.0,-538.0,215.0,-185.0,538.0,-171.0,456.0
19:30:48.565000,56.0,-285.0,287.0,-533.0,212.0,-185.0,538.0,-171.0,456.0
19:30:48.569000,47.0,-273.0,282.0,-519.0,209.0,-185.0,538.0,-171.0,456.0
19:30:48.574000,39.0,-259.0,283.0,-504.0,202.0,-188.0,543.0,-180.0,450.0
19:30:48.579000,30.0,-243.0,293.0,-495.0,196.0,-193.0,543.0,-180.0,450.0
19:30:48.584000,19.0,-224.0,301.0,-492.0,194.0,-201.0,538.0,-186.0,457.0
19:30:48.588000,3.0,-200.0,306.0,-493.0,192.0,-208.0,538.0,-186.0,457.0
19:30:48.592000,-15.0,-175.0,312.0,-499.0,190.0,-213.0,538.0,-186.0,457.0
19:30:48.598000,-33.0,-150.0,311.0,-510.0,184.0,-217.0,544.0,-174.0,451.0
19:30:48.602000,-51.0,-123.0,300.0,-514.0,167.0,-220.0,544.0,-174.0,451.0
19:30:48.607000,-63.0,-98.0,282.0,-514.0,167.0,-220.0,544.0,-181.0,451.0
19:30:48.612000,-67.0,-79.0,264.0,-486.0,109.0,-220.0,544.0,-181.0,451.0
19:30:48.616000,-63.0,-65.0,247.0,-486.0,109.0,-220.0,544.0,-181.0,451.0
19:30:48.621000,-50.0,-58.0,228.0,-461.0,79.0,-216.0,555.0,-178.0,456.0
19:30:48.626000,-25.0,-60.0,210.0,-433.0,57.0,-208.0,555.0,-178.0,456.0
19:30:48.631000,4.0,-65.0,191.0,-411.0,44.0,-200.0,544.0,-189.0,442.0
19:30:48.635000,37.0,-77.0,172.0,-401.0,43.0,-190.0,544.0,-189.0,442.0
19:30:48.643000,68.0,-91.0,159.0,-405.0,71.0,-170.0,541.0,-186.0,474.0
19:30:48.645000,92.0,-106.0,157.0,-405.0,71.0,-170.0,541.0,-186.0,474.0
19:30:48.649000,92.0,-106.0,157.0,-417.0,89.0,-156.0,541.0,-186.0,474.0
19:30:48.654000,116.0,-129.0,191.0,-427.0,103.0,-146.0,553.0,-189.0,439.0
19:30:48.659000,118.0,-139.0,212.0,-436.0,119.0,-137.0,553.0,-189.0,439.0
19:30:48.664000,118.0,-139.0,212.0,-445.0,143.0,-129.0,549.0,-190.0,451.0
19:30:48.668000,114.0,-147.0,226.0,-456.0,173.0,-122.0,549.0,-190.0,451.0
19:30:48.672000,104.0,-153.0,238.0,-466.0,198.0,-118.0,549.0,-190.0,451.0
19:30:48.678000,88.0,-156.0,249.0,-479.0,214.0,-114.0,556.0,-193.0,451.0
19:30:48.682000,67.0,-161.0,260.0,-487.0,217.0,-109.0,556.0,-193.0,451.0
19:30:48.687000,44.0,-165.0,273.0,-484.0,201.0,-107.0,556.0,-192.0,450.0
19:30:48.692000,22.0,-170.0,287.0,-476.0,178.0,-107.0,556.0,-192.0,450.0
19:30:48.696000,4.0,-179.0,296.0,-472.0,165.0,-106.0,556.0,-192.0,450.0
19:30:48.701000,-11.0,-190.0,296.0,-473.0,158.0,-104.0,543.0,-187.0,441.0
19:30:48.706000,-28.0,-200.0,295.0,-475.0,144.0,-100.0,543.0,-187.0,441.0
19:30:48.711000,-45.0,-207.0,296.0,-479.0,119.0,-96.0,555.0,-195.0,439.0
19:30:48.715000,-59.0,-214.0,296.0,-484.0,98.0,-91.0,555.0,-195.0,439.0
19:30:48.719000,-69.0,-219.0,287.0,-491.0,87.0,-84.0,555.0,-195.0,439.0
19:30:48.725000,-76.0,-224.0,268.0,-491.0,72.0,-84.0,568.0,-193.0,439.0
19:30:48.729000,-75.0,-228.0,244.0,-489.0,72.0,-76.0,568.0,-193.0,439.0
19:30:48.733000,-65.0,-235.0,219.0,-463.0,27.0,-67.0,567.0,-190.0,438.0
19:30:48.739000,-46.0,-244.0,191.0,-463.0,27.0,-67.0,567.0,-190.0,438.0
19:30:48.743000,-22.0,-253.0,157.0,-453.0,23.0,-64.0,567.0,-190.0,438.0
19:30:48.748000,-1.0,-259.0,121.0,-448.0,45.0,-59.0,565.0,-204.0,451.0
19:30:48.753000,9.0,-262.0,98.0,-448.0,83.0,-52.0,565.0,-204.0,451.0
19:30:48.758000,11.0,-261.0,90.0,-450.0,118.0,-45.0,568.0,-201.0,441.0
19:30:48.762000,7.0,-255.0,91.0,-456.0,140.0,-41.0,568.0,-201.0,441.0
19:30:48.766000,7.0,-255.0,91.0,-469.0,146.0,-39.0,568.0,-201.0,441.0
19:30:48.772000,-14.0,-231.0,102.0,-495.0,154.0,-44.0,564.0,-192.0,436.0
19:30:48.776000,-14.0,-231.0,102.0,-531.0,176.0,-52.0,564.0,-192.0,436.0
19:30:48.780000,-30.0,-212.0,98.0,-569.0,201.0,-59.0,570.0,-202.0,448.0
19:30:48.786000,-51.0,-187.0,91.0,-602.0,216.0,-64.0,570.0,-202.0,448.0
19:30:48.790000,-73.0,-164.0,85.0,-619.0,206.0,-69.0,570.0,-202.0,448.0
19:30:48.795000,-88.0,-144.0,82.0,-618.0,174.0,-72.0,571.0,-193.0,424.0
19:30:48.800000,-94.0,-128.0,81.0,-604.0,142.0,-75.0,571.0,-193.0,424.0
19:30:48.805000,-91.0,-116.0,75.0,-585.0,129.0,-79.0,574.0,-199.0,426.0
19:30:48.809000,-84.0,-107.0,66.0,-569.0,132.0,-81.0,574.0,-199.0,426.0
19:30:48.813000,-77.0,-98.0,58.0,-557.0,144.0,-81.0,574.0,-199.0,426.0
19:30:48.819000,-73.0,-88.0,51.0,-553.0,157.0,-81.0,583.0,-198.0,433.0
19:30:48.823000,-73.0,-78.0,45.0,-552.0,163.0,-83.0,583.0,-198.0,433.0
19:30:48.828000,-77.0,-68.0,45.0,-554.0,160.0,-86.0,571.0,-202.0,429.0
19:30:48.833000,-82.0,-62.0,47.0,-558.0,160.0,-88.0,571.0,-202.0,429.0
19:30:48.837000,-92.0,-56.0,52.0,-558.0,160.0,-88.0,573.0,-207.0,433.0
19:30:48.842000,-105.0,-51.0,63.0,-561.0,159.0,-93.0,573.0,-207.0,433.0
19:30:48.846000,-114.0,-51.0,78.0,-559.0,152.0,-103.0,573.0,-207.0,433.0
19:30:48.852000,-125.0,-52.0,94.0,-556.0,148.0,-111.0,570.0,-207.0,423.0
19:30:48.856000,-142.0,-51.0,107.0,-559.0,151.0,-111.0,570.0,-207.0,423.0
19:30:48.861000,-161.0,-49.0,122.0,-558.0,148.0,-108.0,571.0,-207.0,427.0
19:30:48.866000,-170.0,-49.0,135.0,-550.0,122.0,-114.0,571.0,-207.0,427.0
19:30:48.870000,-170.0,-49.0,135.0,-554.0,95.0,-129.0,571.0,-207.0,427.0
19:30:48.875000,-170.0,-57.0,110.0,-586.0,98.0,-144.0,561.0,-210.0,447.0
19:30:48.880000,-171.0,-62.0,82.0,-638.0,122.0,-157.0,561.0,-210.0,447.0
19:30:48.884000,-171.0,-62.0,82.0,-687.0,132.0,-163.0,576.0,-208.0,433.0
19:30:48.889000,-166.0,-65.0,65.0,-722.0,115.0,-168.0,576.0,-208.0,433.0
19:30:48.893000,-151.0,-70.0,63.0,-748.0,90.0,-173.0,576.0,-208.0,433.0
19:30:48.899000,-129.0,-76.0,65.0,-770.0,86.0,-174.0,567.0,-211.0,435.0
19:30:48.903000,-112.0,-81.0,67.0,-783.0,101.0,-172.0,567.0,-211.0,435.0
19:30:48.908000,-102.0,-83.0,74.0,-787.0,114.0,-174.0,573.0,-210.0,427.0
19:30:48.913000,-98.0,-83.0,91.0,-801.0,130.0,-180.0,573.0,-210.0,427.0
19:30:48.920000,-116.0,-88.0,126.0,-865.0,172.0,-186.0,577.0,-204.0,430.0
19:30:48.922000,-116.0,-88.0,126.0,-865.0,172.0,-186.0,577.0,-204.0,430.0
19:30:48.926000,-133.0,-90.0,154.0,-892.0,187.0,-192.0,577.0,-204.0,430.0
19:30:48.931000,-152.0,-90.0,189.0,-919.0,208.0,-198.0,583.0,-216.0,424.0
19:30:48.936000,-172.0,-86.0,215.0,-950.0,237.0,-202.0,583.0,-216.0,424.0
19:30:48.941000,-198.0,-74.0,233.0,-950.0,237.0,-202.0,582.0,-210.0,433.0
19:30:48.946000,-228.0,-62.0,250.0,-980.0,258.0,-204.0,582.0,-210.0,433.0
19:30:48.950000,-259.0,-51.0,271.0,-1005.0,258.0,-208.0,582.0,-210.0,433.0
19:30:48.955000,-292.0,-39.0,293.0,-1029.0,246.0,-212.0,573.0,-208.0,426.0
19:30:48.960000,-325.0,-26.0,314.0,-1065.0,242.0,-220.0,573.0,-208.0,426.0
19:30:48.964000,-357.0,-14.0,330.0,-1065.0,242.0,-220.0,564.0,-220.0,433.0
19:30:48.969000,-385.0,-8.0,339.0,-1070.0,247.0,-224.0,564.0,-220.0,433.0
19:30:48.973000,-406.0,-4.0,341.0,-1063.0,247.0,-228.0,564.0,-220.0,433.0
19:30:48.978000,-418.0,-4.0,338.0,-1048.0,242.0,-230.0,582.0,-225.0,427.0
19:30:48.983000,-422.0,-16.0,337.0,-1027.0,231.0,-230.0,582.0,-225.0,427.0
19:30:48.988000,-421.0,-34.0,334.0,-1001.0,223.0,-226.0,577.0,-219.0,426.0
19:30:48.993000,-421.0,-34.0,334.0,-970.0,231.0,-229.0,577.0,-219.0,426.0
