hh:mm:ss.ms,gyroX[mdps],gyroY[mdps],gyroZ[mdps],accX[mg],accY[mg],accZ[mg],magX[mG],magY[mG],magZ[mG]
19:30:16.767000,-18.0,121.0,79.0,-1135.0,-97.0,-270.0,646.0,-360.0,-1.0
19:30:16.771000,0.0,140.0,63.0,-1193.0,-29.0,-295.0,646.0,-360.0,-1.0
19:30:16.776000,7.0,169.0,37.0,-1250.0,7.0,-311.0,636.0,-360.0,6.0
19:30:16.781000,15.0,196.0,13.0,-1291.0,8.0,-325.0,636.0,-360.0,6.0
19:30:16.785000,27.0,226.0,-18.0,-1322.0,0.0,-336.0,640.0,-366.0,4.0
19:30:16.790000,39.0,249.0,-53.0,-1320.0,-20.0,-340.0,640.0,-366.0,4.0
19:30:16.794000,61.0,261.0,-63.0,-1269.0,-53.0,-339.0,640.0,-366.0,4.0
19:30:16.800000,84.0,272.0,-53.0,-1207.0,-56.0,-338.0,625.0,-369.0,27.0
19:30:16.804000,98.0,288.0,-51.0,-1163.0,-22.0,-336.0,625.0,-369.0,27.0
19:30:16.809000,104.0,296.0,-64.0,-1163.0,-22.0,-336.0,639.0,-354.0,12.0
19:30:16.814000,116.0,303.0,-65.0,-1135.0,6.0,-337.0,639.0,-354.0,12.0
19:30:16.818000,132.0,315.0,-65.0,-1118.0,-3.0,-342.0,639.0,-354.0,12.0
19:30:16.823000,162.0,305.0,-61.0,-1099.0,-20.0,-345.0,648.0,-357.0,7.0
19:30:16.828000,186.0,298.0,-72.0,-1086.0,-19.0,-350.0,648.0,-357.0,7.0
19:30:16.832000,203.0,298.0,-101.0,-1130.0,18.0,-369.0,651.0,-367.0,16.0
19:30:16.837000,217.0,305.0,-133.0,-1130.0,18.0,-369.0,651.0,-367.0,16.0
19:30:16.841000,210.0,312.0,-147.0,-1177.0,35.0,-392.0,651.0,-367.0,16.0
19:30:16.847000,203.0,323.0,-121.0,-1203.0,24.0,-407.0,645.0,-367.0,13.0
19:30:16.851000,201.0,333.0,-105.0,-1194.0,8.0,-408.0,645.0,-367.0,13.0
19:30:16.856000,216.0,339.0,-97.0,-1172.0,18.0,-404.0,649.0,-367.0,6.0
19:30:16.861000,216.0,339.0,-97.0,-1114.0,29.0,-387.0,649.0,-367.0,6.0
19:30:16.865000,236.0,315.0,-57.0,-1052.0,26.0,-375.0,649.0,-367.0,6.0
19:30:16.870000,248.0,304.0,-27.0,-1001.0,-2.0,-372.0,648.0,-370.0,12.0
19:30:16.874000,261.0,284.0,26.0,-1004.0,-16.0,-364.0,648.0,-370.0,12.0
19:30:16.879000,282.0,266.0,38.0,-1044.0,-15.0,-369.0,633.0,-366.0,30.0
19:30:16.884000,285.0,261.0,37.0,-1049.0,-31.0,-368.0,633.0,-366.0,30.0
19:30:16.889000,310.0,241.0,32.0,-1042.0,-14.0,-357.0,649.0,-370.0,18.0
19:30:16.894000,321.0,225.0,-14.0,-974.0,70.0,-336.0,649.0,-370.0,18.0
19:30:16.898000,336.0,196.0,-58.0,-931.0,137.0,-327.0,649.0,-370.0,18.0
19:30:16.903000,336.0,192.0,-62.0,-1002.0,63.0,-337.0,660.0,-358.0,13.0
19:30:16.908000,310.0,196.0,-21.0,-1035.0,-77.0,-336.0,660.0,-358.0,13.0
19:30:16.912000,285.0,214.0,16.0,-1035.0,-77.0,-336.0,661.0,-367.0,25.0
19:30:16.917000,274.0,231.0,-20.0,-994.0,-59.0,-328.0,661.0,-367.0,25.0
19:30:16.921000,317.0,214.0,-74.0,-1042.0,-36.0,-331.0,661.0,-367.0,25.0
19:30:16.926000,335.0,216.0,-125.0,-1042.0,-36.0,-331.0,649.0,-369.0,25.0
19:30:16.931000,350.0,218.0,-135.0,-1076.0,-115.0,-313.0,649.0,-369.0,25.0
19:30:16.936000,363.0,219.0,-181.0,-1067.0,-140.0,-312.0,651.0,-372.0,27.0
19:30:16.941000,382.0,221.0,-294.0,-1060.0,76.0,-336.0,651.0,-372.0,27.0
19:30:16.945000,316.0,270.0,-320.0,-961.0,177.0,-331.0,651.0,-372.0,27.0
19:30:16.950000,324.0,266.0,-227.0,-876.0,85.0,-317.0,655.0,-375.0,28.0
19:30:16.955000,368.0,248.0,-158.0,-963.0,96.0,-344.0,655.0,-375.0,28.0
19:30:16.959000,342.0,262.0,-161.0,-1074.0,69.0,-358.0,664.0,-372.0,25.0
19:30:16.964000,338.0,258.0,-167.0,-1106.0,-18.0,-352.0,664.0,-372.0,25.0
19:30:16.971000,364.0,251.0,-189.0,-1039.0,86.0,-390.0,652.0,-372.0,37.0
19:30:16.973000,364.0,251.0,-189.0,-1039.0,86.0,-390.0,652.0,-372.0,37.0
19:30:16.978000,357.0,252.0,-168.0,-1006.0,126.0,-393.0,652.0,-372.0,37.0
19:30:16.983000,317.0,272.0,-137.0,-1004.0,172.0,-401.0,658.0,-355.0,27.0
19:30:16.988000,317.0,272.0,-160.0,-1017.0,203.0,-405.0,658.0,-355.0,27.0
19:30:16.992000,328.0,261.0,-194.0,-997.0,169.0,-412.0,661.0,-367.0,30.0
19:30:16.997000,331.0,255.0,-219.0,-965.0,126.0,-410.0,661.0,-367.0,30.0
19:30:17.001000,336.0,236.0,-219.0,-954.0,92.0,-404.0,661.0,-367.0,30.0
19:30:17.006000,337.0,226.0,-210.0,-958.0,94.0,-405.0,661.0,-370.0,30.0
19:30:17.011000,326.0,216.0,-191.0,-968.0,119.0,-408.0,661.0,-370.0,30.0
19:30:17.015000,327.0,206.0,-179.0,-990.0,177.0,-414.0,661.0,-373.0,28.0
19:30:17.020000,352.0,180.0,-170.0,-985.0,184.0,-399.0,661.0,-373.0,28.0
19:30:17.025000,336.0,163.0,-148.0,-983.0,137.0,-395.0,661.0,-373.0,28.0
19:30:17.030000,338.0,149.0,-149.0,-983.0,153.0,-401.0,657.0,-373.0,45.0
19:30:17.035000,338.0,136.0,-172.0,-1012.0,153.0,-401.0,657.0,-373.0,45.0
19:30:17.039000,327.0,119.0,-163.0,-1018.0,182.0,-392.0,660.0,-363.0,39.0
19:30:17.044000,303.0,114.0,-140.0,-1010.0,159.0,-386.0,660.0,-363.0,39.0
19:30:17.048000,292.0,105.0,-155.0,-1009.0,129.0,-380.0,660.0,-363.0,39.0
19:30:17.053000,303.0,86.0,-190.0,-1015.0,153.0,-377.0,664.0,-363.0,40.0
19:30:17.058000,294.0,72.0,-195.0,-1007.0,181.0,-375.0,664.0,-363.0,40.0
19:30:17.063000,279.0,63.0,-186.0,-992.0,181.0,-372.0,663.0,-357.0,61.0
19:30:17.067000,269.0,60.0,-190.0,-998.0,193.0,-376.0,663.0,-357.0,61.0
19:30:17.072000,269.0,60.0,-190.0,-985.0,235.0,-376.0,663.0,-357.0,61.0
19:30:17.077000,254.0,58.0,-222.0,-961.0,262.0,-372.0,660.0,-369.0,37.0
19:30:17.082000,254.0,58.0,-222.0,-972.0,234.0,-370.0,660.0,-369.0,37.0
19:30:17.086000,224.0,72.0,-235.0,-998.0,206.0,-376.0,670.0,-354.0,31.0
19:30:17.091000,221.0,79.0,-245.0,-1016.0,215.0,-378.0,670.0,-354.0,31.0
19:30:17.095000,209.0,86.0,-249.0,-1037.0,238.0,-375.0,670.0,-354.0,31.0
19:30:17.100000,198.0,99.0,-258.0,-1048.0,240.0,-374.0,663.0,-372.0,39.0
19:30:17.105000,181.0,112.0,-252.0,-1034.0,208.0,-373.0,663.0,-372.0,39.0
19:30:17.110000,156.0,124.0,-249.0,-1024.0,199.0,-378.0,651.0,-366.0,40.0
19:30:17.114000,150.0,128.0,-268.0,-1014.0,208.0,-381.0,651.0,-366.0,40.0
19:30:17.119000,144.0,129.0,-287.0,-999.0,212.0,-378.0,651.0,-366.0,40.0
19:30:17.124000,138.0,133.0,-293.0,-984.0,224.0,-370.0,673.0,-351.0,40.0
19:30:17.129000,129.0,135.0,-310.0,-970.0,236.0,-367.0,673.0,-351.0,40.0
19:30:17.133000,130.0,138.0,-338.0,-970.0,236.0,-367.0,658.0,-366.0,45.0
19:30:17.138000,133.0,143.0,-359.0,-947.0,169.0,-361.0,658.0,-366.0,45.0
19:30:17.142000,144.0,141.0,-350.0,-947.0,169.0,-361.0,658.0,-366.0,45.0
19:30:17.147000,164.0,130.0,-320.0,-947.0,109.0,-360.0,666.0,-352.0,43.0
19:30:17.161000,221.0,74.0,-441.0,-977.0,191.0,-375.0,673.0,-360.0,43.0
19:30:17.166000,217.0,56.0,-464.0,-949.0,246.0,-375.0,654.0,-348.0,60.0
19:30:17.171000,212.0,41.0,-479.0,-935.0,307.0,-378.0,654.0,-348.0,60.0
19:30:17.175000,212.0,41.0,-479.0,-945.0,364.0,-385.0,654.0,-348.0,60.0
19:30:17.180000,170.0,24.0,-499.0,-962.0,391.0,-392.0,664.0,-357.0,49.0
19:30:17.185000,147.0,18.0,-493.0,-971.0,399.0,-397.0,664.0,-357.0,49.0
19:30:17.190000,147.0,18.0,-493.0,-981.0,416.0,-399.0,667.0,-340.0,42.0
19:30:17.194000,123.0,11.0,-468.0,-993.0,428.0,-401.0,667.0,-340.0,42.0
19:30:17.198000,102.0,6.0,-458.0,-998.0,419.0,-404.0,667.0,-340.0,42.0
19:30:17.204000,84.0,3.0,-462.0,-1001.0,400.0,-406.0,666.0,-337.0,48.0
19:30:17.208000,77.0,0.0,-448.0,-1003.0,383.0,-400.0,666.0,-337.0,48.0
19:30:17.213000,63.0,-4.0,-425.0,-1003.0,373.0,-392.0,663.0,-342.0,46.0
19:30:17.218000,53.0,0.0,-420.0,-1003.0,382.0,-389.0,663.0,-342.0,46.0
19:30:17.222000,63.0,0.0,-449.0,-996.0,370.0,-394.0,663.0,-342.0,46.0
19:30:17.227000,77.0,0.0,-464.0,-998.0,333.0,-390.0,684.0,-327.0,33.0
19:30:17.232000,99.0,-6.0,-458.0,-1011.0,315.0,-381.0,684.0,-327.0,33.0
19:30:17.237000,123.0,-11.0,-463.0,-1011.0,284.0,-381.0,673.0,-334.0,48.0
19:30:17.241000,140.0,-22.0,-480.0,-1005.0,334.0,-397.0,673.0,-334.0,48.0
19:30:17.245000,163.0,-33.0,-506.0,-980.0,392.0,-403.0,673.0,-334.0,48.0
19:30:17.251000,170.0,-40.0,-532.0,-962.0,452.0,-404.0,666.0,-325.0,55.0
19:30:17.255000,163.0,-45.0,-562.0,-962.0,452.0,-404.0,666.0,-325.0,55.0
19:30:17.260000,160.0,-63.0,-569.0,-961.0,501.0,-413.0,669.0,-319.0,46.0
19:30:17.265000,149.0,-77.0,-556.0,-962.0,519.0,-428.0,669.0,-319.0,46.0
19:30:17.269000,140.0,-91.0,-547.0,-969.0,519.0,-429.0,669.0,-319.0,46.0
19:30:17.274000,130.0,-114.0,-529.0,-989.0,531.0,-428.0,666.0,-325.0,45.0
19:30:17.279000,102.0,-127.0,-508.0,-1002.0,543.0,-433.0,666.0,-325.0,45.0
19:30:17.284000,74.0,-140.0,-491.0,-994.0,562.0,-436.0,673.0,-319.0,39.0
19:30:17.288000,48.0,-156.0,-500.0,-984.0,596.0,-438.0,673.0,-319.0,39.0
19:30:17.292000,48.0,-156.0,-500.0,-982.0,613.0,-433.0,673.0,-319.0,39.0
19:30:17.298000,38.0,-184.0,-518.0,-976.0,608.0,-428.0,669.0,-310.0,39.0
19:30:17.302000,19.0,-207.0,-529.0,-951.0,600.0,-431.0,669.0,-310.0,39.0
19:30:17.307000,1.0,-224.0,-535.0,-924.0,603.0,-435.0,651.0,-310.0,48.0
19:30:17.312000,0.0,-242.0,-543.0,-923.0,607.0,-443.0,651.0,-310.0,48.0
19:30:17.316000,-8.0,-252.0,-531.0,-954.0,610.0,-452.0,651.0,-310.0,48.0
19:30:17.321000,-12.0,-262.0,-512.0,-983.0,617.0,-462.0,654.0,-307.0,37.0
19:30:17.326000,-17.0,-264.0,-513.0,-984.0,624.0,-469.0,654.0,-307.0,37.0
19:30:17.331000,-9.0,-269.0,-521.0,-975.0,622.0,-477.0,669.0,-297.0,42.0
19:30:17.335000,0.0,-269.0,-518.0,-994.0,606.0,-482.0,669.0,-297.0,42.0
19:30:17.339000,9.0,-268.0,-492.0,-1054.0,603.0,-484.0,669.0,-297.0,42.0
19:30:17.345000,16.0,-268.0,-480.0,-1121.0,630.0,-488.0,661.0,-292.0,31.0
19:30:17.349000,27.0,-266.0,-486.0,-1153.0,654.0,-493.0,661.0,-292.0,31.0
19:30:17.354000,37.0,-261.0,-472.0,-1153.0,654.0,-493.0,648.0,-292.0,33.0
19:30:17.359000,42.0,-259.0,-445.0,-1073.0,674.0,-485.0,648.0,-292.0,33.0
19:30:17.363000,50.0,-253.0,-442.0,-1073.0,674.0,-485.0,648.0,-292.0,33.0
19:30:17.368000,65.0,-254.0,-433.0,-1046.0,705.0,-479.0,666.0,-291.0,31.0
19:30:17.373000,66.0,-254.0,-415.0,-1050.0,709.0,-462.0,666.0,-291.0,31.0
19:30:17.378000,70.0,-251.0,-397.0,-1046.0,698.0,-450.0,658.0,-280.0,28.0
19:30:17.382000,75.0,-256.0,-367.0,-1037.0,674.0,-436.0,658.0,-280.0,28.0
19:30:17.386000,85.0,-268.0,-361.0,-1031.0,667.0,-413.0,658.0,-280.0,28.0
19:30:17.392000,96.0,-286.0,-366.0,-1036.0,694.0,-394.0,661.0,-279.0,19.0
19:30:17.396000,106.0,-310.0,-343.0,-1021.0,693.0,-378.0,661.0,-279.0,19.0
19:30:17.401000,103.0,-325.0,-296.0,-993.0,661.0,-363.0,637.0,-283.0,22.0
19:30:17.406000,111.0,-351.0,-257.0,-1010.0,648.0,-353.0,637.0,-283.0,22.0
19:30:17.410000,111.0,-351.0,-257.0,-1054.0,655.0,-345.0,637.0,-283.0,22.0
19:30:17.415000,108.0,-370.0,-247.0,-1079.0,664.0,-336.0,648.0,-277.0,21.0
19:30:17.420000,99.0,-388.0,-231.0,-1069.0,652.0,-330.0,648.0,-277.0,21.0
19:30:17.425000,96.0,-404.0,-187.0,-1050.0,618.0,-316.0,654.0,-264.0,16.0
19:30:17.429000,84.0,-423.0,-139.0,-1022.0,589.0,-294.0,654.0,-264.0,16.0
19:30:17.433000,74.0,-441.0,-92.0,-958.0,555.0,-272.0,654.0,-264.0,16.0
19:30:17.439000,54.0,-447.0,-39.0,-892.0,513.0,-248.0,634.0,-264.0,34.0
19:30:17.443000,32.0,-443.0,0.0,-840.0,471.0,-226.0,634.0,-264.0,34.0
19:30:17.448000,10.0,-440.0,39.0,-796.0,423.0,-208.0,655.0,-261.0,16.0
19:30:17.453000,-14.0,-433.0,90.0,-778.0,378.0,-199.0,655.0,-261.0,16.0
19:30:17.457000,-37.0,-424.0,127.0,-794.0,350.0,-197.0,655.0,-261.0,16.0
19:30:17.462000,-60.0,-415.0,124.0,-828.0,349.0,-194.0,660.0,-279.0,12.0
19:30:17.467000,-79.0,-412.0,78.0,-847.0,369.0,-194.0,660.0,-279.0,12.0
19:30:17.472000,-99.0,-408.0,17.0,-847.0,369.0,-194.0,648.0,-264.0,13.0
19:30:17.476000,-117.0,-402.0,-32.0,-816.0,398.0,-190.0,648.0,-264.0,13.0
19:30:17.480000,-138.0,-400.0,-56.0,-816.0,398.0,-190.0,648.0,-264.0,13.0
19:30:17.486000,-163.0,-389.0,-60.0,-784.0,405.0,-191.0,654.0,-267.0,4.0
19:30:17.490000,-186.0,-380.0,-75.0,-761.0,419.0,-195.0,654.0,-267.0,4.0
19:30:17.495000,-207.0,-366.0,-102.0,-745.0,436.0,-200.0,643.0,-279.0,-3.0
19:30:17.500000,-235.0,-350.0,-113.0,-717.0,440.0,-200.0,643.0,-279.0,-3.0
19:30:17.504000,-235.0,-350.0,-113.0,-677.0,429.0,-198.0,643.0,-279.0,-3.0
19:30:17.509000,-277.0,-313.0,-87.0,-639.0,411.0,-196.0,643.0,-264.0,-1.0
19:30:17.514000,-292.0,-295.0,-60.0,-605.0,382.0,-189.0,643.0,-264.0,-1.0
19:30:17.519000,-292.0,-295.0,-60.0,-572.0,343.0,-183.0,648.0,-262.0,7.0
19:30:17.523000,-303.0,-280.0,-19.0,-553.0,305.0,-175.0,648.0,-262.0,7.0
19:30:17.527000,-310.0,-268.0,23.0,-547.0,278.0,-171.0,648.0,-262.0,7.0
19:30:17.533000,-307.0,-254.0,46.0,-538.0,256.0,-171.0,645.0,-264.0,-4.0
19:30:17.537000,-292.0,-244.0,49.0,-522.0,231.0,-170.0,645.0,-264.0,-4.0
19:30:17.542000,-274.0,-235.0,49.0,-506.0,207.0,-168.0,652.0,-259.0,6.0
19:30:17.547000,-248.0,-228.0,56.0,-506.0,200.0,-168.0,652.0,-259.0,6.0
19:30:17.551000,-218.0,-224.0,49.0,-512.0,212.0,-167.0,652.0,-259.0,6.0
19:30:17.556000,-188.0,-222.0,32.0,-513.0,227.0,-164.0,651.0,-256.0,3.0
19:30:17.561000,-163.0,-221.0,25.0,-512.0,240.0,-158.0,651.0,-256.0,3.0
19:30:17.566000,-147.0,-220.0,37.0,-509.0,249.0,-151.0,648.0,-256.0,-3.0
19:30:17.570000,-140.0,-220.0,63.0,-507.0,262.0,-142.0,648.0,-256.0,-3.0
19:30:17.574000,-142.0,-219.0,85.0,-500.0,275.0,-131.0,648.0,-256.0,-3.0
19:30:17.580000,-152.0,-217.0,104.0,-500.0,275.0,-131.0,640.0,-255.0,9.0
19:30:17.584000,-169.0,-213.0,133.0,-479.0,276.0,-121.0,640.0,-255.0,9.0
19:30:17.589000,-190.0,-209.0,169.0,-450.0,263.0,-114.0,648.0,-258.0,-7.0
19:30:17.594000,-211.0,-205.0,209.0,-430.0,241.0,-111.0,648.0,-258.0,-7.0
19:30:17.598000,-233.0,-199.0,238.0,-433.0,225.0,-113.0,648.0,-258.0,-7.0
19:30:17.603000,-257.0,-188.0,259.0,-457.0,220.0,-119.0,645.0,-261.0,-1.0
19:30:17.608000,-277.0,-175.0,268.0,-493.0,219.0,-127.0,645.0,-261.0,-1.0
19:30:17.612000,-296.0,-161.0,261.0,-526.0,216.0,-136.0,649.0,-264.0,3.0
19:30:17.617000,-308.0,-149.0,247.0,-546.0,206.0,-148.0,649.0,-264.0,3.0
19:30:17.621000,-308.0,-149.0,247.0,-553.0,186.0,-150.0,649.0,-264.0,3.0
19:30:17.627000,-312.0,-136.0,229.0,-547.0,156.0,-148.0,649.0,-264.0,-10.0
19:30:17.631000,-298.0,-124.0,211.0,-532.0,120.0,-149.0,649.0,-264.0,-10.0
19:30:17.636000,-277.0,-122.0,185.0,-509.0,88.0,-145.0,652.0,-262.0,-4.0
19:30:17.641000,-243.0,-126.0,163.0,-482.0,64.0,-141.0,652.0,-262.0,-4.0
19:30:17.645000,-201.0,-135.0,149.0,-462.0,51.0,-136.0,652.0,-262.0,-4.0
19:30:17.650000,-155.0,-149.0,142.0,-453.0,55.0,-131.0,652.0,-262.0,-10.0
19:30:17.655000,-107.0,-165.0,135.0,-452.0,66.0,-128.0,652.0,-262.0,-10.0
19:30:17.660000,-65.0,-181.0,138.0,-457.0,81.0,-124.0,661.0,-270.0,-9.0
19:30:17.664000,-30.0,-193.0,151.0,-465.0,97.0,-120.0,661.0,-270.0,-9.0
19:30:17.668000,-2.0,-203.0,168.0,-472.0,110.0,-117.0,661.0,-270.0,-9.0
19:30:17.674000,14.0,-208.0,187.0,-479.0,120.0,-115.0,640.0,-259.0,-9.0
19:30:17.678000,27.0,-213.0,212.0,-494.0,130.0,-112.0,640.0,-259.0,-9.0
19:30:17.683000,34.0,-215.0,235.0,-494.0,130.0,-112.0,651.0,-276.0,-6.0
19:30:17.688000,35.0,-213.0,258.0,-537.0,149.0,-109.0,651.0,-276.0,-6.0
19:30:17.692000,28.0,-207.0,286.0,-537.0,149.0,-109.0,651.0,-276.0,-6.0
19:30:17.697000,19.0,-199.0,324.0,-553.0,144.0,-107.0,658.0,-271.0,-15.0
19:30:17.701000,14.0,-191.0,345.0,-584.0,158.0,-101.0,658.0,-271.0,-15.0
19:30:17.707000,6.0,-180.0,352.0,-584.0,158.0,-101.0,661.0,-265.0,9.0
19:30:17.711000,-3.0,-170.0,366.0,-581.0,160.0,-100.0,661.0,-265.0,9.0
19:30:17.716000,-11.0,-158.0,376.0,-577.0,162.0,-99.0,648.0,-274.0,-16.0
19:30:17.721000,-24.0,-144.0,381.0,-578.0,172.0,-96.0,648.0,-274.0,-16.0
19:30:17.725000,-24.0,-144.0,381.0,-574.0,174.0,-91.0,648.0,-274.0,-16.0
19:30:17.730000,-49.0,-122.0,395.0,-560.0,163.0,-85.0,651.0,-277.0,-18.0
19:30:17.735000,-52.0,-114.0,394.0,-541.0,150.0,-81.0,651.0,-277.0,-18.0
19:30:17.739000,-52.0,-114.0,394.0,-524.0,143.0,-80.0,652.0,-279.0,-27.0
19:30:17.744000,-52.0,-110.0,382.0,-512.0,143.0,-80.0,652.0,-279.0,-27.0
19:30:17.748000,-47.0,-112.0,371.0,-510.0,152.0,-81.0,652.0,-279.0,-27.0
19:30:17.754000,-38.0,-114.0,350.0,-516.0,161.0,-82.0,657.0,-276.0,-19.0
19:30:17.758000,-30.0,-119.0,335.0,-522.0,157.0,-81.0,657.0,-276.0,-19.0
19:30:17.763000,-25.0,-125.0,333.0,-523.0,139.0,-78.0,645.0,-285.0,-22.0
19:30:17.768000,-20.0,-133.0,342.0,-517.0,118.0,-76.0,645.0,-285.0,-22.0
19:30:17.772000,-15.0,-142.0,357.0,-512.0,106.0,-73.0,645.0,-285.0,-22.0
19:30:17.777000,-12.0,-150.0,370.0,-514.0,108.0,-71.0,652.0,-292.0,-22.0
19:30:17.782000,-11.0,-158.0,382.0,-523.0,113.0,-71.0,652.0,-292.0,-22.0
19:30:17.786000,-14.0,-163.0,398.0,-542.0,112.0,-71.0,655.0,-294.0,-19.0
19:30:17.791000,-19.0,-166.0,414.0,-565.0,105.0,-71.0,655.0,-294.0,-19.0
19:30:17.805000,-39.0,-162.0,441.0,-605.0,90.0,-73.0,652.0,-292.0,-16.0
19:30:17.810000,-44.0,-161.0,434.0,-621.0,95.0,-74.0,646.0,-291.0,-15.0
19:30:17.815000,-51.0,-158.0,420.0,-636.0,110.0,-74.0,646.0,-291.0,-15.0
19:30:17.819000,-61.0,-157.0,406.0,-648.0,126.0,-73.0,651.0,-294.0,-27.0
19:30:17.824000,-72.0,-152.0,399.0,-655.0,132.0,-72.0,651.0,-294.0,-27.0
19:30:17.828000,-83.0,-149.0,393.0,-654.0,127.0,-71.0,651.0,-294.0,-27.0
19:30:17.833000,-91.0,-145.0,382.0,-649.0,119.0,-75.0,658.0,-295.0,-30.0
19:30:17.838000,-100.0,-142.0,369.0,-643.0,118.0,-82.0,658.0,-295.0,-30.0
19:30:17.843000,-113.0,-135.0,359.0,-641.0,124.0,-89.0,652.0,-306.0,-28.0
19:30:17.848000,-113.0,-135.0,359.0,-642.0,128.0,-99.0,652.0,-306.0,-28.0
19:30:17.852000,-126.0,-126.0,356.0,-646.0,120.0,-107.0,648.0,-309.0,-18.0
19:30:17.857000,-138.0,-116.0,355.0,-654.0,102.0,-111.0,648.0,-309.0,-18.0
19:30:17.861000,-147.0,-106.0,355.0,-661.0,76.0,-113.0,648.0,-309.0,-18.0
19:30:17.866000,-152.0,-97.0,354.0,-665.0,42.0,-115.0,649.0,-313.0,-39.0
19:30:17.871000,-150.0,-91.0,352.0,-664.0,11.0,-117.0,649.0,-313.0,-39.0
19:30:17.876000,-141.0,-88.0,349.0,-663.0,-11.0,-120.0,660.0,-318.0,-37.0
19:30:17.880000,-128.0,-85.0,345.0,-666.0,-19.0,-123.0,660.0,-318.0,-37.0
19:30:17.885000,-116.0,-82.0,338.0,-671.0,-16.0,-123.0,660.0,-318.0,-37.0
19:30:17.890000,-107.0,-79.0,334.0,-671.0,-12.0,-122.0,648.0,-315.0,-31.0
19:30:17.895000,-100.0,-79.0,334.0,-665.0,-10.0,-123.0,648.0,-315.0,-31.0
19:30:17.899000,-95.0,-82.0,337.0,-665.0,-10.0,-123.0,652.0,-309.0,-34.0
19:30:17.904000,-91.0,-85.0,334.0,-661.0,21.0,-129.0,652.0,-309.0,-34.0
19:30:17.908000,-88.0,-86.0,322.0,-661.0,21.0,-129.0,652.0,-309.0,-34.0
19:30:17.913000,-89.0,-86.0,317.0,-657.0,40.0,-132.0,655.0,-312.0,-39.0
19:30:17.918000,-91.0,-83.0,324.0,-647.0,45.0,-136.0,655.0,-312.0,-39.0
19:30:17.923000,-91.0,-79.0,330.0,-648.0,44.0,-143.0,651.0,-327.0,-37.0
19:30:17.927000,-91.0,-72.0,334.0,-663.0,40.0,-150.0,651.0,-327.0,-37.0
19:30:17.932000,-90.0,-63.0,338.0,-681.0,35.0,-156.0,651.0,-327.0,-37.0
19:30:17.937000,-85.0,-53.0,343.0,-697.0,30.0,-162.0,643.0,-327.0,-40.0
19:30:17.942000,-76.0,-43.0,349.0,-708.0,20.0,-168.0,643.0,-327.0,-40.0
19:30:17.946000,-65.0,-33.0,353.0,-716.0,11.0,-173.0,643.0,-324.0,-27.0
19:30:17.951000,-51.0,-23.0,356.0,-729.0,10.0,-177.0,643.0,-324.0,-27.0
19:30:17.955000,-51.0,-23.0,356.0,-744.0,10.0,-179.0,643.0,-324.0,-27.0
19:30:17.960000,-39.0,-14.0,360.0,-753.0,6.0,-177.0,652.0,-331.0,-42.0
19:30:17.965000,-28.0,-3.0,368.0,-755.0,0.0,-176.0,652.0,-331.0,-42.0
19:30:17.970000,-14.0,5.0,373.0,-757.0,0.0,-176.0,642.0,-334.0,-40.0
19:30:17.974000,-2.0,14.0,368.0,-767.0,15.0,-176.0,642.0,-334.0,-40.0
19:30:17.979000,9.0,23.0,355.0,-785.0,39.0,-179.0,642.0,-334.0,-40.0
19:30:17.984000,18.0,33.0,342.0,-817.0,65.0,-181.0,651.0,-342.0,-46.0
19:30:17.988000,24.0,43.0,331.0,-861.0,91.0,-180.0,651.0,-342.0,-46.0
19:30:17.993000,23.0,53.0,317.0,-902.0,112.0,-179.0,657.0,-337.0,-40.0
19:30:17.998000,16.0,59.0,303.0,-925.0,119.0,-173.0,657.0,-337.0,-40.0
19:30:18.002000,10.0,64.0,294.0,-924.0,109.0,-164.0,657.0,-337.0,-40.0
19:30:18.007000,3.0,65.0,297.0,-906.0,93.0,-159.0,643.0,-337.0,-45.0
19:30:18.012000,0.0,61.0,303.0,-888.0,94.0,-160.0,643.0,-337.0,-45.0
19:30:18.017000,0.0,56.0,303.0,-888.0,94.0,-160.0,642.0,-342.0,-49.0
19:30:18.021000,0.0,53.0,295.0,-882.0,127.0,-166.0,642.0,-342.0,-49.0
19:30:18.026000,-4.0,49.0,280.0,-889.0,186.0,-174.0,642.0,-342.0,-49.0
19:30:18.031000,-15.0,45.0,263.0,-901.0,247.0,-185.0,655.0,-340.0,-48.0
19:30:18.036000,-27.0,42.0,248.0,-919.0,328.0,-212.0,655.0,-340.0,-48.0
19:30:18.040000,-44.0,42.0,233.0,-919.0,328.0,-212.0,651.0,-342.0,-48.0
19:30:18.045000,-64.0,42.0,221.0,-927.0,345.0,-221.0,651.0,-342.0,-48.0
19:30:18.049000,-78.0,39.0,221.0,-922.0,341.0,-233.0,651.0,-342.0,-48.0
19:30:18.054000,-85.0,35.0,224.0,-907.0,331.0,-247.0,645.0,-352.0,-48.0
19:30:18.059000,-88.0,28.0,214.0,-894.0,355.0,-262.0,645.0,-352.0,-48.0
19:30:18.064000,-93.0,23.0,184.0,-891.0,434.0,-283.0,645.0,-351.0,-49.0
19:30:18.068000,-93.0,23.0,184.0,-897.0,546.0,-305.0,645.0,-351.0,-49.0
19:30:18.073000,-100.0,23.0,148.0,-911.0,661.0,-323.0,645.0,-351.0,-49.0
19:30:18.078000,-102.0,28.0,101.0,-928.0,757.0,-341.0,652.0,-355.0,-45.0
19:30:18.083000,-101.0,20.0,49.0,-939.0,828.0,-358.0,652.0,-355.0,-45.0
19:30:18.087000,-95.0,14.0,0.0,-949.0,908.0,-377.0,631.0,-346.0,-31.0
19:30:18.092000,-80.0,-3.0,-53.0,-964.0,1016.0,-378.0,631.0,-346.0,-31.0
19:30:18.096000,-84.0,-6.0,-112.0,-982.0,1118.0,-374.0,631.0,-346.0,-31.0
19:30:18.101000,-92.0,0.0,-158.0,-982.0,1165.0,-368.0,646.0,-348.0,-48.0
19:30:18.106000,-102.0,7.0,-175.0,-921.0,1109.0,-339.0,646.0,-348.0,-48.0
19:30:18.111000,-110.0,9.0,-130.0,-798.0,950.0,-309.0,642.0,-345.0,-45.0
19:30:18.115000,-100.0,7.0,-28.0,-700.0,787.0,-292.0,642.0,-345.0,-45.0
19:30:18.120000,-49.0,-7.0,49.0,-671.0,731.0,-280.0,642.0,-345.0,-45.0
19:30:18.125000,11.0,-21.0,63.0,-638.0,755.0,-258.0,634.0,-354.0,-52.0
19:30:18.130000,36.0,-21.0,122.0,-603.0,808.0,-229.0,634.0,-354.0,-52.0
19:30:18.134000,59.0,-21.0,220.0,-603.0,808.0,-229.0,640.0,-357.0,-42.0
19:30:18.139000,71.0,-14.0,296.0,-637.0,847.0,-219.0,640.0,-357.0,-42.0
19:30:18.143000,94.0,-18.0,319.0,-697.0,856.0,-217.0,640.0,-357.0,-42.0
19:30:18.148000,87.0,-4.0,331.0,-747.0,857.0,-214.0,631.0,-351.0,-49.0
19:30:18.153000,80.0,-17.0,264.0,-854.0,848.0,-201.0,631.0,-351.0,-49.0
19:30:18.158000,37.0,5.0,140.0,-1318.0,846.0,-195.0,643.0,-348.0,-54.0
19:30:18.162000,-18.0,62.0,542.0,-1333.0,748.0,-220.0,643.0,-348.0,-54.0
19:30:18.167000,-18.0,62.0,542.0,-877.0,720.0,-225.0,643.0,-348.0,-54.0
19:30:18.172000,21.0,72.0,623.0,-785.0,905.0,-227.0,646.0,-360.0,-54.0
19:30:18.177000,21.0,72.0,623.0,-832.0,1083.0,-257.0,646.0,-360.0,-54.0
19:30:18.181000,44.0,78.0,266.0,-920.0,1081.0,-271.0,622.0,-363.0,-52.0
19:30:18.186000,-6.0,112.0,32.0,-965.0,899.0,-276.0,622.0,-363.0,-52.0
19:30:18.190000,-49.0,130.0,82.0,-1016.0,729.0,-297.0,622.0,-363.0,-52.0
19:30:18.195000,-74.0,143.0,245.0,-1120.0,676.0,-334.0,634.0,-367.0,-49.0
19:30:18.200000,-56.0,146.0,318.0,-1239.0,698.0,-367.0,634.0,-367.0,-49.0
19:30:18.205000,-39.0,149.0,266.0,-1327.0,709.0,-394.0,643.0,-360.0,-45.0
19:30:18.209000,-37.0,158.0,211.0,-1323.0,682.0,-426.0,643.0,-360.0,-45.0
19:30:18.214000,-28.0,149.0,223.0,-1285.0,660.0,-452.0,643.0,-360.0,-45.0
19:30:18.219000,-28.0,144.0,249.0,-1359.0,686.0,-482.0,640.0,-360.0,-55.0
19:30:18.224000,-42.0,147.0,221.0,-1410.0,679.0,-467.0,640.0,-360.0,-55.0
19:30:18.228000,-84.0,137.0,273.0,-1410.0,679.0,-467.0,633.0,-378.0,-58.0
19:30:18.233000,-100.0,133.0,294.0,-1300.0,635.0,-461.0,633.0,-378.0,-58.0
19:30:18.237000,-150.0,127.0,320.0,-1300.0,635.0,-461.0,633.0,-378.0,-58.0
19:30:18.242000,-191.0,135.0,298.0,-1250.0,553.0,-444.0,637.0,-375.0,-57.0
19:30:18.247000,-215.0,133.0,265.0,-1214.0,508.0,-428.0,637.0,-375.0,-57.0
19:30:18.252000,-207.0,121.0,245.0,-1178.0,450.0,-410.0,642.0,-376.0,-49.0
19:30:18.256000,-196.0,116.0,202.0,-1155.0,390.0,-409.0,642.0,-376.0,-49.0
19:30:18.261000,-192.0,116.0,165.0,-1161.0,344.0,-401.0,642.0,-376.0,-49.0
19:30:18.266000,-189.0,116.0,140.0,-1185.0,289.0,-389.0,631.0,-376.0,-40.0
19:30:18.271000,-180.0,100.0,110.0,-1179.0,219.0,-376.0,631.0,-376.0,-40.0
19:30:18.275000,-174.0,89.0,117.0,-1146.0,154.0,-357.0,643.0,-375.0,-58.0
19:30:18.280000,-144.0,58.0,145.0,-1144.0,110.0,-334.0,643.0,-375.0,-58.0
19:30:18.284000,-144.0,58.0,145.0,-1181.0,84.0,-310.0,643.0,-375.0,-58.0
19:30:18.289000,-128.0,30.0,161.0,-1217.0,76.0,-290.0,625.0,-367.0,-51.0
19:30:18.294000,-93.0,-14.0,168.0,-1234.0,66.0,-260.0,625.0,-367.0,-51.0
19:30:18.299000,-129.0,1.0,171.0,-1223.0,35.0,-229.0,648.0,-379.0,-58.0
19:30:18.303000,-142.0,16.0,172.0,-1202.0,17.0,-198.0,648.0,-379.0,-58.0
19:30:18.308000,-139.0,8.0,178.0,-1163.0,6.0,-149.0,648.0,-379.0,-58.0
19:30:18.313000,-150.0,-13.0,207.0,-1106.0,-29.0,-126.0,643.0,-372.0,-54.0
19:30:18.318000,-149.0,-3.0,239.0,-1116.0,-41.0,-127.0,643.0,-372.0,-54.0
19:30:18.322000,-131.0,28.0,224.0,-1216.0,-16.0,-124.0,630.0,-379.0,-49.0
19:30:18.327000,-120.0,50.0,114.0,-1307.0,-3.0,-123.0,630.0,-379.0,-49.0
19:30:18.331000,-103.0,57.0,-13.0,-1291.0,-5.0,-132.0,630.0,-379.0,-49.0
19:30:18.336000,-63.0,51.0,-68.0,-1228.0,-6.0,-140.0,651.0,-376.0,-55.0
19:30:18.341000,-44.0,74.0,-127.0,-1210.0,18.0,-145.0,651.0,-376.0,-55.0
19:30:18.346000,-25.0,91.0,-219.0,-1210.0,18.0,-145.0,637.0,-379.0,-58.0
19:30:18.350000,2.0,88.0,-283.0,-1218.0,48.0,-153.0,637.0,-379.0,-58.0
19:30:18.355000,-7.0,126.0,-307.0,-1217.0,25.0,-166.0,637.0,-372.0,-33.0
19:30:18.360000,13.0,142.0,-332.0,-1217.0,25.0,-166.0,637.0,-372.0,-33.0
19:30:18.364000,29.0,159.0,-339.0,-1250.0,73.0,-178.0,637.0,-372.0,-33.0
19:30:18.369000,32.0,158.0,-269.0,-1253.0,145.0,-182.0,639.0,-379.0,-51.0
19:30:18.374000,42.0,156.0,-166.0,-1203.0,198.0,-183.0,639.0,-379.0,-51.0
19:30:18.379000,27.0,182.0,-128.0,-1195.0,221.0,-197.0,640.0,-372.0,-57.0
19:30:18.383000,-2.0,227.0,-166.0,-1256.0,222.0,-223.0,640.0,-372.0,-57.0
19:30:18.387000,-2.0,227.0,-166.0,-1270.0,200.0,-215.0,640.0,-372.0,-57.0
19:30:18.393000,-31.0,224.0,-77.0,-1191.0,164.0,-225.0,640.0,-369.0,-52.0
19:30:18.397000,-31.0,224.0,-77.0,-1169.0,190.0,-248.0,640.0,-369.0,-52.0
19:30:18.402000,-37.0,221.0,-69.0,-1212.0,224.0,-260.0,649.0,-367.0,-43.0
19:30:18.407000,-51.0,240.0,-109.0,-1208.0,161.0,-279.0,649.0,-367.0,-43.0
19:30:18.411000,-68.0,234.0,-60.0,-1173.0,139.0,-286.0,649.0,-367.0,-43.0
19:30:18.416000,-75.0,231.0,-37.0,-1169.0,188.0,-302.0,643.0,-370.0,-49.0
19:30:18.421000,-87.0,239.0,-100.0,-1148.0,165.0,-309.0,643.0,-370.0,-49.0
19:30:18.426000,-102.0,225.0,-88.0,-1115.0,103.0,-322.0,651.0,-363.0,-45.0
19:30:18.430000,-119.0,225.0,-66.0,-1118.0,64.0,-334.0,651.0,-363.0,-45.0
19:30:18.434000,-127.0,230.0,-51.0,-1098.0,16.0,-346.0,651.0,-363.0,-45.0
19:30:18.440000,-110.0,212.0,-23.0,-1072.0,0.0,-341.0,639.0,-364.0,-31.0
19:30:18.454000,-79.0,193.0,-163.0,-972.0,-6.0,-352.0,640.0,-367.0,-21.0
19:30:18.459000,-30.0,131.0,-112.0,-972.0,-6.0,-352.0,654.0,-357.0,-43.0
19:30:18.463000,-51.0,125.0,-65.0,-940.0,-5.0,-332.0,654.0,-357.0,-43.0
19:30:18.467000,-53.0,140.0,-142.0,-1032.0,12.0,-342.0,654.0,-357.0,-43.0
19:30:18.473000,-26.0,127.0,-206.0,-1077.0,35.0,-350.0,657.0,-366.0,-43.0
19:30:18.477000,-23.0,121.0,-208.0,-1032.0,21.0,-345.0,657.0,-366.0,-43.0
19:30:18.482000,-10.0,109.0,-168.0,-985.0,-19.0,-338.0,654.0,-373.0,-36.0
19:30:18.487000,18.0,100.0,-107.0,-970.0,-15.0,-329.0,654.0,-373.0,-36.0
19:30:18.491000,18.0,100.0,-107.0,-955.0,17.0,-308.0,654.0,-373.0,-36.0
19:30:18.496000,38.0,72.0,-175.0,-930.0,29.0,-287.0,648.0,-364.0,-22.0
19:30:18.501000,57.0,46.0,-167.0,-924.0,18.0,-283.0,648.0,-364.0,-22.0
19:30:18.506000,57.0,46.0,-167.0,-922.0,-22.0,-283.0,648.0,-364.0,-22.0
19:30:18.510000,60.0,44.0,-121.0,-946.0,-22.0,-284.0,648.0,-364.0,-22.0
19:30:18.514000,93.0,28.0,-113.0,-975.0,9.0,-272.0,648.0,-364.0,-22.0
19:30:18.520000,67.0,19.0,-142.0,-991.0,40.0,-272.0,655.0,-357.0,-40.0
19:30:18.524000,63.0,20.0,-163.0,-1005.0,92.0,-279.0,655.0,-357.0,-40.0
19:30:18.529000,65.0,11.0,-136.0,-1001.0,117.0,-274.0,654.0,-351.0,-36.0
19:30:18.534000,32.0,18.0,-124.0,-989.0,116.0,-257.0,654.0,-351.0,-36.0
19:30:18.538000,3.0,19.0,-146.0,-963.0,118.0,-262.0,654.0,-351.0,-36.0
19:30:18.543000,4.0,3.0,-151.0,-932.0,127.0,-268.0,658.0,-352.0,-40.0
19:30:18.548000,3.0,-15.0,-155.0,-921.0,128.0,-253.0,658.0,-352.0,-40.0
19:30:18.553000,4.0,-33.0,-137.0,-921.0,125.0,-253.0,645.0,-357.0,-31.0
19:30:18.557000,0.0,-45.0,-135.0,-959.0,138.0,-248.0,645.0,-357.0,-31.0
19:30:18.561000,-4.0,-46.0,-158.0,-940.0,140.0,-238.0,645.0,-357.0,-31.0
19:30:18.567000,-10.0,-51.0,-186.0,-940.0,140.0,-238.0,657.0,-349.0,-39.0
19:30:18.571000,11.0,-59.0,-206.0,-956.0,153.0,-239.0,657.0,-349.0,-39.0
19:30:18.576000,32.0,-63.0,-168.0,-983.0,144.0,-238.0,651.0,-346.0,-37.0
19:30:18.581000,32.0,-61.0,-124.0,-973.0,91.0,-221.0,651.0,-346.0,-37.0
19:30:18.585000,39.0,-65.0,-105.0,-998.0,41.0,-214.0,651.0,-346.0,-37.0
19:30:18.590000,32.0,-53.0,-88.0,-1042.0,10.0,-214.0,652.0,-358.0,-42.0
19:30:18.595000,59.0,-51.0,-105.0,-1050.0,4.0,-212.0,652.0,-358.0,-42.0
19:30:18.600000,101.0,-48.0,-162.0,-1056.0,8.0,-217.0,655.0,-360.0,-51.0
19:30:18.604000,142.0,-56.0,-192.0,-1049.0,32.0,-216.0,655.0,-360.0,-51.0
19:30:18.608000,142.0,-56.0,-192.0,-1027.0,30.0,-213.0,655.0,-360.0,-51.0
19:30:18.614000,140.0,-45.0,-173.0,-1031.0,8.0,-209.0,658.0,-336.0,-39.0
19:30:18.618000,140.0,-32.0,-173.0,-1072.0,19.0,-211.0,658.0,-336.0,-39.0
19:30:18.623000,156.0,-26.0,-178.0,-1088.0,53.0,-220.0,652.0,-354.0,-43.0
19:30:18.628000,163.0,-16.0,-212.0,-1056.0,90.0,-222.0,652.0,-354.0,-43.0
19:30:18.632000,179.0,-17.0,-250.0,-1010.0,116.0,-221.0,652.0,-354.0,-43.0
19:30:18.637000,184.0,-17.0,-282.0,-960.0,131.0,-219.0,655.0,-342.0,-27.0
19:30:18.642000,184.0,-19.0,-283.0,-940.0,154.0,-223.0,655.0,-342.0,-27.0
19:30:18.647000,182.0,-18.0,-265.0,-983.0,183.0,-233.0,655.0,-342.0,-27.0
19:30:18.651000,170.0,-14.0,-261.0,-1033.0,235.0,-237.0,655.0,-342.0,-27.0
19:30:18.655000,163.0,-16.0,-263.0,-1036.0,246.0,-238.0,655.0,-342.0,-27.0
19:30:18.661000,149.0,-11.0,-253.0,-1025.0,222.0,-243.0,649.0,-349.0,-45.0
19:30:18.665000,137.0,-10.0,-259.0,-1018.0,254.0,-239.0,649.0,-349.0,-45.0
19:30:18.670000,117.0,-4.0,-293.0,-1018.0,254.0,-239.0,649.0,-343.0,-42.0
19:30:18.675000,113.0,-2.0,-326.0,-1028.0,299.0,-246.0,649.0,-343.0,-42.0
19:30:18.679000,91.0,5.0,-321.0,-1004.0,243.0,-244.0,649.0,-343.0,-42.0
19:30:18.684000,54.0,16.0,-312.0,-1004.0,243.0,-244.0,645.0,-340.0,-46.0
19:30:18.689000,46.0,28.0,-326.0,-1016.0,221.0,-249.0,645.0,-340.0,-46.0
19:30:18.694000,25.0,40.0,-325.0,-1061.0,259.0,-257.0,657.0,-331.0,-39.0
19:30:18.698000,14.0,65.0,-319.0,-1086.0,283.0,-264.0,657.0,-331.0,-39.0
19:30:18.702000,29.0,72.0,-318.0,-1110.0,292.0,-274.0,657.0,-331.0,-39.0
19:30:18.708000,20.0,86.0,-328.0,-1126.0,313.0,-274.0,654.0,-340.0,-46.0
19:30:18.712000,-14.0,121.0,-362.0,-1117.0,260.0,-274.0,654.0,-340.0,-46.0
19:30:18.717000,-14.0,142.0,-391.0,-1110.0,196.0,-284.0,654.0,-334.0,-46.0
19:30:18.722000,-6.0,161.0,-394.0,-1097.0,194.0,-293.0,654.0,-334.0,-46.0
19:30:18.726000,-6.0,161.0,-394.0,-1101.0,190.0,-300.0,648.0,-321.0,-21.0
19:30:18.731000,-3.0,184.0,-372.0,-1110.0,190.0,-300.0,648.0,-321.0,-21.0
19:30:18.735000,7.0,200.0,-369.0,-1111.0,167.0,-300.0,648.0,-321.0,-21.0
19:30:18.741000,-19.0,233.0,-356.0,-1114.0,132.0,-309.0,660.0,-325.0,-37.0
19:30:18.745000,-11.0,260.0,-312.0,-1105.0,140.0,-316.0,660.0,-325.0,-37.0
19:30:18.750000,18.0,270.0,-305.0,-1070.0,129.0,-316.0,664.0,-316.0,-43.0
19:30:18.755000,17.0,289.0,-340.0,-1022.0,98.0,-320.0,664.0,-316.0,-43.0
19:30:18.759000,41.0,290.0,-378.0,-970.0,99.0,-326.0,664.0,-316.0,-43.0
19:30:18.764000,75.0,280.0,-406.0,-927.0,107.0,-333.0,658.0,-313.0,-34.0
19:30:18.769000,123.0,264.0,-424.0,-884.0,122.0,-330.0,658.0,-313.0,-34.0
19:30:18.773000,159.0,236.0,-434.0,-884.0,122.0,-330.0,657.0,-315.0,-24.0
19:30:18.778000,189.0,215.0,-448.0,-851.0,222.0,-337.0,657.0,-315.0,-24.0
19:30:18.782000,217.0,186.0,-473.0,-856.0,271.0,-341.0,657.0,-315.0,-24.0
19:30:18.788000,234.0,161.0,-504.0,-856.0,271.0,-341.0,666.0,-315.0,-36.0
19:30:18.792000,251.0,135.0,-531.0,-873.0,306.0,-348.0,666.0,-315.0,-36.0
19:30:18.797000,245.0,115.0,-529.0,-885.0,335.0,-345.0,661.0,-312.0,-28.0
19:30:18.802000,239.0,108.0,-511.0,-899.0,352.0,-342.0,661.0,-312.0,-28.0
19:30:18.806000,257.0,81.0,-494.0,-925.0,382.0,-349.0,661.0,-312.0,-28.0
19:30:18.811000,217.0,81.0,-479.0,-951.0,400.0,-337.0,663.0,-304.0,-36.0
19:30:18.816000,214.0,74.0,-478.0,-953.0,402.0,-326.0,663.0,-304.0,-36.0
19:30:18.820000,211.0,65.0,-478.0,-951.0,427.0,-327.0,645.0,-300.0,-19.0
19:30:18.825000,197.0,58.0,-458.0,-940.0,440.0,-312.0,645.0,-300.0,-19.0
19:30:18.829000,197.0,58.0,-458.0,-932.0,427.0,-307.0,645.0,-300.0,-19.0
19:30:18.835000,167.0,70.0,-428.0,-940.0,403.0,-302.0,658.0,-307.0,-27.0
19:30:18.839000,167.0,67.0,-414.0,-939.0,374.0,-294.0,658.0,-307.0,-27.0
19:30:18.844000,164.0,72.0,-418.0,-934.0,372.0,-298.0,669.0,-292.0,-28.0
19:30:18.849000,182.0,70.0,-436.0,-948.0,381.0,-292.0,669.0,-292.0,-28.0
19:30:18.853000,196.0,59.0,-449.0,-939.0,352.0,-286.0,669.0,-292.0,-28.0
19:30:18.858000,200.0,65.0,-450.0,-931.0,361.0,-293.0,657.0,-306.0,-9.0
19:30:18.863000,228.0,52.0,-462.0,-939.0,406.0,-300.0,657.0,-306.0,-9.0
19:30:18.867000,248.0,46.0,-471.0,-940.0,429.0,-305.0,657.0,-306.0,-9.0
19:30:18.872000,246.0,47.0,-457.0,-950.0,432.0,-308.0,657.0,-306.0,-9.0
19:30:18.876000,245.0,43.0,-452.0,-963.0,446.0,-317.0,657.0,-306.0,-9.0
19:30:18.882000,248.0,39.0,-464.0,-972.0,484.0,-327.0,663.0,-286.0,-33.0
19:30:18.886000,247.0,44.0,-477.0,-973.0,521.0,-334.0,663.0,-286.0,-33.0
19:30:18.891000,233.0,51.0,-474.0,-973.0,521.0,-334.0,673.0,-289.0,-28.0
19:30:18.896000,226.0,52.0,-455.0,-974.0,576.0,-342.0,673.0,-289.0,-28.0
19:30:18.900000,220.0,51.0,-434.0,-986.0,566.0,-351.0,673.0,-289.0,-28.0
19:30:18.905000,200.0,58.0,-429.0,-995.0,593.0,-357.0,663.0,-285.0,-22.0
19:30:18.910000,196.0,61.0,-436.0,-995.0,617.0,-368.0,663.0,-285.0,-22.0
19:30:18.914000,191.0,64.0,-423.0,-991.0,615.0,-378.0,649.0,-276.0,-22.0
19:30:18.919000,195.0,59.0,-385.0,-982.0,574.0,-380.0,649.0,-276.0,-22.0
19:30:18.923000,182.0,60.0,-367.0,-973.0,524.0,-381.0,649.0,-276.0,-22.0
19:30:18.929000,189.0,55.0,-376.0,-970.0,523.0,-389.0,663.0,-280.0,-36.0
19:30:18.933000,207.0,36.0,-388.0,-957.0,559.0,-397.0,663.0,-280.0,-36.0
19:30:18.938000,206.0,23.0,-390.0,-929.0,583.0,-393.0,657.0,-279.0,-28.0
19:30:18.943000,210.0,16.0,-399.0,-909.0,597.0,-391.0,657.0,-279.0,-28.0
19:30:18.947000,210.0,16.0,-399.0,-900.0,597.0,-391.0,657.0,-279.0,-28.0
19:30:18.952000,222.0,2.0,-408.0,-898.0,570.0,-382.0,660.0,-271.0,-36.0
19:30:18.957000,226.0,-11.0,-405.0,-926.0,549.0,-378.0,660.0,-271.0,-36.0
19:30:18.961000,224.0,-20.0,-406.0,-999.0,558.0,-376.0,667.0,-267.0,-28.0
19:30:18.966000,215.0,-27.0,-416.0,-1089.0,575.0,-370.0,667.0,-267.0,-28.0
19:30:18.970000,189.0,-23.0,-405.0,-1144.0,592.0,-366.0,667.0,-267.0,-28.0
19:30:18.976000,165.0,-21.0,-368.0,-1121.0,592.0,-366.0,669.0,-264.0,-27.0
19:30:18.980000,151.0,-13.0,-287.0,-1051.0,582.0,-369.0,669.0,-264.0,-27.0
19:30:18.985000,148.0,-4.0,-227.0,-1006.0,589.0,-373.0,663.0,-261.0,-31.0
19:30:18.990000,148.0,13.0,-255.0,-971.0,632.0,-372.0,663.0,-261.0,-31.0
19:30:18.994000,138.0,44.0,-328.0,-980.0,652.0,-364.0,663.0,-261.0,-31.0
19:30:18.999000,136.0,65.0,-338.0,-1061.0,616.0,-354.0,658.0,-262.0,-24.0
19:30:19.004000,146.0,77.0,-331.0,-1124.0,581.0,-342.0,658.0,-262.0,-24.0
19:30:19.008000,142.0,93.0,-334.0,-1124.0,581.0,-342.0,660.0,-252.0,-27.0
19:30:19.013000,144.0,101.0,-308.0,-1124.0,546.0,-329.0,660.0,-252.0,-27.0
19:30:19.017000,156.0,110.0,-279.0,-1079.0,518.0,-323.0,660.0,-252.0,-27.0
19:30:19.023000,173.0,107.0,-239.0,-1031.0,492.0,-321.0,661.0,-255.0,-25.0
19:30:19.027000,186.0,99.0,-184.0,-1006.0,464.0,-311.0,661.0,-255.0,-25.0
19:30:19.032000,207.0,96.0,-172.0,-1019.0,464.0,-307.0,670.0,-259.0,-27.0
19:30:19.037000,228.0,77.0,-196.0,-1043.0,493.0,-296.0,670.0,-259.0,-27.0
19:30:19.044000,253.0,49.0,-231.0,-975.0,540.0,-268.0,661.0,-249.0,-16.0
19:30:19.046000,270.0,21.0,-245.0,-975.0,540.0,-268.0,661.0,-249.0,-16.0
19:30:19.050000,270.0,21.0,-245.0,-911.0,538.0,-258.0,661.0,-249.0,-16.0
19:30:19.055000,285.0,-10.0,-239.0,-897.0,557.0,-250.0,660.0,-249.0,-18.0
19:30:19.060000,298.0,-45.0,-226.0,-904.0,595.0,-239.0,660.0,-249.0,-18.0
19:30:19.065000,291.0,-73.0,-208.0,-897.0,622.0,-226.0,661.0,-252.0,-18.0
19:30:19.070000,270.0,-98.0,-170.0,-880.0,615.0,-217.0,661.0,-252.0,-18.0
19:30:19.074000,247.0,-121.0,-118.0,-860.0,600.0,-212.0,661.0,-252.0,-18.0
19:30:19.079000,223.0,-140.0,-56.0,-854.0,592.0,-207.0,669.0,-252.0,-19.0
19:30:19.093000,123.0,-192.0,124.0,-791.0,531.0,-191.0,652.0,-259.0,-7.0
19:30:19.098000,84.0,-196.0,202.0,-762.0,511.0,-189.0,652.0,-259.0,-7.0
19:30:19.102000,51.0,-199.0,265.0,-727.0,478.0,-191.0,652.0,-259.0,-7.0
19:30:19.106000,18.0,-196.0,320.0,-700.0,438.0,-196.0,652.0,-259.0,-7.0
19:30:19.112000,-9.0,-196.0,354.0,-687.0,411.0,-202.0,672.0,-250.0,-22.0
19:30:19.117000,-30.0,-198.0,359.0,-687.0,411.0,-202.0,672.0,-250.0,-22.0
19:30:19.121000,-45.0,-200.0,351.0,-691.0,404.0,-209.0,666.0,-247.0,-16.0
19:30:19.126000,-60.0,-199.0,345.0,-701.0,403.0,-210.0,666.0,-247.0,-16.0
19:30:19.130000,-78.0,-194.0,341.0,-703.0,395.0,-207.0,666.0,-247.0,-16.0
19:30:19.135000,-91.0,-190.0,333.0,-698.0,378.0,-200.0,672.0,-259.0,-27.0
19:30:19.139000,-100.0,-186.0,319.0,-653.0,318.0,-186.0,672.0,-259.0,-27.0
19:30:19.145000,-97.0,-184.0,296.0,-653.0,318.0,-186.0,661.0,-259.0,-9.0
19:30:19.149000,-93.0,-182.0,274.0,-625.0,292.0,-181.0,661.0,-259.0,-9.0
19:30:19.153000,-93.0,-182.0,274.0,-605.0,264.0,-178.0,661.0,-259.0,-9.0
19:30:19.159000,-83.0,-178.0,252.0,-619.0,254.0,-176.0,666.0,-258.0,-19.0
19:30:19.164000,-83.0,-178.0,252.0,-642.0,259.0,-175.0,666.0,-258.0,-19.0
19:30:19.168000,-79.0,-172.0,247.0,-652.0,254.0,-174.0,669.0,-264.0,-25.0
19:30:19.173000,-81.0,-164.0,246.0,-664.0,264.0,-172.0,669.0,-264.0,-25.0
19:30:19.177000,-79.0,-159.0,235.0,-664.0,280.0,-170.0,669.0,-264.0,-25.0
19:30:19.182000,-79.0,-154.0,225.0,-649.0,296.0,-168.0,681.0,-264.0,-21.0
19:30:19.187000,-80.0,-153.0,223.0,-622.0,304.0,-166.0,681.0,-264.0,-21.0
19:30:19.192000,-88.0,-149.0,236.0,-595.0,309.0,-161.0,672.0,-265.0,-25.0
19:30:19.196000,-102.0,-147.0,258.0,-577.0,316.0,-155.0,672.0,-265.0,-25.0
19:30:19.200000,-118.0,-144.0,284.0,-559.0,313.0,-149.0,672.0,-265.0,-25.0
19:30:19.206000,-137.0,-139.0,312.0,-536.0,294.0,-145.0,672.0,-264.0,-22.0
19:30:19.210000,-151.0,-134.0,342.0,-518.0,269.0,-145.0,672.0,-264.0,-22.0
19:30:19.215000,-163.0,-128.0,362.0,-518.0,269.0,-145.0,673.0,-267.0,-31.0
19:30:19.220000,-177.0,-122.0,378.0,-523.0,241.0,-157.0,673.0,-267.0,-31.0
19:30:19.224000,-190.0,-114.0,389.0,-523.0,241.0,-157.0,673.0,-267.0,-31.0
19:30:19.229000,-202.0,-106.0,387.0,-575.0,238.0,-172.0,675.0,-265.0,-27.0
19:30:19.234000,-212.0,-96.0,362.0,-575.0,238.0,-172.0,675.0,-265.0,-27.0
19:30:19.239000,-218.0,-88.0,328.0,-591.0,237.0,-181.0,660.0,-276.0,-7.0
19:30:19.243000,-222.0,-80.0,296.0,-588.0,223.0,-189.0,660.0,-276.0,-7.0
19:30:19.247000,-219.0,-75.0,270.0,-576.0,204.0,-195.0,660.0,-276.0,-7.0
19:30:19.253000,-214.0,-71.0,246.0,-561.0,184.0,-199.0,684.0,-273.0,-27.0
19:30:19.257000,-208.0,-72.0,233.0,-545.0,169.0,-200.0,684.0,-273.0,-27.0
19:30:19.262000,-197.0,-72.0,228.0,-525.0,156.0,-198.0,679.0,-273.0,-25.0
19:30:19.267000,-181.0,-77.0,223.0,-503.0,152.0,-194.0,679.0,-273.0,-25.0
19:30:19.271000,-181.0,-77.0,223.0,-479.0,152.0,-189.0,679.0,-273.0,-25.0
19:30:19.276000,-165.0,-86.0,225.0,-459.0,147.0,-183.0,676.0,-273.0,-21.0
19:30:19.281000,-150.0,-97.0,238.0,-452.0,141.0,-172.0,676.0,-273.0,-21.0
19:30:19.286000,-132.0,-111.0,259.0,-448.0,133.0,-162.0,685.0,-276.0,-39.0
19:30:19.290000,-116.0,-124.0,283.0,-444.0,120.0,-154.0,685.0,-276.0,-39.0
19:30:19.294000,-102.0,-135.0,312.0,-447.0,110.0,-143.0,685.0,-276.0,-39.0
19:30:19.300000,-87.0,-145.0,338.0,-451.0,106.0,-135.0,676.0,-283.0,-22.0
19:30:19.304000,-74.0,-152.0,354.0,-462.0,109.0,-131.0,676.0,-283.0,-22.0
19:30:19.309000,-61.0,-159.0,359.0,-483.0,117.0,-127.0,682.0,-276.0,-36.0
19:30:19.314000,-49.0,-162.0,352.0,-509.0,122.0,-125.0,682.0,-276.0,-36.0
19:30:19.321000,-34.0,-158.0,323.0,-559.0,127.0,-125.0,679.0,-279.0,-37.0
19:30:19.323000,-34.0,-158.0,323.0,-559.0,127.0,-125.0,679.0,-279.0,-37.0
19:30:19.327000,-29.0,-153.0,305.0,-576.0,130.0,-127.0,679.0,-279.0,-37.0
19:30:19.333000,-23.0,-145.0,285.0,-584.0,131.0,-131.0,681.0,-283.0,-31.0
19:30:19.337000,-18.0,-138.0,268.0,-584.0,131.0,-131.0,681.0,-283.0,-31.0
19:30:19.342000,-11.0,-132.0,256.0,-584.0,130.0,-135.0,684.0,-280.0,-40.0
19:30:19.347000,-4.0,-126.0,253.0,-582.0,128.0,-139.0,684.0,-280.0,-40.0
19:30:19.351000,1.0,-124.0,260.0,-577.0,127.0,-140.0,684.0,-280.0,-40.0
19:30:19.356000,6.0,-123.0,281.0,-567.0,127.0,-137.0,679.0,-289.0,-36.0
19:30:19.361000,9.0,-123.0,311.0,-556.0,123.0,-131.0,679.0,-289.0,-36.0
19:30:19.366000,12.0,-124.0,347.0,-545.0,111.0,-124.0,678.0,-286.0,-22.0
19:30:19.370000,15.0,-126.0,384.0,-536.0,97.0,-117.0,678.0,-286.0,-22.0
19:30:19.374000,15.0,-126.0,384.0,-528.0,79.0,-113.0,678.0,-286.0,-22.0
19:30:19.380000,32.0,-137.0,440.0,-527.0,60.0,-109.0,679.0,-294.0,-31.0
19:30:19.384000,32.0,-137.0,440.0,-534.0,50.0,-108.0,679.0,-294.0,-31.0
19:30:19.389000,42.0,-142.0,449.0,-549.0,53.0,-106.0,690.0,-295.0,-40.0
19:30:19.394000,49.0,-147.0,449.0,-561.0,64.0,-105.0,690.0,-295.0,-40.0
19:30:19.398000,51.0,-150.0,444.0,-565.0,71.0,-103.0,690.0,-295.0,-40.0
19:30:19.403000,48.0,-152.0,435.0,-559.0,77.0,-101.0,681.0,-310.0,-42.0
19:30:19.408000,44.0,-155.0,419.0,-545.0,83.0,-99.0,681.0,-310.0,-42.0
19:30:19.413000,39.0,-158.0,401.0,-527.0,86.0,-98.0,669.0,-307.0,-46.0
19:30:19.417000,35.0,-164.0,385.0,-511.0,98.0,-97.0,669.0,-307.0,-46.0
19:30:19.421000,30.0,-170.0,361.0,-501.0,117.0,-95.0,669.0,-307.0,-46.0
19:30:19.427000,21.0,-177.0,340.0,-493.0,134.0,-93.0,688.0,-312.0,-45.0
19:30:19.431000,8.0,-183.0,329.0,-484.0,133.0,-88.0,688.0,-312.0,-45.0
19:30:19.436000,-7.0,-190.0,336.0,-484.0,133.0,-88.0,672.0,-312.0,-37.0
19:30:19.441000,-19.0,-196.0,347.0,-494.0,100.0,-84.0,672.0,-312.0,-37.0
19:30:19.445000,-30.0,-200.0,361.0,-494.0,100.0,-84.0,672.0,-312.0,-37.0
19:30:19.450000,-42.0,-201.0,375.0,-516.0,89.0,-85.0,681.0,-313.0,-42.0
19:30:19.454000,-54.0,-199.0,380.0,-590.0,102.0,-85.0,681.0,-313.0,-42.0
19:30:19.460000,-67.0,-193.0,385.0,-590.0,102.0,-85.0,682.0,-322.0,-49.0
19:30:19.464000,-78.0,-183.0,389.0,-622.0,99.0,-89.0,682.0,-322.0,-49.0
19:30:19.468000,-83.0,-173.0,395.0,-648.0,80.0,-93.0,682.0,-322.0,-49.0
19:30:19.474000,-81.0,-162.0,398.0,-668.0,54.0,-98.0,685.0,-325.0,-51.0
19:30:19.478000,-73.0,-150.0,395.0,-681.0,34.0,-102.0,685.0,-325.0,-51.0
19:30:19.483000,-62.0,-138.0,387.0,-688.0,23.0,-102.0,676.0,-330.0,-55.0
19:30:19.488000,-49.0,-127.0,375.0,-686.0,20.0,-100.0,676.0,-330.0,-55.0
19:30:19.492000,-49.0,-127.0,375.0,-676.0,26.0,-97.0,676.0,-330.0,-55.0
19:30:19.497000,-39.0,-118.0,366.0,-659.0,33.0,-91.0,676.0,-327.0,-55.0
19:30:19.502000,-30.0,-114.0,357.0,-631.0,41.0,-84.0,676.0,-327.0,-55.0
19:30:19.507000,-19.0,-115.0,348.0,-602.0,60.0,-76.0,685.0,-324.0,-51.0
19:30:19.511000,-13.0,-119.0,340.0,-579.0,88.0,-67.0,685.0,-324.0,-51.0
19:30:19.515000,-14.0,-125.0,334.0,-567.0,115.0,-58.0,685.0,-324.0,-51.0
19:30:19.521000,-25.0,-128.0,341.0,-564.0,129.0,-49.0,676.0,-342.0,-57.0
19:30:19.525000,-44.0,-133.0,361.0,-575.0,133.0,-45.0,676.0,-342.0,-57.0
19:30:19.530000,-67.0,-135.0,383.0,-601.0,135.0,-46.0,672.0,-334.0,-63.0
19:30:19.535000,-93.0,-133.0,401.0,-635.0,138.0,-47.0,672.0,-334.0,-63.0
19:30:19.539000,-122.0,-128.0,415.0,-664.0,130.0,-51.0,672.0,-334.0,-63.0
19:30:19.544000,-144.0,-123.0,427.0,-686.0,108.0,-61.0,676.0,-333.0,-58.0
19:30:19.549000,-155.0,-116.0,429.0,-701.0,84.0,-71.0,676.0,-333.0,-58.0
19:30:19.554000,-158.0,-109.0,424.0,-701.0,84.0,-71.0,666.0,-340.0,-66.0
19:30:19.558000,-152.0,-101.0,419.0,-713.0,62.0,-83.0,666.0,-340.0,-66.0
19:30:19.562000,-139.0,-90.0,415.0,-725.0,44.0,-97.0,666.0,-340.0,-66.0
19:30:19.568000,-124.0,-77.0,408.0,-743.0,36.0,-112.0,675.0,-342.0,-64.0
19:30:19.572000,-110.0,-60.0,398.0,-762.0,43.0,-127.0,675.0,-342.0,-64.0
19:30:19.577000,-95.0,-44.0,387.0,-774.0,59.0,-140.0,666.0,-348.0,-69.0
19:30:19.582000,-81.0,-30.0,380.0,-778.0,71.0,-153.0,666.0,-348.0,-69.0
19:30:19.586000,-72.0,-16.0,376.0,-776.0,76.0,-163.0,666.0,-348.0,-69.0
19:30:19.591000,-68.0,-3.0,374.0,-773.0,76.0,-167.0,682.0,-340.0,-73.0
19:30:19.596000,-65.0,4.0,374.0,-768.0,72.0,-170.0,682.0,-340.0,-73.0
19:30:19.601000,-65.0,8.0,371.0,-765.0,72.0,-176.0,664.0,-358.0,-57.0
19:30:19.605000,-65.0,8.0,371.0,-772.0,88.0,-181.0,664.0,-358.0,-57.0
19:30:19.609000,-72.0,13.0,361.0,-795.0,116.0,-186.0,664.0,-358.0,-57.0
19:30:19.615000,-84.0,18.0,347.0,-828.0,139.0,-195.0,667.0,-355.0,-70.0
19:30:19.619000,-98.0,22.0,328.0,-871.0,153.0,-202.0,667.0,-355.0,-70.0
19:30:19.624000,-117.0,27.0,305.0,-922.0,157.0,-201.0,667.0,-357.0,-70.0
19:30:19.629000,-143.0,30.0,288.0,-965.0,138.0,-194.0,667.0,-357.0,-70.0
19:30:19.633000,-165.0,35.0,291.0,-989.0,91.0,-186.0,667.0,-357.0,-70.0
19:30:19.638000,-177.0,35.0,309.0,-1002.0,49.0,-184.0,667.0,-366.0,-78.0
19:30:19.643000,-175.0,36.0,319.0,-1017.0,52.0,-185.0,667.0,-366.0,-78.0
19:30:19.648000,-170.0,36.0,304.0,-1035.0,97.0,-179.0,676.0,-364.0,-67.0
