hh:mm:ss.ms,gyroX[mdps],gyroY[mdps],gyroZ[mdps],accX[mg],accY[mg],accZ[mg],magX[mG],magY[mG],magZ[mG]
19:30:41.365000,-223.0,-95.0,521.0,-968.0,-27.0,-232.0,490.0,-307.0,474.0
19:30:41.370000,-224.0,-120.0,508.0,-968.0,-27.0,-232.0,505.0,-318.0,466.0
19:30:41.374000,-225.0,-135.0,446.0,-969.0,-10.0,-226.0,505.0,-318.0,466.0
19:30:41.378000,-227.0,-139.0,379.0,-969.0,-10.0,-226.0,505.0,-318.0,466.0
19:30:41.384000,-219.0,-140.0,294.0,-1052.0,-2.0,-222.0,505.0,-318.0,472.0
19:30:41.388000,-211.0,-133.0,212.0,-1148.0,26.0,-229.0,505.0,-318.0,472.0
19:30:41.393000,-193.0,-122.0,146.0,-1148.0,26.0,-229.0,495.0,-315.0,489.0
19:30:41.398000,-181.0,-108.0,98.0,-1147.0,20.0,-229.0,495.0,-315.0,489.0
19:30:41.402000,-159.0,-95.0,64.0,-1129.0,-18.0,-228.0,495.0,-315.0,489.0
19:30:41.407000,-123.0,-86.0,35.0,-1130.0,-50.0,-237.0,513.0,-321.0,471.0
19:30:41.412000,-88.0,-67.0,-4.0,-1158.0,-45.0,-249.0,513.0,-321.0,471.0
19:30:41.417000,-56.0,-42.0,-39.0,-1193.0,-12.0,-261.0,516.0,-313.0,466.0
19:30:41.421000,-28.0,-9.0,-93.0,-1223.0,30.0,-268.0,516.0,-313.0,466.0
19:30:41.425000,-28.0,-9.0,-93.0,-1245.0,65.0,-272.0,516.0,-313.0,466.0
19:30:41.431000,-13.0,30.0,-134.0,-1237.0,53.0,-275.0,504.0,-318.0,468.0
19:30:41.435000,8.0,59.0,-105.0,-1188.0,28.0,-279.0,504.0,-318.0,468.0
19:30:41.440000,21.0,86.0,-36.0,-1156.0,76.0,-287.0,501.0,-316.0,468.0
19:30:41.445000,32.0,112.0,-13.0,-1165.0,157.0,-292.0,501.0,-316.0,468.0
19:30:41.449000,31.0,143.0,-47.0,-1176.0,183.0,-295.0,501.0,-316.0,468.0
19:30:41.454000,34.0,169.0,-95.0,-1173.0,151.0,-299.0,496.0,-321.0,475.0
19:30:41.459000,34.0,191.0,-100.0,-1164.0,116.0,-301.0,496.0,-321.0,475.0
19:30:41.464000,39.0,197.0,-58.0,-1152.0,128.0,-305.0,501.0,-318.0,477.0
19:30:41.468000,22.0,214.0,-23.0,-1147.0,176.0,-307.0,501.0,-318.0,477.0
19:30:41.472000,16.0,221.0,-32.0,-1146.0,209.0,-310.0,501.0,-318.0,477.0
19:30:41.478000,4.0,228.0,-54.0,-1129.0,205.0,-310.0,507.0,-312.0,466.0
19:30:41.482000,-9.0,226.0,-56.0,-1108.0,171.0,-311.0,507.0,-312.0,466.0
19:30:41.487000,-25.0,219.0,-50.0,-1108.0,171.0,-311.0,502.0,-322.0,471.0
19:30:41.492000,-22.0,198.0,-44.0,-1092.0,147.0,-315.0,502.0,-322.0,471.0
19:30:41.496000,-30.0,175.0,-19.0,-1069.0,154.0,-315.0,502.0,-322.0,471.0
19:30:41.501000,-56.0,162.0,0.0,-1053.0,169.0,-311.0,496.0,-325.0,469.0
19:30:41.506000,-85.0,159.0,-24.0,-1074.0,183.0,-309.0,496.0,-325.0,469.0
19:30:41.511000,-81.0,130.0,-68.0,-1104.0,204.0,-313.0,498.0,-330.0,474.0
19:30:41.515000,-82.0,110.0,-89.0,-1110.0,217.0,-318.0,498.0,-330.0,474.0
19:30:41.519000,-130.0,122.0,-83.0,-1123.0,208.0,-319.0,498.0,-330.0,474.0
19:30:41.525000,-170.0,129.0,-51.0,-1134.0,175.0,-320.0,495.0,-321.0,468.0
19:30:41.529000,-139.0,100.0,17.0,-1120.0,128.0,-329.0,495.0,-321.0,468.0
19:30:41.534000,-111.0,83.0,69.0,-1127.0,121.0,-345.0,502.0,-322.0,463.0
19:30:41.539000,-111.0,83.0,69.0,-1196.0,181.0,-351.0,502.0,-322.0,463.0
19:30:41.543000,-146.0,107.0,63.0,-1283.0,206.0,-341.0,502.0,-322.0,463.0
19:30:41.548000,-196.0,150.0,22.0,-1340.0,140.0,-357.0,492.0,-327.0,484.0
19:30:41.553000,-168.0,165.0,-56.0,-1353.0,63.0,-368.0,492.0,-327.0,484.0
19:30:41.558000,-189.0,189.0,-74.0,-1327.0,17.0,-355.0,487.0,-330.0,463.0
19:30:41.562000,-200.0,210.0,-104.0,-1261.0,-43.0,-359.0,487.0,-330.0,463.0
19:30:41.566000,-168.0,219.0,-137.0,-1184.0,-104.0,-357.0,487.0,-330.0,463.0
19:30:41.572000,-154.0,233.0,-144.0,-1103.0,-101.0,-345.0,483.0,-325.0,487.0
19:30:41.576000,-109.0,219.0,-165.0,-983.0,-49.0,-334.0,483.0,-325.0,487.0
19:30:41.581000,-31.0,178.0,-184.0,-871.0,27.0,-331.0,492.0,-336.0,486.0
19:30:41.586000,23.0,142.0,-175.0,-829.0,49.0,-336.0,492.0,-336.0,486.0
19:30:41.590000,17.0,127.0,-162.0,-877.0,-32.0,-336.0,492.0,-336.0,486.0
19:30:41.595000,14.0,109.0,-130.0,-931.0,-64.0,-346.0,484.0,-325.0,478.0
19:30:41.600000,77.0,79.0,-102.0,-931.0,-64.0,-346.0,484.0,-325.0,478.0
19:30:41.605000,91.0,58.0,-114.0,-946.0,0.0,-359.0,486.0,-325.0,477.0
19:30:41.609000,102.0,42.0,-110.0,-920.0,24.0,-348.0,486.0,-325.0,477.0
19:30:41.613000,139.0,9.0,-75.0,-842.0,95.0,-330.0,486.0,-325.0,477.0
19:30:41.619000,175.0,-19.0,-58.0,-842.0,95.0,-330.0,495.0,-324.0,487.0
19:30:41.623000,161.0,-39.0,-49.0,-817.0,135.0,-308.0,495.0,-324.0,487.0
19:30:41.628000,172.0,-72.0,-87.0,-778.0,190.0,-289.0,483.0,-327.0,478.0
19:30:41.633000,194.0,-113.0,-112.0,-726.0,255.0,-275.0,483.0,-327.0,478.0
19:30:41.637000,194.0,-113.0,-112.0,-714.0,254.0,-253.0,483.0,-327.0,478.0
19:30:41.642000,158.0,-155.0,-191.0,-739.0,183.0,-250.0,490.0,-318.0,475.0
19:30:41.647000,158.0,-155.0,-191.0,-784.0,173.0,-250.0,490.0,-318.0,475.0
19:30:41.652000,202.0,-199.0,-182.0,-846.0,209.0,-231.0,486.0,-325.0,471.0
19:30:41.656000,156.0,-206.0,-194.0,-880.0,207.0,-223.0,486.0,-325.0,471.0
19:30:41.664000,144.0,-231.0,-158.0,-944.0,142.0,-209.0,489.0,-319.0,492.0
19:30:41.666000,144.0,-231.0,-158.0,-944.0,142.0,-209.0,489.0,-319.0,492.0
19:30:41.670000,128.0,-233.0,-191.0,-977.0,178.0,-206.0,489.0,-319.0,492.0
19:30:41.675000,138.0,-249.0,-287.0,-978.0,204.0,-204.0,487.0,-307.0,465.0
19:30:41.680000,114.0,-242.0,-287.0,-965.0,217.0,-200.0,487.0,-307.0,465.0
19:30:41.684000,106.0,-248.0,-258.0,-992.0,219.0,-198.0,496.0,-321.0,465.0
19:30:41.689000,79.0,-237.0,-260.0,-1006.0,192.0,-200.0,496.0,-321.0,465.0
19:30:41.693000,115.0,-238.0,-252.0,-1027.0,185.0,-196.0,496.0,-321.0,465.0
19:30:41.699000,105.0,-222.0,-233.0,-1077.0,175.0,-188.0,495.0,-318.0,466.0
19:30:41.703000,84.0,-200.0,-225.0,-1121.0,159.0,-197.0,495.0,-318.0,466.0
19:30:41.708000,83.0,-184.0,-259.0,-1121.0,159.0,-197.0,489.0,-306.0,472.0
19:30:41.713000,77.0,-161.0,-313.0,-1123.0,145.0,-192.0,489.0,-306.0,472.0
19:30:41.717000,100.0,-148.0,-315.0,-1091.0,156.0,-188.0,489.0,-306.0,472.0
19:30:41.722000,95.0,-130.0,-266.0,-1065.0,198.0,-193.0,499.0,-306.0,457.0
19:30:41.727000,99.0,-114.0,-259.0,-1082.0,253.0,-190.0,499.0,-306.0,457.0
19:30:41.731000,100.0,-94.0,-282.0,-1111.0,282.0,-194.0,496.0,-310.0,463.0
19:30:41.736000,112.0,-71.0,-262.0,-1104.0,240.0,-201.0,496.0,-310.0,463.0
19:30:41.740000,123.0,-48.0,-233.0,-1112.0,195.0,-206.0,496.0,-310.0,463.0
19:30:41.746000,112.0,-23.0,-238.0,-1159.0,188.0,-201.0,495.0,-309.0,460.0
19:30:41.750000,97.0,4.0,-259.0,-1178.0,203.0,-192.0,495.0,-309.0,460.0
19:30:41.755000,97.0,4.0,-259.0,-1154.0,244.0,-196.0,501.0,-301.0,459.0
19:30:41.760000,105.0,30.0,-298.0,-1113.0,264.0,-199.0,501.0,-301.0,459.0
19:30:41.764000,108.0,44.0,-323.0,-1055.0,235.0,-191.0,501.0,-301.0,459.0
19:30:41.769000,105.0,53.0,-315.0,-1018.0,234.0,-188.0,501.0,-303.0,471.0
19:30:41.774000,111.0,66.0,-312.0,-1035.0,273.0,-199.0,501.0,-303.0,471.0
19:30:41.778000,133.0,84.0,-309.0,-1074.0,271.0,-204.0,495.0,-297.0,462.0
19:30:41.783000,130.0,102.0,-282.0,-1110.0,207.0,-202.0,495.0,-297.0,462.0
19:30:41.787000,112.0,124.0,-250.0,-1153.0,185.0,-212.0,495.0,-297.0,462.0
19:30:41.793000,102.0,150.0,-277.0,-1182.0,237.0,-220.0,499.0,-292.0,483.0
19:30:41.797000,93.0,174.0,-340.0,-1152.0,284.0,-224.0,499.0,-292.0,483.0
19:30:41.802000,90.0,192.0,-378.0,-1074.0,287.0,-230.0,496.0,-286.0,468.0
19:30:41.807000,100.0,203.0,-392.0,-1011.0,255.0,-230.0,496.0,-286.0,468.0
19:30:41.811000,89.0,212.0,-378.0,-997.0,231.0,-243.0,496.0,-286.0,468.0
19:30:41.816000,105.0,217.0,-336.0,-997.0,244.0,-262.0,498.0,-283.0,459.0
19:30:41.821000,116.0,224.0,-336.0,-1025.0,244.0,-262.0,498.0,-283.0,459.0
19:30:41.825000,125.0,229.0,-377.0,-1067.0,276.0,-269.0,489.0,-288.0,469.0
19:30:41.830000,133.0,235.0,-388.0,-1084.0,292.0,-274.0,489.0,-288.0,469.0
19:30:41.834000,120.0,251.0,-359.0,-1065.0,281.0,-284.0,489.0,-288.0,469.0
19:30:41.840000,150.0,249.0,-353.0,-1065.0,281.0,-284.0,492.0,-288.0,462.0
19:30:41.844000,138.0,255.0,-365.0,-1073.0,298.0,-280.0,492.0,-288.0,462.0
19:30:41.849000,140.0,249.0,-376.0,-1075.0,305.0,-272.0,493.0,-283.0,466.0
19:30:41.854000,150.0,246.0,-378.0,-1055.0,303.0,-280.0,493.0,-283.0,466.0
19:30:41.858000,150.0,246.0,-378.0,-1027.0,292.0,-279.0,493.0,-283.0,466.0
19:30:41.863000,145.0,240.0,-373.0,-1030.0,285.0,-273.0,492.0,-291.0,466.0
19:30:41.868000,145.0,240.0,-373.0,-1026.0,287.0,-275.0,492.0,-291.0,466.0
19:30:41.872000,154.0,242.0,-394.0,-1015.0,311.0,-281.0,490.0,-283.0,471.0
19:30:41.877000,163.0,227.0,-432.0,-1004.0,318.0,-281.0,490.0,-283.0,471.0
19:30:41.885000,147.0,225.0,-396.0,-1002.0,354.0,-295.0,481.0,-276.0,486.0
19:30:41.887000,147.0,225.0,-396.0,-1002.0,354.0,-295.0,481.0,-276.0,486.0
19:30:41.891000,151.0,217.0,-410.0,-1017.0,377.0,-292.0,481.0,-276.0,486.0
19:30:41.896000,140.0,208.0,-441.0,-1019.0,368.0,-297.0,474.0,-273.0,472.0
19:30:41.901000,140.0,203.0,-448.0,-1018.0,349.0,-312.0,474.0,-273.0,472.0
19:30:41.905000,147.0,199.0,-447.0,-1032.0,359.0,-321.0,478.0,-274.0,475.0
19:30:41.910000,154.0,193.0,-434.0,-1053.0,399.0,-325.0,478.0,-274.0,475.0
19:30:41.914000,165.0,188.0,-447.0,-1064.0,433.0,-331.0,478.0,-274.0,475.0
19:30:41.919000,171.0,186.0,-475.0,-1043.0,428.0,-337.0,474.0,-253.0,468.0
19:30:41.924000,184.0,182.0,-501.0,-1018.0,399.0,-344.0,474.0,-253.0,468.0
19:30:41.929000,191.0,178.0,-499.0,-1018.0,399.0,-344.0,471.0,-273.0,474.0
19:30:41.934000,193.0,173.0,-514.0,-1029.0,395.0,-348.0,471.0,-273.0,474.0
19:30:41.938000,196.0,172.0,-554.0,-1060.0,442.0,-353.0,471.0,-273.0,474.0
19:30:41.943000,224.0,168.0,-594.0,-1065.0,503.0,-368.0,472.0,-262.0,472.0
19:30:41.948000,217.0,168.0,-576.0,-1049.0,512.0,-369.0,472.0,-262.0,472.0
19:30:41.952000,210.0,170.0,-522.0,-1043.0,466.0,-364.0,468.0,-255.0,477.0
19:30:41.957000,218.0,175.0,-513.0,-1063.0,469.0,-374.0,468.0,-255.0,477.0
19:30:41.961000,218.0,175.0,-513.0,-1098.0,527.0,-378.0,468.0,-255.0,477.0
19:30:41.966000,196.0,189.0,-536.0,-1104.0,559.0,-372.0,469.0,-253.0,474.0
19:30:41.971000,207.0,192.0,-550.0,-1069.0,567.0,-379.0,469.0,-253.0,474.0
19:30:41.976000,207.0,192.0,-550.0,-1029.0,559.0,-392.0,471.0,-238.0,477.0
19:30:41.981000,196.0,186.0,-536.0,-1017.0,542.0,-397.0,471.0,-238.0,477.0
19:30:41.985000,198.0,175.0,-498.0,-1048.0,567.0,-393.0,471.0,-238.0,477.0
19:30:41.990000,186.0,180.0,-464.0,-1063.0,619.0,-405.0,477.0,-250.0,481.0
19:30:41.995000,178.0,186.0,-445.0,-1090.0,653.0,-394.0,477.0,-250.0,481.0
19:30:41.999000,160.0,172.0,-432.0,-1151.0,634.0,-372.0,462.0,-244.0,472.0
19:30:42.004000,148.0,168.0,-407.0,-1180.0,583.0,-369.0,462.0,-244.0,472.0
19:30:42.008000,166.0,139.0,-345.0,-1155.0,547.0,-354.0,462.0,-244.0,472.0
19:30:42.013000,158.0,128.0,-295.0,-1071.0,538.0,-350.0,459.0,-238.0,475.0
19:30:42.018000,165.0,123.0,-237.0,-971.0,550.0,-347.0,459.0,-238.0,475.0
19:30:42.023000,175.0,116.0,-199.0,-912.0,564.0,-342.0,453.0,-238.0,480.0
19:30:42.028000,170.0,124.0,-232.0,-891.0,582.0,-337.0,453.0,-238.0,480.0
19:30:42.032000,176.0,121.0,-296.0,-908.0,581.0,-331.0,453.0,-238.0,480.0
19:30:42.037000,204.0,102.0,-257.0,-908.0,581.0,-331.0,453.0,-229.0,466.0
19:30:42.042000,200.0,98.0,-214.0,-975.0,572.0,-326.0,453.0,-229.0,466.0
19:30:42.046000,216.0,90.0,-234.0,-1069.0,616.0,-330.0,457.0,-241.0,472.0
19:30:42.051000,210.0,93.0,-252.0,-1122.0,661.0,-341.0,457.0,-241.0,472.0
19:30:42.055000,197.0,87.0,-242.0,-1112.0,713.0,-340.0,463.0,-225.0,468.0
19:30:42.060000,173.0,94.0,-244.0,-1112.0,713.0,-340.0,463.0,-225.0,468.0
19:30:42.065000,159.0,87.0,-198.0,-1077.0,714.0,-336.0,463.0,-225.0,468.0
19:30:42.070000,156.0,81.0,-144.0,-1067.0,693.0,-335.0,459.0,-223.0,478.0
19:30:42.075000,137.0,84.0,-128.0,-1097.0,695.0,-340.0,459.0,-223.0,478.0
19:30:42.079000,120.0,87.0,-104.0,-1098.0,703.0,-340.0,465.0,-228.0,466.0
19:30:42.084000,120.0,87.0,-104.0,-1077.0,706.0,-343.0,465.0,-228.0,466.0
19:30:42.088000,102.0,92.0,-50.0,-1067.0,696.0,-340.0,465.0,-228.0,466.0
19:30:42.093000,76.0,100.0,17.0,-1056.0,673.0,-332.0,459.0,-231.0,472.0
19:30:42.098000,58.0,105.0,91.0,-1021.0,630.0,-325.0,459.0,-231.0,472.0
19:30:42.103000,45.0,107.0,150.0,-966.0,555.0,-315.0,457.0,-226.0,471.0
19:30:42.107000,41.0,103.0,200.0,-905.0,465.0,-306.0,457.0,-226.0,471.0
19:30:42.112000,52.0,93.0,248.0,-851.0,384.0,-294.0,457.0,-226.0,471.0
19:30:42.117000,73.0,74.0,275.0,-791.0,310.0,-276.0,459.0,-226.0,471.0
19:30:42.122000,102.0,42.0,277.0,-706.0,238.0,-260.0,459.0,-226.0,471.0
19:30:42.126000,140.0,4.0,263.0,-612.0,198.0,-250.0,465.0,-234.0,484.0
19:30:42.131000,189.0,-39.0,226.0,-536.0,206.0,-244.0,465.0,-234.0,484.0
19:30:42.135000,229.0,-80.0,171.0,-489.0,250.0,-247.0,465.0,-234.0,484.0
19:30:42.140000,262.0,-114.0,116.0,-486.0,319.0,-256.0,457.0,-229.0,469.0
19:30:42.145000,272.0,-139.0,51.0,-534.0,397.0,-269.0,457.0,-229.0,469.0
19:30:42.150000,260.0,-154.0,-5.0,-534.0,397.0,-269.0,462.0,-226.0,481.0
19:30:42.154000,220.0,-158.0,-37.0,-611.0,467.0,-284.0,462.0,-226.0,481.0
19:30:42.159000,164.0,-157.0,-39.0,-683.0,509.0,-298.0,462.0,-226.0,481.0
19:30:42.164000,105.0,-153.0,-21.0,-731.0,526.0,-308.0,468.0,-217.0,477.0
19:30:42.169000,41.0,-142.0,17.0,-742.0,519.0,-310.0,468.0,-217.0,477.0
19:30:42.173000,-15.0,-131.0,74.0,-720.0,493.0,-303.0,463.0,-223.0,471.0
19:30:42.178000,-65.0,-121.0,128.0,-680.0,453.0,-288.0,463.0,-223.0,471.0
19:30:42.182000,-65.0,-121.0,128.0,-629.0,402.0,-270.0,463.0,-223.0,471.0
19:30:42.187000,-107.0,-112.0,221.0,-568.0,329.0,-245.0,462.0,-225.0,477.0
19:30:42.191000,-107.0,-112.0,221.0,-513.0,245.0,-217.0,462.0,-225.0,477.0
19:30:42.197000,-92.0,-119.0,265.0,-471.0,164.0,-191.0,457.0,-225.0,484.0
19:30:42.201000,-60.0,-130.0,299.0,-443.0,95.0,-168.0,457.0,-225.0,484.0
19:30:42.206000,-17.0,-142.0,321.0,-432.0,55.0,-152.0,457.0,-225.0,484.0
19:30:42.211000,37.0,-153.0,322.0,-437.0,48.0,-143.0,468.0,-225.0,481.0
19:30:42.216000,91.0,-159.0,298.0,-460.0,72.0,-140.0,468.0,-225.0,481.0
19:30:42.220000,146.0,-164.0,259.0,-496.0,108.0,-138.0,474.0,-222.0,469.0
19:30:42.225000,184.0,-161.0,222.0,-537.0,143.0,-139.0,474.0,-222.0,469.0
19:30:42.229000,209.0,-152.0,186.0,-570.0,177.0,-143.0,474.0,-222.0,469.0
19:30:42.234000,221.0,-137.0,151.0,-596.0,217.0,-148.0,466.0,-220.0,484.0
19:30:42.239000,221.0,-123.0,119.0,-618.0,267.0,-150.0,466.0,-220.0,484.0
19:30:42.244000,209.0,-108.0,93.0,-618.0,267.0,-150.0,466.0,-220.0,484.0
19:30:42.248000,187.0,-95.0,83.0,-630.0,345.0,-145.0,466.0,-220.0,484.0
19:30:42.253000,163.0,-79.0,88.0,-628.0,357.0,-143.0,466.0,-220.0,484.0
19:30:42.258000,135.0,-67.0,107.0,-628.0,357.0,-143.0,481.0,-225.0,471.0
19:30:42.263000,110.0,-56.0,136.0,-624.0,350.0,-140.0,481.0,-225.0,471.0
19:30:42.267000,88.0,-48.0,168.0,-626.0,336.0,-138.0,489.0,-222.0,465.0
19:30:42.272000,67.0,-41.0,204.0,-625.0,316.0,-136.0,489.0,-222.0,465.0
19:30:42.276000,53.0,-37.0,242.0,-616.0,291.0,-133.0,489.0,-222.0,465.0
19:30:42.281000,42.0,-35.0,277.0,-602.0,268.0,-132.0,487.0,-213.0,475.0
19:30:42.286000,35.0,-29.0,302.0,-590.0,251.0,-135.0,487.0,-213.0,475.0
19:30:42.291000,25.0,-19.0,315.0,-590.0,244.0,-141.0,462.0,-223.0,468.0
19:30:42.295000,14.0,-7.0,314.0,-594.0,235.0,-146.0,462.0,-223.0,468.0
19:30:42.300000,14.0,-7.0,314.0,-585.0,213.0,-150.0,462.0,-223.0,468.0
19:30:42.305000,9.0,6.0,305.0,-559.0,179.0,-154.0,480.0,-226.0,465.0
19:30:42.310000,12.0,15.0,296.0,-528.0,147.0,-159.0,480.0,-226.0,465.0
19:30:42.314000,27.0,18.0,277.0,-503.0,129.0,-162.0,484.0,-226.0,465.0
19:30:42.319000,47.0,18.0,249.0,-483.0,119.0,-161.0,484.0,-226.0,465.0
19:30:42.323000,69.0,10.0,230.0,-464.0,106.0,-158.0,484.0,-226.0,465.0
19:30:42.328000,90.0,0.0,227.0,-453.0,94.0,-153.0,483.0,-213.0,475.0
19:30:42.333000,110.0,-12.0,232.0,-454.0,95.0,-148.0,483.0,-213.0,475.0
19:30:42.338000,121.0,-25.0,236.0,-460.0,107.0,-144.0,490.0,-226.0,466.0
19:30:42.342000,125.0,-36.0,239.0,-470.0,127.0,-139.0,490.0,-226.0,466.0
19:30:42.347000,121.0,-45.0,241.0,-481.0,144.0,-136.0,490.0,-226.0,466.0
19:30:42.352000,110.0,-51.0,247.0,-490.0,154.0,-133.0,498.0,-225.0,468.0
19:30:42.357000,94.0,-53.0,245.0,-498.0,159.0,-130.0,498.0,-225.0,468.0
19:30:42.361000,74.0,-53.0,241.0,-498.0,159.0,-130.0,487.0,-223.0,466.0
19:30:42.366000,52.0,-51.0,235.0,-507.0,158.0,-126.0,487.0,-223.0,466.0
19:30:42.370000,31.0,-50.0,221.0,-515.0,157.0,-124.0,487.0,-223.0,466.0
19:30:42.375000,10.0,-46.0,197.0,-522.0,165.0,-125.0,486.0,-229.0,486.0
19:30:42.380000,-9.0,-46.0,168.0,-526.0,177.0,-126.0,486.0,-229.0,486.0
19:30:42.385000,-25.0,-46.0,143.0,-521.0,184.0,-127.0,486.0,-229.0,472.0
19:30:42.389000,-35.0,-51.0,128.0,-511.0,178.0,-129.0,486.0,-229.0,472.0
19:30:42.394000,-42.0,-58.0,123.0,-502.0,165.0,-133.0,486.0,-229.0,472.0
19:30:42.399000,-42.0,-70.0,126.0,-492.0,152.0,-136.0,489.0,-229.0,459.0
19:30:42.404000,-39.0,-84.0,137.0,-479.0,140.0,-138.0,489.0,-229.0,459.0
19:30:42.408000,-34.0,-98.0,152.0,-464.0,127.0,-137.0,495.0,-234.0,472.0
19:30:42.413000,-34.0,-98.0,152.0,-448.0,121.0,-134.0,495.0,-234.0,472.0
19:30:42.417000,-31.0,-114.0,170.0,-435.0,113.0,-132.0,495.0,-234.0,472.0
19:30:42.422000,-30.0,-131.0,191.0,-428.0,101.0,-131.0,493.0,-234.0,465.0
19:30:42.427000,-28.0,-147.0,213.0,-435.0,97.0,-132.0,493.0,-234.0,465.0
19:30:42.432000,-28.0,-159.0,223.0,-453.0,106.0,-131.0,492.0,-231.0,472.0
19:30:42.436000,-32.0,-167.0,217.0,-474.0,121.0,-130.0,492.0,-231.0,472.0
19:30:42.441000,-42.0,-172.0,203.0,-489.0,126.0,-128.0,492.0,-231.0,472.0
19:30:42.446000,-55.0,-173.0,190.0,-497.0,115.0,-125.0,487.0,-232.0,466.0
19:30:42.451000,-66.0,-175.0,177.0,-507.0,101.0,-124.0,487.0,-232.0,466.0
19:30:42.455000,-73.0,-176.0,158.0,-527.0,102.0,-124.0,493.0,-226.0,459.0
19:30:42.460000,-81.0,-175.0,131.0,-550.0,116.0,-123.0,493.0,-226.0,459.0
19:30:42.464000,-93.0,-171.0,102.0,-563.0,125.0,-122.0,493.0,-226.0,459.0
19:30:42.469000,-102.0,-168.0,79.0,-557.0,114.0,-123.0,505.0,-229.0,477.0
19:30:42.474000,-104.0,-168.0,58.0,-557.0,98.0,-128.0,505.0,-229.0,477.0
19:30:42.479000,-98.0,-170.0,30.0,-543.0,98.0,-128.0,496.0,-235.0,459.0
19:30:42.483000,-90.0,-174.0,-2.0,-532.0,101.0,-133.0,496.0,-235.0,459.0
19:30:42.488000,-85.0,-178.0,-28.0,-527.0,124.0,-135.0,496.0,-235.0,459.0
19:30:42.493000,-88.0,-179.0,-44.0,-526.0,153.0,-136.0,507.0,-243.0,457.0
19:30:42.498000,-99.0,-178.0,-53.0,-528.0,179.0,-136.0,507.0,-243.0,457.0
19:30:42.502000,-115.0,-175.0,-53.0,-527.0,196.0,-136.0,507.0,-243.0,462.0
19:30:42.507000,-133.0,-170.0,-45.0,-521.0,199.0,-136.0,507.0,-243.0,462.0
19:30:42.514000,-148.0,-165.0,-34.0,-527.0,186.0,-138.0,513.0,-231.0,465.0
19:30:42.516000,-157.0,-161.0,-23.0,-527.0,186.0,-138.0,513.0,-231.0,465.0
19:30:42.520000,-157.0,-161.0,-23.0,-541.0,175.0,-139.0,513.0,-231.0,465.0
19:30:42.526000,-163.0,-157.0,-16.0,-559.0,161.0,-137.0,502.0,-238.0,444.0
19:30:42.530000,-163.0,-151.0,-7.0,-578.0,144.0,-133.0,502.0,-238.0,444.0
19:30:42.535000,-158.0,-144.0,2.0,-605.0,132.0,-132.0,502.0,-238.0,456.0
19:30:42.540000,-151.0,-135.0,10.0,-636.0,126.0,-131.0,502.0,-238.0,456.0
19:30:42.544000,-145.0,-123.0,14.0,-660.0,123.0,-129.0,502.0,-238.0,456.0
19:30:42.549000,-143.0,-107.0,23.0,-671.0,117.0,-128.0,513.0,-241.0,456.0
19:30:42.553000,-140.0,-92.0,33.0,-673.0,108.0,-128.0,513.0,-241.0,456.0
19:30:42.559000,-135.0,-82.0,35.0,-670.0,112.0,-131.0,495.0,-246.0,477.0
19:30:42.563000,-133.0,-72.0,25.0,-663.0,131.0,-135.0,495.0,-246.0,477.0
19:30:42.567000,-136.0,-63.0,15.0,-648.0,157.0,-139.0,495.0,-246.0,477.0
19:30:42.573000,-144.0,-58.0,8.0,-636.0,187.0,-145.0,504.0,-241.0,459.0
19:30:42.577000,-161.0,-53.0,3.0,-635.0,218.0,-151.0,504.0,-241.0,459.0
19:30:42.582000,-191.0,-46.0,-1.0,-635.0,218.0,-151.0,501.0,-250.0,465.0
19:30:42.587000,-226.0,-39.0,-1.0,-632.0,241.0,-154.0,501.0,-250.0,465.0
19:30:42.591000,-261.0,-36.0,0.0,-618.0,249.0,-157.0,501.0,-250.0,465.0
19:30:42.596000,-292.0,-34.0,-4.0,-606.0,247.0,-164.0,510.0,-249.0,454.0
19:30:42.601000,-315.0,-33.0,-8.0,-630.0,238.0,-191.0,510.0,-249.0,454.0
19:30:42.606000,-331.0,-30.0,-11.0,-630.0,238.0,-191.0,499.0,-237.0,459.0
19:30:42.610000,-344.0,-22.0,-7.0,-668.0,240.0,-204.0,499.0,-237.0,459.0
19:30:42.614000,-353.0,-14.0,8.0,-708.0,237.0,-216.0,499.0,-237.0,459.0
19:30:42.620000,-359.0,-4.0,37.0,-739.0,223.0,-228.0,501.0,-253.0,457.0
19:30:42.624000,-360.0,2.0,70.0,-760.0,209.0,-239.0,501.0,-253.0,457.0
19:30:42.629000,-357.0,11.0,99.0,-770.0,213.0,-249.0,508.0,-255.0,453.0
19:30:42.634000,-357.0,11.0,99.0,-768.0,233.0,-253.0,508.0,-255.0,453.0
19:30:42.638000,-354.0,22.0,126.0,-757.0,255.0,-253.0,508.0,-255.0,453.0
19:30:42.643000,-349.0,30.0,157.0,-752.0,271.0,-256.0,508.0,-256.0,465.0
19:30:42.648000,-340.0,37.0,188.0,-761.0,279.0,-254.0,508.0,-256.0,465.0
19:30:42.653000,-336.0,43.0,217.0,-774.0,274.0,-249.0,508.0,-261.0,465.0
19:30:42.657000,-329.0,46.0,251.0,-779.0,257.0,-247.0,508.0,-261.0,465.0
19:30:42.661000,-317.0,46.0,286.0,-786.0,253.0,-244.0,508.0,-261.0,465.0
19:30:42.667000,-305.0,44.0,308.0,-805.0,273.0,-240.0,507.0,-262.0,457.0
19:30:42.671000,-300.0,42.0,312.0,-823.0,297.0,-241.0,507.0,-262.0,457.0
19:30:42.676000,-296.0,39.0,316.0,-836.0,306.0,-247.0,507.0,-271.0,457.0
19:30:42.681000,-292.0,30.0,325.0,-858.0,317.0,-257.0,507.0,-271.0,457.0
19:30:42.685000,-289.0,22.0,305.0,-880.0,342.0,-271.0,507.0,-271.0,457.0
19:30:42.690000,-277.0,9.0,284.0,-887.0,385.0,-289.0,511.0,-273.0,460.0
19:30:42.695000,-270.0,0.0,266.0,-887.0,385.0,-289.0,511.0,-273.0,460.0
19:30:42.700000,-263.0,-11.0,240.0,-889.0,453.0,-313.0,520.0,-264.0,462.0
19:30:42.704000,-259.0,-18.0,198.0,-889.0,546.0,-340.0,520.0,-264.0,462.0
19:30:42.708000,-253.0,-25.0,142.0,-884.0,649.0,-367.0,520.0,-264.0,462.0
19:30:42.714000,-248.0,-30.0,81.0,-875.0,746.0,-391.0,510.0,-273.0,465.0
19:30:42.718000,-241.0,-38.0,25.0,-866.0,825.0,-411.0,510.0,-273.0,465.0
19:30:42.723000,-235.0,-46.0,-15.0,-859.0,886.0,-426.0,504.0,-268.0,456.0
19:30:42.728000,-234.0,-58.0,-37.0,-857.0,936.0,-438.0,504.0,-268.0,456.0
19:30:42.732000,-234.0,-58.0,-37.0,-855.0,983.0,-444.0,504.0,-268.0,456.0
19:30:42.737000,-246.0,-95.0,-47.0,-847.0,1028.0,-440.0,502.0,-280.0,475.0
19:30:42.742000,-246.0,-95.0,-47.0,-827.0,1054.0,-429.0,502.0,-280.0,475.0
19:30:42.747000,-252.0,-120.0,-45.0,-792.0,1062.0,-412.0,502.0,-280.0,475.0
19:30:42.751000,-253.0,-149.0,-40.0,-748.0,1059.0,-393.0,502.0,-280.0,475.0
19:30:42.755000,-250.0,-184.0,-30.0,-718.0,1049.0,-382.0,502.0,-280.0,475.0
19:30:42.761000,-240.0,-219.0,-12.0,-712.0,1030.0,-370.0,514.0,-283.0,460.0
19:30:42.765000,-224.0,-266.0,19.0,-705.0,983.0,-348.0,514.0,-283.0,460.0
19:30:42.770000,-210.0,-317.0,80.0,-711.0,951.0,-324.0,522.0,-283.0,453.0
19:30:42.775000,-205.0,-367.0,155.0,-737.0,973.0,-296.0,522.0,-283.0,453.0
19:30:42.779000,-211.0,-413.0,231.0,-751.0,1019.0,-261.0,522.0,-283.0,453.0
19:30:42.784000,-226.0,-446.0,285.0,-760.0,1061.0,-224.0,514.0,-283.0,460.0
19:30:42.789000,-245.0,-469.0,296.0,-765.0,1086.0,-194.0,514.0,-283.0,460.0
19:30:42.794000,-265.0,-480.0,284.0,-765.0,1086.0,-194.0,514.0,-292.0,450.0
19:30:42.798000,-273.0,-476.0,277.0,-750.0,1042.0,-163.0,514.0,-292.0,450.0
19:30:42.802000,-273.0,-457.0,270.0,-750.0,993.0,-147.0,514.0,-292.0,450.0
19:30:42.808000,-268.0,-431.0,260.0,-791.0,993.0,-147.0,520.0,-288.0,456.0
19:30:42.812000,-259.0,-368.0,288.0,-874.0,936.0,-154.0,520.0,-288.0,456.0
19:30:42.817000,-205.0,-376.0,499.0,-1065.0,831.0,-149.0,520.0,-286.0,456.0
19:30:42.822000,-218.0,-338.0,413.0,-2399.0,1041.0,-194.0,520.0,-286.0,456.0
19:30:42.826000,-312.0,-198.0,-587.0,-2399.0,1041.0,-194.0,520.0,-286.0,456.0
19:30:42.831000,-292.0,-88.0,-767.0,-2342.0,909.0,-203.0,520.0,-295.0,445.0
19:30:42.836000,-221.0,2.0,67.0,-845.0,562.0,-222.0,520.0,-295.0,445.0
19:30:42.841000,-236.0,11.0,506.0,155.0,752.0,-189.0,528.0,-295.0,448.0
19:30:42.845000,-233.0,45.0,353.0,98.0,1138.0,-173.0,528.0,-295.0,448.0
19:30:42.849000,-233.0,45.0,353.0,-102.0,1237.0,-178.0,528.0,-295.0,448.0
19:30:42.855000,-259.0,24.0,144.0,-373.0,1103.0,-214.0,534.0,-300.0,454.0
19:30:42.859000,-219.0,39.0,8.0,-646.0,882.0,-262.0,534.0,-300.0,454.0
19:30:42.864000,-221.0,32.0,95.0,-716.0,680.0,-289.0,514.0,-307.0,444.0
19:30:42.869000,-184.0,25.0,343.0,-757.0,648.0,-335.0,514.0,-307.0,444.0
19:30:42.873000,-145.0,-10.0,610.0,-821.0,783.0,-361.0,514.0,-307.0,444.0
19:30:42.878000,-156.0,-4.0,627.0,-845.0,882.0,-366.0,528.0,-304.0,453.0
19:30:42.883000,-180.0,-44.0,498.0,-830.0,791.0,-357.0,528.0,-304.0,453.0
19:30:42.888000,-196.0,-68.0,452.0,-764.0,585.0,-361.0,514.0,-304.0,441.0
19:30:42.892000,-209.0,-80.0,564.0,-654.0,455.0,-351.0,514.0,-304.0,441.0
19:30:42.896000,-225.0,-101.0,701.0,-681.0,474.0,-335.0,514.0,-304.0,441.0
19:30:42.902000,-200.0,-143.0,785.0,-766.0,454.0,-316.0,520.0,-322.0,456.0
19:30:42.906000,-212.0,-155.0,868.0,-818.0,375.0,-295.0,520.0,-322.0,456.0
19:30:42.911000,-242.0,-152.0,884.0,-902.0,296.0,-265.0,538.0,-322.0,451.0
19:30:42.916000,-257.0,-154.0,815.0,-902.0,296.0,-265.0,538.0,-322.0,451.0
19:30:42.921000,-257.0,-168.0,789.0,-927.0,133.0,-242.0,531.0,-324.0,457.0
19:30:42.925000,-253.0,-185.0,855.0,-886.0,-78.0,-220.0,531.0,-324.0,457.0
19:30:42.929000,-208.0,-209.0,852.0,-934.0,-144.0,-211.0,531.0,-324.0,457.0
19:30:42.935000,-193.0,-214.0,745.0,-1056.0,-73.0,-205.0,531.0,-330.0,448.0
19:30:42.939000,-181.0,-210.0,652.0,-1158.0,-42.0,-198.0,531.0,-330.0,448.0
19:30:42.944000,-177.0,-196.0,626.0,-1242.0,-92.0,-199.0,531.0,-328.0,448.0
19:30:42.949000,-175.0,-169.0,618.0,-1325.0,-141.0,-204.0,531.0,-328.0,448.0
19:30:42.953000,-175.0,-169.0,618.0,-1416.0,-153.0,-213.0,531.0,-328.0,448.0
19:30:42.958000,-131.0,-109.0,521.0,-1508.0,-167.0,-228.0,528.0,-339.0,463.0
19:30:42.963000,-131.0,-109.0,521.0,-1576.0,-161.0,-253.0,528.0,-339.0,463.0
19:30:42.968000,-86.0,-74.0,378.0,-1590.0,-132.0,-278.0,528.0,-339.0,463.0
19:30:42.972000,-30.0,-46.0,249.0,-1555.0,-93.0,-293.0,528.0,-339.0,463.0
19:30:42.976000,23.0,-26.0,182.0,-1512.0,-52.0,-303.0,528.0,-339.0,463.0
19:30:42.982000,56.0,0.0,166.0,-1499.0,-8.0,-317.0,532.0,-346.0,442.0
19:30:42.986000,96.0,20.0,178.0,-1495.0,37.0,-329.0,532.0,-346.0,442.0
19:30:42.991000,130.0,43.0,176.0,-1488.0,86.0,-331.0,526.0,-339.0,439.0
19:30:42.996000,156.0,63.0,156.0,-1475.0,125.0,-328.0,526.0,-339.0,439.0
19:30:43.000000,179.0,78.0,105.0,-1435.0,133.0,-316.0,526.0,-339.0,439.0
19:30:43.005000,192.0,89.0,65.0,-1363.0,134.0,-304.0,543.0,-348.0,447.0
19:30:43.010000,214.0,88.0,58.0,-1303.0,136.0,-294.0,543.0,-348.0,447.0
19:30:43.015000,208.0,102.0,51.0,-1303.0,136.0,-294.0,537.0,-343.0,438.0
19:30:43.019000,218.0,100.0,46.0,-1288.0,169.0,-265.0,537.0,-343.0,438.0
19:30:43.023000,191.0,103.0,92.0,-1288.0,169.0,-265.0,537.0,-343.0,438.0
19:30:43.029000,165.0,105.0,124.0,-1278.0,177.0,-246.0,546.0,-342.0,442.0
19:30:43.033000,135.0,116.0,114.0,-1297.0,181.0,-238.0,546.0,-342.0,442.0
19:30:43.038000,124.0,121.0,70.0,-1318.0,136.0,-228.0,537.0,-351.0,433.0
19:30:43.043000,127.0,121.0,24.0,-1353.0,93.0,-228.0,537.0,-351.0,433.0
19:30:43.050000,121.0,112.0,0.0,-1346.0,43.0,-227.0,526.0,-348.0,463.0
19:30:43.052000,134.0,98.0,-7.0,-1346.0,43.0,-227.0,526.0,-348.0,463.0
19:30:43.056000,134.0,98.0,-7.0,-1279.0,35.0,-233.0,526.0,-348.0,463.0
19:30:43.062000,124.0,103.0,-172.0,-1261.0,71.0,-243.0,534.0,-339.0,447.0
19:30:43.066000,123.0,87.0,-221.0,-1260.0,85.0,-251.0,534.0,-339.0,447.0
19:30:43.071000,123.0,87.0,-221.0,-1183.0,56.0,-254.0,534.0,-340.0,436.0
19:30:43.076000,119.0,81.0,-134.0,-1135.0,70.0,-259.0,534.0,-340.0,436.0
19:30:43.080000,111.0,81.0,-59.0,-1181.0,114.0,-267.0,534.0,-340.0,436.0
19:30:43.085000,102.0,80.0,-76.0,-1196.0,150.0,-271.0,535.0,-348.0,447.0
19:30:43.090000,97.0,60.0,-69.0,-1139.0,158.0,-275.0,535.0,-348.0,447.0
19:30:43.094000,65.0,62.0,-11.0,-1108.0,151.0,-290.0,537.0,-334.0,457.0
19:30:43.099000,54.0,53.0,46.0,-1102.0,204.0,-295.0,537.0,-334.0,457.0
19:30:43.103000,17.0,51.0,70.0,-947.0,348.0,-271.0,537.0,-334.0,457.0
19:30:43.109000,-23.0,56.0,63.0,-727.0,583.0,-274.0,531.0,-333.0,441.0
19:30:43.113000,29.0,28.0,9.0,-1024.0,367.0,-288.0,531.0,-333.0,441.0
19:30:43.118000,-93.0,17.0,123.0,-1163.0,-272.0,-278.0,535.0,-343.0,454.0
19:30:43.123000,-147.0,56.0,406.0,-1105.0,-523.0,-306.0,535.0,-343.0,454.0
19:30:43.127000,-120.0,30.0,333.0,-1105.0,-211.0,-292.0,535.0,-343.0,454.0
19:30:43.132000,-73.0,-2.0,100.0,-1105.0,205.0,-273.0,534.0,-343.0,444.0
19:30:43.137000,-85.0,-7.0,-154.0,-973.0,321.0,-291.0,534.0,-343.0,444.0
19:30:43.141000,-141.0,-13.0,-216.0,-973.0,321.0,-291.0,523.0,-346.0,441.0
19:30:43.146000,-163.0,-70.0,-177.0,-829.0,260.0,-281.0,523.0,-346.0,441.0
19:30:43.150000,-226.0,-107.0,-69.0,-799.0,147.0,-251.0,523.0,-346.0,441.0
19:30:43.156000,-219.0,-149.0,-25.0,-813.0,55.0,-265.0,528.0,-336.0,442.0
19:30:43.160000,-263.0,-172.0,-62.0,-910.0,76.0,-281.0,528.0,-336.0,442.0
19:30:43.165000,-280.0,-212.0,-120.0,-981.0,136.0,-276.0,535.0,-349.0,439.0
19:30:43.170000,-354.0,-239.0,-167.0,-1002.0,126.0,-272.0,535.0,-349.0,439.0
19:30:43.174000,-354.0,-239.0,-167.0,-982.0,97.0,-250.0,535.0,-349.0,439.0
19:30:43.179000,-388.0,-333.0,-152.0,-928.0,96.0,-244.0,541.0,-343.0,438.0
19:30:43.184000,-388.0,-333.0,-152.0,-907.0,81.0,-225.0,541.0,-343.0,438.0
19:30:43.188000,-386.0,-406.0,-163.0,-917.0,71.0,-208.0,544.0,-352.0,447.0
19:30:43.193000,-392.0,-468.0,-244.0,-916.0,56.0,-201.0,544.0,-352.0,447.0
19:30:43.197000,-417.0,-519.0,-291.0,-925.0,24.0,-148.0,544.0,-352.0,447.0
19:30:43.203000,-501.0,-552.0,-329.0,-948.0,31.0,-168.0,546.0,-348.0,435.0
19:30:43.207000,-473.0,-609.0,-407.0,-991.0,82.0,-204.0,546.0,-348.0,435.0
19:30:43.212000,-462.0,-645.0,-479.0,-1021.0,132.0,-161.0,562.0,-345.0,435.0
19:30:43.217000,-464.0,-677.0,-520.0,-1042.0,170.0,-136.0,562.0,-345.0,435.0
19:30:43.221000,-494.0,-714.0,-578.0,-1052.0,127.0,-113.0,562.0,-345.0,435.0
19:30:43.226000,-541.0,-732.0,-586.0,-1089.0,82.0,-109.0,549.0,-343.0,433.0
19:30:43.231000,-510.0,-764.0,-611.0,-1156.0,130.0,-103.0,549.0,-343.0,433.0
19:30:43.235000,-524.0,-774.0,-681.0,-1156.0,130.0,-103.0,552.0,-343.0,435.0
19:30:43.240000,-550.0,-775.0,-701.0,-1164.0,148.0,-85.0,552.0,-343.0,435.0
19:30:43.244000,-560.0,-777.0,-693.0,-1164.0,148.0,-85.0,552.0,-343.0,435.0
19:30:43.250000,-568.0,-779.0,-701.0,-1124.0,172.0,-68.0,555.0,-355.0,426.0
19:30:43.254000,-590.0,-763.0,-728.0,-1081.0,183.0,-64.0,555.0,-355.0,426.0
19:30:43.259000,-597.0,-750.0,-762.0,-1068.0,181.0,-64.0,553.0,-345.0,418.0
19:30:43.264000,-576.0,-741.0,-770.0,-1086.0,167.0,-71.0,553.0,-345.0,418.0
19:30:43.268000,-567.0,-728.0,-788.0,-1099.0,252.0,-61.0,553.0,-345.0,418.0
19:30:43.273000,-580.0,-689.0,-807.0,-1099.0,252.0,-61.0,559.0,-334.0,429.0
19:30:43.278000,-566.0,-659.0,-807.0,-1063.0,225.0,-61.0,559.0,-334.0,429.0
19:30:43.282000,-549.0,-630.0,-774.0,-1051.0,190.0,-59.0,573.0,-342.0,412.0
19:30:43.287000,-513.0,-595.0,-751.0,-1067.0,187.0,-63.0,573.0,-342.0,412.0
19:30:43.291000,-513.0,-595.0,-751.0,-1084.0,198.0,-65.0,573.0,-342.0,412.0
19:30:43.296000,-510.0,-554.0,-751.0,-1068.0,198.0,-69.0,565.0,-337.0,412.0
19:30:43.301000,-472.0,-519.0,-739.0,-1046.0,219.0,-74.0,565.0,-337.0,412.0
19:30:43.306000,-432.0,-491.0,-706.0,-1037.0,250.0,-77.0,571.0,-328.0,406.0
19:30:43.311000,-397.0,-451.0,-683.0,-1040.0,272.0,-82.0,571.0,-328.0,406.0
19:30:43.315000,-386.0,-410.0,-660.0,-1052.0,285.0,-88.0,571.0,-328.0,406.0
19:30:43.320000,-366.0,-378.0,-640.0,-1058.0,351.0,-92.0,580.0,-333.0,421.0
19:30:43.325000,-319.0,-363.0,-619.0,-1037.0,390.0,-82.0,580.0,-333.0,421.0
19:30:43.329000,-350.0,-326.0,-582.0,-1021.0,329.0,-91.0,583.0,-333.0,409.0
19:30:43.334000,-334.0,-294.0,-546.0,-1056.0,314.0,-121.0,583.0,-333.0,409.0
19:30:43.338000,-284.0,-276.0,-508.0,-1085.0,303.0,-113.0,583.0,-333.0,409.0
19:30:43.343000,-291.0,-245.0,-435.0,-1089.0,284.0,-102.0,579.0,-331.0,403.0
19:30:43.348000,-274.0,-219.0,-350.0,-1094.0,309.0,-112.0,579.0,-331.0,403.0
19:30:43.352000,-244.0,-190.0,-318.0,-1078.0,303.0,-110.0,576.0,-324.0,397.0
19:30:43.358000,-212.0,-172.0,-296.0,-1078.0,303.0,-110.0,576.0,-324.0,397.0
19:30:43.362000,-174.0,-154.0,-284.0,-1040.0,244.0,-108.0,576.0,-324.0,397.0
19:30:43.367000,-138.0,-131.0,-254.0,-998.0,185.0,-106.0,586.0,-322.0,391.0
19:30:43.372000,-112.0,-112.0,-194.0,-972.0,170.0,-99.0,586.0,-322.0,391.0
19:30:43.376000,-86.0,-91.0,-182.0,-974.0,212.0,-93.0,585.0,-319.0,394.0
19:30:43.381000,-52.0,-70.0,-211.0,-977.0,286.0,-98.0,585.0,-319.0,394.0
19:30:43.385000,-52.0,-70.0,-211.0,-961.0,251.0,-94.0,585.0,-319.0,394.0
19:30:43.390000,11.0,-37.0,-267.0,-952.0,183.0,-98.0,583.0,-316.0,399.0
19:30:43.395000,11.0,-37.0,-267.0,-954.0,177.0,-101.0,583.0,-316.0,399.0
19:30:43.400000,16.0,-23.0,-277.0,-948.0,199.0,-90.0,588.0,-316.0,391.0
19:30:43.405000,32.0,-18.0,-294.0,-935.0,275.0,-93.0,588.0,-316.0,391.0
19:30:43.409000,46.0,-14.0,-329.0,-917.0,340.0,-97.0,571.0,-327.0,394.0
19:30:43.414000,53.0,-5.0,-382.0,-895.0,307.0,-97.0,571.0,-327.0,394.0
19:30:43.418000,49.0,7.0,-385.0,-909.0,261.0,-103.0,571.0,-327.0,394.0
19:30:43.423000,91.0,6.0,-359.0,-950.0,303.0,-107.0,591.0,-310.0,396.0
19:30:43.428000,100.0,20.0,-319.0,-985.0,378.0,-101.0,591.0,-310.0,396.0
19:30:43.433000,100.0,35.0,-324.0,-1000.0,424.0,-100.0,583.0,-313.0,399.0
19:30:43.437000,101.0,50.0,-358.0,-978.0,397.0,-96.0,583.0,-313.0,399.0
19:30:43.442000,104.0,65.0,-370.0,-967.0,371.0,-97.0,583.0,-313.0,399.0
19:30:43.447000,122.0,79.0,-372.0,-984.0,364.0,-100.0,574.0,-313.0,408.0
19:30:43.452000,135.0,97.0,-352.0,-1010.0,365.0,-93.0,574.0,-313.0,408.0
19:30:43.456000,142.0,120.0,-340.0,-1010.0,365.0,-93.0,585.0,-313.0,403.0
19:30:43.461000,144.0,144.0,-366.0,-1057.0,391.0,-84.0,585.0,-313.0,403.0
19:30:43.465000,148.0,174.0,-396.0,-1082.0,391.0,-84.0,585.0,-313.0,403.0
19:30:43.470000,163.0,205.0,-410.0,-1076.0,375.0,-85.0,573.0,-307.0,394.0
19:30:43.475000,168.0,238.0,-414.0,-1078.0,361.0,-89.0,573.0,-307.0,394.0
19:30:43.480000,175.0,274.0,-405.0,-1070.0,349.0,-87.0,586.0,-307.0,400.0
19:30:43.484000,189.0,305.0,-401.0,-1077.0,361.0,-102.0,586.0,-307.0,400.0
19:30:43.492000,189.0,343.0,-399.0,-1102.0,427.0,-122.0,579.0,-298.0,405.0
19:30:43.494000,197.0,375.0,-414.0,-1102.0,427.0,-122.0,579.0,-298.0,405.0
19:30:43.498000,197.0,375.0,-414.0,-1113.0,463.0,-131.0,579.0,-298.0,405.0
19:30:43.503000,219.0,427.0,-478.0,-1108.0,478.0,-135.0,570.0,-291.0,411.0
19:30:43.508000,224.0,452.0,-486.0,-1101.0,478.0,-138.0,570.0,-291.0,411.0
19:30:43.513000,224.0,452.0,-486.0,-1070.0,492.0,-140.0,568.0,-289.0,405.0
19:30:43.517000,233.0,476.0,-485.0,-1063.0,542.0,-147.0,568.0,-289.0,405.0
19:30:43.521000,257.0,485.0,-503.0,-1044.0,569.0,-145.0,568.0,-289.0,405.0
19:30:43.527000,232.0,522.0,-506.0,-1040.0,567.0,-150.0,577.0,-285.0,406.0
19:30:43.531000,235.0,534.0,-505.0,-1029.0,557.0,-162.0,577.0,-285.0,406.0
19:30:43.536000,235.0,550.0,-491.0,-1016.0,552.0,-186.0,571.0,-277.0,427.0
19:30:43.541000,254.0,562.0,-468.0,-1053.0,593.0,-202.0,571.0,-277.0,427.0
19:30:43.545000,254.0,581.0,-497.0,-1090.0,631.0,-209.0,571.0,-277.0,427.0
19:30:43.550000,250.0,595.0,-543.0,-1085.0,615.0,-217.0,556.0,-274.0,408.0
19:30:43.555000,249.0,607.0,-486.0,-1076.0,604.0,-222.0,556.0,-274.0,408.0
19:30:43.560000,247.0,623.0,-406.0,-1076.0,604.0,-222.0,558.0,-265.0,409.0
19:30:43.564000,270.0,637.0,-411.0,-1171.0,708.0,-222.0,558.0,-265.0,409.0
19:30:43.568000,273.0,647.0,-466.0,-1193.0,670.0,-232.0,558.0,-265.0,409.0
19:30:43.574000,294.0,679.0,-485.0,-1216.0,648.0,-236.0,549.0,-261.0,427.0
19:30:43.578000,294.0,688.0,-462.0,-1216.0,648.0,-236.0,549.0,-261.0,427.0
19:30:43.583000,276.0,716.0,-429.0,-1246.0,601.0,-223.0,547.0,-267.0,430.0
19:30:43.588000,338.0,735.0,-374.0,-1259.0,571.0,-241.0,547.0,-267.0,430.0
19:30:43.592000,366.0,759.0,-284.0,-1196.0,628.0,-251.0,547.0,-267.0,430.0
19:30:43.597000,375.0,791.0,-240.0,-1183.0,686.0,-247.0,546.0,-249.0,424.0
19:30:43.602000,392.0,809.0,-283.0,-1219.0,709.0,-233.0,546.0,-249.0,424.0
19:30:43.607000,413.0,834.0,-341.0,-1154.0,709.0,-233.0,538.0,-255.0,432.0
19:30:43.611000,413.0,853.0,-304.0,-1095.0,669.0,-235.0,538.0,-255.0,432.0
19:30:43.615000,413.0,853.0,-304.0,-1095.0,626.0,-228.0,538.0,-255.0,432.0
19:30:43.621000,431.0,868.0,-284.0,-1094.0,634.0,-220.0,528.0,-247.0,432.0
19:30:43.625000,428.0,882.0,-277.0,-1095.0,673.0,-215.0,528.0,-247.0,432.0
19:30:43.630000,462.0,879.0,-256.0,-1095.0,700.0,-207.0,523.0,-249.0,444.0
19:30:43.635000,476.0,874.0,-252.0,-1014.0,673.0,-208.0,523.0,-249.0,444.0
19:30:43.639000,494.0,867.0,-221.0,-930.0,676.0,-207.0,523.0,-249.0,444.0
19:30:43.644000,502.0,860.0,-223.0,-929.0,738.0,-196.0,526.0,-232.0,448.0
19:30:43.649000,518.0,847.0,-254.0,-966.0,753.0,-195.0,526.0,-232.0,448.0
19:30:43.654000,534.0,830.0,-270.0,-974.0,734.0,-190.0,516.0,-234.0,447.0
19:30:43.658000,545.0,798.0,-268.0,-952.0,720.0,-183.0,516.0,-234.0,447.0
19:30:43.662000,539.0,767.0,-252.0,-966.0,737.0,-180.0,516.0,-234.0,447.0
19:30:43.668000,563.0,723.0,-258.0,-976.0,777.0,-181.0,517.0,-232.0,463.0
19:30:43.672000,549.0,683.0,-260.0,-944.0,761.0,-171.0,517.0,-232.0,463.0
19:30:43.677000,521.0,640.0,-186.0,-944.0,761.0,-171.0,511.0,-231.0,445.0
19:30:43.682000,511.0,597.0,-149.0,-909.0,743.0,-169.0,511.0,-231.0,445.0
19:30:43.686000,481.0,556.0,-122.0,-868.0,743.0,-163.0,511.0,-231.0,445.0
19:30:43.691000,457.0,518.0,-78.0,-809.0,704.0,-148.0,510.0,-216.0,448.0
19:30:43.696000,434.0,486.0,-2.0,-742.0,644.0,-141.0,510.0,-216.0,448.0
19:30:43.701000,394.0,459.0,85.0,-681.0,586.0,-134.0,510.0,-220.0,445.0
19:30:43.705000,371.0,436.0,135.0,-650.0,543.0,-139.0,510.0,-220.0,445.0
19:30:43.713000,345.0,417.0,175.0,-628.0,473.0,-176.0,508.0,-223.0,450.0
19:30:43.715000,317.0,405.0,174.0,-628.0,473.0,-176.0,508.0,-223.0,450.0
19:30:43.719000,317.0,405.0,174.0,-634.0,470.0,-197.0,508.0,-223.0,450.0
19:30:43.724000,236.0,401.0,189.0,-638.0,472.0,-220.0,484.0,-216.0,459.0
19:30:43.729000,236.0,401.0,189.0,-669.0,500.0,-247.0,484.0,-216.0,459.0
19:30:43.734000,198.0,403.0,168.0,-712.0,535.0,-269.0,504.0,-217.0,447.0
19:30:43.738000,156.0,410.0,128.0,-732.0,538.0,-285.0,504.0,-217.0,447.0
19:30:43.742000,120.0,415.0,111.0,-741.0,518.0,-296.0,504.0,-217.0,447.0
19:30:43.748000,98.0,413.0,108.0,-746.0,493.0,-301.0,511.0,-208.0,453.0
19:30:43.752000,84.0,403.0,95.0,-721.0,456.0,-300.0,511.0,-208.0,453.0
19:30:43.757000,77.0,388.0,85.0,-663.0,411.0,-293.0,492.0,-210.0,481.0
19:30:43.762000,83.0,366.0,88.0,-590.0,361.0,-280.0,492.0,-210.0,481.0
19:30:43.766000,98.0,333.0,121.0,-514.0,294.0,-262.0,492.0,-210.0,481.0
19:30:43.771000,120.0,299.0,176.0,-448.0,218.0,-248.0,487.0,-219.0,465.0
19:30:43.776000,156.0,256.0,233.0,-404.0,162.0,-238.0,487.0,-219.0,465.0
19:30:43.781000,203.0,207.0,267.0,-404.0,162.0,-238.0,492.0,-217.0,460.0
19:30:43.785000,249.0,161.0,294.0,-369.0,135.0,-225.0,492.0,-217.0,460.0
19:30:43.789000,299.0,113.0,309.0,-369.0,168.0,-223.0,492.0,-217.0,460.0
19:30:43.795000,342.0,71.0,301.0,-390.0,168.0,-223.0,495.0,-213.0,463.0
19:30:43.799000,373.0,35.0,273.0,-486.0,278.0,-224.0,495.0,-213.0,463.0
19:30:43.804000,392.0,5.0,238.0,-486.0,278.0,-224.0,486.0,-207.0,472.0
19:30:43.809000,394.0,-16.0,210.0,-541.0,331.0,-226.0,486.0,-207.0,472.0
19:30:43.813000,382.0,-34.0,189.0,-590.0,375.0,-227.0,486.0,-207.0,472.0
19:30:43.818000,357.0,-46.0,179.0,-625.0,414.0,-225.0,501.0,-214.0,460.0
19:30:43.823000,319.0,-55.0,189.0,-643.0,439.0,-220.0,501.0,-214.0,460.0
19:30:43.828000,275.0,-60.0,216.0,-644.0,448.0,-216.0,505.0,-205.0,450.0
19:30:43.832000,228.0,-64.0,252.0,-629.0,449.0,-214.0,505.0,-205.0,450.0
19:30:43.836000,228.0,-64.0,252.0,-605.0,449.0,-214.0,505.0,-205.0,450.0
19:30:43.842000,177.0,-63.0,293.0,-583.0,444.0,-213.0,496.0,-216.0,466.0
19:30:43.846000,123.0,-61.0,335.0,-564.0,435.0,-211.0,496.0,-216.0,466.0
19:30:43.851000,70.0,-57.0,374.0,-549.0,417.0,-207.0,507.0,-204.0,453.0
19:30:43.856000,20.0,-53.0,410.0,-533.0,383.0,-202.0,507.0,-204.0,453.0
19:30:43.860000,-22.0,-52.0,441.0,-513.0,340.0,-195.0,507.0,-204.0,453.0
19:30:43.865000,-53.0,-56.0,464.0,-491.0,295.0,-188.0,502.0,-214.0,459.0
19:30:43.870000,-71.0,-63.0,478.0,-472.0,256.0,-183.0,502.0,-214.0,459.0
19:30:43.875000,-81.0,-72.0,475.0,-457.0,225.0,-178.0,502.0,-207.0,465.0
19:30:43.879000,-75.0,-86.0,457.0,-451.0,202.0,-176.0,502.0,-207.0,465.0
19:30:43.883000,-61.0,-102.0,429.0,-458.0,188.0,-171.0,502.0,-207.0,465.0
19:30:43.889000,-43.0,-116.0,396.0,-474.0,185.0,-165.0,508.0,-217.0,457.0
19:30:43.893000,-21.0,-133.0,371.0,-494.0,181.0,-157.0,508.0,-217.0,457.0
19:30:43.898000,-3.0,-149.0,357.0,-494.0,181.0,-157.0,516.0,-219.0,475.0
19:30:43.903000,16.0,-166.0,352.0,-513.0,171.0,-147.0,516.0,-219.0,475.0
19:30:43.907000,33.0,-182.0,356.0,-523.0,162.0,-138.0,516.0,-219.0,475.0
19:30:43.912000,47.0,-197.0,373.0,-521.0,158.0,-128.0,514.0,-217.0,451.0
19:30:43.917000,55.0,-208.0,398.0,-516.0,163.0,-117.0,514.0,-217.0,451.0
19:30:43.922000,57.0,-216.0,418.0,-513.0,175.0,-108.0,511.0,-213.0,453.0
19:30:43.926000,54.0,-220.0,431.0,-507.0,190.0,-101.0,511.0,-213.0,453.0
19:30:43.930000,46.0,-221.0,442.0,-498.0,200.0,-95.0,511.0,-213.0,453.0
19:30:43.936000,37.0,-221.0,451.0,-488.0,204.0,-91.0,519.0,-217.0,465.0
19:30:43.940000,25.0,-218.0,463.0,-479.0,203.0,-90.0,519.0,-217.0,465.0
19:30:43.945000,14.0,-212.0,471.0,-474.0,200.0,-92.0,522.0,-222.0,453.0
19:30:43.950000,14.0,-212.0,471.0,-472.0,200.0,-95.0,522.0,-222.0,453.0
19:30:43.954000,2.0,-207.0,480.0,-472.0,197.0,-100.0,522.0,-222.0,453.0
19:30:43.959000,-4.0,-201.0,487.0,-478.0,188.0,-105.0,526.0,-222.0,450.0
19:30:43.964000,-5.0,-196.0,492.0,-489.0,173.0,-110.0,526.0,-222.0,450.0
19:30:43.969000,-4.0,-191.0,493.0,-500.0,157.0,-112.0,535.0,-222.0,442.0
19:30:43.973000,-2.0,-186.0,492.0,-503.0,138.0,-110.0,535.0,-222.0,442.0
19:30:43.977000,0.0,-186.0,495.0,-500.0,118.0,-107.0,535.0,-222.0,442.0
19:30:43.983000,0.0,-184.0,501.0,-494.0,104.0,-104.0,528.0,-222.0,448.0
19:30:43.987000,0.0,-181.0,503.0,-488.0,100.0,-102.0,528.0,-222.0,448.0
19:30:43.992000,-4.0,-178.0,494.0,-483.0,102.0,-100.0,528.0,-232.0,463.0
19:30:43.997000,-8.0,-174.0,473.0,-482.0,105.0,-99.0,528.0,-232.0,463.0
19:30:44.001000,-15.0,-170.0,447.0,-487.0,108.0,-99.0,528.0,-232.0,463.0
19:30:44.006000,-21.0,-166.0,417.0,-491.0,109.0,-101.0,550.0,-237.0,454.0
19:30:44.011000,-26.0,-161.0,385.0,-491.0,109.0,-101.0,550.0,-237.0,454.0
19:30:44.016000,-30.0,-154.0,358.0,-493.0,103.0,-103.0,550.0,-234.0,436.0
19:30:44.020000,-32.0,-150.0,331.0,-492.0,101.0,-104.0,550.0,-234.0,436.0
19:30:44.024000,-37.0,-146.0,305.0,-489.0,110.0,-102.0,550.0,-234.0,436.0
19:30:44.030000,-40.0,-142.0,282.0,-478.0,126.0,-100.0,553.0,-232.0,453.0
19:30:44.034000,-45.0,-140.0,264.0,-461.0,144.0,-99.0,553.0,-232.0,453.0
19:30:44.039000,-52.0,-142.0,256.0,-443.0,160.0,-97.0,540.0,-243.0,450.0
19:30:44.044000,-60.0,-147.0,267.0,-426.0,169.0,-94.0,540.0,-243.0,450.0
19:30:44.048000,-60.0,-147.0,267.0,-415.0,170.0,-91.0,540.0,-243.0,450.0
19:30:44.053000,-77.0,-161.0,312.0,-411.0,168.0,-88.0,558.0,-240.0,444.0
19:30:44.058000,-77.0,-161.0,312.0,-409.0,166.0,-85.0,558.0,-240.0,444.0
19:30:44.063000,-88.0,-170.0,346.0,-410.0,159.0,-81.0,543.0,-238.0,442.0
19:30:44.067000,-99.0,-179.0,386.0,-419.0,149.0,-77.0,543.0,-238.0,442.0
19:30:44.104000,-165.0,-158.0,424.0,-613.0,111.0,-73.0,549.0,-249.0,456.0
19:30:44.110000,-164.0,-150.0,400.0,-604.0,111.0,-74.0,549.0,-249.0,456.0
19:30:44.114000,-163.0,-148.0,374.0,-604.0,111.0,-74.0,549.0,-249.0,456.0
19:30:44.119000,-164.0,-146.0,350.0,-594.0,130.0,-67.0,549.0,-249.0,456.0
19:30:44.123000,-169.0,-146.0,333.0,-585.0,130.0,-67.0,549.0,-249.0,456.0
19:30:44.128000,-179.0,-147.0,321.0,-577.0,144.0,-63.0,562.0,-268.0,439.0
19:30:44.133000,-196.0,-147.0,312.0,-571.0,155.0,-59.0,562.0,-268.0,439.0
19:30:44.138000,-216.0,-144.0,311.0,-567.0,157.0,-55.0,570.0,-259.0,448.0
19:30:44.142000,-235.0,-140.0,312.0,-569.0,146.0,-53.0,570.0,-259.0,448.0
19:30:44.147000,-254.0,-136.0,308.0,-585.0,124.0,-52.0,570.0,-259.0,448.0
19:30:44.152000,-266.0,-129.0,300.0,-609.0,93.0,-53.0,571.0,-259.0,436.0
19:30:44.157000,-272.0,-125.0,287.0,-634.0,57.0,-54.0,571.0,-259.0,436.0
19:30:44.161000,-270.0,-123.0,265.0,-658.0,33.0,-61.0,558.0,-274.0,433.0
19:30:44.166000,-266.0,-120.0,231.0,-681.0,32.0,-72.0,558.0,-274.0,433.0
19:30:44.170000,-266.0,-120.0,231.0,-703.0,46.0,-82.0,558.0,-274.0,433.0
19:30:44.175000,-263.0,-114.0,195.0,-716.0,56.0,-93.0,565.0,-277.0,436.0
19:30:44.180000,-262.0,-106.0,170.0,-713.0,52.0,-104.0,565.0,-277.0,436.0
19:30:44.185000,-258.0,-101.0,160.0,-704.0,48.0,-116.0,567.0,-270.0,438.0
19:30:44.189000,-253.0,-98.0,151.0,-698.0,61.0,-126.0,567.0,-270.0,438.0
19:30:44.194000,-248.0,-93.0,137.0,-692.0,79.0,-133.0,567.0,-270.0,438.0
19:30:44.199000,-246.0,-91.0,126.0,-683.0,94.0,-140.0,559.0,-280.0,454.0
19:30:44.204000,-246.0,-90.0,114.0,-683.0,107.0,-147.0,559.0,-280.0,454.0
19:30:44.208000,-247.0,-92.0,95.0,-697.0,122.0,-155.0,576.0,-279.0,438.0
19:30:44.213000,-250.0,-95.0,70.0,-718.0,135.0,-162.0,576.0,-279.0,438.0
19:30:44.217000,-256.0,-102.0,51.0,-741.0,146.0,-169.0,576.0,-279.0,438.0
19:30:44.222000,-264.0,-111.0,36.0,-765.0,156.0,-176.0,571.0,-282.0,438.0
19:30:44.227000,-274.0,-121.0,18.0,-785.0,170.0,-183.0,571.0,-282.0,438.0
19:30:44.232000,-282.0,-130.0,1.0,-785.0,170.0,-183.0,582.0,-282.0,438.0
19:30:44.236000,-291.0,-140.0,-11.0,-808.0,187.0,-191.0,582.0,-282.0,438.0
19:30:44.244000,-302.0,-149.0,-15.0,-863.0,215.0,-205.0,580.0,-274.0,436.0
