hh:mm:ss.ms,gyroX[mdps],gyroY[mdps],gyroZ[mdps],accX[mg],accY[mg],accZ[mg],magX[mG],magY[mG],magZ[mG]
19:30:15.155000,-107.0,152.0,291.0,-1063.0,-218.0,-217.0,640.0,-406.0,12.0
19:30:15.159000,-92.0,156.0,341.0,-1090.0,-233.0,-199.0,640.0,-406.0,12.0
19:30:15.164000,-77.0,162.0,302.0,-1091.0,-259.0,-186.0,651.0,-405.0,18.0
19:30:15.169000,-67.0,175.0,263.0,-1091.0,-259.0,-186.0,651.0,-405.0,18.0
19:30:15.173000,-34.0,162.0,252.0,-1077.0,-300.0,-170.0,655.0,-414.0,16.0
19:30:15.178000,-9.0,152.0,203.0,-1078.0,-317.0,-155.0,655.0,-414.0,16.0
19:30:15.182000,12.0,151.0,99.0,-1114.0,-309.0,-154.0,655.0,-414.0,16.0
19:30:15.188000,34.0,133.0,-1.0,-1134.0,-285.0,-142.0,649.0,-400.0,19.0
19:30:15.192000,41.0,130.0,-53.0,-1107.0,-254.0,-133.0,649.0,-400.0,19.0
19:30:15.197000,54.0,117.0,-67.0,-1091.0,-191.0,-149.0,637.0,-411.0,24.0
19:30:15.202000,55.0,116.0,-79.0,-1110.0,-104.0,-162.0,637.0,-411.0,24.0
19:30:15.206000,55.0,116.0,-79.0,-1148.0,-29.0,-172.0,637.0,-411.0,24.0
19:30:15.211000,56.0,127.0,-169.0,-1187.0,8.0,-182.0,648.0,-408.0,21.0
19:30:15.216000,56.0,127.0,-169.0,-1221.0,11.0,-193.0,648.0,-408.0,21.0
19:30:15.220000,63.0,142.0,-217.0,-1258.0,-5.0,-202.0,648.0,-403.0,21.0
19:30:15.225000,62.0,159.0,-247.0,-1294.0,-37.0,-213.0,648.0,-403.0,21.0
19:30:15.229000,70.0,172.0,-253.0,-1301.0,-63.0,-215.0,648.0,-403.0,21.0
19:30:15.235000,70.0,179.0,-196.0,-1281.0,-67.0,-206.0,639.0,-405.0,19.0
19:30:15.239000,65.0,198.0,-132.0,-1279.0,-53.0,-204.0,639.0,-405.0,19.0
19:30:15.244000,51.0,226.0,-153.0,-1281.0,-68.0,-212.0,655.0,-402.0,19.0
19:30:15.249000,62.0,241.0,-201.0,-1240.0,-119.0,-220.0,655.0,-402.0,19.0
19:30:15.256000,95.0,236.0,-107.0,-1191.0,-103.0,-231.0,643.0,-402.0,18.0
19:30:15.258000,95.0,236.0,-107.0,-1191.0,-103.0,-231.0,643.0,-402.0,18.0
19:30:15.262000,124.0,224.0,-44.0,-1205.0,-48.0,-240.0,643.0,-402.0,18.0
19:30:15.267000,120.0,229.0,-10.0,-1235.0,-30.0,-253.0,652.0,-388.0,16.0
19:30:15.272000,105.0,240.0,-47.0,-1253.0,-36.0,-287.0,652.0,-388.0,16.0
19:30:15.277000,150.0,235.0,-88.0,-1253.0,-36.0,-287.0,645.0,-405.0,27.0
19:30:15.282000,140.0,241.0,-70.0,-1258.0,-56.0,-290.0,645.0,-405.0,27.0
19:30:15.286000,116.0,238.0,-44.0,-1228.0,-54.0,-259.0,645.0,-405.0,27.0
19:30:15.291000,125.0,212.0,-53.0,-1176.0,-29.0,-249.0,645.0,-396.0,27.0
19:30:15.296000,93.0,198.0,-86.0,-1142.0,-47.0,-240.0,645.0,-396.0,27.0
19:30:15.300000,56.0,204.0,-165.0,-1141.0,-76.0,-247.0,643.0,-396.0,42.0
19:30:15.305000,79.0,170.0,-197.0,-1153.0,-86.0,-270.0,643.0,-396.0,42.0
19:30:15.309000,79.0,170.0,-197.0,-1119.0,-59.0,-272.0,643.0,-396.0,42.0
19:30:15.314000,65.0,142.0,-75.0,-1077.0,-36.0,-274.0,652.0,-396.0,36.0
19:30:15.319000,44.0,128.0,-43.0,-1056.0,-28.0,-278.0,652.0,-396.0,36.0
19:30:15.324000,44.0,128.0,-43.0,-1057.0,21.0,-274.0,648.0,-391.0,39.0
19:30:15.329000,49.0,113.0,-92.0,-1047.0,58.0,-267.0,648.0,-391.0,39.0
19:30:15.333000,30.0,105.0,-194.0,-1012.0,9.0,-266.0,648.0,-391.0,39.0
19:30:15.338000,16.0,90.0,-247.0,-967.0,-79.0,-272.0,649.0,-391.0,39.0
19:30:15.343000,7.0,82.0,-186.0,-935.0,-124.0,-270.0,649.0,-391.0,39.0
19:30:15.347000,14.0,58.0,-99.0,-961.0,-85.0,-275.0,658.0,-390.0,24.0
19:30:15.352000,25.0,56.0,-79.0,-1073.0,-53.0,-285.0,658.0,-390.0,24.0
19:30:15.356000,47.0,71.0,-136.0,-1098.0,-111.0,-274.0,658.0,-390.0,24.0
19:30:15.361000,63.0,76.0,-96.0,-1017.0,-105.0,-240.0,633.0,-388.0,37.0
19:30:15.366000,81.0,32.0,-26.0,-1000.0,-7.0,-206.0,633.0,-388.0,37.0
19:30:15.371000,53.0,20.0,-159.0,-1000.0,51.0,-200.0,652.0,-391.0,31.0
19:30:15.376000,45.0,21.0,-268.0,-938.0,-106.0,-214.0,652.0,-391.0,31.0
19:30:15.380000,51.0,17.0,-186.0,-911.0,-190.0,-226.0,652.0,-391.0,31.0
19:30:15.385000,81.0,2.0,-54.0,-911.0,-69.0,-229.0,655.0,-382.0,30.0
19:30:15.390000,91.0,5.0,-56.0,-1010.0,-69.0,-229.0,655.0,-382.0,30.0
19:30:15.394000,65.0,19.0,-115.0,-1103.0,-78.0,-216.0,655.0,-387.0,33.0
19:30:15.399000,15.0,53.0,-96.0,-1103.0,-78.0,-216.0,655.0,-387.0,33.0
19:30:15.403000,23.0,62.0,-94.0,-1120.0,-50.0,-220.0,655.0,-387.0,33.0
19:30:15.408000,36.0,71.0,-138.0,-1120.0,-11.0,-216.0,654.0,-388.0,42.0
19:30:15.413000,22.0,82.0,-159.0,-1045.0,0.0,-206.0,654.0,-388.0,42.0
19:30:15.418000,11.0,89.0,-127.0,-996.0,-5.0,-209.0,642.0,-384.0,25.0
19:30:15.423000,28.0,87.0,-86.0,-1012.0,-64.0,-222.0,642.0,-384.0,25.0
19:30:15.427000,28.0,87.0,-86.0,-1045.0,-96.0,-234.0,642.0,-384.0,25.0
19:30:15.432000,83.0,81.0,-37.0,-1108.0,9.0,-235.0,651.0,-378.0,37.0
19:30:15.437000,83.0,81.0,-37.0,-1116.0,18.0,-220.0,651.0,-378.0,37.0
19:30:15.441000,62.0,102.0,-17.0,-1050.0,-85.0,-214.0,649.0,-379.0,48.0
19:30:15.446000,74.0,110.0,0.0,-1009.0,-71.0,-230.0,649.0,-379.0,48.0
19:30:15.450000,139.0,100.0,-29.0,-992.0,-33.0,-225.0,649.0,-379.0,48.0
19:30:15.455000,217.0,63.0,-105.0,-985.0,-38.0,-207.0,642.0,-387.0,37.0
19:30:15.460000,224.0,51.0,-150.0,-950.0,-90.0,-207.0,642.0,-387.0,37.0
19:30:15.465000,223.0,42.0,-144.0,-966.0,-94.0,-226.0,651.0,-384.0,30.0
19:30:15.470000,212.0,36.0,-124.0,-1023.0,-6.0,-232.0,651.0,-384.0,30.0
19:30:15.474000,173.0,53.0,-140.0,-1020.0,43.0,-230.0,651.0,-384.0,30.0
19:30:15.479000,165.0,60.0,-161.0,-990.0,21.0,-235.0,646.0,-390.0,33.0
19:30:15.484000,179.0,48.0,-168.0,-956.0,-25.0,-229.0,646.0,-390.0,33.0
19:30:15.488000,200.0,34.0,-170.0,-948.0,-83.0,-225.0,649.0,-379.0,37.0
19:30:15.493000,203.0,24.0,-192.0,-967.0,-80.0,-227.0,649.0,-379.0,37.0
19:30:15.497000,196.0,26.0,-201.0,-967.0,-80.0,-227.0,649.0,-379.0,37.0
19:30:15.502000,200.0,24.0,-226.0,-995.0,-4.0,-231.0,655.0,-375.0,34.0
19:30:15.507000,198.0,35.0,-282.0,-1015.0,41.0,-235.0,655.0,-375.0,34.0
19:30:15.512000,207.0,32.0,-312.0,-1011.0,-5.0,-238.0,639.0,-373.0,40.0
19:30:15.517000,209.0,25.0,-301.0,-998.0,-66.0,-241.0,639.0,-373.0,40.0
19:30:15.521000,191.0,23.0,-303.0,-1015.0,-48.0,-242.0,639.0,-373.0,40.0
19:30:15.526000,172.0,41.0,-341.0,-1049.0,32.0,-254.0,655.0,-373.0,33.0
19:30:15.531000,175.0,49.0,-368.0,-1050.0,96.0,-273.0,655.0,-373.0,33.0
19:30:15.535000,175.0,49.0,-368.0,-1032.0,116.0,-278.0,652.0,-375.0,42.0
19:30:15.540000,161.0,70.0,-320.0,-1036.0,85.0,-274.0,652.0,-375.0,42.0
19:30:15.544000,161.0,70.0,-320.0,-1075.0,70.0,-273.0,652.0,-375.0,42.0
19:30:15.549000,147.0,77.0,-305.0,-1112.0,91.0,-277.0,643.0,-372.0,28.0
19:30:15.554000,114.0,92.0,-337.0,-1115.0,113.0,-281.0,643.0,-372.0,28.0
19:30:15.559000,97.0,113.0,-374.0,-1089.0,123.0,-285.0,648.0,-375.0,30.0
19:30:15.564000,99.0,118.0,-373.0,-1068.0,95.0,-279.0,648.0,-375.0,30.0
19:30:15.568000,79.0,136.0,-364.0,-1079.0,95.0,-278.0,648.0,-375.0,30.0
19:30:15.573000,83.0,144.0,-394.0,-1096.0,112.0,-287.0,654.0,-364.0,43.0
19:30:15.578000,85.0,154.0,-446.0,-1097.0,102.0,-297.0,654.0,-364.0,43.0
19:30:15.582000,74.0,175.0,-471.0,-1091.0,103.0,-304.0,643.0,-361.0,34.0
19:30:15.587000,67.0,192.0,-480.0,-1086.0,115.0,-303.0,643.0,-361.0,34.0
19:30:15.591000,54.0,209.0,-477.0,-1073.0,126.0,-312.0,643.0,-361.0,34.0
19:30:15.596000,66.0,217.0,-475.0,-1069.0,110.0,-323.0,652.0,-364.0,37.0
19:30:15.601000,65.0,225.0,-456.0,-1087.0,64.0,-325.0,652.0,-364.0,37.0
19:30:15.606000,64.0,233.0,-443.0,-1087.0,64.0,-325.0,648.0,-364.0,36.0
19:30:15.611000,86.0,235.0,-447.0,-1102.0,61.0,-334.0,648.0,-364.0,36.0
19:30:15.615000,110.0,231.0,-439.0,-1077.0,84.0,-342.0,648.0,-364.0,36.0
19:30:15.620000,139.0,216.0,-429.0,-1038.0,113.0,-344.0,655.0,-354.0,40.0
19:30:15.625000,135.0,212.0,-446.0,-1017.0,174.0,-335.0,655.0,-354.0,40.0
19:30:15.629000,128.0,217.0,-459.0,-1017.0,174.0,-335.0,651.0,-346.0,42.0
19:30:15.634000,158.0,205.0,-462.0,-1002.0,188.0,-343.0,651.0,-346.0,42.0
19:30:15.638000,158.0,205.0,-462.0,-975.0,145.0,-347.0,651.0,-346.0,42.0
19:30:15.643000,210.0,161.0,-455.0,-986.0,140.0,-347.0,661.0,-345.0,52.0
19:30:15.648000,208.0,145.0,-455.0,-1014.0,161.0,-349.0,661.0,-345.0,52.0
19:30:15.653000,208.0,145.0,-455.0,-1019.0,169.0,-345.0,649.0,-336.0,51.0
19:30:15.658000,191.0,137.0,-446.0,-1018.0,195.0,-347.0,649.0,-336.0,51.0
19:30:15.662000,185.0,126.0,-447.0,-1029.0,223.0,-351.0,649.0,-336.0,51.0
19:30:15.667000,156.0,131.0,-434.0,-1043.0,276.0,-356.0,655.0,-343.0,46.0
19:30:15.672000,143.0,138.0,-433.0,-1055.0,315.0,-354.0,655.0,-343.0,46.0
19:30:15.676000,126.0,142.0,-462.0,-1050.0,267.0,-354.0,652.0,-334.0,64.0
19:30:15.681000,110.0,149.0,-482.0,-1041.0,216.0,-362.0,652.0,-334.0,64.0
19:30:15.685000,106.0,153.0,-486.0,-1042.0,214.0,-368.0,652.0,-334.0,64.0
19:30:15.690000,126.0,143.0,-487.0,-1044.0,230.0,-374.0,652.0,-340.0,48.0
19:30:15.695000,166.0,135.0,-483.0,-1032.0,216.0,-371.0,652.0,-340.0,48.0
19:30:15.700000,172.0,135.0,-469.0,-1014.0,199.0,-368.0,648.0,-325.0,40.0
19:30:15.705000,177.0,136.0,-454.0,-994.0,199.0,-374.0,648.0,-325.0,40.0
19:30:15.709000,177.0,144.0,-445.0,-990.0,196.0,-380.0,648.0,-325.0,40.0
19:30:15.714000,214.0,126.0,-450.0,-1006.0,204.0,-385.0,661.0,-328.0,51.0
19:30:15.719000,253.0,110.0,-473.0,-1006.0,204.0,-385.0,661.0,-328.0,51.0
19:30:15.723000,241.0,112.0,-501.0,-1002.0,200.0,-383.0,657.0,-309.0,49.0
19:30:15.728000,276.0,95.0,-508.0,-989.0,219.0,-393.0,657.0,-309.0,49.0
19:30:15.732000,282.0,98.0,-515.0,-1000.0,271.0,-405.0,657.0,-309.0,49.0
19:30:15.737000,289.0,96.0,-510.0,-1014.0,315.0,-404.0,648.0,-318.0,49.0
19:30:15.742000,289.0,100.0,-498.0,-1019.0,352.0,-411.0,648.0,-318.0,49.0
19:30:15.747000,287.0,99.0,-488.0,-1028.0,378.0,-417.0,655.0,-313.0,52.0
19:30:15.752000,270.0,97.0,-490.0,-1032.0,396.0,-414.0,655.0,-313.0,52.0
19:30:15.756000,270.0,97.0,-490.0,-1025.0,416.0,-417.0,655.0,-313.0,52.0
19:30:15.761000,255.0,86.0,-476.0,-1011.0,422.0,-419.0,660.0,-318.0,57.0
19:30:15.766000,255.0,86.0,-476.0,-1004.0,411.0,-416.0,660.0,-318.0,57.0
19:30:15.770000,260.0,68.0,-453.0,-1002.0,411.0,-425.0,648.0,-313.0,73.0
19:30:15.775000,275.0,50.0,-436.0,-999.0,427.0,-433.0,648.0,-313.0,73.0
19:30:15.779000,287.0,35.0,-431.0,-990.0,457.0,-434.0,648.0,-313.0,73.0
19:30:15.784000,302.0,21.0,-424.0,-976.0,479.0,-434.0,651.0,-295.0,64.0
19:30:15.789000,306.0,14.0,-427.0,-974.0,486.0,-428.0,651.0,-295.0,64.0
19:30:15.794000,301.0,11.0,-424.0,-990.0,503.0,-425.0,651.0,-306.0,63.0
19:30:15.799000,294.0,22.0,-417.0,-1022.0,529.0,-420.0,651.0,-306.0,63.0
19:30:15.803000,301.0,21.0,-415.0,-1066.0,526.0,-416.0,651.0,-306.0,63.0
19:30:15.808000,293.0,31.0,-410.0,-1123.0,490.0,-412.0,654.0,-294.0,61.0
19:30:15.813000,284.0,34.0,-395.0,-1190.0,477.0,-410.0,654.0,-294.0,61.0
19:30:15.817000,287.0,36.0,-421.0,-1190.0,477.0,-410.0,654.0,-295.0,46.0
19:30:15.822000,289.0,39.0,-469.0,-1283.0,485.0,-401.0,654.0,-295.0,46.0
19:30:15.826000,289.0,49.0,-478.0,-1283.0,485.0,-401.0,654.0,-295.0,46.0
19:30:15.831000,276.0,66.0,-453.0,-1283.0,463.0,-386.0,657.0,-291.0,45.0
19:30:15.836000,267.0,77.0,-400.0,-1256.0,454.0,-375.0,657.0,-291.0,45.0
19:30:15.841000,258.0,85.0,-336.0,-1220.0,459.0,-364.0,657.0,-292.0,42.0
19:30:15.846000,245.0,103.0,-298.0,-1201.0,475.0,-361.0,657.0,-292.0,42.0
19:30:15.853000,236.0,121.0,-332.0,-1199.0,476.0,-361.0,652.0,-291.0,52.0
19:30:15.855000,263.0,124.0,-428.0,-1199.0,476.0,-361.0,652.0,-291.0,52.0
19:30:15.859000,263.0,124.0,-428.0,-1200.0,468.0,-354.0,652.0,-291.0,52.0
19:30:15.864000,287.0,107.0,-550.0,-1157.0,487.0,-341.0,660.0,-279.0,52.0
19:30:15.869000,284.0,100.0,-501.0,-1113.0,518.0,-332.0,660.0,-279.0,52.0
19:30:15.874000,284.0,100.0,-501.0,-1110.0,496.0,-325.0,649.0,-289.0,54.0
19:30:15.878000,270.0,100.0,-432.0,-1118.0,473.0,-318.0,649.0,-289.0,54.0
19:30:15.882000,275.0,77.0,-396.0,-1103.0,489.0,-306.0,649.0,-289.0,54.0
19:30:15.888000,280.0,48.0,-419.0,-1071.0,503.0,-297.0,655.0,-276.0,39.0
19:30:15.893000,287.0,23.0,-444.0,-1053.0,494.0,-297.0,655.0,-276.0,39.0
19:30:15.897000,282.0,5.0,-422.0,-1047.0,459.0,-287.0,663.0,-274.0,51.0
19:30:15.902000,257.0,-16.0,-361.0,-1016.0,466.0,-292.0,663.0,-274.0,51.0
19:30:15.906000,256.0,-18.0,-351.0,-992.0,505.0,-306.0,663.0,-274.0,51.0
19:30:15.911000,234.0,-22.0,-419.0,-985.0,486.0,-286.0,660.0,-279.0,48.0
19:30:15.916000,211.0,-47.0,-431.0,-959.0,449.0,-276.0,660.0,-279.0,48.0
19:30:15.921000,175.0,-55.0,-369.0,-959.0,449.0,-276.0,648.0,-276.0,49.0
19:30:15.925000,131.0,-66.0,-301.0,-963.0,419.0,-270.0,648.0,-276.0,49.0
19:30:15.929000,84.0,-77.0,-270.0,-966.0,418.0,-281.0,648.0,-276.0,49.0
19:30:15.935000,57.0,-76.0,-297.0,-966.0,418.0,-281.0,651.0,-274.0,51.0
19:30:15.940000,28.0,-92.0,-290.0,-937.0,353.0,-278.0,651.0,-274.0,51.0
19:30:15.944000,5.0,-106.0,-263.0,-937.0,353.0,-278.0,640.0,-261.0,46.0
19:30:15.949000,-31.0,-107.0,-252.0,-874.0,348.0,-290.0,640.0,-261.0,46.0
19:30:15.953000,-58.0,-116.0,-239.0,-828.0,362.0,-283.0,640.0,-261.0,46.0
19:30:15.958000,-84.0,-113.0,-198.0,-783.0,353.0,-278.0,648.0,-267.0,48.0
19:30:15.963000,-101.0,-108.0,-149.0,-728.0,314.0,-271.0,648.0,-267.0,48.0
19:30:15.968000,-112.0,-101.0,-114.0,-677.0,260.0,-264.0,649.0,-264.0,48.0
19:30:15.972000,-119.0,-95.0,-72.0,-638.0,210.0,-258.0,649.0,-264.0,48.0
19:30:15.976000,-119.0,-95.0,-72.0,-623.0,177.0,-251.0,649.0,-264.0,48.0
19:30:15.982000,-121.0,-86.0,-42.0,-630.0,151.0,-244.0,646.0,-256.0,45.0
19:30:15.986000,-107.0,-92.0,-35.0,-637.0,115.0,-233.0,646.0,-256.0,45.0
19:30:15.991000,-84.0,-100.0,-44.0,-650.0,83.0,-221.0,654.0,-258.0,42.0
19:30:15.996000,-49.0,-119.0,-73.0,-659.0,65.0,-210.0,654.0,-258.0,42.0
19:30:16.000000,-11.0,-140.0,-104.0,-642.0,50.0,-197.0,654.0,-258.0,42.0
19:30:16.005000,27.0,-162.0,-123.0,-617.0,52.0,-185.0,655.0,-259.0,45.0
19:30:16.010000,61.0,-183.0,-135.0,-605.0,79.0,-177.0,655.0,-259.0,45.0
19:30:16.015000,90.0,-202.0,-158.0,-598.0,126.0,-169.0,648.0,-261.0,40.0
19:30:16.019000,111.0,-221.0,-181.0,-577.0,170.0,-162.0,648.0,-261.0,40.0
19:30:16.023000,119.0,-231.0,-191.0,-548.0,202.0,-154.0,648.0,-261.0,40.0
19:30:16.029000,122.0,-239.0,-198.0,-520.0,223.0,-147.0,657.0,-255.0,31.0
19:30:16.033000,127.0,-245.0,-196.0,-497.0,238.0,-143.0,657.0,-255.0,31.0
19:30:16.038000,129.0,-248.0,-186.0,-497.0,238.0,-143.0,660.0,-256.0,49.0
19:30:16.043000,127.0,-252.0,-165.0,-479.0,255.0,-134.0,660.0,-256.0,49.0
19:30:16.047000,120.0,-251.0,-131.0,-461.0,255.0,-134.0,660.0,-256.0,49.0
19:30:16.052000,110.0,-246.0,-88.0,-443.0,255.0,-130.0,646.0,-252.0,39.0
19:30:16.057000,98.0,-243.0,-37.0,-427.0,256.0,-128.0,646.0,-252.0,39.0
19:30:16.062000,86.0,-241.0,21.0,-413.0,260.0,-130.0,646.0,-259.0,42.0
19:30:16.066000,64.0,-232.0,79.0,-408.0,270.0,-132.0,646.0,-259.0,42.0
19:30:16.070000,37.0,-229.0,128.0,-412.0,291.0,-133.0,646.0,-259.0,42.0
19:30:16.076000,3.0,-224.0,165.0,-416.0,316.0,-132.0,658.0,-255.0,36.0
19:30:16.080000,-28.0,-220.0,198.0,-412.0,331.0,-132.0,658.0,-255.0,36.0
19:30:16.085000,-52.0,-226.0,233.0,-395.0,326.0,-141.0,646.0,-243.0,37.0
19:30:16.090000,-70.0,-233.0,266.0,-371.0,314.0,-149.0,646.0,-243.0,37.0
19:30:16.094000,-70.0,-233.0,266.0,-365.0,315.0,-155.0,646.0,-243.0,37.0
19:30:16.099000,-87.0,-235.0,295.0,-376.0,329.0,-157.0,651.0,-262.0,31.0
19:30:16.104000,-107.0,-235.0,318.0,-384.0,331.0,-159.0,651.0,-262.0,31.0
19:30:16.109000,-121.0,-235.0,343.0,-382.0,308.0,-161.0,654.0,-255.0,25.0
19:30:16.113000,-133.0,-234.0,367.0,-376.0,271.0,-159.0,654.0,-255.0,25.0
19:30:16.117000,-139.0,-234.0,382.0,-366.0,232.0,-156.0,654.0,-255.0,25.0
19:30:16.123000,-135.0,-234.0,390.0,-357.0,197.0,-153.0,639.0,-258.0,27.0
19:30:16.127000,-122.0,-233.0,389.0,-352.0,168.0,-150.0,639.0,-258.0,27.0
19:30:16.132000,-102.0,-233.0,380.0,-352.0,145.0,-148.0,642.0,-262.0,39.0
19:30:16.137000,-76.0,-237.0,366.0,-364.0,132.0,-148.0,642.0,-262.0,39.0
19:30:16.141000,-46.0,-240.0,348.0,-391.0,135.0,-147.0,642.0,-262.0,39.0
19:30:16.146000,-19.0,-244.0,329.0,-425.0,144.0,-145.0,655.0,-262.0,15.0
19:30:16.151000,2.0,-248.0,322.0,-454.0,143.0,-142.0,655.0,-262.0,15.0
19:30:16.156000,21.0,-253.0,329.0,-454.0,143.0,-142.0,649.0,-270.0,21.0
19:30:16.160000,35.0,-259.0,340.0,-479.0,148.0,-140.0,649.0,-270.0,21.0
19:30:16.164000,41.0,-260.0,350.0,-495.0,164.0,-138.0,649.0,-270.0,21.0
19:30:16.170000,42.0,-257.0,371.0,-499.0,184.0,-134.0,648.0,-273.0,15.0
19:30:16.174000,38.0,-254.0,403.0,-498.0,194.0,-129.0,648.0,-273.0,15.0
19:30:16.179000,30.0,-249.0,432.0,-501.0,199.0,-122.0,649.0,-265.0,16.0
19:30:16.184000,18.0,-240.0,459.0,-511.0,202.0,-115.0,649.0,-265.0,16.0
19:30:16.188000,18.0,-240.0,459.0,-521.0,193.0,-108.0,649.0,-265.0,16.0
19:30:16.193000,-2.0,-221.0,512.0,-525.0,172.0,-103.0,655.0,-270.0,21.0
19:30:16.198000,-11.0,-211.0,529.0,-526.0,153.0,-101.0,655.0,-270.0,21.0
19:30:16.203000,-11.0,-211.0,529.0,-531.0,148.0,-100.0,646.0,-270.0,16.0
19:30:16.207000,-17.0,-203.0,532.0,-538.0,151.0,-96.0,646.0,-270.0,16.0
19:30:16.211000,-25.0,-195.0,526.0,-539.0,153.0,-92.0,646.0,-270.0,16.0
19:30:16.217000,-35.0,-188.0,514.0,-534.0,153.0,-88.0,645.0,-294.0,28.0
19:30:16.221000,-44.0,-179.0,497.0,-520.0,142.0,-84.0,645.0,-294.0,28.0
19:30:16.226000,-50.0,-174.0,480.0,-502.0,122.0,-80.0,651.0,-285.0,10.0
19:30:16.231000,-51.0,-173.0,466.0,-486.0,107.0,-77.0,651.0,-285.0,10.0
19:30:16.235000,-49.0,-177.0,452.0,-480.0,104.0,-77.0,651.0,-285.0,10.0
19:30:16.240000,-46.0,-180.0,440.0,-488.0,113.0,-78.0,654.0,-294.0,1.0
19:30:16.245000,-44.0,-183.0,428.0,-510.0,127.0,-78.0,654.0,-294.0,1.0
19:30:16.250000,-47.0,-185.0,416.0,-536.0,134.0,-77.0,661.0,-297.0,12.0
19:30:16.254000,-51.0,-186.0,410.0,-559.0,127.0,-76.0,661.0,-297.0,12.0
19:30:16.262000,-51.0,-189.0,404.0,-579.0,111.0,-76.0,648.0,-292.0,-1.0
19:30:16.264000,-51.0,-189.0,404.0,-579.0,111.0,-76.0,648.0,-292.0,-1.0
19:30:16.268000,-46.0,-191.0,401.0,-598.0,94.0,-75.0,648.0,-292.0,-1.0
19:30:16.273000,-43.0,-191.0,403.0,-614.0,77.0,-76.0,654.0,-307.0,1.0
19:30:16.278000,-38.0,-190.0,409.0,-624.0,61.0,-76.0,654.0,-307.0,1.0
19:30:16.283000,-32.0,-186.0,417.0,-633.0,47.0,-79.0,660.0,-298.0,3.0
19:30:16.287000,-30.0,-180.0,421.0,-645.0,43.0,-83.0,660.0,-298.0,3.0
19:30:16.291000,-31.0,-170.0,420.0,-655.0,51.0,-87.0,660.0,-298.0,3.0
19:30:16.297000,-38.0,-159.0,418.0,-662.0,64.0,-89.0,654.0,-309.0,-1.0
19:30:16.301000,-51.0,-149.0,420.0,-664.0,74.0,-88.0,654.0,-309.0,-1.0
19:30:16.305000,-51.0,-149.0,420.0,-657.0,76.0,-85.0,643.0,-312.0,10.0
19:30:16.311000,-67.0,-142.0,425.0,-646.0,76.0,-80.0,643.0,-312.0,10.0
19:30:16.315000,-85.0,-135.0,434.0,-641.0,77.0,-76.0,643.0,-312.0,10.0
19:30:16.320000,-106.0,-128.0,441.0,-639.0,75.0,-70.0,649.0,-321.0,-7.0
19:30:16.325000,-128.0,-119.0,448.0,-635.0,60.0,-66.0,649.0,-321.0,-7.0
19:30:16.330000,-147.0,-114.0,452.0,-633.0,37.0,-65.0,652.0,-319.0,-12.0
19:30:16.334000,-164.0,-110.0,452.0,-639.0,23.0,-66.0,652.0,-319.0,-12.0
19:30:16.338000,-179.0,-108.0,446.0,-647.0,14.0,-68.0,652.0,-319.0,-12.0
19:30:16.344000,-191.0,-104.0,438.0,-657.0,8.0,-73.0,657.0,-324.0,-10.0
19:30:16.348000,-200.0,-100.0,430.0,-667.0,4.0,-79.0,657.0,-324.0,-10.0
19:30:16.352000,-205.0,-92.0,417.0,-673.0,0.0,-85.0,645.0,-324.0,-4.0
19:30:16.358000,-205.0,-87.0,398.0,-669.0,-11.0,-94.0,645.0,-324.0,-4.0
19:30:16.362000,-194.0,-82.0,379.0,-665.0,-26.0,-102.0,645.0,-324.0,-4.0
19:30:16.367000,-176.0,-81.0,359.0,-664.0,-34.0,-108.0,648.0,-322.0,-10.0
19:30:16.372000,-154.0,-79.0,341.0,-664.0,-36.0,-113.0,648.0,-322.0,-10.0
19:30:16.377000,-132.0,-78.0,334.0,-662.0,-36.0,-113.0,651.0,-339.0,-10.0
19:30:16.381000,-111.0,-78.0,333.0,-662.0,-36.0,-117.0,651.0,-339.0,-10.0
19:30:16.385000,-95.0,-81.0,333.0,-668.0,-25.0,-120.0,651.0,-339.0,-10.0
19:30:16.391000,-88.0,-82.0,337.0,-681.0,-3.0,-125.0,655.0,-334.0,-16.0
19:30:16.395000,-90.0,-81.0,345.0,-699.0,23.0,-128.0,655.0,-334.0,-16.0
19:30:16.399000,-102.0,-77.0,358.0,-720.0,47.0,-128.0,648.0,-330.0,-10.0
19:30:16.405000,-123.0,-71.0,373.0,-742.0,62.0,-129.0,648.0,-330.0,-10.0
19:30:16.409000,-123.0,-71.0,373.0,-763.0,65.0,-132.0,648.0,-330.0,-10.0
19:30:16.414000,-168.0,-52.0,390.0,-786.0,64.0,-138.0,655.0,-340.0,-10.0
19:30:16.419000,-188.0,-42.0,385.0,-817.0,71.0,-146.0,655.0,-340.0,-10.0
19:30:16.424000,-188.0,-42.0,385.0,-853.0,83.0,-152.0,637.0,-340.0,-15.0
19:30:16.428000,-205.0,-31.0,371.0,-887.0,91.0,-157.0,637.0,-340.0,-15.0
19:30:16.432000,-217.0,-22.0,352.0,-911.0,89.0,-162.0,637.0,-340.0,-15.0
19:30:16.438000,-221.0,-13.0,332.0,-927.0,78.0,-165.0,649.0,-342.0,-12.0
19:30:16.442000,-218.0,-3.0,313.0,-940.0,61.0,-163.0,649.0,-342.0,-12.0
19:30:16.446000,-210.0,5.0,301.0,-949.0,38.0,-162.0,646.0,-340.0,-13.0
19:30:16.452000,-196.0,11.0,296.0,-953.0,14.0,-162.0,646.0,-340.0,-13.0
19:30:16.456000,-175.0,11.0,298.0,-960.0,-2.0,-158.0,646.0,-340.0,-13.0
19:30:16.461000,-153.0,11.0,307.0,-961.0,-7.0,-152.0,639.0,-342.0,-10.0
19:30:16.466000,-130.0,7.0,317.0,-950.0,5.0,-148.0,639.0,-342.0,-10.0
19:30:16.471000,-109.0,4.0,329.0,-950.0,5.0,-148.0,652.0,-343.0,-16.0
19:30:16.475000,-91.0,1.0,333.0,-915.0,106.0,-145.0,652.0,-343.0,-16.0
19:30:16.479000,-83.0,-4.0,326.0,-905.0,187.0,-144.0,652.0,-343.0,-16.0
19:30:16.485000,-88.0,-5.0,306.0,-905.0,187.0,-144.0,642.0,-355.0,-16.0
19:30:16.489000,-102.0,-2.0,288.0,-902.0,266.0,-151.0,642.0,-355.0,-16.0
19:30:16.512000,-100.0,64.0,80.0,-1044.0,687.0,-269.0,628.0,-348.0,-1.0
19:30:16.518000,-66.0,71.0,29.0,-1057.0,743.0,-301.0,628.0,-348.0,-1.0
19:30:16.522000,-11.0,82.0,-23.0,-1071.0,772.0,-338.0,628.0,-348.0,-1.0
19:30:16.527000,44.0,84.0,-103.0,-1117.0,840.0,-369.0,642.0,-357.0,-10.0
19:30:16.532000,44.0,84.0,-103.0,-1168.0,975.0,-380.0,642.0,-357.0,-10.0
19:30:16.536000,70.0,88.0,-189.0,-1175.0,1115.0,-370.0,642.0,-357.0,-10.0
19:30:16.541000,61.0,107.0,-231.0,-1128.0,1190.0,-333.0,642.0,-354.0,-15.0
19:30:16.546000,28.0,117.0,-223.0,-1033.0,1164.0,-293.0,642.0,-354.0,-15.0
19:30:16.550000,-6.0,127.0,-177.0,-909.0,1052.0,-263.0,646.0,-349.0,-12.0
19:30:16.555000,-41.0,142.0,-109.0,-799.0,937.0,-229.0,646.0,-349.0,-12.0
19:30:16.559000,-63.0,137.0,-37.0,-706.0,858.0,-206.0,646.0,-349.0,-12.0
19:30:16.565000,-73.0,133.0,35.0,-651.0,853.0,-199.0,633.0,-352.0,7.0
19:30:16.569000,-94.0,131.0,92.0,-643.0,923.0,-194.0,633.0,-352.0,7.0
19:30:16.574000,-103.0,126.0,122.0,-661.0,954.0,-202.0,648.0,-348.0,-12.0
19:30:16.579000,-96.0,129.0,129.0,-740.0,926.0,-217.0,648.0,-348.0,-12.0
19:30:16.583000,-76.0,127.0,76.0,-858.0,908.0,-228.0,648.0,-348.0,-12.0
19:30:16.588000,-77.0,123.0,7.0,-904.0,866.0,-217.0,634.0,-346.0,-12.0
19:30:16.593000,-84.0,99.0,21.0,-904.0,866.0,-217.0,634.0,-346.0,-12.0
19:30:16.597000,-154.0,141.0,-70.0,-1333.0,828.0,-268.0,639.0,-349.0,-13.0
19:30:16.602000,-228.0,115.0,136.0,-925.0,669.0,-186.0,639.0,-349.0,-13.0
19:30:16.606000,-189.0,161.0,365.0,-925.0,669.0,-186.0,639.0,-349.0,-13.0
19:30:16.612000,-102.0,122.0,331.0,-563.0,712.0,-280.0,640.0,-349.0,-7.0
19:30:16.616000,-85.0,133.0,153.0,-741.0,798.0,-282.0,640.0,-349.0,-7.0
19:30:16.621000,-105.0,151.0,35.0,-888.0,945.0,-307.0,646.0,-351.0,-9.0
19:30:16.626000,-112.0,179.0,-23.0,-982.0,1032.0,-341.0,646.0,-351.0,-9.0
19:30:16.630000,-112.0,179.0,-23.0,-1050.0,969.0,-368.0,646.0,-351.0,-9.0
19:30:16.635000,-151.0,233.0,-2.0,-1171.0,815.0,-375.0,640.0,-349.0,-7.0
19:30:16.640000,-151.0,233.0,-2.0,-1214.0,678.0,-402.0,640.0,-349.0,-7.0
19:30:16.644000,-140.0,238.0,130.0,-1231.0,649.0,-444.0,643.0,-354.0,-10.0
19:30:16.649000,-114.0,245.0,128.0,-1267.0,633.0,-439.0,643.0,-354.0,-10.0
19:30:16.653000,-105.0,242.0,161.0,-1180.0,572.0,-421.0,643.0,-354.0,-10.0
19:30:16.659000,-102.0,252.0,231.0,-1122.0,539.0,-412.0,642.0,-352.0,-7.0
19:30:16.663000,-95.0,233.0,262.0,-1164.0,523.0,-409.0,642.0,-352.0,-7.0
19:30:16.668000,-102.0,231.0,273.0,-1192.0,495.0,-409.0,642.0,-351.0,-4.0
19:30:16.673000,-115.0,226.0,308.0,-1147.0,458.0,-396.0,642.0,-351.0,-4.0
19:30:16.677000,-128.0,222.0,298.0,-1053.0,439.0,-386.0,642.0,-351.0,-4.0
19:30:16.682000,-137.0,213.0,312.0,-999.0,432.0,-373.0,646.0,-354.0,-1.0
19:30:16.687000,-152.0,207.0,319.0,-987.0,416.0,-353.0,646.0,-354.0,-1.0
19:30:16.691000,-192.0,212.0,287.0,-973.0,363.0,-342.0,645.0,-361.0,3.0
19:30:16.696000,-220.0,214.0,285.0,-958.0,298.0,-339.0,645.0,-361.0,3.0
19:30:16.700000,-244.0,215.0,294.0,-958.0,255.0,-318.0,645.0,-361.0,3.0
19:30:16.706000,-257.0,206.0,278.0,-961.0,255.0,-318.0,646.0,-363.0,1.0
19:30:16.710000,-259.0,191.0,274.0,-946.0,189.0,-292.0,646.0,-363.0,1.0
19:30:16.715000,-267.0,189.0,277.0,-921.0,99.0,-274.0,642.0,-361.0,6.0
19:30:16.720000,-266.0,179.0,274.0,-952.0,48.0,-255.0,642.0,-361.0,6.0
19:30:16.724000,-249.0,164.0,259.0,-1005.0,39.0,-244.0,642.0,-361.0,6.0
19:30:16.729000,-219.0,153.0,270.0,-1022.0,-6.0,-247.0,648.0,-363.0,3.0
19:30:16.734000,-183.0,132.0,279.0,-1031.0,-101.0,-239.0,648.0,-363.0,3.0
19:30:16.738000,-183.0,132.0,279.0,-1055.0,-168.0,-225.0,639.0,-357.0,0.0
19:30:16.743000,-127.0,112.0,262.0,-1102.0,-162.0,-221.0,639.0,-357.0,0.0
19:30:16.747000,-127.0,112.0,262.0,-1150.0,-126.0,-218.0,639.0,-357.0,0.0
19:30:16.753000,-106.0,110.0,203.0,-1149.0,-126.0,-220.0,639.0,-367.0,3.0
19:30:16.757000,-81.0,110.0,141.0,-1122.0,-146.0,-231.0,639.0,-367.0,3.0
19:30:16.762000,-44.0,110.0,100.0,-1107.0,-146.0,-247.0,646.0,-360.0,-1.0
19:30:16.767000,-18.0,121.0,79.0,-1135.0,-97.0,-270.0,646.0,-360.0,-1.0
19:30:16.771000,0.0,140.0,63.0,-1193.0,-29.0,-295.0,646.0,-360.0,-1.0
19:30:16.776000,7.0,169.0,37.0,-1250.0,7.0,-311.0,636.0,-360.0,6.0
19:30:16.781000,15.0,196.0,13.0,-1291.0,8.0,-325.0,636.0,-360.0,6.0
19:30:16.785000,27.0,226.0,-18.0,-1322.0,0.0,-336.0,640.0,-366.0,4.0
19:30:16.790000,39.0,249.0,-53.0,-1320.0,-20.0,-340.0,640.0,-366.0,4.0
19:30:16.794000,61.0,261.0,-63.0,-1269.0,-53.0,-339.0,640.0,-366.0,4.0
19:30:16.800000,84.0,272.0,-53.0,-1207.0,-56.0,-338.0,625.0,-369.0,27.0
19:30:16.804000,98.0,288.0,-51.0,-1163.0,-22.0,-336.0,625.0,-369.0,27.0
19:30:16.809000,104.0,296.0,-64.0,-1163.0,-22.0,-336.0,639.0,-354.0,12.0
19:30:16.814000,116.0,303.0,-65.0,-1135.0,6.0,-337.0,639.0,-354.0,12.0
19:30:16.818000,132.0,315.0,-65.0,-1118.0,-3.0,-342.0,639.0,-354.0,12.0
19:30:16.823000,162.0,305.0,-61.0,-1099.0,-20.0,-345.0,648.0,-357.0,7.0
19:30:16.828000,186.0,298.0,-72.0,-1086.0,-19.0,-350.0,648.0,-357.0,7.0
19:30:16.832000,203.0,298.0,-101.0,-1130.0,18.0,-369.0,651.0,-367.0,16.0
19:30:16.837000,217.0,305.0,-133.0,-1130.0,18.0,-369.0,651.0,-367.0,16.0
19:30:16.841000,210.0,312.0,-147.0,-1177.0,35.0,-392.0,651.0,-367.0,16.0
19:30:16.847000,203.0,323.0,-121.0,-1203.0,24.0,-407.0,645.0,-367.0,13.0
19:30:16.851000,201.0,333.0,-105.0,-1194.0,8.0,-408.0,645.0,-367.0,13.0
19:30:16.856000,216.0,339.0,-97.0,-1172.0,18.0,-404.0,649.0,-367.0,6.0
19:30:16.861000,216.0,339.0,-97.0,-1114.0,29.0,-387.0,649.0,-367.0,6.0
19:30:16.865000,236.0,315.0,-57.0,-1052.0,26.0,-375.0,649.0,-367.0,6.0
19:30:16.870000,248.0,304.0,-27.0,-1001.0,-2.0,-372.0,648.0,-370.0,12.0
19:30:16.874000,261.0,284.0,26.0,-1004.0,-16.0,-364.0,648.0,-370.0,12.0
19:30:16.879000,282.0,266.0,38.0,-1044.0,-15.0,-369.0,633.0,-366.0,30.0
19:30:16.884000,285.0,261.0,37.0,-1049.0,-31.0,-368.0,633.0,-366.0,30.0
19:30:16.889000,310.0,241.0,32.0,-1042.0,-14.0,-357.0,649.0,-370.0,18.0
19:30:16.894000,321.0,225.0,-14.0,-974.0,70.0,-336.0,649.0,-370.0,18.0
19:30:16.898000,336.0,196.0,-58.0,-931.0,137.0,-327.0,649.0,-370.0,18.0
19:30:16.903000,336.0,192.0,-62.0,-1002.0,63.0,-337.0,660.0,-358.0,13.0
19:30:16.908000,310.0,196.0,-21.0,-1035.0,-77.0,-336.0,660.0,-358.0,13.0
19:30:16.912000,285.0,214.0,16.0,-1035.0,-77.0,-336.0,661.0,-367.0,25.0
19:30:16.917000,274.0,231.0,-20.0,-994.0,-59.0,-328.0,661.0,-367.0,25.0
19:30:16.921000,317.0,214.0,-74.0,-1042.0,-36.0,-331.0,661.0,-367.0,25.0
19:30:16.926000,335.0,216.0,-125.0,-1042.0,-36.0,-331.0,649.0,-369.0,25.0
19:30:16.931000,350.0,218.0,-135.0,-1076.0,-115.0,-313.0,649.0,-369.0,25.0
19:30:16.936000,363.0,219.0,-181.0,-1067.0,-140.0,-312.0,651.0,-372.0,27.0
19:30:16.941000,382.0,221.0,-294.0,-1060.0,76.0,-336.0,651.0,-372.0,27.0
19:30:16.945000,316.0,270.0,-320.0,-961.0,177.0,-331.0,651.0,-372.0,27.0
19:30:16.950000,324.0,266.0,-227.0,-876.0,85.0,-317.0,655.0,-375.0,28.0
19:30:16.955000,368.0,248.0,-158.0,-963.0,96.0,-344.0,655.0,-375.0,28.0
19:30:16.959000,342.0,262.0,-161.0,-1074.0,69.0,-358.0,664.0,-372.0,25.0
19:30:16.964000,338.0,258.0,-167.0,-1106.0,-18.0,-352.0,664.0,-372.0,25.0
19:30:16.971000,364.0,251.0,-189.0,-1039.0,86.0,-390.0,652.0,-372.0,37.0
19:30:16.973000,364.0,251.0,-189.0,-1039.0,86.0,-390.0,652.0,-372.0,37.0
19:30:16.978000,357.0,252.0,-168.0,-1006.0,126.0,-393.0,652.0,-372.0,37.0
19:30:16.983000,317.0,272.0,-137.0,-1004.0,172.0,-401.0,658.0,-355.0,27.0
19:30:16.988000,317.0,272.0,-160.0,-1017.0,203.0,-405.0,658.0,-355.0,27.0
19:30:16.992000,328.0,261.0,-194.0,-997.0,169.0,-412.0,661.0,-367.0,30.0
19:30:16.997000,331.0,255.0,-219.0,-965.0,126.0,-410.0,661.0,-367.0,30.0
19:30:17.001000,336.0,236.0,-219.0,-954.0,92.0,-404.0,661.0,-367.0,30.0
19:30:17.006000,337.0,226.0,-210.0,-958.0,94.0,-405.0,661.0,-370.0,30.0
19:30:17.011000,326.0,216.0,-191.0,-968.0,119.0,-408.0,661.0,-370.0,30.0
19:30:17.015000,327.0,206.0,-179.0,-990.0,177.0,-414.0,661.0,-373.0,28.0
19:30:17.020000,352.0,180.0,-170.0,-985.0,184.0,-399.0,661.0,-373.0,28.0
19:30:17.025000,336.0,163.0,-148.0,-983.0,137.0,-395.0,661.0,-373.0,28.0
19:30:17.030000,338.0,149.0,-149.0,-983.0,153.0,-401.0,657.0,-373.0,45.0
19:30:17.035000,338.0,136.0,-172.0,-1012.0,153.0,-401.0,657.0,-373.0,45.0
19:30:17.039000,327.0,119.0,-163.0,-1018.0,182.0,-392.0,660.0,-363.0,39.0
19:30:17.044000,303.0,114.0,-140.0,-1010.0,159.0,-386.0,660.0,-363.0,39.0
19:30:17.048000,292.0,105.0,-155.0,-1009.0,129.0,-380.0,660.0,-363.0,39.0
19:30:17.053000,303.0,86.0,-190.0,-1015.0,153.0,-377.0,664.0,-363.0,40.0
19:30:17.058000,294.0,72.0,-195.0,-1007.0,181.0,-375.0,664.0,-363.0,40.0
19:30:17.063000,279.0,63.0,-186.0,-992.0,181.0,-372.0,663.0,-357.0,61.0
19:30:17.067000,269.0,60.0,-190.0,-998.0,193.0,-376.0,663.0,-357.0,61.0
19:30:17.072000,269.0,60.0,-190.0,-985.0,235.0,-376.0,663.0,-357.0,61.0
19:30:17.077000,254.0,58.0,-222.0,-961.0,262.0,-372.0,660.0,-369.0,37.0
19:30:17.082000,254.0,58.0,-222.0,-972.0,234.0,-370.0,660.0,-369.0,37.0
19:30:17.086000,224.0,72.0,-235.0,-998.0,206.0,-376.0,670.0,-354.0,31.0
19:30:17.091000,221.0,79.0,-245.0,-1016.0,215.0,-378.0,670.0,-354.0,31.0
19:30:17.095000,209.0,86.0,-249.0,-1037.0,238.0,-375.0,670.0,-354.0,31.0
19:30:17.100000,198.0,99.0,-258.0,-1048.0,240.0,-374.0,663.0,-372.0,39.0
19:30:17.105000,181.0,112.0,-252.0,-1034.0,208.0,-373.0,663.0,-372.0,39.0
19:30:17.110000,156.0,124.0,-249.0,-1024.0,199.0,-378.0,651.0,-366.0,40.0
19:30:17.114000,150.0,128.0,-268.0,-1014.0,208.0,-381.0,651.0,-366.0,40.0
19:30:17.119000,144.0,129.0,-287.0,-999.0,212.0,-378.0,651.0,-366.0,40.0
19:30:17.124000,138.0,133.0,-293.0,-984.0,224.0,-370.0,673.0,-351.0,40.0
19:30:17.129000,129.0,135.0,-310.0,-970.0,236.0,-367.0,673.0,-351.0,40.0
19:30:17.133000,130.0,138.0,-338.0,-970.0,236.0,-367.0,658.0,-366.0,45.0
19:30:17.138000,133.0,143.0,-359.0,-947.0,169.0,-361.0,658.0,-366.0,45.0
19:30:17.142000,144.0,141.0,-350.0,-947.0,169.0,-361.0,658.0,-366.0,45.0
19:30:17.147000,164.0,130.0,-320.0,-947.0,109.0,-360.0,666.0,-352.0,43.0
19:30:17.161000,221.0,74.0,-441.0,-977.0,191.0,-375.0,673.0,-360.0,43.0
19:30:17.166000,217.0,56.0,-464.0,-949.0,246.0,-375.0,654.0,-348.0,60.0
19:30:17.171000,212.0,41.0,-479.0,-935.0,307.0,-378.0,654.0,-348.0,60.0
19:30:17.175000,212.0,41.0,-479.0,-945.0,364.0,-385.0,654.0,-348.0,60.0
19:30:17.180000,170.0,24.0,-499.0,-962.0,391.0,-392.0,664.0,-357.0,49.0
19:30:17.185000,147.0,18.0,-493.0,-971.0,399.0,-397.0,664.0,-357.0,49.0
19:30:17.190000,147.0,18.0,-493.0,-981.0,416.0,-399.0,667.0,-340.0,42.0
19:30:17.194000,123.0,11.0,-468.0,-993.0,428.0,-401.0,667.0,-340.0,42.0
19:30:17.198000,102.0,6.0,-458.0,-998.0,419.0,-404.0,667.0,-340.0,42.0
19:30:17.204000,84.0,3.0,-462.0,-1001.0,400.0,-406.0,666.0,-337.0,48.0
19:30:17.208000,77.0,0.0,-448.0,-1003.0,383.0,-400.0,666.0,-337.0,48.0
19:30:17.213000,63.0,-4.0,-425.0,-1003.0,373.0,-392.0,663.0,-342.0,46.0
19:30:17.218000,53.0,0.0,-420.0,-1003.0,382.0,-389.0,663.0,-342.0,46.0
19:30:17.222000,63.0,0.0,-449.0,-996.0,370.0,-394.0,663.0,-342.0,46.0
19:30:17.227000,77.0,0.0,-464.0,-998.0,333.0,-390.0,684.0,-327.0,33.0
19:30:17.232000,99.0,-6.0,-458.0,-1011.0,315.0,-381.0,684.0,-327.0,33.0
19:30:17.237000,123.0,-11.0,-463.0,-1011.0,284.0,-381.0,673.0,-334.0,48.0
19:30:17.241000,140.0,-22.0,-480.0,-1005.0,334.0,-397.0,673.0,-334.0,48.0
19:30:17.245000,163.0,-33.0,-506.0,-980.0,392.0,-403.0,673.0,-334.0,48.0
19:30:17.251000,170.0,-40.0,-532.0,-962.0,452.0,-404.0,666.0,-325.0,55.0
19:30:17.255000,163.0,-45.0,-562.0,-962.0,452.0,-404.0,666.0,-325.0,55.0
19:30:17.260000,160.0,-63.0,-569.0,-961.0,501.0,-413.0,669.0,-319.0,46.0
19:30:17.265000,149.0,-77.0,-556.0,-962.0,519.0,-428.0,669.0,-319.0,46.0
19:30:17.269000,140.0,-91.0,-547.0,-969.0,519.0,-429.0,669.0,-319.0,46.0
19:30:17.274000,130.0,-114.0,-529.0,-989.0,531.0,-428.0,666.0,-325.0,45.0
19:30:17.279000,102.0,-127.0,-508.0,-1002.0,543.0,-433.0,666.0,-325.0,45.0
19:30:17.284000,74.0,-140.0,-491.0,-994.0,562.0,-436.0,673.0,-319.0,39.0
19:30:17.288000,48.0,-156.0,-500.0,-984.0,596.0,-438.0,673.0,-319.0,39.0
19:30:17.292000,48.0,-156.0,-500.0,-982.0,613.0,-433.0,673.0,-319.0,39.0
19:30:17.298000,38.0,-184.0,-518.0,-976.0,608.0,-428.0,669.0,-310.0,39.0
19:30:17.302000,19.0,-207.0,-529.0,-951.0,600.0,-431.0,669.0,-310.0,39.0
19:30:17.307000,1.0,-224.0,-535.0,-924.0,603.0,-435.0,651.0,-310.0,48.0
19:30:17.312000,0.0,-242.0,-543.0,-923.0,607.0,-443.0,651.0,-310.0,48.0
19:30:17.316000,-8.0,-252.0,-531.0,-954.0,610.0,-452.0,651.0,-310.0,48.0
19:30:17.321000,-12.0,-262.0,-512.0,-983.0,617.0,-462.0,654.0,-307.0,37.0
19:30:17.326000,-17.0,-264.0,-513.0,-984.0,624.0,-469.0,654.0,-307.0,37.0
19:30:17.331000,-9.0,-269.0,-521.0,-975.0,622.0,-477.0,669.0,-297.0,42.0
19:30:17.335000,0.0,-269.0,-518.0,-994.0,606.0,-482.0,669.0,-297.0,42.0
19:30:17.339000,9.0,-268.0,-492.0,-1054.0,603.0,-484.0,669.0,-297.0,42.0
19:30:17.345000,16.0,-268.0,-480.0,-1121.0,630.0,-488.0,661.0,-292.0,31.0
19:30:17.349000,27.0,-266.0,-486.0,-1153.0,654.0,-493.0,661.0,-292.0,31.0
19:30:17.354000,37.0,-261.0,-472.0,-1153.0,654.0,-493.0,648.0,-292.0,33.0
19:30:17.359000,42.0,-259.0,-445.0,-1073.0,674.0,-485.0,648.0,-292.0,33.0
19:30:17.363000,50.0,-253.0,-442.0,-1073.0,674.0,-485.0,648.0,-292.0,33.0
19:30:17.368000,65.0,-254.0,-433.0,-1046.0,705.0,-479.0,666.0,-291.0,31.0
19:30:17.373000,66.0,-254.0,-415.0,-1050.0,709.0,-462.0,666.0,-291.0,31.0
19:30:17.378000,70.0,-251.0,-397.0,-1046.0,698.0,-450.0,658.0,-280.0,28.0
19:30:17.382000,75.0,-256.0,-367.0,-1037.0,674.0,-436.0,658.0,-280.0,28.0
19:30:17.386000,85.0,-268.0,-361.0,-1031.0,667.0,-413.0,658.0,-280.0,28.0
19:30:17.392000,96.0,-286.0,-366.0,-1036.0,694.0,-394.0,661.0,-279.0,19.0
19:30:17.396000,106.0,-310.0,-343.0,-1021.0,693.0,-378.0,661.0,-279.0,19.0
19:30:17.401000,103.0,-325.0,-296.0,-993.0,661.0,-363.0,637.0,-283.0,22.0
19:30:17.406000,111.0,-351.0,-257.0,-1010.0,648.0,-353.0,637.0,-283.0,22.0
19:30:17.410000,111.0,-351.0,-257.0,-1054.0,655.0,-345.0,637.0,-283.0,22.0
19:30:17.415000,108.0,-370.0,-247.0,-1079.0,664.0,-336.0,648.0,-277.0,21.0
19:30:17.420000,99.0,-388.0,-231.0,-1069.0,652.0,-330.0,648.0,-277.0,21.0
19:30:17.425000,96.0,-404.0,-187.0,-1050.0,618.0,-316.0,654.0,-264.0,16.0
19:30:17.429000,84.0,-423.0,-139.0,-1022.0,589.0,-294.0,654.0,-264.0,16.0
19:30:17.433000,74.0,-441.0,-92.0,-958.0,555.0,-272.0,654.0,-264.0,16.0
19:30:17.439000,54.0,-447.0,-39.0,-892.0,513.0,-248.0,634.0,-264.0,34.0
19:30:17.443000,32.0,-443.0,0.0,-840.0,471.0,-226.0,634.0,-264.0,34.0
19:30:17.448000,10.0,-440.0,39.0,-796.0,423.0,-208.0,655.0,-261.0,16.0
19:30:17.453000,-14.0,-433.0,90.0,-778.0,378.0,-199.0,655.0,-261.0,16.0
19:30:17.457000,-37.0,-424.0,127.0,-794.0,350.0,-197.0,655.0,-261.0,16.0
19:30:17.462000,-60.0,-415.0,124.0,-828.0,349.0,-194.0,660.0,-279.0,12.0
19:30:17.467000,-79.0,-412.0,78.0,-847.0,369.0,-194.0,660.0,-279.0,12.0
19:30:17.472000,-99.0,-408.0,17.0,-847.0,369.0,-194.0,648.0,-264.0,13.0
19:30:17.476000,-117.0,-402.0,-32.0,-816.0,398.0,-190.0,648.0,-264.0,13.0
19:30:17.480000,-138.0,-400.0,-56.0,-816.0,398.0,-190.0,648.0,-264.0,13.0
19:30:17.486000,-163.0,-389.0,-60.0,-784.0,405.0,-191.0,654.0,-267.0,4.0
19:30:17.490000,-186.0,-380.0,-75.0,-761.0,419.0,-195.0,654.0,-267.0,4.0
19:30:17.495000,-207.0,-366.0,-102.0,-745.0,436.0,-200.0,643.0,-279.0,-3.0
19:30:17.500000,-235.0,-350.0,-113.0,-717.0,440.0,-200.0,643.0,-279.0,-3.0
19:30:17.504000,-235.0,-350.0,-113.0,-677.0,429.0,-198.0,643.0,-279.0,-3.0
19:30:17.509000,-277.0,-313.0,-87.0,-639.0,411.0,-196.0,643.0,-264.0,-1.0
19:30:17.514000,-292.0,-295.0,-60.0,-605.0,382.0,-189.0,643.0,-264.0,-1.0
19:30:17.519000,-292.0,-295.0,-60.0,-572.0,343.0,-183.0,648.0,-262.0,7.0
19:30:17.523000,-303.0,-280.0,-19.0,-553.0,305.0,-175.0,648.0,-262.0,7.0
19:30:17.527000,-310.0,-268.0,23.0,-547.0,278.0,-171.0,648.0,-262.0,7.0
19:30:17.533000,-307.0,-254.0,46.0,-538.0,256.0,-171.0,645.0,-264.0,-4.0
19:30:17.537000,-292.0,-244.0,49.0,-522.0,231.0,-170.0,645.0,-264.0,-4.0
19:30:17.542000,-274.0,-235.0,49.0,-506.0,207.0,-168.0,652.0,-259.0,6.0
19:30:17.547000,-248.0,-228.0,56.0,-506.0,200.0,-168.0,652.0,-259.0,6.0
19:30:17.551000,-218.0,-224.0,49.0,-512.0,212.0,-167.0,652.0,-259.0,6.0
19:30:17.556000,-188.0,-222.0,32.0,-513.0,227.0,-164.0,651.0,-256.0,3.0
19:30:17.561000,-163.0,-221.0,25.0,-512.0,240.0,-158.0,651.0,-256.0,3.0
19:30:17.566000,-147.0,-220.0,37.0,-509.0,249.0,-151.0,648.0,-256.0,-3.0
19:30:17.570000,-140.0,-220.0,63.0,-507.0,262.0,-142.0,648.0,-256.0,-3.0
19:30:17.574000,-142.0,-219.0,85.0,-500.0,275.0,-131.0,648.0,-256.0,-3.0
19:30:17.580000,-152.0,-217.0,104.0,-500.0,275.0,-131.0,640.0,-255.0,9.0
19:30:17.584000,-169.0,-213.0,133.0,-479.0,276.0,-121.0,640.0,-255.0,9.0
19:30:17.589000,-190.0,-209.0,169.0,-450.0,263.0,-114.0,648.0,-258.0,-7.0
19:30:17.594000,-211.0,-205.0,209.0,-430.0,241.0,-111.0,648.0,-258.0,-7.0
19:30:17.598000,-233.0,-199.0,238.0,-433.0,225.0,-113.0,648.0,-258.0,-7.0
19:30:17.603000,-257.0,-188.0,259.0,-457.0,220.0,-119.0,645.0,-261.0,-1.0
19:30:17.608000,-277.0,-175.0,268.0,-493.0,219.0,-127.0,645.0,-261.0,-1.0
19:30:17.612000,-296.0,-161.0,261.0,-526.0,216.0,-136.0,649.0,-264.0,3.0
19:30:17.617000,-308.0,-149.0,247.0,-546.0,206.0,-148.0,649.0,-264.0,3.0
19:30:17.621000,-308.0,-149.0,247.0,-553.0,186.0,-150.0,649.0,-264.0,3.0
19:30:17.627000,-312.0,-136.0,229.0,-547.0,156.0,-148.0,649.0,-264.0,-10.0
19:30:17.631000,-298.0,-124.0,211.0,-532.0,120.0,-149.0,649.0,-264.0,-10.0
19:30:17.636000,-277.0,-122.0,185.0,-509.0,88.0,-145.0,652.0,-262.0,-4.0
19:30:17.641000,-243.0,-126.0,163.0,-482.0,64.0,-141.0,652.0,-262.0,-4.0
19:30:17.645000,-201.0,-135.0,149.0,-462.0,51.0,-136.0,652.0,-262.0,-4.0
19:30:17.650000,-155.0,-149.0,142.0,-453.0,55.0,-131.0,652.0,-262.0,-10.0
19:30:17.655000,-107.0,-165.0,135.0,-452.0,66.0,-128.0,652.0,-262.0,-10.0
19:30:17.660000,-65.0,-181.0,138.0,-457.0,81.0,-124.0,661.0,-270.0,-9.0
19:30:17.664000,-30.0,-193.0,151.0,-465.0,97.0,-120.0,661.0,-270.0,-9.0
19:30:17.668000,-2.0,-203.0,168.0,-472.0,110.0,-117.0,661.0,-270.0,-9.0
19:30:17.674000,14.0,-208.0,187.0,-479.0,120.0,-115.0,640.0,-259.0,-9.0
19:30:17.678000,27.0,-213.0,212.0,-494.0,130.0,-112.0,640.0,-259.0,-9.0
19:30:17.683000,34.0,-215.0,235.0,-494.0,130.0,-112.0,651.0,-276.0,-6.0
19:30:17.688000,35.0,-213.0,258.0,-537.0,149.0,-109.0,651.0,-276.0,-6.0
19:30:17.692000,28.0,-207.0,286.0,-537.0,149.0,-109.0,651.0,-276.0,-6.0
19:30:17.697000,19.0,-199.0,324.0,-553.0,144.0,-107.0,658.0,-271.0,-15.0
19:30:17.701000,14.0,-191.0,345.0,-584.0,158.0,-101.0,658.0,-271.0,-15.0
19:30:17.707000,6.0,-180.0,352.0,-584.0,158.0,-101.0,661.0,-265.0,9.0
19:30:17.711000,-3.0,-170.0,366.0,-581.0,160.0,-100.0,661.0,-265.0,9.0
19:30:17.716000,-11.0,-158.0,376.0,-577.0,162.0,-99.0,648.0,-274.0,-16.0
19:30:17.721000,-24.0,-144.0,381.0,-578.0,172.0,-96.0,648.0,-274.0,-16.0
19:30:17.725000,-24.0,-144.0,381.0,-574.0,174.0,-91.0,648.0,-274.0,-16.0
19:30:17.730000,-49.0,-122.0,395.0,-560.0,163.0,-85.0,651.0,-277.0,-18.0
19:30:17.735000,-52.0,-114.0,394.0,-541.0,150.0,-81.0,651.0,-277.0,-18.0
19:30:17.739000,-52.0,-114.0,394.0,-524.0,143.0,-80.0,652.0,-279.0,-27.0
19:30:17.744000,-52.0,-110.0,382.0,-512.0,143.0,-80.0,652.0,-279.0,-27.0
19:30:17.748000,-47.0,-112.0,371.0,-510.0,152.0,-81.0,652.0,-279.0,-27.0
19:30:17.754000,-38.0,-114.0,350.0,-516.0,161.0,-82.0,657.0,-276.0,-19.0
19:30:17.758000,-30.0,-119.0,335.0,-522.0,157.0,-81.0,657.0,-276.0,-19.0
19:30:17.763000,-25.0,-125.0,333.0,-523.0,139.0,-78.0,645.0,-285.0,-22.0
19:30:17.768000,-20.0,-133.0,342.0,-517.0,118.0,-76.0,645.0,-285.0,-22.0
19:30:17.772000,-15.0,-142.0,357.0,-512.0,106.0,-73.0,645.0,-285.0,-22.0
19:30:17.777000,-12.0,-150.0,370.0,-514.0,108.0,-71.0,652.0,-292.0,-22.0
19:30:17.782000,-11.0,-158.0,382.0,-523.0,113.0,-71.0,652.0,-292.0,-22.0
19:30:17.786000,-14.0,-163.0,398.0,-542.0,112.0,-71.0,655.0,-294.0,-19.0
19:30:17.791000,-19.0,-166.0,414.0,-565.0,105.0,-71.0,655.0,-294.0,-19.0
19:30:17.805000,-39.0,-162.0,441.0,-605.0,90.0,-73.0,652.0,-292.0,-16.0
19:30:17.810000,-44.0,-161.0,434.0,-621.0,95.0,-74.0,646.0,-291.0,-15.0
19:30:17.815000,-51.0,-158.0,420.0,-636.0,110.0,-74.0,646.0,-291.0,-15.0
19:30:17.819000,-61.0,-157.0,406.0,-648.0,126.0,-73.0,651.0,-294.0,-27.0
19:30:17.824000,-72.0,-152.0,399.0,-655.0,132.0,-72.0,651.0,-294.0,-27.0
19:30:17.828000,-83.0,-149.0,393.0,-654.0,127.0,-71.0,651.0,-294.0,-27.0
19:30:17.833000,-91.0,-145.0,382.0,-649.0,119.0,-75.0,658.0,-295.0,-30.0
19:30:17.838000,-100.0,-142.0,369.0,-643.0,118.0,-82.0,658.0,-295.0,-30.0
19:30:17.843000,-113.0,-135.0,359.0,-641.0,124.0,-89.0,652.0,-306.0,-28.0
19:30:17.848000,-113.0,-135.0,359.0,-642.0,128.0,-99.0,652.0,-306.0,-28.0
19:30:17.852000,-126.0,-126.0,356.0,-646.0,120.0,-107.0,648.0,-309.0,-18.0
19:30:17.857000,-138.0,-116.0,355.0,-654.0,102.0,-111.0,648.0,-309.0,-18.0
19:30:17.861000,-147.0,-106.0,355.0,-661.0,76.0,-113.0,648.0,-309.0,-18.0
19:30:17.866000,-152.0,-97.0,354.0,-665.0,42.0,-115.0,649.0,-313.0,-39.0
19:30:17.871000,-150.0,-91.0,352.0,-664.0,11.0,-117.0,649.0,-313.0,-39.0
19:30:17.876000,-141.0,-88.0,349.0,-663.0,-11.0,-120.0,660.0,-318.0,-37.0
19:30:17.880000,-128.0,-85.0,345.0,-666.0,-19.0,-123.0,660.0,-318.0,-37.0
19:30:17.885000,-116.0,-82.0,338.0,-671.0,-16.0,-123.0,660.0,-318.0,-37.0
19:30:17.890000,-107.0,-79.0,334.0,-671.0,-12.0,-122.0,648.0,-315.0,-31.0
19:30:17.895000,-100.0,-79.0,334.0,-665.0,-10.0,-123.0,648.0,-315.0,-31.0
19:30:17.899000,-95.0,-82.0,337.0,-665.0,-10.0,-123.0,652.0,-309.0,-34.0
19:30:17.904000,-91.0,-85.0,334.0,-661.0,21.0,-129.0,652.0,-309.0,-34.0
19:30:17.908000,-88.0,-86.0,322.0,-661.0,21.0,-129.0,652.0,-309.0,-34.0
19:30:17.913000,-89.0,-86.0,317.0,-657.0,40.0,-132.0,655.0,-312.0,-39.0
19:30:17.918000,-91.0,-83.0,324.0,-647.0,45.0,-136.0,655.0,-312.0,-39.0
19:30:17.923000,-91.0,-79.0,330.0,-648.0,44.0,-143.0,651.0,-327.0,-37.0
19:30:17.927000,-91.0,-72.0,334.0,-663.0,40.0,-150.0,651.0,-327.0,-37.0
19:30:17.932000,-90.0,-63.0,338.0,-681.0,35.0,-156.0,651.0,-327.0,-37.0
19:30:17.937000,-85.0,-53.0,343.0,-697.0,30.0,-162.0,643.0,-327.0,-40.0
19:30:17.942000,-76.0,-43.0,349.0,-708.0,20.0,-168.0,643.0,-327.0,-40.0
19:30:17.946000,-65.0,-33.0,353.0,-716.0,11.0,-173.0,643.0,-324.0,-27.0
19:30:17.951000,-51.0,-23.0,356.0,-729.0,10.0,-177.0,643.0,-324.0,-27.0
19:30:17.955000,-51.0,-23.0,356.0,-744.0,10.0,-179.0,643.0,-324.0,-27.0
19:30:17.960000,-39.0,-14.0,360.0,-753.0,6.0,-177.0,652.0,-331.0,-42.0
19:30:17.965000,-28.0,-3.0,368.0,-755.0,0.0,-176.0,652.0,-331.0,-42.0
19:30:17.970000,-14.0,5.0,373.0,-757.0,0.0,-176.0,642.0,-334.0,-40.0
19:30:17.974000,-2.0,14.0,368.0,-767.0,15.0,-176.0,642.0,-334.0,-40.0
19:30:17.979000,9.0,23.0,355.0,-785.0,39.0,-179.0,642.0,-334.0,-40.0
19:30:17.984000,18.0,33.0,342.0,-817.0,65.0,-181.0,651.0,-342.0,-46.0
19:30:17.988000,24.0,43.0,331.0,-861.0,91.0,-180.0,651.0,-342.0,-46.0
19:30:17.993000,23.0,53.0,317.0,-902.0,112.0,-179.0,657.0,-337.0,-40.0
19:30:17.998000,16.0,59.0,303.0,-925.0,119.0,-173.0,657.0,-337.0,-40.0
19:30:18.002000,10.0,64.0,294.0,-924.0,109.0,-164.0,657.0,-337.0,-40.0
19:30:18.007000,3.0,65.0,297.0,-906.0,93.0,-159.0,643.0,-337.0,-45.0
19:30:18.012000,0.0,61.0,303.0,-888.0,94.0,-160.0,643.0,-337.0,-45.0
19:30:18.017000,0.0,56.0,303.0,-888.0,94.0,-160.0,642.0,-342.0,-49.0
19:30:18.021000,0.0,53.0,295.0,-882.0,127.0,-166.0,642.0,-342.0,-49.0
19:30:18.026000,-4.0,49.0,280.0,-889.0,186.0,-174.0,642.0,-342.0,-49.0
19:30:18.031000,-15.0,45.0,263.0,-901.0,247.0,-185.0,655.0,-340.0,-48.0
19:30:18.036000,-27.0,42.0,248.0,-919.0,328.0,-212.0,655.0,-340.0,-48.0
