hh:mm:ss.ms,gyroX[mdps],gyroY[mdps],gyroZ[mdps],accX[mg],accY[mg],accZ[mg],magX[mG],magY[mG],magZ[mG]
19:30:39.819000,22.0,17.0,-3.0,-1561.0,-131.0,-340.0,493.0,-325.0,489.0
19:30:39.823000,52.0,28.0,-55.0,-1512.0,-114.0,-341.0,493.0,-325.0,489.0
19:30:39.828000,81.0,35.0,-88.0,-1474.0,-84.0,-348.0,493.0,-325.0,489.0
19:30:39.833000,98.0,48.0,-128.0,-1483.0,-65.0,-359.0,496.0,-328.0,493.0
19:30:39.838000,114.0,57.0,-200.0,-1498.0,-74.0,-366.0,496.0,-328.0,493.0
19:30:39.842000,108.0,79.0,-266.0,-1498.0,-74.0,-366.0,489.0,-319.0,498.0
19:30:39.847000,118.0,93.0,-332.0,-1484.0,-77.0,-365.0,489.0,-319.0,498.0
19:30:39.851000,135.0,86.0,-343.0,-1426.0,-83.0,-366.0,489.0,-319.0,498.0
19:30:39.856000,130.0,93.0,-312.0,-1311.0,-104.0,-365.0,495.0,-315.0,492.0
19:30:39.861000,102.0,118.0,-331.0,-1225.0,-69.0,-359.0,495.0,-315.0,492.0
19:30:39.866000,136.0,73.0,-282.0,-1150.0,4.0,-357.0,496.0,-319.0,504.0
19:30:39.870000,133.0,53.0,-212.0,-1067.0,78.0,-358.0,496.0,-319.0,504.0
19:30:39.875000,120.0,48.0,-243.0,-1066.0,140.0,-364.0,496.0,-319.0,504.0
19:30:39.880000,123.0,27.0,-279.0,-1065.0,151.0,-368.0,477.0,-310.0,495.0
19:30:39.885000,121.0,2.0,-302.0,-1016.0,179.0,-372.0,477.0,-310.0,495.0
19:30:39.889000,100.0,-18.0,-291.0,-993.0,255.0,-365.0,484.0,-322.0,486.0
19:30:39.894000,100.0,-18.0,-291.0,-975.0,287.0,-341.0,484.0,-322.0,486.0
19:30:39.898000,54.0,-16.0,-263.0,-922.0,316.0,-323.0,484.0,-322.0,486.0
19:30:39.903000,42.0,-33.0,-276.0,-848.0,337.0,-302.0,487.0,-309.0,501.0
19:30:39.908000,73.0,-64.0,-266.0,-864.0,210.0,-289.0,487.0,-309.0,501.0
19:30:39.913000,49.0,-67.0,-171.0,-1012.0,-31.0,-298.0,484.0,-313.0,492.0
19:30:39.917000,43.0,-87.0,-38.0,-1076.0,-162.0,-296.0,484.0,-313.0,492.0
19:30:39.921000,63.0,-94.0,23.0,-1100.0,34.0,-284.0,484.0,-313.0,492.0
19:30:39.927000,128.0,-114.0,-69.0,-1058.0,320.0,-254.0,486.0,-312.0,501.0
19:30:39.932000,96.0,-102.0,-166.0,-903.0,355.0,-228.0,486.0,-312.0,501.0
19:30:39.936000,32.0,-95.0,-175.0,-847.0,284.0,-235.0,483.0,-313.0,480.0
19:30:39.941000,36.0,-102.0,-145.0,-914.0,249.0,-235.0,483.0,-313.0,480.0
19:30:39.945000,31.0,-109.0,-60.0,-1026.0,209.0,-230.0,483.0,-313.0,480.0
19:30:39.950000,0.0,-104.0,-44.0,-1106.0,163.0,-229.0,481.0,-309.0,487.0
19:30:39.955000,-6.0,-105.0,-72.0,-1106.0,163.0,-229.0,481.0,-309.0,487.0
19:30:39.960000,-93.0,-90.0,-148.0,-1147.0,46.0,-213.0,487.0,-306.0,489.0
19:30:39.964000,-39.0,-105.0,-171.0,-1159.0,-26.0,-224.0,487.0,-306.0,489.0
19:30:39.968000,-26.0,-101.0,-102.0,-1140.0,0.0,-246.0,487.0,-306.0,489.0
19:30:39.974000,6.0,-107.0,-58.0,-1104.0,33.0,-241.0,490.0,-309.0,486.0
19:30:39.979000,11.0,-113.0,-39.0,-1085.0,72.0,-237.0,490.0,-309.0,486.0
19:30:39.983000,27.0,-110.0,-52.0,-1082.0,101.0,-244.0,490.0,-303.0,487.0
19:30:39.988000,14.0,-100.0,-102.0,-1088.0,113.0,-245.0,490.0,-303.0,487.0
19:30:39.995000,18.0,-86.0,-143.0,-1089.0,166.0,-248.0,486.0,-304.0,495.0
19:30:39.997000,39.0,-86.0,-137.0,-1089.0,166.0,-248.0,486.0,-304.0,495.0
19:30:40.001000,39.0,-86.0,-137.0,-1098.0,214.0,-236.0,486.0,-304.0,495.0
19:30:40.007000,37.0,-75.0,-129.0,-1100.0,199.0,-224.0,487.0,-310.0,487.0
19:30:40.011000,7.0,-48.0,-71.0,-1095.0,141.0,-211.0,487.0,-310.0,487.0
19:30:40.016000,16.0,-52.0,-49.0,-1114.0,132.0,-208.0,489.0,-309.0,472.0
19:30:40.021000,52.0,-52.0,-50.0,-1136.0,102.0,-200.0,489.0,-309.0,472.0
19:30:40.025000,34.0,-40.0,-88.0,-1142.0,43.0,-184.0,489.0,-309.0,472.0
19:30:40.030000,10.0,-24.0,-199.0,-1110.0,26.0,-191.0,480.0,-309.0,481.0
19:30:40.034000,39.0,-28.0,-225.0,-1043.0,29.0,-187.0,480.0,-309.0,481.0
19:30:40.040000,24.0,-19.0,-53.0,-1049.0,93.0,-174.0,490.0,-309.0,481.0
19:30:40.044000,16.0,-16.0,-3.0,-1117.0,216.0,-182.0,490.0,-309.0,481.0
19:30:40.048000,25.0,0.0,-110.0,-1075.0,222.0,-171.0,490.0,-309.0,481.0
19:30:40.054000,5.0,12.0,-158.0,-1012.0,152.0,-159.0,490.0,-307.0,481.0
19:30:40.058000,-3.0,5.0,-163.0,-1004.0,100.0,-163.0,490.0,-307.0,481.0
19:30:40.063000,-14.0,16.0,-176.0,-1004.0,100.0,-163.0,486.0,-306.0,487.0
19:30:40.068000,1.0,18.0,-153.0,-1008.0,81.0,-166.0,486.0,-306.0,487.0
19:30:40.072000,9.0,18.0,-205.0,-1042.0,116.0,-163.0,486.0,-306.0,487.0
19:30:40.077000,27.0,22.0,-234.0,-1032.0,131.0,-158.0,502.0,-309.0,490.0
19:30:40.082000,42.0,11.0,-188.0,-939.0,66.0,-155.0,502.0,-309.0,490.0
19:30:40.087000,37.0,5.0,-132.0,-939.0,66.0,-155.0,486.0,-301.0,510.0
19:30:40.091000,46.0,0.0,-120.0,-944.0,136.0,-155.0,486.0,-301.0,510.0
19:30:40.095000,23.0,8.0,-198.0,-975.0,206.0,-163.0,486.0,-301.0,510.0
19:30:40.101000,14.0,18.0,-275.0,-996.0,213.0,-167.0,486.0,-298.0,487.0
19:30:40.105000,9.0,18.0,-301.0,-984.0,211.0,-176.0,486.0,-298.0,487.0
19:30:40.110000,9.0,18.0,-301.0,-964.0,219.0,-177.0,492.0,-294.0,486.0
19:30:40.115000,-14.0,15.0,-287.0,-970.0,218.0,-180.0,492.0,-294.0,486.0
19:30:40.119000,-39.0,20.0,-264.0,-1012.0,193.0,-195.0,492.0,-294.0,486.0
19:30:40.124000,-57.0,33.0,-254.0,-1066.0,165.0,-208.0,484.0,-304.0,492.0
19:30:40.129000,-71.0,49.0,-295.0,-1071.0,177.0,-213.0,484.0,-304.0,492.0
19:30:40.134000,-69.0,53.0,-336.0,-1020.0,209.0,-217.0,478.0,-295.0,489.0
19:30:40.138000,-76.0,58.0,-359.0,-976.0,218.0,-223.0,478.0,-295.0,489.0
19:30:40.142000,-73.0,63.0,-359.0,-968.0,203.0,-227.0,478.0,-295.0,489.0
19:30:40.148000,-73.0,67.0,-338.0,-983.0,183.0,-232.0,486.0,-288.0,481.0
19:30:40.152000,-72.0,72.0,-321.0,-1003.0,172.0,-244.0,486.0,-288.0,481.0
19:30:40.157000,-67.0,77.0,-298.0,-1022.0,203.0,-256.0,489.0,-306.0,487.0
19:30:40.162000,-54.0,81.0,-319.0,-1047.0,250.0,-268.0,489.0,-306.0,487.0
19:30:40.166000,-46.0,93.0,-351.0,-1047.0,267.0,-268.0,489.0,-306.0,487.0
19:30:40.171000,-44.0,101.0,-359.0,-1047.0,279.0,-263.0,481.0,-303.0,493.0
19:30:40.176000,-44.0,109.0,-359.0,-1000.0,283.0,-263.0,481.0,-303.0,493.0
19:30:40.181000,-42.0,116.0,-335.0,-1000.0,283.0,-263.0,478.0,-295.0,484.0
19:30:40.185000,-36.0,121.0,-293.0,-996.0,272.0,-262.0,478.0,-295.0,484.0
19:30:40.189000,-42.0,135.0,-273.0,-1024.0,254.0,-256.0,478.0,-295.0,484.0
19:30:40.195000,-25.0,147.0,-287.0,-1059.0,245.0,-264.0,486.0,-304.0,489.0
19:30:40.199000,-17.0,160.0,-291.0,-1072.0,239.0,-272.0,486.0,-304.0,489.0
19:30:40.204000,-11.0,170.0,-263.0,-1043.0,229.0,-259.0,472.0,-291.0,490.0
19:30:40.209000,-14.0,179.0,-226.0,-1017.0,226.0,-252.0,472.0,-291.0,490.0
19:30:40.213000,-14.0,179.0,-226.0,-1026.0,237.0,-252.0,472.0,-291.0,490.0
19:30:40.218000,0.0,188.0,-252.0,-1046.0,254.0,-254.0,477.0,-292.0,496.0
19:30:40.223000,0.0,188.0,-252.0,-1047.0,246.0,-254.0,477.0,-292.0,496.0
19:30:40.228000,6.0,192.0,-268.0,-1032.0,233.0,-255.0,483.0,-294.0,481.0
19:30:40.232000,26.0,186.0,-284.0,-1013.0,239.0,-255.0,483.0,-294.0,481.0
19:30:40.236000,48.0,177.0,-305.0,-985.0,247.0,-253.0,483.0,-294.0,481.0
19:30:40.242000,65.0,165.0,-296.0,-956.0,250.0,-249.0,477.0,-289.0,484.0
19:30:40.246000,83.0,147.0,-258.0,-944.0,262.0,-249.0,477.0,-289.0,484.0
19:30:40.251000,102.0,124.0,-233.0,-939.0,278.0,-251.0,472.0,-279.0,489.0
19:30:40.256000,128.0,98.0,-237.0,-921.0,296.0,-251.0,472.0,-279.0,489.0
19:30:40.260000,144.0,67.0,-253.0,-899.0,337.0,-254.0,472.0,-279.0,489.0
19:30:40.265000,149.0,37.0,-282.0,-890.0,408.0,-259.0,474.0,-280.0,505.0
19:30:40.270000,142.0,12.0,-306.0,-898.0,474.0,-260.0,474.0,-280.0,505.0
19:30:40.275000,127.0,-9.0,-301.0,-898.0,474.0,-260.0,466.0,-279.0,483.0
19:30:40.279000,112.0,-25.0,-295.0,-943.0,567.0,-260.0,466.0,-279.0,483.0
19:30:40.283000,92.0,-33.0,-302.0,-943.0,567.0,-260.0,466.0,-279.0,483.0
19:30:40.289000,74.0,-33.0,-304.0,-960.0,587.0,-261.0,469.0,-279.0,490.0
19:30:40.293000,55.0,-30.0,-282.0,-956.0,577.0,-265.0,469.0,-279.0,490.0
19:30:40.298000,31.0,-25.0,-251.0,-972.0,556.0,-275.0,469.0,-277.0,493.0
19:30:40.303000,2.0,-15.0,-223.0,-1003.0,544.0,-279.0,469.0,-277.0,493.0
19:30:40.307000,-24.0,1.0,-197.0,-1036.0,533.0,-284.0,469.0,-277.0,493.0
19:30:40.312000,-39.0,21.0,-163.0,-1052.0,503.0,-291.0,472.0,-267.0,495.0
19:30:40.317000,-42.0,37.0,-116.0,-1053.0,457.0,-294.0,472.0,-267.0,495.0
19:30:40.322000,-35.0,56.0,-75.0,-1063.0,408.0,-305.0,466.0,-280.0,492.0
19:30:40.326000,-20.0,76.0,-45.0,-1068.0,355.0,-318.0,466.0,-280.0,492.0
19:30:40.330000,-20.0,76.0,-45.0,-1077.0,306.0,-329.0,466.0,-280.0,492.0
19:30:40.336000,-14.0,94.0,-16.0,-1079.0,286.0,-346.0,465.0,-279.0,487.0
19:30:40.340000,-3.0,118.0,9.0,-1088.0,303.0,-367.0,465.0,-279.0,487.0
19:30:40.345000,10.0,147.0,-4.0,-1115.0,320.0,-381.0,466.0,-280.0,496.0
19:30:40.350000,28.0,174.0,-53.0,-1120.0,295.0,-391.0,466.0,-280.0,496.0
19:30:40.357000,88.0,204.0,-112.0,-1075.0,239.0,-408.0,472.0,-279.0,499.0
19:30:40.359000,88.0,204.0,-112.0,-1075.0,239.0,-408.0,472.0,-279.0,499.0
19:30:40.363000,118.0,206.0,-123.0,-1053.0,229.0,-415.0,472.0,-279.0,499.0
19:30:40.369000,151.0,200.0,-139.0,-1039.0,244.0,-427.0,468.0,-273.0,495.0
19:30:40.373000,192.0,186.0,-174.0,-1029.0,288.0,-432.0,468.0,-273.0,495.0
19:30:40.378000,226.0,167.0,-226.0,-1029.0,320.0,-432.0,462.0,-274.0,496.0
19:30:40.383000,225.0,150.0,-261.0,-994.0,389.0,-418.0,462.0,-274.0,496.0
19:30:40.387000,235.0,135.0,-287.0,-999.0,425.0,-419.0,462.0,-274.0,496.0
19:30:40.392000,257.0,118.0,-312.0,-999.0,425.0,-419.0,463.0,-274.0,502.0
19:30:40.396000,254.0,107.0,-330.0,-1052.0,466.0,-411.0,463.0,-274.0,502.0
19:30:40.401000,245.0,102.0,-358.0,-1052.0,466.0,-411.0,463.0,-273.0,496.0
19:30:40.406000,240.0,95.0,-380.0,-1086.0,513.0,-407.0,463.0,-273.0,496.0
19:30:40.410000,249.0,88.0,-395.0,-1111.0,560.0,-410.0,463.0,-273.0,496.0
19:30:40.416000,212.0,90.0,-413.0,-1138.0,579.0,-406.0,462.0,-268.0,492.0
19:30:40.420000,198.0,97.0,-427.0,-1180.0,576.0,-403.0,462.0,-268.0,492.0
19:30:40.425000,193.0,106.0,-448.0,-1245.0,600.0,-409.0,463.0,-259.0,502.0
19:30:40.430000,170.0,110.0,-431.0,-1255.0,598.0,-401.0,463.0,-259.0,502.0
19:30:40.434000,170.0,110.0,-431.0,-1235.0,516.0,-389.0,463.0,-259.0,502.0
19:30:40.439000,121.0,123.0,-396.0,-1236.0,440.0,-394.0,460.0,-256.0,499.0
19:30:40.444000,138.0,121.0,-373.0,-1265.0,426.0,-395.0,460.0,-256.0,499.0
19:30:40.448000,137.0,121.0,-411.0,-1338.0,419.0,-390.0,454.0,-253.0,511.0
19:30:40.453000,125.0,134.0,-455.0,-1373.0,404.0,-393.0,454.0,-253.0,511.0
19:30:40.457000,168.0,129.0,-418.0,-1341.0,445.0,-394.0,454.0,-253.0,511.0
19:30:40.463000,196.0,144.0,-366.0,-1258.0,529.0,-395.0,453.0,-253.0,495.0
19:30:40.467000,214.0,163.0,-338.0,-1175.0,550.0,-386.0,453.0,-253.0,495.0
19:30:40.472000,209.0,183.0,-289.0,-1143.0,526.0,-382.0,463.0,-258.0,501.0
19:30:40.477000,240.0,187.0,-274.0,-1129.0,530.0,-381.0,463.0,-258.0,501.0
19:30:40.481000,242.0,207.0,-364.0,-1105.0,498.0,-368.0,463.0,-258.0,501.0
19:30:40.486000,233.0,217.0,-317.0,-1084.0,444.0,-351.0,453.0,-246.0,508.0
19:30:40.491000,265.0,190.0,-226.0,-1091.0,432.0,-334.0,453.0,-246.0,508.0
19:30:40.495000,270.0,175.0,-211.0,-1091.0,432.0,-334.0,450.0,-247.0,499.0
19:30:40.500000,284.0,168.0,-256.0,-1102.0,462.0,-308.0,450.0,-247.0,499.0
19:30:40.504000,319.0,142.0,-228.0,-1028.0,462.0,-308.0,450.0,-247.0,499.0
19:30:40.510000,314.0,121.0,-144.0,-920.0,437.0,-283.0,454.0,-238.0,498.0
19:30:40.514000,339.0,95.0,-108.0,-866.0,428.0,-267.0,454.0,-238.0,498.0
19:30:40.519000,348.0,83.0,-99.0,-847.0,461.0,-269.0,457.0,-243.0,489.0
19:30:40.524000,347.0,56.0,-84.0,-857.0,466.0,-259.0,457.0,-243.0,489.0
19:30:40.528000,317.0,49.0,-68.0,-888.0,476.0,-241.0,457.0,-243.0,489.0
19:30:40.533000,303.0,41.0,-3.0,-872.0,489.0,-235.0,460.0,-235.0,496.0
19:30:40.538000,282.0,39.0,39.0,-827.0,489.0,-229.0,460.0,-235.0,496.0
19:30:40.542000,262.0,42.0,35.0,-804.0,510.0,-230.0,436.0,-237.0,499.0
19:30:40.547000,237.0,58.0,-2.0,-811.0,535.0,-242.0,436.0,-237.0,499.0
19:30:40.551000,237.0,58.0,-2.0,-847.0,537.0,-247.0,436.0,-237.0,499.0
19:30:40.557000,219.0,69.0,-30.0,-879.0,504.0,-249.0,453.0,-228.0,486.0
19:30:40.561000,190.0,82.0,-16.0,-887.0,459.0,-257.0,453.0,-228.0,486.0
19:30:40.566000,168.0,95.0,18.0,-861.0,415.0,-265.0,448.0,-229.0,495.0
19:30:40.571000,145.0,109.0,82.0,-826.0,376.0,-270.0,448.0,-229.0,495.0
19:30:40.575000,133.0,124.0,138.0,-797.0,358.0,-276.0,448.0,-229.0,495.0
19:30:40.580000,128.0,138.0,162.0,-740.0,337.0,-281.0,454.0,-226.0,505.0
19:30:40.585000,121.0,161.0,178.0,-663.0,327.0,-285.0,454.0,-226.0,505.0
19:30:40.589000,126.0,181.0,172.0,-603.0,340.0,-284.0,460.0,-220.0,495.0
19:30:40.594000,129.0,198.0,153.0,-565.0,353.0,-280.0,460.0,-220.0,495.0
19:30:40.598000,133.0,209.0,133.0,-529.0,347.0,-279.0,460.0,-220.0,495.0
19:30:40.604000,140.0,211.0,111.0,-497.0,320.0,-277.0,457.0,-235.0,490.0
19:30:40.608000,150.0,203.0,78.0,-468.0,276.0,-270.0,457.0,-235.0,490.0
19:30:40.613000,163.0,184.0,50.0,-468.0,276.0,-270.0,459.0,-231.0,496.0
19:30:40.618000,175.0,160.0,34.0,-420.0,226.0,-256.0,459.0,-231.0,496.0
19:30:40.625000,185.0,132.0,7.0,-339.0,239.0,-231.0,450.0,-229.0,487.0
19:30:40.627000,188.0,102.0,-37.0,-339.0,239.0,-231.0,450.0,-229.0,487.0
19:30:40.631000,177.0,74.0,-97.0,-334.0,306.0,-220.0,450.0,-229.0,487.0
19:30:40.636000,154.0,51.0,-142.0,-343.0,376.0,-207.0,445.0,-225.0,498.0
19:30:40.641000,127.0,31.0,-157.0,-350.0,410.0,-194.0,445.0,-225.0,498.0
19:30:40.646000,105.0,7.0,-160.0,-365.0,409.0,-186.0,456.0,-225.0,496.0
19:30:40.651000,88.0,-16.0,-166.0,-390.0,396.0,-181.0,456.0,-225.0,496.0
19:30:40.655000,88.0,-16.0,-166.0,-413.0,389.0,-176.0,456.0,-225.0,496.0
19:30:40.660000,71.0,-36.0,-173.0,-432.0,395.0,-173.0,447.0,-226.0,502.0
19:30:40.665000,56.0,-56.0,-159.0,-454.0,401.0,-173.0,447.0,-226.0,502.0
19:30:40.669000,44.0,-70.0,-132.0,-481.0,400.0,-172.0,459.0,-216.0,483.0
19:30:40.674000,33.0,-81.0,-105.0,-502.0,393.0,-169.0,459.0,-216.0,483.0
19:30:40.678000,23.0,-89.0,-74.0,-520.0,380.0,-167.0,459.0,-216.0,483.0
19:30:40.683000,11.0,-92.0,-35.0,-531.0,360.0,-167.0,450.0,-222.0,496.0
19:30:40.688000,0.0,-91.0,13.0,-534.0,335.0,-169.0,450.0,-222.0,496.0
19:30:40.693000,-9.0,-90.0,72.0,-533.0,314.0,-173.0,463.0,-219.0,493.0
19:30:40.698000,-19.0,-87.0,136.0,-530.0,303.0,-179.0,463.0,-219.0,493.0
19:30:40.702000,-28.0,-80.0,193.0,-530.0,303.0,-183.0,463.0,-219.0,493.0
19:30:40.707000,-39.0,-72.0,235.0,-531.0,304.0,-183.0,451.0,-216.0,484.0
19:30:40.712000,-56.0,-58.0,265.0,-521.0,286.0,-182.0,451.0,-216.0,484.0
19:30:40.716000,-68.0,-49.0,282.0,-502.0,249.0,-184.0,459.0,-226.0,501.0
19:30:40.721000,-74.0,-44.0,287.0,-502.0,249.0,-184.0,459.0,-226.0,501.0
19:30:40.725000,-72.0,-43.0,277.0,-484.0,211.0,-187.0,459.0,-226.0,501.0
19:30:40.730000,-70.0,-46.0,258.0,-470.0,186.0,-188.0,463.0,-225.0,487.0
19:30:40.735000,-69.0,-50.0,245.0,-456.0,167.0,-188.0,463.0,-225.0,487.0
19:30:40.740000,-65.0,-56.0,238.0,-438.0,147.0,-185.0,457.0,-222.0,490.0
19:30:40.745000,-62.0,-60.0,232.0,-418.0,129.0,-178.0,457.0,-222.0,490.0
19:30:40.749000,-53.0,-67.0,222.0,-400.0,115.0,-169.0,457.0,-222.0,490.0
19:30:40.754000,-39.0,-74.0,208.0,-384.0,98.0,-159.0,469.0,-228.0,487.0
19:30:40.758000,-39.0,-74.0,208.0,-370.0,69.0,-151.0,469.0,-228.0,487.0
19:30:40.763000,15.0,-88.0,184.0,-376.0,36.0,-147.0,469.0,-229.0,484.0
19:30:40.768000,15.0,-88.0,184.0,-404.0,14.0,-144.0,469.0,-229.0,484.0
19:30:40.772000,47.0,-90.0,172.0,-442.0,5.0,-141.0,469.0,-229.0,484.0
19:30:40.777000,79.0,-88.0,165.0,-476.0,10.0,-137.0,465.0,-223.0,486.0
19:30:40.782000,106.0,-85.0,159.0,-502.0,25.0,-133.0,465.0,-223.0,486.0
19:30:40.787000,125.0,-77.0,154.0,-519.0,49.0,-129.0,465.0,-226.0,496.0
19:30:40.792000,137.0,-69.0,148.0,-526.0,74.0,-124.0,465.0,-226.0,496.0
19:30:40.796000,141.0,-58.0,148.0,-522.0,97.0,-118.0,465.0,-226.0,496.0
19:30:40.801000,137.0,-49.0,155.0,-512.0,117.0,-113.0,480.0,-226.0,495.0
19:30:40.806000,128.0,-41.0,161.0,-499.0,134.0,-112.0,480.0,-226.0,495.0
19:30:40.810000,119.0,-35.0,161.0,-488.0,146.0,-111.0,468.0,-217.0,511.0
19:30:40.815000,108.0,-31.0,163.0,-482.0,153.0,-111.0,468.0,-217.0,511.0
19:30:40.819000,98.0,-33.0,163.0,-480.0,155.0,-113.0,468.0,-217.0,511.0
19:30:40.824000,87.0,-39.0,170.0,-485.0,157.0,-114.0,457.0,-232.0,490.0
19:30:40.829000,74.0,-48.0,185.0,-485.0,163.0,-114.0,457.0,-232.0,490.0
19:30:40.834000,58.0,-56.0,204.0,-495.0,163.0,-114.0,475.0,-219.0,492.0
19:30:40.839000,38.0,-66.0,225.0,-503.0,167.0,-115.0,475.0,-219.0,492.0
19:30:40.843000,16.0,-77.0,240.0,-507.0,170.0,-115.0,475.0,-219.0,492.0
19:30:40.848000,-8.0,-88.0,254.0,-501.0,167.0,-116.0,472.0,-229.0,489.0
19:30:40.853000,-30.0,-102.0,266.0,-488.0,154.0,-121.0,472.0,-229.0,489.0
19:30:40.857000,-53.0,-116.0,268.0,-477.0,145.0,-124.0,469.0,-226.0,483.0
19:30:40.862000,-77.0,-127.0,262.0,-473.0,148.0,-126.0,469.0,-226.0,483.0
19:30:40.866000,-77.0,-127.0,262.0,-468.0,153.0,-126.0,469.0,-226.0,483.0
19:30:40.871000,-116.0,-152.0,243.0,-459.0,148.0,-127.0,466.0,-229.0,492.0
19:30:40.876000,-128.0,-166.0,231.0,-451.0,135.0,-129.0,466.0,-229.0,492.0
19:30:40.881000,-128.0,-166.0,231.0,-455.0,124.0,-135.0,469.0,-234.0,489.0
19:30:40.886000,-135.0,-179.0,215.0,-471.0,115.0,-141.0,469.0,-234.0,489.0
19:30:40.890000,-139.0,-189.0,203.0,-488.0,102.0,-145.0,469.0,-234.0,489.0
19:30:40.895000,-137.0,-200.0,198.0,-504.0,81.0,-148.0,472.0,-237.0,490.0
19:30:40.900000,-131.0,-207.0,196.0,-523.0,59.0,-152.0,472.0,-237.0,490.0
19:30:40.904000,-120.0,-212.0,193.0,-542.0,46.0,-154.0,477.0,-232.0,490.0
19:30:40.909000,-108.0,-213.0,186.0,-559.0,44.0,-152.0,477.0,-232.0,490.0
19:30:40.913000,-99.0,-212.0,177.0,-572.0,50.0,-145.0,477.0,-232.0,490.0
19:30:40.918000,-91.0,-212.0,165.0,-579.0,63.0,-138.0,472.0,-234.0,474.0
19:30:40.923000,-87.0,-210.0,149.0,-580.0,82.0,-134.0,472.0,-234.0,474.0
19:30:40.928000,-91.0,-212.0,136.0,-580.0,82.0,-134.0,480.0,-240.0,484.0
19:30:40.933000,-102.0,-216.0,119.0,-566.0,142.0,-131.0,480.0,-240.0,484.0
19:30:40.937000,-122.0,-221.0,100.0,-555.0,182.0,-131.0,480.0,-240.0,484.0
19:30:40.942000,-150.0,-225.0,77.0,-538.0,215.0,-132.0,483.0,-243.0,490.0
19:30:40.947000,-184.0,-227.0,58.0,-538.0,215.0,-132.0,483.0,-243.0,490.0
19:30:40.951000,-217.0,-225.0,46.0,-519.0,234.0,-138.0,483.0,-237.0,480.0
19:30:40.956000,-244.0,-221.0,41.0,-505.0,233.0,-145.0,483.0,-237.0,480.0
19:30:40.960000,-258.0,-213.0,39.0,-503.0,215.0,-156.0,483.0,-237.0,480.0
19:30:40.965000,-259.0,-200.0,39.0,-520.0,187.0,-169.0,483.0,-246.0,484.0
19:30:40.970000,-247.0,-185.0,43.0,-554.0,153.0,-181.0,483.0,-246.0,484.0
19:30:40.975000,-223.0,-168.0,60.0,-593.0,114.0,-189.0,487.0,-241.0,486.0
19:30:40.980000,-184.0,-151.0,93.0,-625.0,61.0,-193.0,487.0,-241.0,486.0
19:30:40.984000,-184.0,-151.0,93.0,-654.0,12.0,-195.0,487.0,-241.0,486.0
19:30:40.989000,-137.0,-133.0,125.0,-680.0,-9.0,-194.0,493.0,-246.0,487.0
19:30:40.994000,-92.0,-114.0,144.0,-686.0,-8.0,-190.0,493.0,-246.0,487.0
19:30:40.998000,-51.0,-99.0,160.0,-672.0,0.0,-182.0,484.0,-247.0,480.0
19:30:41.003000,-19.0,-82.0,172.0,-653.0,23.0,-172.0,484.0,-247.0,480.0
19:30:41.007000,-1.0,-65.0,176.0,-641.0,61.0,-166.0,484.0,-247.0,480.0
19:30:41.012000,9.0,-49.0,168.0,-632.0,97.0,-169.0,486.0,-250.0,477.0
19:30:41.017000,12.0,-36.0,149.0,-629.0,126.0,-173.0,486.0,-250.0,477.0
19:30:41.022000,10.0,-25.0,119.0,-633.0,143.0,-176.0,486.0,-261.0,486.0
19:30:41.027000,4.0,-16.0,92.0,-638.0,140.0,-180.0,486.0,-261.0,486.0
19:30:41.031000,-3.0,-11.0,75.0,-645.0,127.0,-187.0,486.0,-261.0,486.0
19:30:41.036000,-10.0,-11.0,69.0,-653.0,119.0,-193.0,487.0,-255.0,483.0
19:30:41.041000,-16.0,-12.0,63.0,-660.0,125.0,-199.0,487.0,-255.0,483.0
19:30:41.045000,-22.0,-16.0,56.0,-660.0,125.0,-199.0,483.0,-244.0,481.0
19:30:41.050000,-24.0,-24.0,50.0,-663.0,139.0,-204.0,483.0,-244.0,481.0
19:30:41.054000,-21.0,-34.0,45.0,-663.0,153.0,-210.0,483.0,-244.0,481.0
19:30:41.059000,-16.0,-44.0,37.0,-675.0,173.0,-216.0,484.0,-256.0,481.0
19:30:41.064000,-14.0,-54.0,35.0,-698.0,196.0,-217.0,484.0,-256.0,481.0
19:30:41.069000,-9.0,-65.0,46.0,-721.0,207.0,-215.0,483.0,-249.0,480.0
19:30:41.074000,1.0,-79.0,63.0,-740.0,212.0,-217.0,483.0,-249.0,480.0
19:30:41.081000,4.0,-93.0,78.0,-797.0,301.0,-214.0,480.0,-255.0,489.0
19:30:41.083000,-7.0,-107.0,100.0,-797.0,301.0,-214.0,480.0,-255.0,489.0
19:30:41.087000,-7.0,-107.0,100.0,-813.0,352.0,-205.0,480.0,-255.0,489.0
19:30:41.092000,-57.0,-138.0,201.0,-811.0,376.0,-194.0,487.0,-252.0,481.0
19:30:41.097000,-57.0,-138.0,201.0,-804.0,391.0,-184.0,487.0,-252.0,481.0
19:30:41.102000,-87.0,-158.0,251.0,-800.0,416.0,-179.0,481.0,-253.0,480.0
19:30:41.106000,-119.0,-178.0,285.0,-803.0,456.0,-181.0,481.0,-253.0,480.0
19:30:41.111000,-157.0,-194.0,305.0,-818.0,504.0,-191.0,481.0,-253.0,480.0
19:30:41.116000,-202.0,-204.0,319.0,-848.0,550.0,-207.0,496.0,-265.0,475.0
19:30:41.121000,-249.0,-208.0,326.0,-891.0,589.0,-228.0,496.0,-265.0,475.0
19:30:41.125000,-293.0,-202.0,317.0,-944.0,615.0,-248.0,489.0,-255.0,472.0
19:30:41.130000,-326.0,-185.0,289.0,-1002.0,627.0,-283.0,489.0,-255.0,472.0
19:30:41.134000,-333.0,-165.0,245.0,-1076.0,653.0,-335.0,489.0,-255.0,472.0
19:30:41.139000,-321.0,-144.0,172.0,-1172.0,725.0,-378.0,486.0,-259.0,484.0
19:30:41.144000,-300.0,-133.0,73.0,-1251.0,814.0,-417.0,486.0,-259.0,484.0
19:30:41.149000,-268.0,-124.0,-14.0,-1251.0,814.0,-417.0,490.0,-267.0,466.0
19:30:41.153000,-231.0,-119.0,-79.0,-1288.0,937.0,-449.0,490.0,-267.0,466.0
19:30:41.158000,-191.0,-120.0,-120.0,-1288.0,966.0,-452.0,490.0,-267.0,466.0
19:30:41.163000,-145.0,-128.0,-133.0,-1233.0,966.0,-452.0,495.0,-271.0,477.0
19:30:41.167000,-119.0,-137.0,-141.0,-1100.0,1074.0,-423.0,495.0,-271.0,477.0
19:30:41.172000,-122.0,-130.0,-125.0,-1100.0,1074.0,-423.0,481.0,-276.0,496.0
19:30:41.177000,-150.0,-126.0,-56.0,-1027.0,1136.0,-402.0,481.0,-276.0,496.0
19:30:41.182000,-181.0,-135.0,71.0,-937.0,1119.0,-371.0,489.0,-265.0,471.0
19:30:41.186000,-182.0,-144.0,196.0,-849.0,1030.0,-359.0,489.0,-265.0,471.0
19:30:41.190000,-177.0,-158.0,249.0,-819.0,985.0,-356.0,489.0,-265.0,471.0
19:30:41.196000,-170.0,-167.0,277.0,-818.0,1024.0,-334.0,490.0,-277.0,478.0
19:30:41.200000,-173.0,-167.0,312.0,-806.0,1089.0,-310.0,490.0,-277.0,478.0
19:30:41.205000,-174.0,-170.0,383.0,-785.0,1108.0,-304.0,493.0,-277.0,471.0
19:30:41.210000,-174.0,-170.0,383.0,-752.0,1048.0,-285.0,493.0,-277.0,471.0
19:30:41.214000,-172.0,-177.0,476.0,-742.0,991.0,-272.0,493.0,-277.0,471.0
19:30:41.219000,-167.0,-181.0,540.0,-760.0,1011.0,-270.0,496.0,-282.0,480.0
19:30:41.224000,-182.0,-180.0,546.0,-754.0,1031.0,-252.0,496.0,-282.0,480.0
19:30:41.229000,-197.0,-163.0,548.0,-755.0,967.0,-274.0,501.0,-276.0,481.0
19:30:41.233000,-196.0,-126.0,555.0,-857.0,895.0,-294.0,501.0,-276.0,481.0
19:30:41.237000,-191.0,-86.0,520.0,-979.0,789.0,-278.0,501.0,-276.0,481.0
19:30:41.243000,-169.0,-78.0,623.0,-1044.0,641.0,-291.0,504.0,-277.0,471.0
19:30:41.247000,-120.0,-49.0,658.0,-1070.0,690.0,-341.0,504.0,-277.0,471.0
19:30:41.252000,-56.0,-6.0,345.0,-1030.0,794.0,-349.0,496.0,-286.0,480.0
19:30:41.257000,-34.0,5.0,262.0,-1122.0,868.0,-357.0,496.0,-286.0,480.0
19:30:41.261000,-13.0,19.0,150.0,-1218.0,926.0,-412.0,496.0,-286.0,480.0
19:30:41.266000,33.0,65.0,116.0,-1013.0,810.0,-375.0,502.0,-294.0,472.0
19:30:41.271000,42.0,62.0,206.0,-1013.0,810.0,-375.0,502.0,-294.0,472.0
19:30:41.276000,63.0,88.0,179.0,-890.0,758.0,-348.0,495.0,-286.0,475.0
19:30:41.280000,54.0,92.0,186.0,-926.0,795.0,-381.0,495.0,-286.0,475.0
19:30:41.284000,37.0,86.0,130.0,-1063.0,802.0,-366.0,495.0,-286.0,475.0
19:30:41.290000,42.0,124.0,220.0,-1218.0,742.0,-371.0,499.0,-292.0,463.0
19:30:41.294000,35.0,129.0,526.0,-1011.0,622.0,-368.0,499.0,-292.0,463.0
19:30:41.299000,-2.0,121.0,623.0,-829.0,651.0,-351.0,507.0,-300.0,489.0
19:30:41.304000,3.0,124.0,538.0,-929.0,718.0,-363.0,507.0,-300.0,489.0
19:30:41.308000,3.0,124.0,538.0,-955.0,721.0,-397.0,507.0,-300.0,489.0
19:30:41.313000,-50.0,127.0,417.0,-970.0,650.0,-404.0,498.0,-295.0,472.0
19:30:41.318000,-50.0,127.0,417.0,-1229.0,497.0,-373.0,498.0,-295.0,472.0
19:30:41.323000,-91.0,102.0,307.0,-1553.0,335.0,-388.0,495.0,-298.0,469.0
19:30:41.327000,-93.0,120.0,280.0,-1282.0,191.0,-382.0,495.0,-298.0,469.0
19:30:41.331000,-87.0,114.0,569.0,-855.0,228.0,-337.0,495.0,-298.0,469.0
19:30:41.337000,-100.0,107.0,619.0,-816.0,339.0,-319.0,505.0,-306.0,463.0
19:30:41.341000,-111.0,74.0,497.0,-757.0,266.0,-302.0,505.0,-306.0,463.0
19:30:41.346000,-135.0,38.0,458.0,-750.0,113.0,-283.0,501.0,-303.0,475.0
19:30:41.351000,-154.0,-4.0,509.0,-879.0,53.0,-267.0,501.0,-303.0,475.0
19:30:41.355000,-186.0,-28.0,522.0,-1044.0,38.0,-246.0,501.0,-303.0,475.0
19:30:41.360000,-213.0,-60.0,503.0,-1075.0,-11.0,-231.0,490.0,-307.0,474.0
19:30:41.365000,-223.0,-95.0,521.0,-968.0,-27.0,-232.0,490.0,-307.0,474.0
19:30:41.370000,-224.0,-120.0,508.0,-968.0,-27.0,-232.0,505.0,-318.0,466.0
19:30:41.374000,-225.0,-135.0,446.0,-969.0,-10.0,-226.0,505.0,-318.0,466.0
19:30:41.378000,-227.0,-139.0,379.0,-969.0,-10.0,-226.0,505.0,-318.0,466.0
19:30:41.384000,-219.0,-140.0,294.0,-1052.0,-2.0,-222.0,505.0,-318.0,472.0
19:30:41.388000,-211.0,-133.0,212.0,-1148.0,26.0,-229.0,505.0,-318.0,472.0
19:30:41.393000,-193.0,-122.0,146.0,-1148.0,26.0,-229.0,495.0,-315.0,489.0
19:30:41.398000,-181.0,-108.0,98.0,-1147.0,20.0,-229.0,495.0,-315.0,489.0
19:30:41.402000,-159.0,-95.0,64.0,-1129.0,-18.0,-228.0,495.0,-315.0,489.0
19:30:41.407000,-123.0,-86.0,35.0,-1130.0,-50.0,-237.0,513.0,-321.0,471.0
19:30:41.412000,-88.0,-67.0,-4.0,-1158.0,-45.0,-249.0,513.0,-321.0,471.0
19:30:41.417000,-56.0,-42.0,-39.0,-1193.0,-12.0,-261.0,516.0,-313.0,466.0
19:30:41.421000,-28.0,-9.0,-93.0,-1223.0,30.0,-268.0,516.0,-313.0,466.0
19:30:41.425000,-28.0,-9.0,-93.0,-1245.0,65.0,-272.0,516.0,-313.0,466.0
19:30:41.431000,-13.0,30.0,-134.0,-1237.0,53.0,-275.0,504.0,-318.0,468.0
19:30:41.435000,8.0,59.0,-105.0,-1188.0,28.0,-279.0,504.0,-318.0,468.0
19:30:41.440000,21.0,86.0,-36.0,-1156.0,76.0,-287.0,501.0,-316.0,468.0
19:30:41.445000,32.0,112.0,-13.0,-1165.0,157.0,-292.0,501.0,-316.0,468.0
19:30:41.449000,31.0,143.0,-47.0,-1176.0,183.0,-295.0,501.0,-316.0,468.0
19:30:41.454000,34.0,169.0,-95.0,-1173.0,151.0,-299.0,496.0,-321.0,475.0
19:30:41.459000,34.0,191.0,-100.0,-1164.0,116.0,-301.0,496.0,-321.0,475.0
19:30:41.464000,39.0,197.0,-58.0,-1152.0,128.0,-305.0,501.0,-318.0,477.0
19:30:41.468000,22.0,214.0,-23.0,-1147.0,176.0,-307.0,501.0,-318.0,477.0
19:30:41.472000,16.0,221.0,-32.0,-1146.0,209.0,-310.0,501.0,-318.0,477.0
19:30:41.478000,4.0,228.0,-54.0,-1129.0,205.0,-310.0,507.0,-312.0,466.0
19:30:41.482000,-9.0,226.0,-56.0,-1108.0,171.0,-311.0,507.0,-312.0,466.0
19:30:41.487000,-25.0,219.0,-50.0,-1108.0,171.0,-311.0,502.0,-322.0,471.0
19:30:41.492000,-22.0,198.0,-44.0,-1092.0,147.0,-315.0,502.0,-322.0,471.0
19:30:41.496000,-30.0,175.0,-19.0,-1069.0,154.0,-315.0,502.0,-322.0,471.0
19:30:41.501000,-56.0,162.0,0.0,-1053.0,169.0,-311.0,496.0,-325.0,469.0
19:30:41.506000,-85.0,159.0,-24.0,-1074.0,183.0,-309.0,496.0,-325.0,469.0
19:30:41.511000,-81.0,130.0,-68.0,-1104.0,204.0,-313.0,498.0,-330.0,474.0
19:30:41.515000,-82.0,110.0,-89.0,-1110.0,217.0,-318.0,498.0,-330.0,474.0
19:30:41.519000,-130.0,122.0,-83.0,-1123.0,208.0,-319.0,498.0,-330.0,474.0
19:30:41.525000,-170.0,129.0,-51.0,-1134.0,175.0,-320.0,495.0,-321.0,468.0
19:30:41.529000,-139.0,100.0,17.0,-1120.0,128.0,-329.0,495.0,-321.0,468.0
19:30:41.534000,-111.0,83.0,69.0,-1127.0,121.0,-345.0,502.0,-322.0,463.0
19:30:41.539000,-111.0,83.0,69.0,-1196.0,181.0,-351.0,502.0,-322.0,463.0
19:30:41.543000,-146.0,107.0,63.0,-1283.0,206.0,-341.0,502.0,-322.0,463.0
19:30:41.548000,-196.0,150.0,22.0,-1340.0,140.0,-357.0,492.0,-327.0,484.0
19:30:41.553000,-168.0,165.0,-56.0,-1353.0,63.0,-368.0,492.0,-327.0,484.0
19:30:41.558000,-189.0,189.0,-74.0,-1327.0,17.0,-355.0,487.0,-330.0,463.0
19:30:41.562000,-200.0,210.0,-104.0,-1261.0,-43.0,-359.0,487.0,-330.0,463.0
19:30:41.566000,-168.0,219.0,-137.0,-1184.0,-104.0,-357.0,487.0,-330.0,463.0
19:30:41.572000,-154.0,233.0,-144.0,-1103.0,-101.0,-345.0,483.0,-325.0,487.0
19:30:41.576000,-109.0,219.0,-165.0,-983.0,-49.0,-334.0,483.0,-325.0,487.0
19:30:41.581000,-31.0,178.0,-184.0,-871.0,27.0,-331.0,492.0,-336.0,486.0
19:30:41.586000,23.0,142.0,-175.0,-829.0,49.0,-336.0,492.0,-336.0,486.0
19:30:41.590000,17.0,127.0,-162.0,-877.0,-32.0,-336.0,492.0,-336.0,486.0
19:30:41.595000,14.0,109.0,-130.0,-931.0,-64.0,-346.0,484.0,-325.0,478.0
19:30:41.600000,77.0,79.0,-102.0,-931.0,-64.0,-346.0,484.0,-325.0,478.0
19:30:41.605000,91.0,58.0,-114.0,-946.0,0.0,-359.0,486.0,-325.0,477.0
19:30:41.609000,102.0,42.0,-110.0,-920.0,24.0,-348.0,486.0,-325.0,477.0
19:30:41.613000,139.0,9.0,-75.0,-842.0,95.0,-330.0,486.0,-325.0,477.0
19:30:41.619000,175.0,-19.0,-58.0,-842.0,95.0,-330.0,495.0,-324.0,487.0
19:30:41.623000,161.0,-39.0,-49.0,-817.0,135.0,-308.0,495.0,-324.0,487.0
19:30:41.628000,172.0,-72.0,-87.0,-778.0,190.0,-289.0,483.0,-327.0,478.0
19:30:41.633000,194.0,-113.0,-112.0,-726.0,255.0,-275.0,483.0,-327.0,478.0
19:30:41.637000,194.0,-113.0,-112.0,-714.0,254.0,-253.0,483.0,-327.0,478.0
19:30:41.642000,158.0,-155.0,-191.0,-739.0,183.0,-250.0,490.0,-318.0,475.0
19:30:41.647000,158.0,-155.0,-191.0,-784.0,173.0,-250.0,490.0,-318.0,475.0
19:30:41.652000,202.0,-199.0,-182.0,-846.0,209.0,-231.0,486.0,-325.0,471.0
19:30:41.656000,156.0,-206.0,-194.0,-880.0,207.0,-223.0,486.0,-325.0,471.0
19:30:41.664000,144.0,-231.0,-158.0,-944.0,142.0,-209.0,489.0,-319.0,492.0
19:30:41.666000,144.0,-231.0,-158.0,-944.0,142.0,-209.0,489.0,-319.0,492.0
19:30:41.670000,128.0,-233.0,-191.0,-977.0,178.0,-206.0,489.0,-319.0,492.0
19:30:41.675000,138.0,-249.0,-287.0,-978.0,204.0,-204.0,487.0,-307.0,465.0
19:30:41.680000,114.0,-242.0,-287.0,-965.0,217.0,-200.0,487.0,-307.0,465.0
19:30:41.684000,106.0,-248.0,-258.0,-992.0,219.0,-198.0,496.0,-321.0,465.0
19:30:41.689000,79.0,-237.0,-260.0,-1006.0,192.0,-200.0,496.0,-321.0,465.0
19:30:41.693000,115.0,-238.0,-252.0,-1027.0,185.0,-196.0,496.0,-321.0,465.0
19:30:41.699000,105.0,-222.0,-233.0,-1077.0,175.0,-188.0,495.0,-318.0,466.0
19:30:41.703000,84.0,-200.0,-225.0,-1121.0,159.0,-197.0,495.0,-318.0,466.0
19:30:41.708000,83.0,-184.0,-259.0,-1121.0,159.0,-197.0,489.0,-306.0,472.0
19:30:41.713000,77.0,-161.0,-313.0,-1123.0,145.0,-192.0,489.0,-306.0,472.0
19:30:41.717000,100.0,-148.0,-315.0,-1091.0,156.0,-188.0,489.0,-306.0,472.0
19:30:41.722000,95.0,-130.0,-266.0,-1065.0,198.0,-193.0,499.0,-306.0,457.0
19:30:41.727000,99.0,-114.0,-259.0,-1082.0,253.0,-190.0,499.0,-306.0,457.0
19:30:41.731000,100.0,-94.0,-282.0,-1111.0,282.0,-194.0,496.0,-310.0,463.0
19:30:41.736000,112.0,-71.0,-262.0,-1104.0,240.0,-201.0,496.0,-310.0,463.0
19:30:41.740000,123.0,-48.0,-233.0,-1112.0,195.0,-206.0,496.0,-310.0,463.0
19:30:41.746000,112.0,-23.0,-238.0,-1159.0,188.0,-201.0,495.0,-309.0,460.0
19:30:41.750000,97.0,4.0,-259.0,-1178.0,203.0,-192.0,495.0,-309.0,460.0
19:30:41.755000,97.0,4.0,-259.0,-1154.0,244.0,-196.0,501.0,-301.0,459.0
19:30:41.760000,105.0,30.0,-298.0,-1113.0,264.0,-199.0,501.0,-301.0,459.0
19:30:41.764000,108.0,44.0,-323.0,-1055.0,235.0,-191.0,501.0,-301.0,459.0
19:30:41.769000,105.0,53.0,-315.0,-1018.0,234.0,-188.0,501.0,-303.0,471.0
19:30:41.774000,111.0,66.0,-312.0,-1035.0,273.0,-199.0,501.0,-303.0,471.0
19:30:41.778000,133.0,84.0,-309.0,-1074.0,271.0,-204.0,495.0,-297.0,462.0
19:30:41.783000,130.0,102.0,-282.0,-1110.0,207.0,-202.0,495.0,-297.0,462.0
19:30:41.787000,112.0,124.0,-250.0,-1153.0,185.0,-212.0,495.0,-297.0,462.0
19:30:41.793000,102.0,150.0,-277.0,-1182.0,237.0,-220.0,499.0,-292.0,483.0
19:30:41.797000,93.0,174.0,-340.0,-1152.0,284.0,-224.0,499.0,-292.0,483.0
19:30:41.802000,90.0,192.0,-378.0,-1074.0,287.0,-230.0,496.0,-286.0,468.0
19:30:41.807000,100.0,203.0,-392.0,-1011.0,255.0,-230.0,496.0,-286.0,468.0
19:30:41.811000,89.0,212.0,-378.0,-997.0,231.0,-243.0,496.0,-286.0,468.0
19:30:41.816000,105.0,217.0,-336.0,-997.0,244.0,-262.0,498.0,-283.0,459.0
19:30:41.821000,116.0,224.0,-336.0,-1025.0,244.0,-262.0,498.0,-283.0,459.0
19:30:41.825000,125.0,229.0,-377.0,-1067.0,276.0,-269.0,489.0,-288.0,469.0
19:30:41.830000,133.0,235.0,-388.0,-1084.0,292.0,-274.0,489.0,-288.0,469.0
19:30:41.834000,120.0,251.0,-359.0,-1065.0,281.0,-284.0,489.0,-288.0,469.0
19:30:41.840000,150.0,249.0,-353.0,-1065.0,281.0,-284.0,492.0,-288.0,462.0
19:30:41.844000,138.0,255.0,-365.0,-1073.0,298.0,-280.0,492.0,-288.0,462.0
19:30:41.849000,140.0,249.0,-376.0,-1075.0,305.0,-272.0,493.0,-283.0,466.0
19:30:41.854000,150.0,246.0,-378.0,-1055.0,303.0,-280.0,493.0,-283.0,466.0
19:30:41.858000,150.0,246.0,-378.0,-1027.0,292.0,-279.0,493.0,-283.0,466.0
19:30:41.863000,145.0,240.0,-373.0,-1030.0,285.0,-273.0,492.0,-291.0,466.0
19:30:41.868000,145.0,240.0,-373.0,-1026.0,287.0,-275.0,492.0,-291.0,466.0
19:30:41.872000,154.0,242.0,-394.0,-1015.0,311.0,-281.0,490.0,-283.0,471.0
19:30:41.877000,163.0,227.0,-432.0,-1004.0,318.0,-281.0,490.0,-283.0,471.0
19:30:41.885000,147.0,225.0,-396.0,-1002.0,354.0,-295.0,481.0,-276.0,486.0
19:30:41.887000,147.0,225.0,-396.0,-1002.0,354.0,-295.0,481.0,-276.0,486.0
19:30:41.891000,151.0,217.0,-410.0,-1017.0,377.0,-292.0,481.0,-276.0,486.0
19:30:41.896000,140.0,208.0,-441.0,-1019.0,368.0,-297.0,474.0,-273.0,472.0
19:30:41.901000,140.0,203.0,-448.0,-1018.0,349.0,-312.0,474.0,-273.0,472.0
19:30:41.905000,147.0,199.0,-447.0,-1032.0,359.0,-321.0,478.0,-274.0,475.0
19:30:41.910000,154.0,193.0,-434.0,-1053.0,399.0,-325.0,478.0,-274.0,475.0
19:30:41.914000,165.0,188.0,-447.0,-1064.0,433.0,-331.0,478.0,-274.0,475.0
19:30:41.919000,171.0,186.0,-475.0,-1043.0,428.0,-337.0,474.0,-253.0,468.0
19:30:41.924000,184.0,182.0,-501.0,-1018.0,399.0,-344.0,474.0,-253.0,468.0
19:30:41.929000,191.0,178.0,-499.0,-1018.0,399.0,-344.0,471.0,-273.0,474.0
19:30:41.934000,193.0,173.0,-514.0,-1029.0,395.0,-348.0,471.0,-273.0,474.0
19:30:41.938000,196.0,172.0,-554.0,-1060.0,442.0,-353.0,471.0,-273.0,474.0
19:30:41.943000,224.0,168.0,-594.0,-1065.0,503.0,-368.0,472.0,-262.0,472.0
19:30:41.948000,217.0,168.0,-576.0,-1049.0,512.0,-369.0,472.0,-262.0,472.0
19:30:41.952000,210.0,170.0,-522.0,-1043.0,466.0,-364.0,468.0,-255.0,477.0
19:30:41.957000,218.0,175.0,-513.0,-1063.0,469.0,-374.0,468.0,-255.0,477.0
19:30:41.961000,218.0,175.0,-513.0,-1098.0,527.0,-378.0,468.0,-255.0,477.0
19:30:41.966000,196.0,189.0,-536.0,-1104.0,559.0,-372.0,469.0,-253.0,474.0
19:30:41.971000,207.0,192.0,-550.0,-1069.0,567.0,-379.0,469.0,-253.0,474.0
19:30:41.976000,207.0,192.0,-550.0,-1029.0,559.0,-392.0,471.0,-238.0,477.0
19:30:41.981000,196.0,186.0,-536.0,-1017.0,542.0,-397.0,471.0,-238.0,477.0
19:30:41.985000,198.0,175.0,-498.0,-1048.0,567.0,-393.0,471.0,-238.0,477.0
19:30:41.990000,186.0,180.0,-464.0,-1063.0,619.0,-405.0,477.0,-250.0,481.0
19:30:41.995000,178.0,186.0,-445.0,-1090.0,653.0,-394.0,477.0,-250.0,481.0
19:30:41.999000,160.0,172.0,-432.0,-1151.0,634.0,-372.0,462.0,-244.0,472.0
19:30:42.004000,148.0,168.0,-407.0,-1180.0,583.0,-369.0,462.0,-244.0,472.0
19:30:42.008000,166.0,139.0,-345.0,-1155.0,547.0,-354.0,462.0,-244.0,472.0
19:30:42.013000,158.0,128.0,-295.0,-1071.0,538.0,-350.0,459.0,-238.0,475.0
19:30:42.018000,165.0,123.0,-237.0,-971.0,550.0,-347.0,459.0,-238.0,475.0
19:30:42.023000,175.0,116.0,-199.0,-912.0,564.0,-342.0,453.0,-238.0,480.0
19:30:42.028000,170.0,124.0,-232.0,-891.0,582.0,-337.0,453.0,-238.0,480.0
19:30:42.032000,176.0,121.0,-296.0,-908.0,581.0,-331.0,453.0,-238.0,480.0
19:30:42.037000,204.0,102.0,-257.0,-908.0,581.0,-331.0,453.0,-229.0,466.0
19:30:42.042000,200.0,98.0,-214.0,-975.0,572.0,-326.0,453.0,-229.0,466.0
19:30:42.046000,216.0,90.0,-234.0,-1069.0,616.0,-330.0,457.0,-241.0,472.0
19:30:42.051000,210.0,93.0,-252.0,-1122.0,661.0,-341.0,457.0,-241.0,472.0
19:30:42.055000,197.0,87.0,-242.0,-1112.0,713.0,-340.0,463.0,-225.0,468.0
19:30:42.060000,173.0,94.0,-244.0,-1112.0,713.0,-340.0,463.0,-225.0,468.0
19:30:42.065000,159.0,87.0,-198.0,-1077.0,714.0,-336.0,463.0,-225.0,468.0
19:30:42.070000,156.0,81.0,-144.0,-1067.0,693.0,-335.0,459.0,-223.0,478.0
19:30:42.075000,137.0,84.0,-128.0,-1097.0,695.0,-340.0,459.0,-223.0,478.0
19:30:42.079000,120.0,87.0,-104.0,-1098.0,703.0,-340.0,465.0,-228.0,466.0
19:30:42.084000,120.0,87.0,-104.0,-1077.0,706.0,-343.0,465.0,-228.0,466.0
19:30:42.088000,102.0,92.0,-50.0,-1067.0,696.0,-340.0,465.0,-228.0,466.0
19:30:42.093000,76.0,100.0,17.0,-1056.0,673.0,-332.0,459.0,-231.0,472.0
19:30:42.098000,58.0,105.0,91.0,-1021.0,630.0,-325.0,459.0,-231.0,472.0
19:30:42.103000,45.0,107.0,150.0,-966.0,555.0,-315.0,457.0,-226.0,471.0
19:30:42.107000,41.0,103.0,200.0,-905.0,465.0,-306.0,457.0,-226.0,471.0
19:30:42.112000,52.0,93.0,248.0,-851.0,384.0,-294.0,457.0,-226.0,471.0
19:30:42.117000,73.0,74.0,275.0,-791.0,310.0,-276.0,459.0,-226.0,471.0
19:30:42.122000,102.0,42.0,277.0,-706.0,238.0,-260.0,459.0,-226.0,471.0
19:30:42.126000,140.0,4.0,263.0,-612.0,198.0,-250.0,465.0,-234.0,484.0
19:30:42.131000,189.0,-39.0,226.0,-536.0,206.0,-244.0,465.0,-234.0,484.0
19:30:42.135000,229.0,-80.0,171.0,-489.0,250.0,-247.0,465.0,-234.0,484.0
19:30:42.140000,262.0,-114.0,116.0,-486.0,319.0,-256.0,457.0,-229.0,469.0
19:30:42.145000,272.0,-139.0,51.0,-534.0,397.0,-269.0,457.0,-229.0,469.0
19:30:42.150000,260.0,-154.0,-5.0,-534.0,397.0,-269.0,462.0,-226.0,481.0
19:30:42.154000,220.0,-158.0,-37.0,-611.0,467.0,-284.0,462.0,-226.0,481.0
19:30:42.159000,164.0,-157.0,-39.0,-683.0,509.0,-298.0,462.0,-226.0,481.0
19:30:42.164000,105.0,-153.0,-21.0,-731.0,526.0,-308.0,468.0,-217.0,477.0
19:30:42.169000,41.0,-142.0,17.0,-742.0,519.0,-310.0,468.0,-217.0,477.0
19:30:42.173000,-15.0,-131.0,74.0,-720.0,493.0,-303.0,463.0,-223.0,471.0
19:30:42.178000,-65.0,-121.0,128.0,-680.0,453.0,-288.0,463.0,-223.0,471.0
19:30:42.182000,-65.0,-121.0,128.0,-629.0,402.0,-270.0,463.0,-223.0,471.0
19:30:42.187000,-107.0,-112.0,221.0,-568.0,329.0,-245.0,462.0,-225.0,477.0
19:30:42.191000,-107.0,-112.0,221.0,-513.0,245.0,-217.0,462.0,-225.0,477.0
19:30:42.197000,-92.0,-119.0,265.0,-471.0,164.0,-191.0,457.0,-225.0,484.0
19:30:42.201000,-60.0,-130.0,299.0,-443.0,95.0,-168.0,457.0,-225.0,484.0
19:30:42.206000,-17.0,-142.0,321.0,-432.0,55.0,-152.0,457.0,-225.0,484.0
19:30:42.211000,37.0,-153.0,322.0,-437.0,48.0,-143.0,468.0,-225.0,481.0
19:30:42.216000,91.0,-159.0,298.0,-460.0,72.0,-140.0,468.0,-225.0,481.0
19:30:42.220000,146.0,-164.0,259.0,-496.0,108.0,-138.0,474.0,-222.0,469.0
19:30:42.225000,184.0,-161.0,222.0,-537.0,143.0,-139.0,474.0,-222.0,469.0
19:30:42.229000,209.0,-152.0,186.0,-570.0,177.0,-143.0,474.0,-222.0,469.0
19:30:42.234000,221.0,-137.0,151.0,-596.0,217.0,-148.0,466.0,-220.0,484.0
19:30:42.239000,221.0,-123.0,119.0,-618.0,267.0,-150.0,466.0,-220.0,484.0
19:30:42.244000,209.0,-108.0,93.0,-618.0,267.0,-150.0,466.0,-220.0,484.0
19:30:42.248000,187.0,-95.0,83.0,-630.0,345.0,-145.0,466.0,-220.0,484.0
19:30:42.253000,163.0,-79.0,88.0,-628.0,357.0,-143.0,466.0,-220.0,484.0
19:30:42.258000,135.0,-67.0,107.0,-628.0,357.0,-143.0,481.0,-225.0,471.0
19:30:42.263000,110.0,-56.0,136.0,-624.0,350.0,-140.0,481.0,-225.0,471.0
19:30:42.267000,88.0,-48.0,168.0,-626.0,336.0,-138.0,489.0,-222.0,465.0
19:30:42.272000,67.0,-41.0,204.0,-625.0,316.0,-136.0,489.0,-222.0,465.0
19:30:42.276000,53.0,-37.0,242.0,-616.0,291.0,-133.0,489.0,-222.0,465.0
19:30:42.281000,42.0,-35.0,277.0,-602.0,268.0,-132.0,487.0,-213.0,475.0
19:30:42.286000,35.0,-29.0,302.0,-590.0,251.0,-135.0,487.0,-213.0,475.0
19:30:42.291000,25.0,-19.0,315.0,-590.0,244.0,-141.0,462.0,-223.0,468.0
19:30:42.295000,14.0,-7.0,314.0,-594.0,235.0,-146.0,462.0,-223.0,468.0
19:30:42.300000,14.0,-7.0,314.0,-585.0,213.0,-150.0,462.0,-223.0,468.0
19:30:42.305000,9.0,6.0,305.0,-559.0,179.0,-154.0,480.0,-226.0,465.0
19:30:42.310000,12.0,15.0,296.0,-528.0,147.0,-159.0,480.0,-226.0,465.0
19:30:42.314000,27.0,18.0,277.0,-503.0,129.0,-162.0,484.0,-226.0,465.0
19:30:42.319000,47.0,18.0,249.0,-483.0,119.0,-161.0,484.0,-226.0,465.0
19:30:42.323000,69.0,10.0,230.0,-464.0,106.0,-158.0,484.0,-226.0,465.0
19:30:42.328000,90.0,0.0,227.0,-453.0,94.0,-153.0,483.0,-213.0,475.0
19:30:42.333000,110.0,-12.0,232.0,-454.0,95.0,-148.0,483.0,-213.0,475.0
19:30:42.338000,121.0,-25.0,236.0,-460.0,107.0,-144.0,490.0,-226.0,466.0
19:30:42.342000,125.0,-36.0,239.0,-470.0,127.0,-139.0,490.0,-226.0,466.0
19:30:42.347000,121.0,-45.0,241.0,-481.0,144.0,-136.0,490.0,-226.0,466.0
19:30:42.352000,110.0,-51.0,247.0,-490.0,154.0,-133.0,498.0,-225.0,468.0
19:30:42.357000,94.0,-53.0,245.0,-498.0,159.0,-130.0,498.0,-225.0,468.0
19:30:42.361000,74.0,-53.0,241.0,-498.0,159.0,-130.0,487.0,-223.0,466.0
19:30:42.366000,52.0,-51.0,235.0,-507.0,158.0,-126.0,487.0,-223.0,466.0
19:30:42.370000,31.0,-50.0,221.0,-515.0,157.0,-124.0,487.0,-223.0,466.0
19:30:42.375000,10.0,-46.0,197.0,-522.0,165.0,-125.0,486.0,-229.0,486.0
19:30:42.380000,-9.0,-46.0,168.0,-526.0,177.0,-126.0,486.0,-229.0,486.0
19:30:42.385000,-25.0,-46.0,143.0,-521.0,184.0,-127.0,486.0,-229.0,472.0
19:30:42.389000,-35.0,-51.0,128.0,-511.0,178.0,-129.0,486.0,-229.0,472.0
19:30:42.394000,-42.0,-58.0,123.0,-502.0,165.0,-133.0,486.0,-229.0,472.0
19:30:42.399000,-42.0,-70.0,126.0,-492.0,152.0,-136.0,489.0,-229.0,459.0
19:30:42.404000,-39.0,-84.0,137.0,-479.0,140.0,-138.0,489.0,-229.0,459.0
19:30:42.408000,-34.0,-98.0,152.0,-464.0,127.0,-137.0,495.0,-234.0,472.0
19:30:42.413000,-34.0,-98.0,152.0,-448.0,121.0,-134.0,495.0,-234.0,472.0
19:30:42.417000,-31.0,-114.0,170.0,-435.0,113.0,-132.0,495.0,-234.0,472.0
19:30:42.422000,-30.0,-131.0,191.0,-428.0,101.0,-131.0,493.0,-234.0,465.0
19:30:42.427000,-28.0,-147.0,213.0,-435.0,97.0,-132.0,493.0,-234.0,465.0
19:30:42.432000,-28.0,-159.0,223.0,-453.0,106.0,-131.0,492.0,-231.0,472.0
19:30:42.436000,-32.0,-167.0,217.0,-474.0,121.0,-130.0,492.0,-231.0,472.0
19:30:42.441000,-42.0,-172.0,203.0,-489.0,126.0,-128.0,492.0,-231.0,472.0
19:30:42.446000,-55.0,-173.0,190.0,-497.0,115.0,-125.0,487.0,-232.0,466.0
19:30:42.451000,-66.0,-175.0,177.0,-507.0,101.0,-124.0,487.0,-232.0,466.0
19:30:42.455000,-73.0,-176.0,158.0,-527.0,102.0,-124.0,493.0,-226.0,459.0
19:30:42.460000,-81.0,-175.0,131.0,-550.0,116.0,-123.0,493.0,-226.0,459.0
19:30:42.464000,-93.0,-171.0,102.0,-563.0,125.0,-122.0,493.0,-226.0,459.0
19:30:42.469000,-102.0,-168.0,79.0,-557.0,114.0,-123.0,505.0,-229.0,477.0
19:30:42.474000,-104.0,-168.0,58.0,-557.0,98.0,-128.0,505.0,-229.0,477.0
19:30:42.479000,-98.0,-170.0,30.0,-543.0,98.0,-128.0,496.0,-235.0,459.0
19:30:42.483000,-90.0,-174.0,-2.0,-532.0,101.0,-133.0,496.0,-235.0,459.0
19:30:42.488000,-85.0,-178.0,-28.0,-527.0,124.0,-135.0,496.0,-235.0,459.0
19:30:42.493000,-88.0,-179.0,-44.0,-526.0,153.0,-136.0,507.0,-243.0,457.0
19:30:42.498000,-99.0,-178.0,-53.0,-528.0,179.0,-136.0,507.0,-243.0,457.0
19:30:42.502000,-115.0,-175.0,-53.0,-527.0,196.0,-136.0,507.0,-243.0,462.0
19:30:42.507000,-133.0,-170.0,-45.0,-521.0,199.0,-136.0,507.0,-243.0,462.0
19:30:42.514000,-148.0,-165.0,-34.0,-527.0,186.0,-138.0,513.0,-231.0,465.0
19:30:42.516000,-157.0,-161.0,-23.0,-527.0,186.0,-138.0,513.0,-231.0,465.0
19:30:42.520000,-157.0,-161.0,-23.0,-541.0,175.0,-139.0,513.0,-231.0,465.0
19:30:42.526000,-163.0,-157.0,-16.0,-559.0,161.0,-137.0,502.0,-238.0,444.0
19:30:42.530000,-163.0,-151.0,-7.0,-578.0,144.0,-133.0,502.0,-238.0,444.0
19:30:42.535000,-158.0,-144.0,2.0,-605.0,132.0,-132.0,502.0,-238.0,456.0
19:30:42.540000,-151.0,-135.0,10.0,-636.0,126.0,-131.0,502.0,-238.0,456.0
19:30:42.544000,-145.0,-123.0,14.0,-660.0,123.0,-129.0,502.0,-238.0,456.0
19:30:42.549000,-143.0,-107.0,23.0,-671.0,117.0,-128.0,513.0,-241.0,456.0
19:30:42.553000,-140.0,-92.0,33.0,-673.0,108.0,-128.0,513.0,-241.0,456.0
19:30:42.559000,-135.0,-82.0,35.0,-670.0,112.0,-131.0,495.0,-246.0,477.0
19:30:42.563000,-133.0,-72.0,25.0,-663.0,131.0,-135.0,495.0,-246.0,477.0
19:30:42.567000,-136.0,-63.0,15.0,-648.0,157.0,-139.0,495.0,-246.0,477.0
19:30:42.573000,-144.0,-58.0,8.0,-636.0,187.0,-145.0,504.0,-241.0,459.0
19:30:42.577000,-161.0,-53.0,3.0,-635.0,218.0,-151.0,504.0,-241.0,459.0
19:30:42.582000,-191.0,-46.0,-1.0,-635.0,218.0,-151.0,501.0,-250.0,465.0
19:30:42.587000,-226.0,-39.0,-1.0,-632.0,241.0,-154.0,501.0,-250.0,465.0
19:30:42.591000,-261.0,-36.0,0.0,-618.0,249.0,-157.0,501.0,-250.0,465.0
19:30:42.596000,-292.0,-34.0,-4.0,-606.0,247.0,-164.0,510.0,-249.0,454.0
19:30:42.601000,-315.0,-33.0,-8.0,-630.0,238.0,-191.0,510.0,-249.0,454.0
19:30:42.606000,-331.0,-30.0,-11.0,-630.0,238.0,-191.0,499.0,-237.0,459.0
19:30:42.610000,-344.0,-22.0,-7.0,-668.0,240.0,-204.0,499.0,-237.0,459.0
19:30:42.614000,-353.0,-14.0,8.0,-708.0,237.0,-216.0,499.0,-237.0,459.0
19:30:42.620000,-359.0,-4.0,37.0,-739.0,223.0,-228.0,501.0,-253.0,457.0
19:30:42.624000,-360.0,2.0,70.0,-760.0,209.0,-239.0,501.0,-253.0,457.0
19:30:42.629000,-357.0,11.0,99.0,-770.0,213.0,-249.0,508.0,-255.0,453.0
19:30:42.634000,-357.0,11.0,99.0,-768.0,233.0,-253.0,508.0,-255.0,453.0
19:30:42.638000,-354.0,22.0,126.0,-757.0,255.0,-253.0,508.0,-255.0,453.0
19:30:42.643000,-349.0,30.0,157.0,-752.0,271.0,-256.0,508.0,-256.0,465.0
19:30:42.648000,-340.0,37.0,188.0,-761.0,279.0,-254.0,508.0,-256.0,465.0
19:30:42.653000,-336.0,43.0,217.0,-774.0,274.0,-249.0,508.0,-261.0,465.0
19:30:42.657000,-329.0,46.0,251.0,-779.0,257.0,-247.0,508.0,-261.0,465.0
19:30:42.661000,-317.0,46.0,286.0,-786.0,253.0,-244.0,508.0,-261.0,465.0
