hh:mm:ss.ms,gyroX[mdps],gyroY[mdps],gyroZ[mdps],accX[mg],accY[mg],accZ[mg],magX[mG],magY[mG],magZ[mG]
19:30:23.205000,-53.0,-76.0,-312.0,-1317.0,-524.0,3.0,618.0,-477.0,-121.0
19:30:23.210000,-19.0,-62.0,-394.0,-1292.0,-559.0,1.0,618.0,-477.0,-121.0
19:30:23.214000,-19.0,-62.0,-394.0,-1284.0,-577.0,-11.0,618.0,-477.0,-121.0
19:30:23.219000,37.0,-46.0,-500.0,-1299.0,-597.0,-30.0,595.0,-484.0,-109.0
19:30:23.224000,37.0,-46.0,-500.0,-1332.0,-573.0,-46.0,595.0,-484.0,-109.0
19:30:23.229000,42.0,-31.0,-529.0,-1376.0,-472.0,-62.0,613.0,-477.0,-115.0
19:30:23.233000,71.0,-23.0,-609.0,-1387.0,-394.0,-70.0,613.0,-477.0,-115.0
19:30:23.238000,67.0,2.0,-643.0,-1350.0,-373.0,-74.0,613.0,-477.0,-115.0
19:30:23.243000,109.0,5.0,-605.0,-1299.0,-394.0,-74.0,610.0,-468.0,-120.0
19:30:23.248000,109.0,9.0,-553.0,-1283.0,-413.0,-71.0,610.0,-468.0,-120.0
19:30:23.252000,118.0,12.0,-553.0,-1294.0,-399.0,-66.0,616.0,-469.0,-118.0
19:30:23.257000,100.0,14.0,-574.0,-1268.0,-403.0,-62.0,616.0,-469.0,-118.0
19:30:23.261000,95.0,18.0,-528.0,-1225.0,-391.0,-67.0,616.0,-469.0,-118.0
19:30:23.266000,105.0,16.0,-454.0,-1213.0,-365.0,-61.0,615.0,-463.0,-124.0
19:30:23.271000,103.0,17.0,-376.0,-1233.0,-313.0,-54.0,615.0,-463.0,-124.0
19:30:23.276000,103.0,19.0,-371.0,-1233.0,-313.0,-54.0,601.0,-459.0,-115.0
19:30:23.280000,72.0,29.0,-394.0,-1231.0,-279.0,-53.0,601.0,-459.0,-115.0
19:30:23.285000,58.0,46.0,-392.0,-1231.0,-279.0,-53.0,601.0,-459.0,-115.0
19:30:23.290000,16.0,72.0,-366.0,-1228.0,-324.0,-88.0,618.0,-466.0,-123.0
19:30:23.295000,-4.0,88.0,-345.0,-1200.0,-291.0,-74.0,618.0,-466.0,-123.0
19:30:23.299000,-14.0,105.0,-316.0,-1304.0,-190.0,-109.0,621.0,-460.0,-114.0
19:30:23.304000,82.0,90.0,-303.0,-1304.0,-190.0,-109.0,621.0,-460.0,-114.0
19:30:23.308000,-43.0,128.0,-299.0,-1387.0,-299.0,-79.0,621.0,-460.0,-114.0
19:30:23.313000,-35.0,138.0,-216.0,-1173.0,-536.0,-59.0,603.0,-454.0,-114.0
19:30:23.318000,21.0,124.0,-247.0,-1047.0,-571.0,-110.0,603.0,-454.0,-114.0
19:30:23.323000,62.0,126.0,-367.0,-1065.0,-422.0,-121.0,619.0,-451.0,-108.0
19:30:23.327000,75.0,119.0,-478.0,-1102.0,-268.0,-137.0,619.0,-451.0,-108.0
19:30:23.332000,75.0,119.0,-478.0,-1073.0,-225.0,-128.0,619.0,-451.0,-108.0
19:30:23.337000,53.0,125.0,-500.0,-1031.0,-295.0,-132.0,615.0,-451.0,-117.0
19:30:23.341000,48.0,123.0,-458.0,-1055.0,-281.0,-150.0,615.0,-451.0,-117.0
19:30:23.346000,88.0,99.0,-459.0,-1037.0,-242.0,-145.0,612.0,-445.0,-94.0
19:30:23.351000,64.0,95.0,-508.0,-1003.0,-257.0,-132.0,612.0,-445.0,-94.0
19:30:23.356000,56.0,84.0,-529.0,-992.0,-250.0,-127.0,616.0,-436.0,-111.0
19:30:23.360000,58.0,66.0,-493.0,-983.0,-273.0,-126.0,616.0,-436.0,-111.0
19:30:23.364000,34.0,55.0,-427.0,-997.0,-296.0,-131.0,616.0,-436.0,-111.0
19:30:23.370000,22.0,46.0,-396.0,-1028.0,-275.0,-135.0,625.0,-441.0,-108.0
19:30:23.374000,32.0,42.0,-356.0,-1072.0,-195.0,-142.0,625.0,-441.0,-108.0
19:30:23.379000,39.0,49.0,-288.0,-1072.0,-164.0,-142.0,612.0,-447.0,-106.0
19:30:23.384000,-23.0,69.0,-270.0,-1083.0,-211.0,-104.0,612.0,-447.0,-106.0
19:30:23.388000,-34.0,83.0,-305.0,-1044.0,-243.0,-105.0,612.0,-447.0,-106.0
19:30:23.393000,10.0,72.0,-268.0,-1044.0,-243.0,-105.0,619.0,-436.0,-106.0
19:30:23.398000,-22.0,88.0,-241.0,-1016.0,-301.0,-86.0,619.0,-436.0,-106.0
19:30:23.403000,-27.0,105.0,-265.0,-1053.0,-369.0,-80.0,636.0,-429.0,-102.0
19:30:23.407000,17.0,107.0,-275.0,-1115.0,-379.0,-97.0,636.0,-429.0,-102.0
19:30:23.411000,58.0,115.0,-305.0,-1162.0,-314.0,-99.0,636.0,-429.0,-102.0
19:30:23.417000,50.0,133.0,-352.0,-1167.0,-248.0,-79.0,621.0,-432.0,-96.0
19:30:23.421000,55.0,158.0,-406.0,-1112.0,-259.0,-75.0,621.0,-432.0,-96.0
19:30:23.426000,78.0,163.0,-396.0,-1039.0,-289.0,-80.0,631.0,-435.0,-100.0
19:30:23.431000,70.0,179.0,-326.0,-1003.0,-290.0,-78.0,631.0,-435.0,-100.0
19:30:23.435000,70.0,179.0,-326.0,-1011.0,-228.0,-79.0,631.0,-435.0,-100.0
19:30:23.440000,66.0,198.0,-319.0,-1042.0,-160.0,-82.0,628.0,-432.0,-103.0
19:30:23.445000,56.0,218.0,-341.0,-1052.0,-170.0,-90.0,628.0,-432.0,-103.0
19:30:23.450000,74.0,227.0,-395.0,-1032.0,-190.0,-100.0,631.0,-421.0,-93.0
19:30:23.454000,93.0,231.0,-402.0,-1012.0,-185.0,-104.0,631.0,-421.0,-93.0
19:30:23.458000,101.0,233.0,-363.0,-1011.0,-153.0,-114.0,631.0,-421.0,-93.0
19:30:23.464000,122.0,234.0,-375.0,-1011.0,-121.0,-122.0,618.0,-417.0,-100.0
19:30:23.468000,117.0,243.0,-401.0,-995.0,-140.0,-126.0,618.0,-417.0,-100.0
19:30:23.473000,119.0,250.0,-392.0,-986.0,-175.0,-129.0,630.0,-421.0,-85.0
19:30:23.478000,135.0,243.0,-344.0,-993.0,-209.0,-134.0,630.0,-421.0,-85.0
19:30:23.482000,131.0,250.0,-315.0,-1007.0,-215.0,-141.0,630.0,-421.0,-85.0
19:30:23.487000,149.0,248.0,-312.0,-1008.0,-216.0,-142.0,640.0,-424.0,-97.0
19:30:23.492000,144.0,243.0,-282.0,-989.0,-241.0,-149.0,640.0,-424.0,-97.0
19:30:23.497000,145.0,239.0,-228.0,-989.0,-241.0,-149.0,625.0,-423.0,-97.0
19:30:23.501000,153.0,236.0,-168.0,-976.0,-182.0,-160.0,625.0,-423.0,-97.0
19:30:23.505000,172.0,226.0,-191.0,-976.0,-182.0,-160.0,625.0,-423.0,-97.0
19:30:23.511000,179.0,219.0,-237.0,-967.0,-142.0,-158.0,634.0,-418.0,-94.0
19:30:23.515000,203.0,201.0,-240.0,-895.0,-212.0,-157.0,634.0,-418.0,-94.0
19:30:23.520000,229.0,177.0,-236.0,-895.0,-212.0,-157.0,639.0,-424.0,-87.0
19:30:23.525000,231.0,167.0,-245.0,-904.0,-214.0,-161.0,639.0,-424.0,-87.0
19:30:23.529000,247.0,147.0,-263.0,-918.0,-203.0,-150.0,639.0,-424.0,-87.0
19:30:23.534000,228.0,136.0,-282.0,-924.0,-161.0,-132.0,637.0,-414.0,-72.0
19:30:23.539000,211.0,137.0,-319.0,-928.0,-126.0,-130.0,637.0,-414.0,-72.0
19:30:23.544000,208.0,124.0,-366.0,-936.0,-78.0,-128.0,642.0,-405.0,-84.0
19:30:23.548000,171.0,124.0,-384.0,-927.0,-70.0,-118.0,642.0,-405.0,-84.0
19:30:23.552000,171.0,124.0,-384.0,-907.0,-98.0,-108.0,642.0,-405.0,-84.0
19:30:23.558000,171.0,107.0,-384.0,-908.0,-110.0,-110.0,643.0,-423.0,-85.0
19:30:23.562000,145.0,113.0,-396.0,-923.0,-108.0,-100.0,643.0,-423.0,-85.0
19:30:23.567000,156.0,103.0,-432.0,-945.0,-96.0,-87.0,645.0,-414.0,-75.0
19:30:23.572000,135.0,114.0,-475.0,-963.0,-80.0,-89.0,645.0,-414.0,-75.0
19:30:23.576000,131.0,115.0,-524.0,-983.0,-66.0,-90.0,645.0,-414.0,-75.0
19:30:23.581000,121.0,118.0,-556.0,-995.0,-71.0,-93.0,643.0,-408.0,-79.0
19:30:23.586000,116.0,125.0,-581.0,-991.0,-79.0,-90.0,643.0,-408.0,-79.0
19:30:23.591000,125.0,127.0,-616.0,-993.0,-81.0,-86.0,639.0,-406.0,-72.0
19:30:23.595000,130.0,136.0,-624.0,-1004.0,-76.0,-92.0,639.0,-406.0,-72.0
19:30:23.599000,128.0,147.0,-597.0,-1034.0,-71.0,-99.0,639.0,-406.0,-72.0
19:30:23.605000,136.0,163.0,-569.0,-1082.0,-67.0,-100.0,642.0,-390.0,-66.0
19:30:23.609000,126.0,180.0,-561.0,-1110.0,-70.0,-105.0,642.0,-390.0,-66.0
19:30:23.614000,130.0,197.0,-562.0,-1110.0,-70.0,-105.0,648.0,-399.0,-76.0
19:30:23.619000,133.0,210.0,-567.0,-1117.0,-83.0,-115.0,648.0,-399.0,-76.0
19:30:23.623000,140.0,224.0,-579.0,-1117.0,-95.0,-119.0,648.0,-399.0,-76.0
19:30:23.628000,153.0,232.0,-585.0,-1134.0,-88.0,-128.0,657.0,-394.0,-72.0
19:30:23.633000,163.0,240.0,-592.0,-1146.0,-70.0,-133.0,657.0,-394.0,-72.0
19:30:23.638000,163.0,254.0,-615.0,-1140.0,-57.0,-136.0,652.0,-393.0,-78.0
19:30:23.642000,177.0,262.0,-640.0,-1147.0,-40.0,-142.0,652.0,-393.0,-78.0
19:30:23.646000,177.0,262.0,-640.0,-1148.0,-40.0,-141.0,652.0,-393.0,-78.0
19:30:23.652000,184.0,282.0,-668.0,-1130.0,-50.0,-140.0,649.0,-388.0,-75.0
19:30:23.656000,189.0,286.0,-691.0,-1130.0,-40.0,-146.0,649.0,-388.0,-75.0
19:30:23.661000,189.0,286.0,-691.0,-1139.0,-34.0,-148.0,652.0,-381.0,-72.0
19:30:23.666000,187.0,291.0,-707.0,-1131.0,-18.0,-148.0,652.0,-381.0,-72.0
19:30:23.670000,194.0,301.0,-729.0,-1125.0,22.0,-148.0,652.0,-381.0,-72.0
19:30:23.675000,191.0,309.0,-768.0,-1118.0,33.0,-149.0,655.0,-382.0,-64.0
19:30:23.680000,175.0,330.0,-787.0,-1110.0,30.0,-153.0,655.0,-382.0,-64.0
19:30:23.685000,190.0,343.0,-807.0,-1112.0,51.0,-159.0,654.0,-369.0,-52.0
19:30:23.689000,200.0,354.0,-835.0,-1126.0,56.0,-162.0,654.0,-369.0,-52.0
19:30:23.697000,201.0,384.0,-854.0,-1135.0,52.0,-169.0,660.0,-366.0,-33.0
19:30:23.699000,201.0,384.0,-854.0,-1135.0,52.0,-169.0,660.0,-366.0,-33.0
19:30:23.703000,209.0,400.0,-858.0,-1148.0,86.0,-176.0,660.0,-366.0,-33.0
19:30:23.708000,203.0,418.0,-879.0,-1163.0,123.0,-184.0,655.0,-352.0,-52.0
19:30:23.713000,205.0,429.0,-893.0,-1147.0,133.0,-190.0,655.0,-352.0,-52.0
19:30:23.718000,200.0,441.0,-891.0,-1147.0,133.0,-190.0,655.0,-351.0,-54.0
19:30:23.722000,198.0,453.0,-874.0,-1123.0,154.0,-198.0,655.0,-351.0,-54.0
19:30:23.726000,174.0,462.0,-823.0,-1116.0,176.0,-197.0,655.0,-351.0,-54.0
19:30:23.732000,169.0,483.0,-779.0,-1128.0,175.0,-207.0,669.0,-346.0,-46.0
19:30:23.736000,165.0,494.0,-763.0,-1115.0,157.0,-211.0,669.0,-346.0,-46.0
19:30:23.741000,167.0,502.0,-746.0,-1115.0,157.0,-211.0,669.0,-345.0,-48.0
19:30:23.746000,163.0,516.0,-730.0,-1091.0,151.0,-217.0,669.0,-345.0,-48.0
19:30:23.750000,171.0,525.0,-737.0,-1076.0,145.0,-223.0,669.0,-345.0,-48.0
19:30:23.755000,181.0,525.0,-759.0,-1068.0,152.0,-230.0,670.0,-345.0,-40.0
19:30:23.760000,184.0,529.0,-755.0,-1060.0,158.0,-239.0,670.0,-345.0,-40.0
19:30:23.765000,181.0,539.0,-750.0,-1036.0,151.0,-246.0,676.0,-327.0,-33.0
19:30:23.769000,181.0,539.0,-750.0,-1027.0,163.0,-256.0,676.0,-327.0,-33.0
19:30:23.773000,195.0,536.0,-756.0,-1026.0,187.0,-262.0,676.0,-327.0,-33.0
19:30:23.779000,197.0,529.0,-759.0,-1002.0,188.0,-268.0,670.0,-316.0,-19.0
19:30:23.783000,198.0,525.0,-748.0,-982.0,202.0,-273.0,670.0,-316.0,-19.0
19:30:23.788000,200.0,519.0,-756.0,-971.0,230.0,-272.0,675.0,-315.0,-21.0
19:30:23.793000,203.0,503.0,-776.0,-948.0,236.0,-276.0,675.0,-315.0,-21.0
19:30:23.797000,204.0,489.0,-782.0,-914.0,240.0,-283.0,675.0,-315.0,-21.0
19:30:23.802000,205.0,470.0,-780.0,-880.0,253.0,-289.0,670.0,-309.0,-21.0
19:30:23.807000,214.0,444.0,-772.0,-859.0,270.0,-298.0,670.0,-309.0,-21.0
19:30:23.812000,217.0,421.0,-769.0,-844.0,287.0,-311.0,681.0,-315.0,-16.0
19:30:23.816000,225.0,400.0,-758.0,-837.0,304.0,-320.0,681.0,-315.0,-16.0
19:30:23.820000,231.0,369.0,-740.0,-848.0,322.0,-324.0,681.0,-315.0,-16.0
19:30:23.826000,220.0,350.0,-744.0,-868.0,338.0,-335.0,673.0,-300.0,4.0
19:30:23.830000,209.0,333.0,-753.0,-875.0,353.0,-345.0,673.0,-300.0,4.0
19:30:23.835000,203.0,322.0,-729.0,-875.0,353.0,-345.0,679.0,-294.0,-16.0
19:30:23.840000,195.0,315.0,-695.0,-863.0,371.0,-351.0,679.0,-294.0,-16.0
19:30:23.844000,184.0,310.0,-695.0,-868.0,403.0,-359.0,679.0,-294.0,-16.0
19:30:23.849000,186.0,299.0,-702.0,-880.0,428.0,-368.0,684.0,-282.0,0.0
19:30:23.854000,182.0,284.0,-686.0,-857.0,420.0,-376.0,684.0,-282.0,0.0
19:30:23.859000,189.0,270.0,-662.0,-836.0,392.0,-382.0,670.0,-288.0,-1.0
19:30:23.863000,205.0,243.0,-634.0,-845.0,370.0,-380.0,670.0,-288.0,-1.0
19:30:23.867000,205.0,243.0,-634.0,-843.0,383.0,-375.0,670.0,-288.0,-1.0
19:30:23.873000,235.0,191.0,-610.0,-839.0,427.0,-375.0,682.0,-280.0,-3.0
19:30:23.877000,244.0,161.0,-619.0,-831.0,447.0,-374.0,682.0,-280.0,-3.0
19:30:23.882000,244.0,161.0,-619.0,-812.0,455.0,-376.0,676.0,-274.0,6.0
19:30:23.887000,261.0,131.0,-620.0,-802.0,500.0,-379.0,676.0,-274.0,6.0
19:30:23.891000,268.0,104.0,-604.0,-804.0,546.0,-380.0,676.0,-274.0,6.0
19:30:23.896000,268.0,79.0,-569.0,-820.0,584.0,-375.0,681.0,-273.0,-1.0
19:30:23.901000,256.0,51.0,-564.0,-838.0,642.0,-374.0,681.0,-273.0,-1.0
19:30:23.906000,261.0,28.0,-562.0,-851.0,692.0,-375.0,675.0,-271.0,6.0
19:30:23.910000,258.0,7.0,-547.0,-874.0,710.0,-363.0,675.0,-271.0,6.0
19:30:23.918000,216.0,-34.0,-495.0,-965.0,735.0,-353.0,673.0,-267.0,18.0
19:30:23.920000,216.0,-34.0,-495.0,-965.0,735.0,-353.0,673.0,-267.0,18.0
19:30:23.924000,197.0,-49.0,-486.0,-1030.0,743.0,-349.0,673.0,-267.0,18.0
19:30:23.929000,178.0,-60.0,-463.0,-1083.0,744.0,-347.0,670.0,-256.0,3.0
19:30:23.934000,161.0,-67.0,-427.0,-1110.0,755.0,-345.0,670.0,-256.0,3.0
19:30:23.938000,135.0,-70.0,-385.0,-1110.0,755.0,-345.0,673.0,-259.0,-3.0
19:30:23.943000,107.0,-67.0,-345.0,-1102.0,762.0,-342.0,673.0,-259.0,-3.0
19:30:23.947000,91.0,-68.0,-308.0,-1061.0,756.0,-344.0,673.0,-259.0,-3.0
19:30:23.953000,90.0,-73.0,-277.0,-1008.0,735.0,-349.0,679.0,-252.0,-1.0
19:30:23.957000,91.0,-74.0,-241.0,-976.0,710.0,-353.0,679.0,-252.0,-1.0
19:30:23.961000,93.0,-73.0,-206.0,-990.0,694.0,-354.0,673.0,-250.0,0.0
19:30:23.967000,88.0,-67.0,-165.0,-1040.0,688.0,-354.0,673.0,-250.0,0.0
19:30:23.971000,80.0,-67.0,-124.0,-1077.0,688.0,-351.0,673.0,-250.0,0.0
19:30:23.976000,86.0,-74.0,-120.0,-1081.0,707.0,-348.0,654.0,-252.0,6.0
19:30:23.981000,99.0,-95.0,-134.0,-1046.0,729.0,-339.0,654.0,-252.0,6.0
19:30:23.985000,91.0,-95.0,-156.0,-972.0,732.0,-332.0,682.0,-247.0,6.0
19:30:23.990000,91.0,-95.0,-156.0,-905.0,712.0,-325.0,682.0,-247.0,6.0
19:30:23.994000,86.0,-103.0,-137.0,-900.0,694.0,-318.0,682.0,-247.0,6.0
19:30:24.000000,84.0,-113.0,-101.0,-942.0,696.0,-317.0,669.0,-258.0,0.0
19:30:24.004000,79.0,-122.0,-60.0,-980.0,687.0,-314.0,669.0,-258.0,0.0
19:30:24.008000,67.0,-130.0,-16.0,-1015.0,678.0,-311.0,675.0,-244.0,-9.0
19:30:24.014000,47.0,-130.0,14.0,-1021.0,654.0,-310.0,675.0,-244.0,-9.0
19:30:24.018000,32.0,-132.0,73.0,-1002.0,602.0,-305.0,675.0,-244.0,-9.0
19:30:24.023000,18.0,-136.0,140.0,-1003.0,564.0,-302.0,670.0,-247.0,-7.0
19:30:24.028000,19.0,-141.0,172.0,-997.0,542.0,-298.0,670.0,-247.0,-7.0
19:30:24.032000,22.0,-144.0,200.0,-964.0,510.0,-287.0,666.0,-244.0,1.0
19:30:24.037000,24.0,-145.0,258.0,-914.0,481.0,-276.0,666.0,-244.0,1.0
19:30:24.041000,28.0,-147.0,324.0,-851.0,447.0,-267.0,666.0,-244.0,1.0
19:30:24.046000,37.0,-153.0,408.0,-788.0,412.0,-261.0,672.0,-252.0,1.0
19:30:24.051000,42.0,-162.0,466.0,-788.0,412.0,-261.0,672.0,-252.0,1.0
19:30:24.055000,47.0,-165.0,487.0,-690.0,390.0,-262.0,679.0,-262.0,16.0
19:30:24.061000,57.0,-170.0,500.0,-690.0,390.0,-262.0,679.0,-262.0,16.0
19:30:24.065000,49.0,-165.0,527.0,-654.0,369.0,-260.0,679.0,-262.0,16.0
19:30:24.070000,37.0,-158.0,548.0,-633.0,365.0,-259.0,685.0,-255.0,0.0
19:30:24.075000,21.0,-147.0,555.0,-623.0,376.0,-261.0,685.0,-255.0,0.0
19:30:24.079000,4.0,-134.0,541.0,-623.0,375.0,-264.0,675.0,-268.0,-1.0
19:30:24.084000,-8.0,-128.0,503.0,-629.0,362.0,-265.0,675.0,-268.0,-1.0
19:30:24.088000,-8.0,-128.0,503.0,-617.0,336.0,-264.0,675.0,-268.0,-1.0
19:30:24.093000,-20.0,-126.0,463.0,-583.0,292.0,-262.0,682.0,-267.0,3.0
19:30:24.098000,-20.0,-126.0,463.0,-559.0,250.0,-261.0,682.0,-267.0,3.0
19:30:24.102000,-12.0,-131.0,458.0,-557.0,241.0,-262.0,687.0,-267.0,-1.0
19:30:24.108000,2.0,-138.0,434.0,-553.0,255.0,-258.0,687.0,-267.0,-1.0
19:30:24.112000,9.0,-144.0,400.0,-534.0,271.0,-254.0,687.0,-267.0,-1.0
19:30:24.117000,16.0,-149.0,377.0,-509.0,278.0,-247.0,670.0,-270.0,-4.0
19:30:24.122000,21.0,-158.0,369.0,-488.0,280.0,-234.0,670.0,-270.0,-4.0
19:30:24.126000,23.0,-167.0,363.0,-466.0,281.0,-221.0,687.0,-274.0,0.0
19:30:24.131000,28.0,-177.0,357.0,-438.0,281.0,-206.0,687.0,-274.0,0.0
19:30:24.135000,36.0,-188.0,352.0,-412.0,290.0,-196.0,687.0,-274.0,0.0
19:30:24.140000,42.0,-201.0,347.0,-399.0,308.0,-182.0,675.0,-285.0,1.0
19:30:24.145000,42.0,-210.0,346.0,-399.0,322.0,-165.0,675.0,-285.0,1.0
19:30:24.149000,41.0,-214.0,350.0,-406.0,328.0,-153.0,688.0,-285.0,-1.0
19:30:24.155000,29.0,-219.0,354.0,-412.0,320.0,-142.0,688.0,-285.0,-1.0
19:30:24.159000,14.0,-219.0,361.0,-416.0,298.0,-130.0,688.0,-285.0,-1.0
19:30:24.164000,-5.0,-222.0,378.0,-416.0,298.0,-130.0,684.0,-294.0,-15.0
19:30:24.169000,-34.0,-223.0,400.0,-427.0,281.0,-120.0,684.0,-294.0,-15.0
19:30:24.173000,-70.0,-221.0,421.0,-447.0,280.0,-111.0,687.0,-286.0,-6.0
19:30:24.178000,-116.0,-214.0,437.0,-476.0,287.0,-105.0,687.0,-286.0,-6.0
19:30:24.182000,-168.0,-200.0,448.0,-509.0,293.0,-104.0,687.0,-286.0,-6.0
19:30:24.187000,-220.0,-182.0,446.0,-534.0,284.0,-106.0,687.0,-286.0,-6.0
19:30:24.192000,-266.0,-161.0,435.0,-539.0,255.0,-113.0,687.0,-286.0,-6.0
19:30:24.197000,-301.0,-140.0,414.0,-533.0,214.0,-125.0,682.0,-294.0,-3.0
19:30:24.202000,-324.0,-119.0,377.0,-532.0,177.0,-140.0,682.0,-294.0,-3.0
19:30:24.206000,-334.0,-98.0,322.0,-538.0,154.0,-154.0,691.0,-297.0,0.0
19:30:24.211000,-334.0,-98.0,322.0,-543.0,133.0,-167.0,691.0,-297.0,0.0
19:30:24.215000,-327.0,-85.0,262.0,-541.0,96.0,-175.0,691.0,-297.0,0.0
19:30:24.220000,-304.0,-79.0,212.0,-540.0,49.0,-178.0,694.0,-297.0,-4.0
19:30:24.225000,-268.0,-80.0,175.0,-541.0,12.0,-177.0,694.0,-297.0,-4.0
19:30:24.230000,-224.0,-89.0,145.0,-527.0,-13.0,-172.0,684.0,-298.0,-13.0
19:30:24.234000,-172.0,-106.0,136.0,-504.0,-28.0,-164.0,684.0,-298.0,-13.0
19:30:24.239000,-121.0,-126.0,151.0,-491.0,-20.0,-152.0,684.0,-298.0,-13.0
19:30:24.244000,-76.0,-147.0,175.0,-485.0,7.0,-140.0,682.0,-300.0,-13.0
19:30:24.249000,-39.0,-163.0,203.0,-476.0,36.0,-128.0,682.0,-300.0,-13.0
19:30:24.253000,-12.0,-178.0,240.0,-465.0,60.0,-118.0,691.0,-297.0,-9.0
19:30:24.258000,4.0,-189.0,287.0,-462.0,84.0,-110.0,691.0,-297.0,-9.0
19:30:24.262000,13.0,-198.0,336.0,-469.0,114.0,-104.0,691.0,-297.0,-9.0
19:30:24.267000,13.0,-205.0,384.0,-481.0,147.0,-98.0,690.0,-301.0,-16.0
19:30:24.272000,2.0,-205.0,427.0,-481.0,147.0,-98.0,690.0,-301.0,-16.0
19:30:24.277000,-15.0,-200.0,466.0,-494.0,172.0,-91.0,687.0,-315.0,-18.0
19:30:24.281000,-38.0,-193.0,504.0,-502.0,185.0,-85.0,687.0,-315.0,-18.0
19:30:24.289000,-61.0,-185.0,540.0,-496.0,177.0,-84.0,676.0,-313.0,0.0
19:30:24.291000,-83.0,-177.0,574.0,-496.0,177.0,-84.0,676.0,-313.0,0.0
19:30:24.295000,-102.0,-170.0,601.0,-490.0,174.0,-86.0,676.0,-313.0,0.0
19:30:24.300000,-117.0,-165.0,624.0,-486.0,169.0,-88.0,688.0,-322.0,-15.0
19:30:24.305000,-128.0,-161.0,648.0,-480.0,156.0,-87.0,688.0,-322.0,-15.0
19:30:24.310000,-132.0,-159.0,680.0,-472.0,131.0,-84.0,693.0,-327.0,-22.0
19:30:24.314000,-127.0,-161.0,721.0,-462.0,91.0,-82.0,693.0,-327.0,-22.0
19:30:24.318000,-127.0,-161.0,721.0,-452.0,45.0,-81.0,693.0,-327.0,-22.0
19:30:24.324000,-118.0,-165.0,770.0,-450.0,12.0,-80.0,691.0,-327.0,-27.0
19:30:24.328000,-105.0,-172.0,816.0,-456.0,-3.0,-80.0,691.0,-327.0,-27.0
19:30:24.333000,-93.0,-182.0,860.0,-463.0,-5.0,-80.0,688.0,-339.0,-18.0
19:30:24.338000,-83.0,-190.0,898.0,-472.0,4.0,-78.0,688.0,-339.0,-18.0
19:30:24.342000,-79.0,-198.0,926.0,-482.0,19.0,-73.0,688.0,-339.0,-18.0
19:30:24.347000,-82.0,-207.0,948.0,-487.0,35.0,-67.0,687.0,-342.0,-22.0
19:30:24.352000,-93.0,-217.0,960.0,-484.0,48.0,-63.0,687.0,-342.0,-22.0
19:30:24.357000,-111.0,-226.0,963.0,-476.0,61.0,-60.0,693.0,-358.0,-25.0
19:30:24.361000,-132.0,-235.0,959.0,-464.0,78.0,-59.0,693.0,-358.0,-25.0
19:30:24.365000,-155.0,-245.0,945.0,-455.0,96.0,-57.0,693.0,-358.0,-25.0
19:30:24.371000,-180.0,-255.0,925.0,-444.0,107.0,-54.0,691.0,-360.0,-27.0
19:30:24.375000,-203.0,-264.0,903.0,-429.0,103.0,-55.0,691.0,-360.0,-27.0
19:30:24.380000,-221.0,-275.0,887.0,-429.0,103.0,-55.0,669.0,-369.0,-19.0
19:30:24.385000,-231.0,-287.0,877.0,-413.0,82.0,-62.0,669.0,-369.0,-19.0
19:30:24.389000,-234.0,-301.0,870.0,-406.0,66.0,-71.0,669.0,-369.0,-19.0
19:30:24.394000,-236.0,-311.0,872.0,-408.0,60.0,-78.0,678.0,-372.0,-28.0
19:30:24.399000,-236.0,-322.0,891.0,-415.0,50.0,-85.0,678.0,-372.0,-28.0
19:30:24.404000,-237.0,-330.0,928.0,-422.0,28.0,-87.0,682.0,-375.0,-34.0
19:30:24.408000,-237.0,-338.0,979.0,-430.0,1.0,-90.0,682.0,-375.0,-34.0
19:30:24.412000,-238.0,-347.0,1036.0,-444.0,-19.0,-93.0,682.0,-375.0,-34.0
19:30:24.418000,-242.0,-352.0,1094.0,-463.0,-26.0,-95.0,688.0,-385.0,-39.0
19:30:24.422000,-249.0,-355.0,1154.0,-483.0,-26.0,-98.0,688.0,-385.0,-39.0
19:30:24.427000,-249.0,-355.0,1154.0,-504.0,-31.0,-99.0,673.0,-388.0,-43.0
19:30:24.432000,-261.0,-357.0,1218.0,-523.0,-45.0,-100.0,673.0,-388.0,-43.0
19:30:24.436000,-275.0,-357.0,1280.0,-534.0,-65.0,-100.0,673.0,-388.0,-43.0
19:30:24.441000,-289.0,-357.0,1337.0,-539.0,-85.0,-100.0,670.0,-415.0,-42.0
19:30:24.446000,-301.0,-356.0,1387.0,-539.0,-100.0,-98.0,670.0,-415.0,-42.0
19:30:24.451000,-315.0,-352.0,1428.0,-539.0,-105.0,-96.0,679.0,-415.0,-49.0
19:30:24.455000,-329.0,-349.0,1449.0,-533.0,-111.0,-95.0,679.0,-415.0,-49.0
19:30:24.459000,-343.0,-349.0,1453.0,-519.0,-128.0,-93.0,679.0,-415.0,-49.0
19:30:24.465000,-357.0,-352.0,1451.0,-502.0,-159.0,-86.0,666.0,-424.0,-58.0
19:30:24.469000,-368.0,-358.0,1444.0,-486.0,-198.0,-77.0,666.0,-424.0,-58.0
19:30:24.474000,-378.0,-370.0,1439.0,-475.0,-240.0,-71.0,651.0,-435.0,-54.0
19:30:24.479000,-385.0,-383.0,1432.0,-478.0,-271.0,-67.0,651.0,-435.0,-54.0
19:30:24.483000,-393.0,-396.0,1418.0,-499.0,-287.0,-66.0,651.0,-435.0,-54.0
19:30:24.488000,-404.0,-406.0,1397.0,-530.0,-299.0,-67.0,660.0,-441.0,-55.0
19:30:24.493000,-421.0,-408.0,1369.0,-530.0,-299.0,-67.0,660.0,-441.0,-55.0
19:30:24.498000,-440.0,-406.0,1339.0,-563.0,-315.0,-70.0,654.0,-448.0,-61.0
19:30:24.502000,-455.0,-399.0,1311.0,-593.0,-346.0,-78.0,654.0,-448.0,-61.0
19:30:24.506000,-464.0,-389.0,1271.0,-670.0,-413.0,-92.0,654.0,-448.0,-61.0
19:30:24.512000,-470.0,-375.0,1215.0,-670.0,-413.0,-92.0,646.0,-465.0,-52.0
19:30:24.516000,-471.0,-363.0,1151.0,-713.0,-448.0,-92.0,646.0,-465.0,-52.0
19:30:24.521000,-462.0,-351.0,1087.0,-749.0,-496.0,-87.0,649.0,-475.0,-73.0
19:30:24.526000,-441.0,-342.0,1022.0,-778.0,-552.0,-85.0,649.0,-475.0,-73.0
19:30:24.530000,-441.0,-342.0,1022.0,-814.0,-594.0,-86.0,649.0,-475.0,-73.0
19:30:24.535000,-392.0,-322.0,862.0,-869.0,-601.0,-83.0,648.0,-483.0,-82.0
19:30:24.540000,-392.0,-322.0,862.0,-938.0,-584.0,-69.0,648.0,-483.0,-82.0
19:30:24.545000,-382.0,-302.0,776.0,-1004.0,-576.0,-55.0,640.0,-474.0,-76.0
19:30:24.549000,-376.0,-280.0,701.0,-1057.0,-587.0,-50.0,640.0,-474.0,-76.0
19:30:24.553000,-371.0,-258.0,632.0,-1103.0,-589.0,-44.0,640.0,-474.0,-76.0
19:30:24.559000,-374.0,-235.0,559.0,-1147.0,-569.0,-40.0,637.0,-492.0,-78.0
19:30:24.563000,-380.0,-211.0,484.0,-1182.0,-544.0,-45.0,637.0,-492.0,-78.0
19:30:24.568000,-384.0,-191.0,414.0,-1204.0,-524.0,-50.0,627.0,-478.0,-82.0
19:30:24.573000,-380.0,-177.0,351.0,-1208.0,-514.0,-61.0,627.0,-478.0,-82.0
19:30:24.577000,-366.0,-168.0,294.0,-1188.0,-508.0,-68.0,627.0,-478.0,-82.0
19:30:24.582000,-345.0,-157.0,244.0,-1155.0,-498.0,-70.0,622.0,-474.0,-99.0
19:30:24.587000,-317.0,-149.0,198.0,-1114.0,-487.0,-75.0,622.0,-474.0,-99.0
19:30:24.591000,-284.0,-141.0,164.0,-1076.0,-464.0,-83.0,621.0,-493.0,-91.0
19:30:24.596000,-250.0,-137.0,135.0,-1067.0,-404.0,-90.0,621.0,-493.0,-91.0
19:30:24.600000,-228.0,-118.0,98.0,-1067.0,-404.0,-90.0,621.0,-493.0,-91.0
19:30:24.606000,-208.0,-94.0,63.0,-1086.0,-321.0,-94.0,622.0,-486.0,-99.0
19:30:24.610000,-189.0,-72.0,40.0,-1106.0,-263.0,-92.0,622.0,-486.0,-99.0
19:30:24.615000,-168.0,-53.0,23.0,-1110.0,-233.0,-92.0,624.0,-483.0,-96.0
19:30:24.620000,-149.0,-32.0,5.0,-1106.0,-203.0,-86.0,624.0,-483.0,-96.0
19:30:24.624000,-106.0,2.0,-23.0,-1127.0,-174.0,-108.0,624.0,-483.0,-96.0
19:30:24.629000,-61.0,15.0,-112.0,-1205.0,-81.0,-152.0,625.0,-490.0,-94.0
19:30:24.634000,-48.0,40.0,-162.0,-1245.0,69.0,-180.0,625.0,-490.0,-94.0
19:30:24.638000,-48.0,40.0,-162.0,-1234.0,237.0,-213.0,618.0,-480.0,-78.0
19:30:24.643000,-14.0,66.0,-207.0,-1268.0,451.0,-240.0,618.0,-480.0,-78.0
19:30:24.647000,-14.0,66.0,-207.0,-1324.0,651.0,-264.0,618.0,-480.0,-78.0
19:30:24.653000,-7.0,72.0,-281.0,-1374.0,799.0,-286.0,621.0,-483.0,-97.0
19:30:24.657000,-13.0,76.0,-350.0,-1417.0,920.0,-301.0,621.0,-483.0,-97.0
19:30:24.662000,-39.0,94.0,-401.0,-1438.0,1003.0,-303.0,624.0,-480.0,-100.0
19:30:24.667000,-87.0,111.0,-401.0,-1408.0,983.0,-275.0,624.0,-480.0,-100.0
19:30:24.671000,-130.0,127.0,-338.0,-1334.0,874.0,-237.0,624.0,-480.0,-100.0
19:30:24.676000,-178.0,160.0,-259.0,-1246.0,738.0,-203.0,628.0,-471.0,-99.0
19:30:24.680000,-227.0,168.0,-179.0,-1090.0,604.0,-170.0,628.0,-471.0,-99.0
19:30:24.686000,-259.0,160.0,-67.0,-898.0,493.0,-164.0,625.0,-465.0,-90.0
19:30:24.690000,-250.0,143.0,18.0,-797.0,412.0,-162.0,625.0,-465.0,-90.0
19:30:24.695000,-255.0,121.0,25.0,-797.0,374.0,-162.0,613.0,-474.0,-93.0
19:30:24.700000,-198.0,113.0,-111.0,-1203.0,311.0,-189.0,613.0,-474.0,-93.0
19:30:24.704000,-198.0,105.0,-138.0,-1233.0,162.0,-191.0,613.0,-474.0,-93.0
19:30:24.709000,-143.0,113.0,193.0,-1233.0,162.0,-191.0,613.0,-469.0,-91.0
19:30:24.714000,-13.0,76.0,123.0,-900.0,171.0,-200.0,613.0,-469.0,-91.0
19:30:24.719000,94.0,67.0,-138.0,-816.0,331.0,-208.0,616.0,-466.0,-93.0
19:30:24.723000,107.0,51.0,-191.0,-912.0,388.0,-201.0,616.0,-466.0,-93.0
19:30:24.727000,163.0,37.0,-146.0,-1250.0,489.0,-203.0,616.0,-466.0,-93.0
19:30:24.733000,153.0,80.0,-349.0,-1250.0,489.0,-203.0,601.0,-457.0,-82.0
19:30:24.737000,158.0,81.0,-413.0,-1085.0,534.0,-218.0,601.0,-457.0,-82.0
19:30:24.742000,162.0,71.0,-289.0,-1034.0,456.0,-219.0,619.0,-462.0,-91.0
19:30:24.747000,136.0,63.0,-105.0,-1065.0,381.0,-218.0,619.0,-462.0,-91.0
19:30:24.751000,136.0,63.0,-105.0,-1161.0,348.0,-213.0,619.0,-462.0,-91.0
19:30:24.756000,95.0,46.0,60.0,-1257.0,356.0,-214.0,619.0,-459.0,-85.0
19:30:24.761000,67.0,41.0,113.0,-1286.0,351.0,-213.0,619.0,-459.0,-85.0
19:30:24.766000,27.0,36.0,139.0,-1276.0,305.0,-205.0,622.0,-447.0,-87.0
19:30:24.770000,-9.0,22.0,155.0,-1253.0,327.0,-217.0,622.0,-447.0,-87.0
19:30:24.774000,-37.0,18.0,159.0,-1217.0,355.0,-220.0,622.0,-447.0,-87.0
19:30:24.780000,-92.0,32.0,140.0,-1219.0,327.0,-218.0,613.0,-459.0,-79.0
19:30:24.784000,-133.0,46.0,86.0,-1271.0,281.0,-220.0,613.0,-459.0,-79.0
19:30:24.789000,-155.0,56.0,30.0,-1333.0,192.0,-209.0,613.0,-469.0,-91.0
19:30:24.794000,-169.0,60.0,4.0,-1382.0,72.0,-226.0,613.0,-469.0,-91.0
19:30:24.798000,-144.0,75.0,-9.0,-1413.0,-25.0,-219.0,613.0,-469.0,-91.0
19:30:24.803000,-214.0,122.0,-57.0,-1402.0,-52.0,-202.0,615.0,-462.0,-91.0
19:30:24.808000,-127.0,109.0,-133.0,-1360.0,-109.0,-207.0,615.0,-462.0,-91.0
19:30:24.813000,-170.0,154.0,-173.0,-1360.0,-109.0,-207.0,619.0,-457.0,-84.0
19:30:24.817000,-150.0,164.0,-189.0,-1256.0,-263.0,-203.0,619.0,-457.0,-84.0
19:30:24.821000,-137.0,168.0,-142.0,-1256.0,-263.0,-203.0,619.0,-457.0,-84.0
19:30:24.827000,-93.0,156.0,-42.0,-1175.0,-322.0,-200.0,604.0,-462.0,-81.0
19:30:24.831000,-67.0,140.0,-23.0,-1162.0,-309.0,-196.0,604.0,-462.0,-81.0
19:30:24.836000,-33.0,119.0,-65.0,-1194.0,-282.0,-185.0,613.0,-462.0,-82.0
19:30:24.841000,-14.0,99.0,-41.0,-1164.0,-307.0,-173.0,613.0,-462.0,-82.0
19:30:24.845000,-1.0,73.0,12.0,-1088.0,-347.0,-157.0,613.0,-462.0,-82.0
19:30:24.850000,0.0,53.0,28.0,-1034.0,-353.0,-136.0,618.0,-451.0,-79.0
19:30:24.855000,-7.0,37.0,2.0,-1028.0,-364.0,-120.0,618.0,-451.0,-79.0
19:30:24.859000,-7.0,37.0,2.0,-1025.0,-386.0,-105.0,616.0,-451.0,-67.0
19:30:24.864000,3.0,-16.0,21.0,-990.0,-397.0,-90.0,616.0,-451.0,-67.0
19:30:24.869000,3.0,-16.0,21.0,-980.0,-382.0,-77.0,616.0,-451.0,-67.0
19:30:24.874000,-9.0,-31.0,35.0,-1025.0,-340.0,-70.0,616.0,-451.0,-67.0
19:30:24.878000,-15.0,-44.0,-3.0,-1073.0,-302.0,-70.0,616.0,-451.0,-67.0
19:30:24.883000,-25.0,-57.0,-39.0,-1115.0,-302.0,-66.0,622.0,-460.0,-81.0
19:30:24.888000,-44.0,-56.0,-56.0,-1178.0,-315.0,-67.0,622.0,-460.0,-81.0
19:30:24.892000,-57.0,-46.0,-97.0,-1238.0,-325.0,-76.0,612.0,-448.0,-79.0
19:30:24.897000,-64.0,-34.0,-154.0,-1267.0,-338.0,-81.0,612.0,-448.0,-79.0
19:30:24.901000,-76.0,-22.0,-154.0,-1279.0,-342.0,-81.0,612.0,-448.0,-79.0
19:30:24.907000,-96.0,1.0,-177.0,-1285.0,-342.0,-86.0,604.0,-450.0,-84.0
19:30:24.911000,-90.0,18.0,-220.0,-1268.0,-385.0,-99.0,604.0,-450.0,-84.0
19:30:24.916000,-79.0,34.0,-222.0,-1268.0,-385.0,-99.0,607.0,-454.0,-84.0
19:30:24.921000,-68.0,48.0,-262.0,-1260.0,-486.0,-119.0,607.0,-454.0,-84.0
19:30:24.925000,-39.0,65.0,-346.0,-1215.0,-518.0,-123.0,607.0,-454.0,-84.0
19:30:24.930000,23.0,60.0,-387.0,-1215.0,-518.0,-123.0,619.0,-450.0,-87.0
19:30:24.935000,96.0,44.0,-413.0,-1166.0,-503.0,-125.0,619.0,-450.0,-87.0
19:30:24.939000,137.0,44.0,-425.0,-1163.0,-458.0,-113.0,613.0,-451.0,-85.0
19:30:24.944000,187.0,46.0,-458.0,-1168.0,-436.0,-109.0,613.0,-451.0,-85.0
19:30:24.948000,210.0,48.0,-505.0,-1177.0,-374.0,-104.0,613.0,-451.0,-85.0
19:30:24.954000,263.0,46.0,-546.0,-1194.0,-357.0,-92.0,601.0,-445.0,-66.0
19:30:24.958000,238.0,65.0,-580.0,-1207.0,-318.0,-73.0,601.0,-445.0,-66.0
19:30:24.963000,254.0,67.0,-562.0,-1183.0,-271.0,-69.0,622.0,-445.0,-87.0
19:30:24.968000,225.0,81.0,-506.0,-1091.0,-150.0,-70.0,622.0,-445.0,-87.0
19:30:24.972000,225.0,81.0,-506.0,-1158.0,-100.0,-58.0,622.0,-445.0,-87.0
19:30:24.977000,234.0,77.0,-469.0,-1199.0,-281.0,-59.0,610.0,-454.0,-81.0
19:30:24.982000,179.0,82.0,-315.0,-1086.0,-434.0,-68.0,610.0,-454.0,-81.0
19:30:24.986000,187.0,65.0,-178.0,-1091.0,-361.0,-67.0,615.0,-442.0,-79.0
19:30:24.991000,185.0,63.0,-175.0,-1113.0,-216.0,-60.0,615.0,-442.0,-79.0
19:30:24.998000,256.0,53.0,-268.0,-1212.0,68.0,-71.0,615.0,-436.0,-79.0
19:30:25.001000,256.0,53.0,-268.0,-1212.0,68.0,-71.0,615.0,-436.0,-79.0
19:30:25.005000,226.0,63.0,-268.0,-1239.0,-54.0,-51.0,615.0,-436.0,-79.0
19:30:25.010000,159.0,90.0,-257.0,-1226.0,-248.0,-65.0,622.0,-444.0,-79.0
19:30:25.015000,179.0,86.0,-245.0,-1168.0,-309.0,-80.0,622.0,-444.0,-79.0
19:30:25.019000,135.0,103.0,-202.0,-1130.0,-220.0,-89.0,618.0,-439.0,-76.0
19:30:25.024000,109.0,116.0,-196.0,-1071.0,24.0,-83.0,618.0,-439.0,-76.0
19:30:25.028000,58.0,145.0,-274.0,-1104.0,183.0,-85.0,618.0,-439.0,-76.0
19:30:25.033000,36.0,158.0,-277.0,-1173.0,90.0,-99.0,616.0,-442.0,-73.0
19:30:25.038000,22.0,168.0,-184.0,-1211.0,-144.0,-106.0,616.0,-442.0,-73.0
19:30:25.043000,-45.0,192.0,-102.0,-1211.0,-144.0,-106.0,603.0,-439.0,-67.0
19:30:25.048000,-140.0,238.0,-60.0,-1180.0,-335.0,-104.0,603.0,-439.0,-67.0
19:30:25.052000,-122.0,239.0,-86.0,-1132.0,-381.0,-120.0,603.0,-439.0,-67.0
19:30:25.057000,-74.0,229.0,-105.0,-1092.0,-256.0,-154.0,616.0,-444.0,-70.0
19:30:25.062000,-67.0,228.0,-98.0,-1055.0,-98.0,-153.0,616.0,-444.0,-70.0
19:30:25.066000,-40.0,230.0,-84.0,-1075.0,-33.0,-154.0,628.0,-438.0,-67.0
19:30:25.071000,-87.0,245.0,-121.0,-1060.0,-62.0,-152.0,628.0,-438.0,-67.0
19:30:25.075000,-87.0,245.0,-121.0,-1032.0,-208.0,-155.0,628.0,-438.0,-67.0
19:30:25.080000,-35.0,250.0,-228.0,-1022.0,-281.0,-180.0,618.0,-433.0,-67.0
19:30:25.085000,-63.0,250.0,-153.0,-1075.0,-285.0,-179.0,618.0,-433.0,-67.0
19:30:25.090000,-63.0,254.0,-153.0,-1132.0,-331.0,-175.0,622.0,-432.0,-61.0
19:30:25.095000,-68.0,259.0,-115.0,-1181.0,-288.0,-191.0,622.0,-432.0,-61.0
19:30:25.099000,-51.0,255.0,-193.0,-1144.0,-275.0,-198.0,622.0,-432.0,-61.0
19:30:25.104000,-41.0,259.0,-221.0,-1045.0,-349.0,-196.0,628.0,-432.0,-64.0
19:30:25.109000,-32.0,252.0,-188.0,-990.0,-354.0,-194.0,628.0,-432.0,-64.0
19:30:25.113000,-8.0,240.0,-191.0,-1012.0,-230.0,-200.0,624.0,-424.0,-69.0
19:30:25.118000,31.0,214.0,-222.0,-1019.0,-159.0,-187.0,624.0,-424.0,-69.0
19:30:25.122000,-3.0,217.0,-234.0,-981.0,-215.0,-184.0,624.0,-424.0,-69.0
19:30:25.127000,-9.0,217.0,-249.0,-979.0,-274.0,-194.0,627.0,-429.0,-66.0
19:30:25.132000,7.0,203.0,-256.0,-983.0,-229.0,-188.0,627.0,-429.0,-66.0
19:30:25.137000,36.0,183.0,-284.0,-983.0,-229.0,-188.0,621.0,-421.0,-52.0
19:30:25.142000,42.0,182.0,-354.0,-932.0,-139.0,-176.0,621.0,-421.0,-52.0
19:30:25.146000,31.0,187.0,-371.0,-930.0,-178.0,-170.0,621.0,-421.0,-52.0
19:30:25.151000,22.0,189.0,-362.0,-930.0,-178.0,-170.0,627.0,-427.0,-54.0
19:30:25.156000,21.0,186.0,-370.0,-974.0,-178.0,-174.0,627.0,-427.0,-54.0
19:30:25.160000,37.0,179.0,-359.0,-989.0,-115.0,-175.0,622.0,-424.0,-55.0
19:30:25.165000,12.0,180.0,-361.0,-986.0,-86.0,-164.0,622.0,-424.0,-55.0
19:30:25.169000,9.0,188.0,-394.0,-978.0,-126.0,-162.0,622.0,-424.0,-55.0
19:30:25.174000,36.0,175.0,-395.0,-967.0,-151.0,-172.0,616.0,-424.0,-37.0
19:30:25.179000,47.0,174.0,-394.0,-985.0,-158.0,-172.0,616.0,-424.0,-37.0
19:30:25.184000,58.0,171.0,-421.0,-1021.0,-152.0,-172.0,634.0,-414.0,-40.0
19:30:25.189000,58.0,174.0,-431.0,-1029.0,-145.0,-174.0,634.0,-414.0,-40.0
19:30:25.193000,58.0,174.0,-431.0,-1009.0,-168.0,-174.0,634.0,-414.0,-40.0
19:30:25.198000,71.0,168.0,-421.0,-994.0,-188.0,-180.0,631.0,-411.0,-46.0
19:30:25.203000,97.0,161.0,-408.0,-994.0,-180.0,-186.0,631.0,-411.0,-46.0
19:30:25.207000,128.0,153.0,-403.0,-998.0,-169.0,-191.0,634.0,-409.0,-49.0
19:30:25.212000,148.0,153.0,-402.0,-1008.0,-169.0,-201.0,634.0,-409.0,-49.0
19:30:25.216000,179.0,154.0,-406.0,-1033.0,-151.0,-209.0,633.0,-412.0,-45.0
19:30:25.221000,192.0,162.0,-434.0,-1071.0,-124.0,-214.0,633.0,-412.0,-45.0
19:30:25.226000,199.0,168.0,-480.0,-1078.0,-109.0,-224.0,633.0,-412.0,-45.0
19:30:25.231000,201.0,171.0,-518.0,-997.0,-93.0,-224.0,630.0,-400.0,-57.0
19:30:25.236000,207.0,176.0,-528.0,-922.0,-84.0,-217.0,630.0,-400.0,-57.0
19:30:25.240000,221.0,171.0,-520.0,-920.0,-83.0,-214.0,628.0,-402.0,-45.0
19:30:25.245000,238.0,163.0,-535.0,-954.0,-61.0,-215.0,628.0,-402.0,-45.0
19:30:25.249000,245.0,165.0,-565.0,-982.0,-49.0,-216.0,628.0,-402.0,-45.0
19:30:25.254000,242.0,165.0,-583.0,-1001.0,-39.0,-220.0,639.0,-402.0,-49.0
19:30:25.259000,236.0,167.0,-581.0,-1010.0,0.0,-225.0,639.0,-402.0,-49.0
19:30:25.264000,220.0,170.0,-562.0,-1010.0,0.0,-225.0,630.0,-399.0,-40.0
19:30:25.268000,197.0,177.0,-558.0,-1006.0,44.0,-223.0,630.0,-399.0,-40.0
19:30:25.273000,189.0,172.0,-564.0,-1004.0,77.0,-227.0,630.0,-399.0,-40.0
19:30:25.278000,170.0,169.0,-567.0,-991.0,88.0,-229.0,649.0,-397.0,-43.0
19:30:25.283000,168.0,163.0,-569.0,-990.0,66.0,-231.0,649.0,-397.0,-43.0
19:30:25.287000,163.0,156.0,-585.0,-1020.0,70.0,-235.0,655.0,-394.0,-37.0
19:30:25.292000,149.0,155.0,-595.0,-1040.0,84.0,-232.0,655.0,-394.0,-37.0
19:30:25.296000,149.0,155.0,-595.0,-1047.0,78.0,-230.0,655.0,-394.0,-37.0
19:30:25.301000,129.0,144.0,-615.0,-1045.0,55.0,-232.0,651.0,-390.0,-43.0
19:30:25.306000,129.0,144.0,-615.0,-1048.0,31.0,-235.0,651.0,-390.0,-43.0
19:30:25.311000,140.0,135.0,-611.0,-1054.0,62.0,-237.0,652.0,-390.0,-30.0
19:30:25.315000,140.0,128.0,-606.0,-1031.0,71.0,-231.0,652.0,-390.0,-30.0
19:30:25.320000,115.0,142.0,-596.0,-1025.0,86.0,-228.0,652.0,-390.0,-30.0
19:30:25.325000,120.0,151.0,-599.0,-1056.0,138.0,-227.0,654.0,-378.0,-28.0
19:30:25.330000,120.0,163.0,-601.0,-1076.0,105.0,-221.0,654.0,-378.0,-28.0
19:30:25.334000,109.0,179.0,-601.0,-1087.0,37.0,-224.0,640.0,-372.0,-30.0
19:30:25.339000,108.0,195.0,-599.0,-1100.0,31.0,-229.0,640.0,-372.0,-30.0
19:30:25.343000,126.0,205.0,-597.0,-1107.0,67.0,-232.0,640.0,-372.0,-30.0
19:30:25.348000,144.0,216.0,-600.0,-1106.0,64.0,-233.0,646.0,-372.0,-31.0
19:30:25.353000,133.0,236.0,-607.0,-1102.0,53.0,-239.0,646.0,-372.0,-31.0
19:30:25.358000,147.0,247.0,-615.0,-1102.0,53.0,-239.0,637.0,-360.0,-36.0
19:30:25.362000,172.0,250.0,-616.0,-1087.0,114.0,-253.0,637.0,-360.0,-36.0
19:30:25.367000,188.0,252.0,-619.0,-1087.0,114.0,-253.0,637.0,-360.0,-36.0
19:30:25.372000,202.0,252.0,-630.0,-1078.0,114.0,-255.0,643.0,-369.0,-28.0
19:30:25.377000,231.0,247.0,-647.0,-1067.0,114.0,-257.0,643.0,-369.0,-28.0
19:30:25.381000,245.0,241.0,-640.0,-1062.0,133.0,-261.0,649.0,-363.0,-27.0
19:30:25.386000,257.0,235.0,-616.0,-1058.0,162.0,-263.0,649.0,-363.0,-27.0
19:30:25.390000,259.0,231.0,-619.0,-1067.0,203.0,-267.0,649.0,-363.0,-27.0
19:30:25.395000,245.0,228.0,-639.0,-1083.0,237.0,-266.0,649.0,-354.0,-24.0
19:30:25.400000,241.0,221.0,-646.0,-1095.0,260.0,-268.0,649.0,-354.0,-24.0
19:30:25.405000,226.0,214.0,-631.0,-1087.0,272.0,-269.0,654.0,-360.0,-19.0
19:30:25.409000,196.0,218.0,-600.0,-1058.0,262.0,-270.0,654.0,-360.0,-19.0
19:30:25.414000,196.0,218.0,-600.0,-1039.0,262.0,-270.0,654.0,-360.0,-19.0
19:30:25.419000,170.0,221.0,-572.0,-1042.0,279.0,-273.0,643.0,-346.0,-19.0
19:30:25.424000,161.0,224.0,-554.0,-1053.0,285.0,-282.0,643.0,-346.0,-19.0
19:30:25.428000,142.0,238.0,-553.0,-1077.0,279.0,-286.0,658.0,-349.0,-27.0
19:30:25.433000,135.0,244.0,-565.0,-1100.0,267.0,-283.0,658.0,-349.0,-27.0
19:30:25.437000,121.0,251.0,-592.0,-1086.0,255.0,-288.0,658.0,-349.0,-27.0
19:30:25.442000,140.0,253.0,-632.0,-1074.0,248.0,-301.0,658.0,-348.0,-24.0
19:30:25.447000,147.0,256.0,-650.0,-1054.0,230.0,-292.0,658.0,-348.0,-24.0
19:30:25.452000,139.0,256.0,-635.0,-1021.0,226.0,-296.0,652.0,-339.0,-18.0
19:30:25.456000,161.0,254.0,-644.0,-1014.0,244.0,-312.0,652.0,-339.0,-18.0
19:30:25.460000,189.0,248.0,-652.0,-1021.0,252.0,-314.0,652.0,-339.0,-18.0
19:30:25.466000,198.0,251.0,-628.0,-1015.0,269.0,-320.0,664.0,-328.0,-9.0
19:30:25.471000,203.0,245.0,-617.0,-995.0,279.0,-322.0,664.0,-328.0,-9.0
19:30:25.475000,213.0,241.0,-629.0,-995.0,279.0,-322.0,651.0,-328.0,-4.0
19:30:25.480000,236.0,231.0,-625.0,-1031.0,314.0,-329.0,651.0,-328.0,-4.0
19:30:25.484000,237.0,214.0,-609.0,-1031.0,314.0,-329.0,651.0,-328.0,-4.0
19:30:25.489000,237.0,209.0,-628.0,-1000.0,367.0,-324.0,648.0,-325.0,-3.0
19:30:25.494000,233.0,199.0,-645.0,-1009.0,407.0,-334.0,648.0,-325.0,-3.0
19:30:25.499000,239.0,185.0,-660.0,-1008.0,424.0,-330.0,658.0,-322.0,-10.0
19:30:25.503000,238.0,189.0,-674.0,-1002.0,453.0,-342.0,658.0,-322.0,-10.0
19:30:25.507000,224.0,183.0,-679.0,-1020.0,503.0,-346.0,658.0,-322.0,-10.0
19:30:25.513000,191.0,187.0,-660.0,-1034.0,518.0,-344.0,669.0,-316.0,-6.0
19:30:25.518000,174.0,182.0,-655.0,-1037.0,497.0,-352.0,669.0,-316.0,-6.0
19:30:25.522000,169.0,170.0,-648.0,-1049.0,491.0,-363.0,660.0,-306.0,-1.0
19:30:25.527000,169.0,170.0,-648.0,-1021.0,491.0,-370.0,660.0,-306.0,-1.0
19:30:25.531000,159.0,169.0,-634.0,-993.0,516.0,-373.0,660.0,-306.0,-1.0
19:30:25.536000,167.0,154.0,-620.0,-995.0,527.0,-377.0,660.0,-294.0,-1.0
19:30:25.541000,166.0,143.0,-627.0,-992.0,493.0,-384.0,660.0,-294.0,-1.0
19:30:25.546000,185.0,121.0,-628.0,-995.0,477.0,-391.0,664.0,-291.0,-12.0
19:30:25.550000,193.0,100.0,-637.0,-995.0,490.0,-397.0,664.0,-291.0,-12.0
19:30:25.554000,201.0,88.0,-657.0,-1012.0,526.0,-406.0,664.0,-291.0,-12.0
19:30:25.560000,217.0,70.0,-690.0,-1040.0,546.0,-411.0,655.0,-298.0,4.0
19:30:25.565000,221.0,56.0,-680.0,-1053.0,523.0,-417.0,655.0,-298.0,4.0
19:30:25.569000,221.0,52.0,-608.0,-1072.0,527.0,-421.0,669.0,-292.0,-7.0
19:30:25.574000,220.0,47.0,-564.0,-1142.0,582.0,-419.0,669.0,-292.0,-7.0
19:30:25.579000,222.0,35.0,-555.0,-1142.0,582.0,-419.0,654.0,-294.0,3.0
19:30:25.583000,212.0,28.0,-502.0,-1136.0,608.0,-427.0,654.0,-294.0,3.0
19:30:25.587000,212.0,22.0,-432.0,-1136.0,608.0,-427.0,654.0,-294.0,3.0
19:30:25.593000,212.0,17.0,-371.0,-1082.0,632.0,-426.0,660.0,-283.0,-4.0
19:30:25.597000,212.0,21.0,-341.0,-1043.0,676.0,-425.0,660.0,-283.0,-4.0
19:30:25.602000,215.0,18.0,-317.0,-1037.0,706.0,-419.0,657.0,-280.0,0.0
19:30:25.607000,217.0,21.0,-329.0,-1055.0,695.0,-411.0,657.0,-280.0,0.0
19:30:25.611000,227.0,0.0,-307.0,-1080.0,671.0,-393.0,657.0,-280.0,0.0
19:30:25.616000,231.0,-9.0,-260.0,-1066.0,648.0,-371.0,651.0,-276.0,4.0
19:30:25.621000,236.0,-22.0,-221.0,-1024.0,628.0,-355.0,651.0,-276.0,4.0
19:30:25.626000,241.0,-25.0,-233.0,-1010.0,625.0,-344.0,654.0,-282.0,6.0
19:30:25.630000,252.0,-42.0,-246.0,-1009.0,616.0,-326.0,654.0,-282.0,6.0
19:30:25.634000,252.0,-42.0,-246.0,-1001.0,575.0,-303.0,654.0,-282.0,6.0
19:30:25.640000,252.0,-54.0,-221.0,-1005.0,513.0,-286.0,657.0,-280.0,4.0
19:30:25.644000,242.0,-74.0,-165.0,-1018.0,470.0,-279.0,657.0,-280.0,4.0
19:30:25.649000,242.0,-86.0,-136.0,-1053.0,484.0,-280.0,664.0,-274.0,9.0
19:30:25.654000,261.0,-109.0,-182.0,-1080.0,505.0,-270.0,664.0,-274.0,9.0
19:30:25.658000,259.0,-123.0,-228.0,-1049.0,482.0,-256.0,664.0,-274.0,9.0
19:30:25.663000,253.0,-142.0,-217.0,-1011.0,458.0,-245.0,657.0,-279.0,-1.0
19:30:25.668000,255.0,-164.0,-177.0,-993.0,465.0,-241.0,657.0,-279.0,-1.0
19:30:25.673000,252.0,-182.0,-161.0,-966.0,476.0,-235.0,654.0,-279.0,18.0
19:30:25.677000,246.0,-191.0,-163.0,-920.0,467.0,-224.0,654.0,-279.0,18.0
19:30:25.681000,237.0,-197.0,-165.0,-857.0,444.0,-214.0,654.0,-279.0,18.0
19:30:25.687000,226.0,-202.0,-165.0,-787.0,416.0,-205.0,657.0,-273.0,-7.0
19:30:25.691000,212.0,-213.0,-140.0,-723.0,402.0,-197.0,657.0,-273.0,-7.0
19:30:25.696000,180.0,-211.0,-105.0,-723.0,402.0,-197.0,654.0,-276.0,-15.0
19:30:25.701000,158.0,-212.0,-78.0,-679.0,402.0,-199.0,654.0,-276.0,-15.0
19:30:25.705000,133.0,-212.0,-74.0,-675.0,439.0,-196.0,654.0,-276.0,-15.0
19:30:25.710000,105.0,-210.0,-83.0,-675.0,439.0,-196.0,655.0,-273.0,-1.0
19:30:25.715000,77.0,-207.0,-97.0,-671.0,455.0,-199.0,655.0,-273.0,-1.0
19:30:25.720000,44.0,-203.0,-91.0,-648.0,450.0,-203.0,658.0,-276.0,-10.0
19:30:25.724000,13.0,-202.0,-72.0,-633.0,440.0,-206.0,658.0,-276.0,-10.0
19:30:25.728000,-11.0,-201.0,-58.0,-635.0,444.0,-209.0,658.0,-276.0,-10.0
19:30:25.734000,-40.0,-199.0,-49.0,-640.0,452.0,-208.0,672.0,-264.0,-7.0
19:30:25.738000,-68.0,-196.0,-41.0,-633.0,461.0,-203.0,672.0,-264.0,-7.0
19:30:25.743000,-93.0,-190.0,-21.0,-607.0,454.0,-199.0,658.0,-273.0,-13.0
19:30:25.748000,-93.0,-190.0,-21.0,-573.0,430.0,-191.0,658.0,-273.0,-13.0
19:30:25.755000,-123.0,-184.0,47.0,-503.0,381.0,-170.0,663.0,-273.0,-7.0
19:30:25.757000,-123.0,-184.0,47.0,-503.0,381.0,-170.0,663.0,-273.0,-7.0
19:30:25.761000,-133.0,-174.0,86.0,-464.0,350.0,-157.0,663.0,-273.0,-7.0
19:30:25.767000,-137.0,-167.0,131.0,-427.0,314.0,-146.0,660.0,-262.0,1.0
19:30:25.771000,-129.0,-165.0,173.0,-406.0,281.0,-137.0,660.0,-262.0,1.0
19:30:25.776000,-119.0,-164.0,205.0,-415.0,263.0,-131.0,660.0,-276.0,-4.0
19:30:25.781000,-102.0,-165.0,218.0,-455.0,268.0,-128.0,660.0,-276.0,-4.0
19:30:25.785000,-86.0,-164.0,212.0,-507.0,279.0,-125.0,660.0,-276.0,-4.0
19:30:25.790000,-75.0,-160.0,203.0,-551.0,278.0,-123.0,669.0,-270.0,0.0
19:30:25.795000,-69.0,-156.0,201.0,-580.0,273.0,-123.0,669.0,-270.0,0.0
19:30:25.799000,-65.0,-154.0,199.0,-580.0,273.0,-123.0,661.0,-277.0,3.0
19:30:25.804000,-63.0,-154.0,192.0,-599.0,301.0,-133.0,661.0,-277.0,3.0
19:30:25.808000,-69.0,-154.0,192.0,-599.0,301.0,-133.0,661.0,-277.0,3.0
19:30:25.814000,-86.0,-152.0,198.0,-600.0,330.0,-137.0,661.0,-274.0,-18.0
19:30:25.818000,-107.0,-149.0,207.0,-603.0,361.0,-138.0,661.0,-274.0,-18.0
19:30:25.823000,-133.0,-148.0,226.0,-599.0,376.0,-139.0,652.0,-270.0,-10.0
19:30:25.828000,-159.0,-145.0,263.0,-576.0,365.0,-140.0,652.0,-270.0,-10.0
19:30:25.832000,-184.0,-144.0,311.0,-546.0,334.0,-141.0,652.0,-270.0,-10.0
19:30:25.837000,-205.0,-142.0,357.0,-523.0,299.0,-144.0,660.0,-265.0,-15.0
19:30:25.842000,-219.0,-142.0,398.0,-506.0,269.0,-146.0,660.0,-265.0,-15.0
19:30:25.846000,-229.0,-141.0,432.0,-494.0,241.0,-147.0,654.0,-274.0,-12.0
19:30:25.851000,-232.0,-142.0,463.0,-484.0,210.0,-147.0,654.0,-274.0,-12.0
19:30:25.855000,-232.0,-142.0,463.0,-477.0,173.0,-147.0,654.0,-274.0,-12.0
19:30:25.861000,-228.0,-141.0,492.0,-479.0,135.0,-146.0,655.0,-282.0,-15.0
19:30:25.865000,-218.0,-140.0,516.0,-488.0,99.0,-144.0,655.0,-282.0,-15.0
19:30:25.870000,-198.0,-142.0,532.0,-499.0,72.0,-139.0,666.0,-280.0,-16.0
19:30:25.875000,-172.0,-146.0,537.0,-511.0,54.0,-134.0,666.0,-280.0,-16.0
19:30:25.879000,-144.0,-150.0,536.0,-521.0,47.0,-131.0,666.0,-280.0,-16.0
19:30:25.884000,-113.0,-155.0,528.0,-527.0,52.0,-127.0,658.0,-282.0,-16.0
19:30:25.889000,-83.0,-163.0,514.0,-529.0,66.0,-122.0,658.0,-282.0,-16.0
19:30:25.893000,-56.0,-169.0,498.0,-530.0,86.0,-116.0,660.0,-288.0,-3.0
19:30:25.898000,-35.0,-177.0,485.0,-528.0,109.0,-112.0,660.0,-288.0,-3.0
19:30:25.902000,-23.0,-182.0,484.0,-522.0,132.0,-107.0,660.0,-288.0,-3.0
19:30:25.908000,-20.0,-187.0,491.0,-513.0,152.0,-101.0,670.0,-294.0,-12.0
19:30:25.912000,-24.0,-191.0,505.0,-503.0,160.0,-98.0,670.0,-294.0,-12.0
19:30:25.917000,-35.0,-193.0,531.0,-503.0,160.0,-98.0,666.0,-294.0,-16.0
19:30:25.922000,-50.0,-192.0,562.0,-497.0,160.0,-97.0,666.0,-294.0,-16.0
19:30:25.926000,-70.0,-189.0,592.0,-502.0,160.0,-98.0,666.0,-294.0,-16.0
19:30:25.931000,-93.0,-184.0,621.0,-518.0,160.0,-98.0,672.0,-307.0,-22.0
19:30:25.936000,-115.0,-177.0,650.0,-534.0,147.0,-97.0,672.0,-307.0,-22.0
19:30:25.940000,-128.0,-171.0,672.0,-543.0,121.0,-99.0,666.0,-309.0,-16.0
19:30:25.945000,-134.0,-165.0,683.0,-549.0,91.0,-104.0,666.0,-309.0,-16.0
19:30:25.949000,-134.0,-165.0,683.0,-556.0,69.0,-108.0,666.0,-309.0,-16.0
19:30:25.955000,-128.0,-157.0,686.0,-565.0,59.0,-112.0,669.0,-313.0,-13.0
19:30:25.959000,-118.0,-154.0,677.0,-575.0,55.0,-115.0,669.0,-313.0,-13.0
19:30:25.964000,-118.0,-154.0,677.0,-578.0,55.0,-118.0,666.0,-312.0,-22.0
19:30:25.969000,-105.0,-153.0,669.0,-568.0,52.0,-117.0,666.0,-312.0,-22.0
19:30:25.973000,-88.0,-155.0,664.0,-548.0,52.0,-113.0,666.0,-312.0,-22.0
19:30:25.978000,-67.0,-161.0,664.0,-528.0,56.0,-104.0,660.0,-328.0,-18.0
19:30:25.983000,-49.0,-174.0,672.0,-503.0,60.0,-89.0,660.0,-328.0,-18.0
19:30:25.987000,-35.0,-193.0,686.0,-471.0,58.0,-75.0,673.0,-327.0,-30.0
19:30:25.992000,-27.0,-216.0,714.0,-437.0,50.0,-59.0,673.0,-327.0,-30.0
19:30:25.996000,-21.0,-241.0,758.0,-408.0,46.0,-48.0,673.0,-327.0,-30.0
19:30:26.002000,-19.0,-268.0,808.0,-395.0,54.0,-41.0,669.0,-337.0,-40.0
19:30:26.006000,-23.0,-294.0,852.0,-400.0,76.0,-37.0,669.0,-337.0,-40.0
19:30:26.011000,-30.0,-317.0,887.0,-400.0,96.0,-36.0,669.0,-337.0,-31.0
19:30:26.016000,-43.0,-334.0,917.0,-432.0,103.0,-35.0,669.0,-337.0,-31.0
19:30:26.020000,-57.0,-350.0,950.0,-453.0,94.0,-32.0,669.0,-337.0,-31.0
19:30:26.025000,-68.0,-359.0,985.0,-453.0,63.0,-32.0,667.0,-339.0,-37.0
19:30:26.030000,-75.0,-364.0,1017.0,-466.0,77.0,-30.0,667.0,-339.0,-37.0
19:30:26.034000,-76.0,-364.0,1045.0,-468.0,56.0,-32.0,663.0,-352.0,-39.0
19:30:26.039000,-72.0,-360.0,1066.0,-462.0,37.0,-36.0,663.0,-352.0,-39.0
19:30:26.043000,-64.0,-351.0,1084.0,-458.0,25.0,-41.0,663.0,-352.0,-39.0
19:30:26.049000,-51.0,-338.0,1101.0,-461.0,15.0,-47.0,664.0,-366.0,-37.0
