hh:mm:ss.ms,gyroX[mdps],gyroY[mdps],gyroZ[mdps],accX[mg],accY[mg],accZ[mg],magX[mG],magY[mG],magZ[mG]
19:30:19.934000,-137.0,9.0,258.0,-1091.0,-119.0,-162.0,655.0,-366.0,-63.0
19:30:19.939000,-93.0,-15.0,235.0,-1127.0,-123.0,-163.0,658.0,-376.0,-72.0
19:30:19.944000,-74.0,-13.0,191.0,-1181.0,-77.0,-162.0,658.0,-376.0,-72.0
19:30:19.948000,-56.0,-15.0,129.0,-1214.0,-33.0,-167.0,667.0,-370.0,-73.0
19:30:19.953000,-31.0,-25.0,37.0,-1215.0,-15.0,-184.0,667.0,-370.0,-73.0
19:30:19.957000,-2.0,-32.0,-45.0,-1200.0,4.0,-201.0,667.0,-370.0,-73.0
19:30:19.962000,9.0,-32.0,-77.0,-1231.0,67.0,-214.0,655.0,-373.0,-82.0
19:30:19.967000,3.0,-19.0,-105.0,-1280.0,136.0,-222.0,655.0,-373.0,-82.0
19:30:19.972000,-9.0,-7.0,-70.0,-1289.0,150.0,-227.0,643.0,-370.0,-72.0
19:30:19.977000,-28.0,5.0,-10.0,-1324.0,128.0,-239.0,643.0,-370.0,-72.0
19:30:19.981000,-43.0,27.0,-25.0,-1371.0,95.0,-255.0,643.0,-370.0,-72.0
19:30:19.986000,-42.0,41.0,-57.0,-1372.0,43.0,-261.0,655.0,-373.0,-82.0
19:30:19.991000,-37.0,43.0,-49.0,-1362.0,13.0,-270.0,655.0,-373.0,-82.0
19:30:19.995000,-31.0,56.0,-55.0,-1362.0,13.0,-270.0,655.0,-379.0,-75.0
19:30:20.000000,-30.0,72.0,-90.0,-1372.0,11.0,-283.0,655.0,-379.0,-75.0
19:30:20.004000,-20.0,88.0,-158.0,-1391.0,19.0,-297.0,655.0,-379.0,-75.0
19:30:20.009000,-23.0,109.0,-228.0,-1413.0,37.0,-310.0,663.0,-367.0,-75.0
19:30:20.014000,-19.0,113.0,-224.0,-1386.0,19.0,-317.0,663.0,-367.0,-75.0
19:30:20.019000,9.0,97.0,-158.0,-1296.0,-30.0,-323.0,652.0,-379.0,-73.0
19:30:20.024000,33.0,75.0,-72.0,-1207.0,-44.0,-326.0,652.0,-379.0,-73.0
19:30:20.028000,33.0,75.0,-72.0,-1198.0,17.0,-324.0,652.0,-379.0,-73.0
19:30:20.033000,12.0,71.0,-100.0,-1254.0,65.0,-335.0,660.0,-366.0,-70.0
19:30:20.038000,39.0,56.0,-109.0,-1282.0,24.0,-351.0,660.0,-366.0,-70.0
19:30:20.042000,39.0,56.0,-109.0,-1269.0,-15.0,-340.0,657.0,-375.0,-63.0
19:30:20.047000,41.0,31.0,-123.0,-1219.0,-16.0,-332.0,657.0,-375.0,-63.0
19:30:20.051000,53.0,9.0,-140.0,-1119.0,16.0,-325.0,657.0,-375.0,-63.0
19:30:20.056000,60.0,-7.0,-122.0,-1028.0,67.0,-304.0,655.0,-367.0,-63.0
19:30:20.061000,33.0,-5.0,-122.0,-988.0,99.0,-301.0,655.0,-367.0,-63.0
19:30:20.066000,44.0,-41.0,-170.0,-917.0,128.0,-296.0,664.0,-373.0,-75.0
19:30:20.071000,77.0,-72.0,-179.0,-895.0,186.0,-271.0,664.0,-373.0,-75.0
19:30:20.075000,58.0,-82.0,-176.0,-963.0,180.0,-251.0,664.0,-373.0,-75.0
19:30:20.080000,-11.0,-79.0,-128.0,-986.0,78.0,-248.0,658.0,-369.0,-73.0
19:30:20.085000,-23.0,-91.0,-86.0,-954.0,11.0,-249.0,658.0,-369.0,-73.0
19:30:20.089000,-11.0,-116.0,-83.0,-954.0,11.0,-249.0,663.0,-372.0,-73.0
19:30:20.094000,3.0,-126.0,-121.0,-880.0,80.0,-241.0,663.0,-372.0,-73.0
19:30:20.098000,23.0,-149.0,-144.0,-869.0,119.0,-225.0,663.0,-372.0,-73.0
19:30:20.103000,39.0,-166.0,-104.0,-885.0,93.0,-221.0,649.0,-376.0,-85.0
19:30:20.108000,18.0,-172.0,-52.0,-885.0,93.0,-221.0,649.0,-376.0,-85.0
19:30:20.113000,-11.0,-156.0,-52.0,-972.0,73.0,-217.0,651.0,-372.0,-70.0
19:30:20.118000,-16.0,-151.0,-46.0,-1049.0,58.0,-218.0,651.0,-372.0,-70.0
19:30:20.122000,-13.0,-149.0,-21.0,-1074.0,35.0,-210.0,651.0,-372.0,-70.0
19:30:20.127000,-28.0,-122.0,34.0,-1093.0,2.0,-203.0,649.0,-367.0,-78.0
19:30:20.132000,-23.0,-122.0,87.0,-1089.0,-34.0,-197.0,649.0,-367.0,-78.0
19:30:20.136000,-13.0,-114.0,76.0,-1091.0,-31.0,-193.0,652.0,-361.0,-75.0
19:30:20.141000,-9.0,-105.0,72.0,-1086.0,5.0,-194.0,652.0,-361.0,-75.0
19:30:20.145000,-9.0,-105.0,72.0,-1059.0,25.0,-190.0,652.0,-361.0,-75.0
19:30:20.150000,-13.0,-86.0,69.0,-1056.0,23.0,-197.0,657.0,-361.0,-67.0
19:30:20.155000,-5.0,-77.0,37.0,-1033.0,8.0,-205.0,657.0,-361.0,-67.0
19:30:20.160000,-12.0,-54.0,25.0,-1043.0,-2.0,-207.0,658.0,-360.0,-76.0
19:30:20.165000,8.0,-53.0,32.0,-1067.0,4.0,-205.0,658.0,-360.0,-76.0
19:30:20.169000,5.0,-44.0,30.0,-1070.0,14.0,-215.0,658.0,-360.0,-76.0
19:30:20.174000,28.0,-36.0,0.0,-1073.0,20.0,-219.0,672.0,-361.0,-73.0
19:30:20.179000,25.0,-25.0,-32.0,-1063.0,19.0,-220.0,672.0,-361.0,-73.0
19:30:20.183000,43.0,-16.0,-50.0,-1045.0,1.0,-221.0,648.0,-364.0,-76.0
19:30:20.188000,42.0,-6.0,-25.0,-1043.0,3.0,-219.0,648.0,-364.0,-76.0
19:30:20.192000,46.0,7.0,-13.0,-1060.0,12.0,-223.0,658.0,-369.0,-79.0
19:30:20.197000,49.0,21.0,-30.0,-1059.0,-12.0,-225.0,658.0,-369.0,-79.0
19:30:20.202000,58.0,28.0,-40.0,-1058.0,-28.0,-226.0,658.0,-369.0,-79.0
19:30:20.207000,75.0,30.0,-36.0,-1042.0,-44.0,-223.0,642.0,-366.0,-67.0
19:30:20.212000,84.0,31.0,-19.0,-1042.0,-43.0,-223.0,642.0,-366.0,-67.0
19:30:20.216000,86.0,35.0,-19.0,-1034.0,-43.0,-224.0,648.0,-372.0,-78.0
19:30:20.221000,93.0,35.0,-15.0,-1017.0,-16.0,-220.0,648.0,-372.0,-78.0
19:30:20.225000,107.0,23.0,-10.0,-998.0,32.0,-218.0,648.0,-372.0,-78.0
19:30:20.230000,93.0,24.0,-23.0,-1007.0,73.0,-223.0,666.0,-363.0,-78.0
19:30:20.235000,108.0,13.0,-49.0,-1008.0,69.0,-222.0,666.0,-363.0,-78.0
19:30:20.239000,113.0,9.0,-94.0,-992.0,29.0,-222.0,652.0,-363.0,-78.0
19:30:20.244000,135.0,-11.0,-126.0,-967.0,-6.0,-223.0,652.0,-363.0,-78.0
19:30:20.249000,135.0,-11.0,-126.0,-940.0,4.0,-220.0,652.0,-363.0,-78.0
19:30:20.254000,167.0,-49.0,-118.0,-935.0,41.0,-221.0,666.0,-372.0,-75.0
19:30:20.259000,170.0,-68.0,-136.0,-955.0,89.0,-223.0,666.0,-372.0,-75.0
19:30:20.263000,170.0,-68.0,-136.0,-961.0,98.0,-213.0,663.0,-375.0,-73.0
19:30:20.268000,156.0,-70.0,-116.0,-968.0,93.0,-208.0,663.0,-375.0,-73.0
19:30:20.272000,170.0,-81.0,-116.0,-1009.0,90.0,-217.0,663.0,-375.0,-73.0
19:30:20.277000,186.0,-88.0,-160.0,-1032.0,47.0,-214.0,660.0,-369.0,-72.0
19:30:20.282000,165.0,-79.0,-193.0,-1033.0,54.0,-206.0,660.0,-369.0,-72.0
19:30:20.286000,153.0,-73.0,-201.0,-1050.0,142.0,-210.0,657.0,-367.0,-64.0
19:30:20.291000,144.0,-75.0,-179.0,-1028.0,165.0,-204.0,657.0,-367.0,-64.0
19:30:20.296000,108.0,-56.0,-141.0,-1021.0,129.0,-208.0,657.0,-367.0,-64.0
19:30:20.301000,100.0,-42.0,-137.0,-1069.0,119.0,-214.0,660.0,-354.0,-75.0
19:30:20.306000,108.0,-36.0,-175.0,-1070.0,95.0,-207.0,660.0,-354.0,-75.0
19:30:20.310000,112.0,-22.0,-192.0,-1070.0,95.0,-207.0,660.0,-361.0,-79.0
19:30:20.315000,109.0,-14.0,-183.0,-1094.0,53.0,-208.0,660.0,-361.0,-79.0
19:30:20.319000,103.0,5.0,-188.0,-1101.0,88.0,-213.0,660.0,-361.0,-79.0
19:30:20.324000,116.0,16.0,-222.0,-1101.0,88.0,-213.0,661.0,-361.0,-73.0
19:30:20.329000,112.0,33.0,-247.0,-1114.0,134.0,-221.0,661.0,-361.0,-73.0
19:30:20.333000,96.0,53.0,-231.0,-1075.0,80.0,-219.0,652.0,-364.0,-79.0
19:30:20.338000,98.0,66.0,-210.0,-1075.0,80.0,-219.0,652.0,-364.0,-79.0
19:30:20.343000,107.0,79.0,-209.0,-1104.0,96.0,-228.0,652.0,-364.0,-79.0
19:30:20.348000,106.0,98.0,-237.0,-1128.0,119.0,-228.0,642.0,-361.0,-69.0
19:30:20.353000,101.0,114.0,-260.0,-1128.0,145.0,-224.0,642.0,-361.0,-69.0
19:30:20.357000,93.0,127.0,-266.0,-1118.0,156.0,-226.0,661.0,-366.0,-72.0
19:30:20.362000,87.0,137.0,-277.0,-1113.0,147.0,-230.0,661.0,-366.0,-72.0
19:30:20.366000,87.0,137.0,-277.0,-1101.0,145.0,-232.0,661.0,-366.0,-72.0
19:30:20.371000,88.0,142.0,-296.0,-1085.0,144.0,-234.0,661.0,-358.0,-78.0
19:30:20.385000,84.0,145.0,-322.0,-1099.0,169.0,-238.0,648.0,-355.0,-49.0
19:30:20.390000,74.0,151.0,-351.0,-1100.0,170.0,-243.0,664.0,-357.0,-72.0
19:30:20.395000,61.0,160.0,-373.0,-1104.0,187.0,-249.0,664.0,-357.0,-72.0
19:30:20.399000,62.0,163.0,-396.0,-1093.0,212.0,-248.0,664.0,-357.0,-72.0
19:30:20.404000,44.0,172.0,-415.0,-1084.0,222.0,-248.0,666.0,-354.0,-72.0
19:30:20.409000,26.0,186.0,-423.0,-1088.0,218.0,-257.0,666.0,-354.0,-72.0
19:30:20.414000,27.0,203.0,-417.0,-1105.0,202.0,-265.0,672.0,-340.0,-66.0
19:30:20.418000,36.0,209.0,-400.0,-1135.0,173.0,-245.0,672.0,-340.0,-66.0
19:30:20.422000,-1.0,242.0,-386.0,-1165.0,151.0,-256.0,672.0,-340.0,-66.0
19:30:20.428000,28.0,254.0,-388.0,-1168.0,138.0,-279.0,663.0,-351.0,-58.0
19:30:20.432000,53.0,265.0,-403.0,-1158.0,119.0,-272.0,663.0,-351.0,-58.0
19:30:20.437000,62.0,288.0,-420.0,-1158.0,119.0,-272.0,672.0,-340.0,-67.0
19:30:20.442000,90.0,294.0,-428.0,-1155.0,107.0,-273.0,672.0,-340.0,-67.0
19:30:20.446000,109.0,300.0,-434.0,-1156.0,87.0,-276.0,672.0,-340.0,-67.0
19:30:20.451000,134.0,303.0,-442.0,-1147.0,78.0,-282.0,672.0,-337.0,-60.0
19:30:20.456000,150.0,303.0,-467.0,-1122.0,114.0,-282.0,672.0,-337.0,-60.0
19:30:20.461000,168.0,298.0,-494.0,-1084.0,164.0,-285.0,660.0,-336.0,-55.0
19:30:20.465000,189.0,282.0,-508.0,-1036.0,182.0,-288.0,660.0,-336.0,-55.0
19:30:20.469000,189.0,282.0,-508.0,-999.0,191.0,-289.0,660.0,-336.0,-55.0
19:30:20.475000,218.0,248.0,-541.0,-983.0,212.0,-292.0,673.0,-328.0,-54.0
19:30:20.479000,218.0,248.0,-541.0,-990.0,235.0,-286.0,673.0,-328.0,-54.0
19:30:20.484000,227.0,227.0,-556.0,-1003.0,254.0,-280.0,661.0,-331.0,-48.0
19:30:20.489000,225.0,212.0,-562.0,-1012.0,255.0,-281.0,661.0,-331.0,-48.0
19:30:20.493000,210.0,203.0,-564.0,-1023.0,272.0,-285.0,661.0,-331.0,-48.0
19:30:20.498000,212.0,186.0,-573.0,-1021.0,289.0,-285.0,675.0,-322.0,-54.0
19:30:20.503000,182.0,182.0,-583.0,-1014.0,311.0,-288.0,675.0,-322.0,-54.0
19:30:20.508000,178.0,175.0,-595.0,-1011.0,351.0,-288.0,673.0,-321.0,-52.0
19:30:20.512000,157.0,175.0,-616.0,-1004.0,370.0,-288.0,673.0,-321.0,-52.0
19:30:20.516000,145.0,176.0,-639.0,-1000.0,371.0,-290.0,673.0,-321.0,-52.0
19:30:20.522000,130.0,176.0,-648.0,-990.0,349.0,-286.0,682.0,-319.0,-34.0
19:30:20.526000,117.0,178.0,-639.0,-982.0,328.0,-290.0,682.0,-319.0,-34.0
19:30:20.531000,125.0,174.0,-629.0,-982.0,328.0,-290.0,673.0,-297.0,-43.0
19:30:20.536000,132.0,168.0,-639.0,-974.0,326.0,-292.0,673.0,-297.0,-43.0
19:30:20.540000,142.0,165.0,-663.0,-974.0,310.0,-292.0,673.0,-297.0,-43.0
19:30:20.545000,157.0,157.0,-664.0,-963.0,310.0,-294.0,678.0,-307.0,-48.0
19:30:20.550000,170.0,148.0,-662.0,-940.0,296.0,-294.0,678.0,-307.0,-48.0
19:30:20.555000,195.0,137.0,-684.0,-931.0,322.0,-299.0,676.0,-295.0,-30.0
19:30:20.559000,215.0,131.0,-701.0,-935.0,374.0,-307.0,676.0,-295.0,-30.0
19:30:20.563000,224.0,125.0,-692.0,-933.0,404.0,-308.0,675.0,-291.0,-40.0
19:30:20.569000,239.0,110.0,-672.0,-933.0,404.0,-308.0,675.0,-291.0,-40.0
19:30:20.573000,238.0,102.0,-683.0,-951.0,429.0,-307.0,675.0,-291.0,-40.0
19:30:20.578000,238.0,91.0,-688.0,-958.0,471.0,-302.0,669.0,-292.0,-33.0
19:30:20.583000,233.0,90.0,-666.0,-934.0,492.0,-301.0,669.0,-292.0,-33.0
19:30:20.588000,227.0,83.0,-657.0,-927.0,512.0,-304.0,681.0,-283.0,-31.0
19:30:20.592000,227.0,83.0,-657.0,-933.0,529.0,-302.0,681.0,-283.0,-31.0
19:30:20.596000,221.0,79.0,-653.0,-932.0,530.0,-304.0,681.0,-283.0,-31.0
19:30:20.602000,220.0,73.0,-632.0,-929.0,537.0,-308.0,675.0,-277.0,-39.0
19:30:20.606000,214.0,72.0,-615.0,-922.0,570.0,-310.0,675.0,-277.0,-39.0
19:30:20.611000,214.0,74.0,-615.0,-936.0,601.0,-312.0,657.0,-276.0,-15.0
19:30:20.616000,212.0,72.0,-616.0,-953.0,606.0,-309.0,657.0,-276.0,-15.0
19:30:20.620000,201.0,72.0,-602.0,-961.0,594.0,-307.0,657.0,-276.0,-15.0
19:30:20.625000,191.0,74.0,-576.0,-983.0,589.0,-315.0,678.0,-270.0,-37.0
19:30:20.630000,189.0,77.0,-561.0,-1070.0,603.0,-312.0,678.0,-270.0,-37.0
19:30:20.635000,177.0,74.0,-577.0,-1133.0,590.0,-300.0,675.0,-273.0,-36.0
19:30:20.639000,160.0,75.0,-555.0,-1096.0,564.0,-300.0,675.0,-273.0,-36.0
19:30:20.643000,158.0,74.0,-513.0,-1020.0,559.0,-303.0,675.0,-273.0,-36.0
19:30:20.649000,172.0,72.0,-441.0,-938.0,563.0,-308.0,676.0,-255.0,-36.0
19:30:20.653000,167.0,92.0,-377.0,-914.0,584.0,-307.0,676.0,-255.0,-36.0
19:30:20.658000,180.0,100.0,-361.0,-914.0,584.0,-307.0,676.0,-261.0,-31.0
19:30:20.663000,195.0,106.0,-416.0,-973.0,630.0,-301.0,676.0,-261.0,-31.0
19:30:20.667000,219.0,100.0,-499.0,-1019.0,673.0,-296.0,676.0,-261.0,-31.0
19:30:20.672000,228.0,107.0,-521.0,-985.0,675.0,-289.0,673.0,-262.0,-34.0
19:30:20.677000,218.0,101.0,-457.0,-922.0,642.0,-276.0,673.0,-262.0,-34.0
19:30:20.682000,211.0,92.0,-369.0,-891.0,616.0,-267.0,681.0,-249.0,-36.0
19:30:20.686000,200.0,106.0,-343.0,-915.0,643.0,-276.0,681.0,-249.0,-36.0
19:30:20.690000,200.0,106.0,-343.0,-977.0,704.0,-284.0,681.0,-249.0,-36.0
19:30:20.696000,172.0,121.0,-407.0,-1017.0,742.0,-279.0,673.0,-249.0,-27.0
19:30:20.700000,172.0,121.0,-407.0,-1006.0,743.0,-281.0,673.0,-249.0,-27.0
19:30:20.705000,158.0,127.0,-409.0,-992.0,731.0,-283.0,681.0,-241.0,-28.0
19:30:20.710000,152.0,123.0,-392.0,-1003.0,722.0,-286.0,681.0,-241.0,-28.0
19:30:20.714000,153.0,121.0,-368.0,-1030.0,729.0,-289.0,681.0,-241.0,-28.0
19:30:20.719000,155.0,113.0,-371.0,-1052.0,723.0,-285.0,669.0,-238.0,-25.0
19:30:20.724000,160.0,101.0,-361.0,-1041.0,699.0,-281.0,669.0,-238.0,-25.0
19:30:20.729000,155.0,95.0,-338.0,-1023.0,676.0,-276.0,682.0,-250.0,-25.0
19:30:20.733000,161.0,79.0,-280.0,-1014.0,651.0,-273.0,682.0,-250.0,-25.0
19:30:20.737000,180.0,56.0,-221.0,-995.0,636.0,-266.0,682.0,-250.0,-25.0
19:30:20.743000,180.0,38.0,-170.0,-953.0,634.0,-254.0,670.0,-244.0,-28.0
19:30:20.747000,182.0,21.0,-126.0,-892.0,626.0,-241.0,670.0,-244.0,-28.0
19:30:20.752000,190.0,1.0,-60.0,-892.0,626.0,-241.0,673.0,-229.0,-24.0
19:30:20.757000,195.0,-21.0,35.0,-726.0,537.0,-198.0,673.0,-229.0,-24.0
19:30:20.761000,191.0,-42.0,137.0,-726.0,537.0,-198.0,673.0,-229.0,-24.0
19:30:20.766000,190.0,-63.0,220.0,-675.0,491.0,-184.0,678.0,-232.0,-27.0
19:30:20.771000,185.0,-81.0,254.0,-661.0,470.0,-174.0,678.0,-232.0,-27.0
19:30:20.776000,176.0,-98.0,247.0,-664.0,472.0,-168.0,685.0,-237.0,-16.0
19:30:20.780000,164.0,-114.0,235.0,-661.0,472.0,-165.0,685.0,-237.0,-16.0
19:30:20.784000,142.0,-123.0,214.0,-658.0,469.0,-164.0,685.0,-237.0,-16.0
19:30:20.790000,114.0,-131.0,190.0,-668.0,479.0,-166.0,675.0,-244.0,-9.0
19:30:20.794000,81.0,-133.0,168.0,-678.0,484.0,-176.0,675.0,-244.0,-9.0
19:30:20.799000,41.0,-129.0,143.0,-682.0,481.0,-188.0,685.0,-246.0,-15.0
19:30:20.804000,4.0,-123.0,102.0,-688.0,489.0,-201.0,685.0,-246.0,-15.0
19:30:20.808000,4.0,-123.0,102.0,-686.0,501.0,-212.0,685.0,-246.0,-15.0
19:30:20.813000,-36.0,-115.0,70.0,-672.0,498.0,-218.0,682.0,-237.0,-13.0
19:30:20.818000,-79.0,-106.0,53.0,-652.0,492.0,-225.0,682.0,-237.0,-13.0
19:30:20.822000,-116.0,-98.0,48.0,-624.0,482.0,-229.0,682.0,-252.0,-24.0
19:30:20.827000,-149.0,-93.0,51.0,-587.0,459.0,-231.0,682.0,-252.0,-24.0
19:30:20.831000,-169.0,-91.0,69.0,-549.0,430.0,-231.0,682.0,-252.0,-24.0
19:30:20.837000,-179.0,-91.0,94.0,-518.0,403.0,-230.0,684.0,-246.0,-21.0
19:30:20.841000,-184.0,-89.0,119.0,-484.0,373.0,-224.0,684.0,-246.0,-21.0
19:30:20.846000,-183.0,-88.0,150.0,-447.0,338.0,-216.0,691.0,-231.0,-22.0
19:30:20.851000,-175.0,-89.0,182.0,-418.0,311.0,-209.0,691.0,-231.0,-22.0
19:30:20.855000,-161.0,-88.0,198.0,-404.0,295.0,-202.0,691.0,-231.0,-22.0
19:30:20.860000,-142.0,-89.0,200.0,-394.0,277.0,-194.0,687.0,-241.0,-13.0
19:30:20.865000,-121.0,-92.0,199.0,-390.0,253.0,-188.0,687.0,-241.0,-13.0
19:30:20.869000,-99.0,-95.0,205.0,-390.0,253.0,-188.0,684.0,-237.0,-18.0
19:30:20.874000,-77.0,-99.0,219.0,-393.0,230.0,-182.0,684.0,-237.0,-18.0
19:30:20.882000,-56.0,-102.0,229.0,-431.0,235.0,-177.0,685.0,-240.0,-6.0
19:30:20.884000,-38.0,-108.0,227.0,-431.0,235.0,-177.0,685.0,-240.0,-6.0
19:30:20.888000,-30.0,-110.0,220.0,-455.0,264.0,-172.0,685.0,-240.0,-6.0
19:30:20.893000,-30.0,-112.0,226.0,-465.0,291.0,-169.0,688.0,-252.0,-21.0
19:30:20.898000,-39.0,-115.0,248.0,-468.0,316.0,-167.0,688.0,-252.0,-21.0
19:30:20.902000,-55.0,-118.0,273.0,-471.0,341.0,-165.0,702.0,-238.0,-19.0
19:30:20.907000,-78.0,-121.0,297.0,-478.0,368.0,-161.0,702.0,-238.0,-19.0
19:30:20.911000,-78.0,-121.0,297.0,-479.0,383.0,-156.0,702.0,-238.0,-19.0
19:30:20.916000,-139.0,-128.0,375.0,-468.0,375.0,-152.0,693.0,-252.0,-21.0
19:30:20.921000,-139.0,-128.0,375.0,-450.0,352.0,-152.0,693.0,-252.0,-21.0
19:30:20.926000,-165.0,-130.0,419.0,-432.0,324.0,-153.0,699.0,-249.0,-15.0
19:30:20.931000,-190.0,-130.0,457.0,-416.0,293.0,-155.0,699.0,-249.0,-15.0
19:30:20.935000,-210.0,-131.0,485.0,-403.0,265.0,-158.0,699.0,-249.0,-15.0
19:30:20.940000,-227.0,-130.0,506.0,-399.0,242.0,-161.0,694.0,-244.0,-21.0
19:30:20.945000,-235.0,-132.0,519.0,-400.0,216.0,-161.0,694.0,-244.0,-21.0
19:30:20.949000,-240.0,-133.0,524.0,-401.0,193.0,-161.0,693.0,-261.0,-19.0
19:30:20.954000,-232.0,-138.0,515.0,-397.0,166.0,-158.0,693.0,-261.0,-19.0
19:30:20.958000,-219.0,-145.0,504.0,-391.0,135.0,-158.0,693.0,-261.0,-19.0
19:30:20.963000,-193.0,-157.0,490.0,-393.0,114.0,-158.0,696.0,-261.0,-25.0
19:30:20.968000,-164.0,-169.0,472.0,-403.0,104.0,-155.0,696.0,-261.0,-25.0
19:30:20.973000,-135.0,-179.0,453.0,-403.0,104.0,-155.0,684.0,-259.0,-6.0
19:30:20.978000,-109.0,-193.0,440.0,-420.0,107.0,-146.0,684.0,-259.0,-6.0
19:30:20.982000,-90.0,-200.0,434.0,-420.0,107.0,-146.0,684.0,-259.0,-6.0
19:30:20.987000,-79.0,-205.0,440.0,-419.0,112.0,-142.0,687.0,-259.0,-19.0
19:30:20.992000,-72.0,-207.0,452.0,-417.0,118.0,-140.0,687.0,-259.0,-19.0
19:30:20.996000,-71.0,-205.0,465.0,-417.0,128.0,-140.0,696.0,-265.0,-34.0
19:30:21.001000,-73.0,-201.0,474.0,-420.0,141.0,-140.0,696.0,-265.0,-34.0
19:30:21.005000,-76.0,-198.0,478.0,-427.0,153.0,-141.0,696.0,-265.0,-34.0
19:30:21.047000,-57.0,-220.0,581.0,-479.0,187.0,-132.0,690.0,-291.0,-27.0
19:30:21.053000,-66.0,-228.0,618.0,-480.0,204.0,-132.0,697.0,-282.0,-31.0
19:30:21.057000,-79.0,-236.0,655.0,-480.0,220.0,-131.0,697.0,-282.0,-31.0
19:30:21.062000,-97.0,-244.0,693.0,-471.0,223.0,-129.0,696.0,-282.0,-42.0
19:30:21.067000,-116.0,-252.0,739.0,-456.0,207.0,-128.0,696.0,-282.0,-42.0
19:30:21.071000,-130.0,-264.0,791.0,-439.0,184.0,-128.0,696.0,-282.0,-42.0
19:30:21.076000,-142.0,-281.0,844.0,-423.0,166.0,-128.0,690.0,-301.0,-45.0
19:30:21.081000,-148.0,-301.0,890.0,-405.0,156.0,-125.0,690.0,-301.0,-45.0
19:30:21.086000,-151.0,-323.0,935.0,-405.0,156.0,-125.0,696.0,-307.0,-43.0
19:30:21.090000,-150.0,-347.0,977.0,-386.0,148.0,-123.0,696.0,-307.0,-43.0
19:30:21.095000,-148.0,-372.0,1016.0,-369.0,156.0,-115.0,685.0,-306.0,-31.0
19:30:21.100000,-149.0,-396.0,1051.0,-369.0,156.0,-115.0,685.0,-306.0,-31.0
19:30:21.104000,-154.0,-421.0,1086.0,-375.0,169.0,-111.0,685.0,-306.0,-31.0
19:30:21.109000,-161.0,-443.0,1127.0,-383.0,172.0,-108.0,690.0,-325.0,-42.0
19:30:21.114000,-170.0,-464.0,1178.0,-391.0,162.0,-102.0,690.0,-325.0,-42.0
19:30:21.119000,-181.0,-484.0,1237.0,-401.0,144.0,-96.0,687.0,-327.0,-51.0
19:30:21.123000,-192.0,-504.0,1299.0,-412.0,127.0,-89.0,687.0,-327.0,-51.0
19:30:21.127000,-192.0,-504.0,1299.0,-419.0,107.0,-81.0,687.0,-327.0,-51.0
19:30:21.133000,-208.0,-536.0,1419.0,-423.0,87.0,-74.0,693.0,-340.0,-57.0
19:30:21.137000,-208.0,-536.0,1419.0,-434.0,73.0,-66.0,693.0,-340.0,-57.0
19:30:21.142000,-217.0,-545.0,1470.0,-455.0,66.0,-60.0,679.0,-345.0,-64.0
19:30:21.147000,-226.0,-548.0,1512.0,-479.0,59.0,-56.0,679.0,-345.0,-64.0
19:30:21.151000,-239.0,-546.0,1547.0,-503.0,49.0,-55.0,679.0,-345.0,-64.0
19:30:21.156000,-253.0,-538.0,1575.0,-524.0,38.0,-55.0,693.0,-369.0,-69.0
19:30:21.161000,-266.0,-527.0,1594.0,-539.0,26.0,-56.0,693.0,-369.0,-69.0
19:30:21.166000,-280.0,-510.0,1610.0,-547.0,15.0,-59.0,691.0,-370.0,-64.0
19:30:21.170000,-294.0,-492.0,1628.0,-549.0,3.0,-60.0,691.0,-370.0,-64.0
19:30:21.174000,-304.0,-472.0,1647.0,-545.0,-8.0,-62.0,691.0,-370.0,-64.0
19:30:21.180000,-310.0,-453.0,1664.0,-533.0,-23.0,-65.0,684.0,-390.0,-79.0
19:30:21.184000,-310.0,-438.0,1681.0,-514.0,-46.0,-64.0,684.0,-390.0,-79.0
19:30:21.189000,-309.0,-425.0,1708.0,-514.0,-46.0,-64.0,670.0,-400.0,-64.0
19:30:21.194000,-306.0,-418.0,1756.0,-464.0,-147.0,-53.0,670.0,-400.0,-64.0
19:30:21.198000,-297.0,-419.0,1824.0,-464.0,-211.0,-50.0,670.0,-400.0,-64.0
19:30:21.203000,-281.0,-425.0,1901.0,-450.0,-211.0,-50.0,672.0,-411.0,-87.0
19:30:21.208000,-263.0,-435.0,1974.0,-453.0,-258.0,-53.0,672.0,-411.0,-87.0
19:30:21.213000,-249.0,-445.0,2034.0,-476.0,-278.0,-56.0,661.0,-441.0,-100.0
19:30:21.217000,-242.0,-453.0,2083.0,-509.0,-282.0,-55.0,661.0,-441.0,-100.0
19:30:21.221000,-241.0,-463.0,2123.0,-538.0,-289.0,-56.0,661.0,-441.0,-100.0
19:30:21.227000,-240.0,-471.0,2149.0,-557.0,-303.0,-60.0,666.0,-450.0,-93.0
19:30:21.231000,-241.0,-478.0,2147.0,-575.0,-312.0,-64.0,666.0,-450.0,-93.0
19:30:21.236000,-247.0,-483.0,2121.0,-598.0,-305.0,-65.0,649.0,-471.0,-99.0
19:30:21.241000,-259.0,-478.0,2079.0,-622.0,-289.0,-61.0,649.0,-471.0,-99.0
19:30:21.245000,-259.0,-478.0,2079.0,-646.0,-279.0,-52.0,649.0,-471.0,-99.0
19:30:21.250000,-278.0,-471.0,2033.0,-665.0,-284.0,-42.0,649.0,-466.0,-111.0
19:30:21.255000,-303.0,-465.0,1990.0,-681.0,-302.0,-35.0,649.0,-466.0,-111.0
19:30:21.260000,-327.0,-457.0,1946.0,-707.0,-326.0,-30.0,648.0,-492.0,-114.0
19:30:21.264000,-351.0,-445.0,1904.0,-757.0,-348.0,-25.0,648.0,-492.0,-114.0
19:30:21.268000,-374.0,-430.0,1860.0,-827.0,-366.0,-17.0,648.0,-492.0,-114.0
19:30:21.274000,-401.0,-408.0,1815.0,-908.0,-393.0,-9.0,637.0,-502.0,-114.0
19:30:21.278000,-431.0,-380.0,1770.0,-985.0,-445.0,0.0,637.0,-502.0,-114.0
19:30:21.283000,-462.0,-346.0,1733.0,-1053.0,-532.0,11.0,630.0,-525.0,-124.0
19:30:21.288000,-483.0,-306.0,1703.0,-1109.0,-645.0,17.0,630.0,-525.0,-124.0
19:30:21.292000,-485.0,-271.0,1665.0,-1152.0,-747.0,10.0,630.0,-525.0,-124.0
19:30:21.297000,-462.0,-247.0,1603.0,-1195.0,-790.0,-2.0,618.0,-525.0,-130.0
19:30:21.302000,-434.0,-231.0,1500.0,-1245.0,-766.0,-14.0,618.0,-525.0,-130.0
19:30:21.307000,-409.0,-210.0,1363.0,-1245.0,-766.0,-14.0,615.0,-541.0,-138.0
19:30:21.311000,-389.0,-184.0,1224.0,-1303.0,-705.0,-44.0,615.0,-541.0,-138.0
19:30:21.315000,-361.0,-158.0,1091.0,-1303.0,-705.0,-44.0,615.0,-541.0,-138.0
19:30:21.321000,-327.0,-123.0,943.0,-1329.0,-706.0,-73.0,600.0,-538.0,-118.0
19:30:21.325000,-296.0,-105.0,785.0,-1353.0,-667.0,-88.0,600.0,-538.0,-118.0
19:30:21.330000,-276.0,-77.0,644.0,-1342.0,-576.0,-103.0,607.0,-544.0,-136.0
19:30:21.335000,-248.0,-59.0,514.0,-1323.0,-474.0,-136.0,607.0,-544.0,-136.0
19:30:21.339000,-214.0,-54.0,380.0,-1335.0,-377.0,-165.0,607.0,-544.0,-136.0
19:30:21.344000,-188.0,-53.0,278.0,-1341.0,-284.0,-195.0,604.0,-535.0,-132.0
19:30:21.348000,-188.0,-53.0,278.0,-1342.0,-154.0,-233.0,604.0,-535.0,-132.0
19:30:21.354000,-156.0,-36.0,132.0,-1363.0,23.0,-268.0,592.0,-540.0,-136.0
19:30:21.358000,-156.0,-36.0,132.0,-1403.0,199.0,-299.0,592.0,-540.0,-136.0
19:30:21.363000,-154.0,-21.0,74.0,-1463.0,343.0,-324.0,595.0,-544.0,-141.0
19:30:21.368000,-164.0,-2.0,23.0,-1515.0,423.0,-336.0,595.0,-544.0,-141.0
19:30:21.372000,-173.0,16.0,4.0,-1543.0,428.0,-345.0,595.0,-544.0,-141.0
19:30:21.377000,-175.0,37.0,17.0,-1553.0,380.0,-347.0,597.0,-547.0,-148.0
19:30:21.382000,-167.0,46.0,52.0,-1496.0,299.0,-315.0,597.0,-547.0,-148.0
19:30:21.386000,-171.0,42.0,135.0,-1374.0,235.0,-271.0,598.0,-550.0,-147.0
19:30:21.391000,-142.0,36.0,217.0,-1208.0,169.0,-235.0,598.0,-550.0,-147.0
19:30:21.395000,-149.0,9.0,305.0,-1053.0,91.0,-216.0,598.0,-550.0,-147.0
19:30:21.401000,-115.0,9.0,302.0,-1259.0,36.0,-176.0,582.0,-544.0,-147.0
19:30:21.405000,-78.0,-15.0,73.0,-1179.0,-51.0,-178.0,582.0,-544.0,-147.0
19:30:21.410000,-2.0,-19.0,272.0,-1179.0,-51.0,-178.0,604.0,-544.0,-151.0
19:30:21.415000,27.0,-35.0,454.0,-944.0,67.0,-157.0,604.0,-544.0,-151.0
19:30:21.419000,86.0,-9.0,457.0,-944.0,67.0,-157.0,604.0,-544.0,-151.0
19:30:21.424000,100.0,-14.0,292.0,-1021.0,238.0,-156.0,594.0,-543.0,-144.0
19:30:21.429000,108.0,-26.0,137.0,-1043.0,286.0,-107.0,594.0,-543.0,-144.0
19:30:21.433000,163.0,-30.0,184.0,-933.0,83.0,-111.0,585.0,-550.0,-144.0
19:30:21.438000,210.0,-32.0,212.0,-1029.0,233.0,-162.0,585.0,-550.0,-144.0
19:30:21.442000,214.0,-25.0,212.0,-1178.0,233.0,-162.0,585.0,-550.0,-144.0
19:30:21.448000,170.0,7.0,133.0,-1166.0,447.0,-188.0,591.0,-553.0,-147.0
19:30:21.452000,135.0,-21.0,69.0,-1196.0,538.0,-193.0,591.0,-553.0,-147.0
19:30:21.457000,52.0,-20.0,200.0,-1132.0,508.0,-189.0,589.0,-552.0,-148.0
19:30:21.462000,-72.0,-31.0,423.0,-1018.0,385.0,-180.0,589.0,-552.0,-148.0
19:30:21.466000,-72.0,-31.0,423.0,-1143.0,271.0,-173.0,589.0,-552.0,-148.0
19:30:21.471000,-126.0,-35.0,535.0,-1286.0,202.0,-190.0,585.0,-552.0,-150.0
19:30:21.476000,-158.0,-43.0,400.0,-1221.0,95.0,-203.0,585.0,-552.0,-150.0
19:30:21.480000,-107.0,-79.0,341.0,-1101.0,-71.0,-190.0,574.0,-550.0,-154.0
19:30:21.485000,-121.0,-100.0,380.0,-1067.0,-167.0,-188.0,574.0,-550.0,-154.0
19:30:21.489000,-72.0,-120.0,392.0,-1136.0,-177.0,-193.0,574.0,-550.0,-154.0
19:30:21.495000,-14.0,-138.0,338.0,-1242.0,-162.0,-177.0,586.0,-552.0,-142.0
19:30:21.499000,27.0,-134.0,224.0,-1327.0,-147.0,-170.0,586.0,-552.0,-142.0
19:30:21.504000,63.0,-116.0,162.0,-1320.0,-215.0,-152.0,577.0,-556.0,-154.0
19:30:21.509000,44.0,-77.0,154.0,-1328.0,-245.0,-152.0,577.0,-556.0,-154.0
19:30:21.513000,42.0,-34.0,93.0,-1317.0,-241.0,-147.0,577.0,-556.0,-154.0
19:30:21.518000,49.0,-18.0,202.0,-1255.0,-289.0,-119.0,573.0,-564.0,-150.0
19:30:21.523000,-2.0,14.0,408.0,-1281.0,-328.0,-98.0,573.0,-564.0,-150.0
19:30:21.527000,-49.0,44.0,444.0,-1365.0,-344.0,-100.0,580.0,-556.0,-153.0
19:30:21.532000,6.0,39.0,321.0,-1365.0,-344.0,-100.0,580.0,-556.0,-153.0
19:30:21.536000,-9.0,56.0,158.0,-1378.0,-332.0,-102.0,580.0,-556.0,-153.0
19:30:21.542000,-52.0,64.0,106.0,-1253.0,-347.0,-90.0,577.0,-561.0,-148.0
19:30:21.546000,-74.0,46.0,79.0,-1112.0,-353.0,-81.0,577.0,-561.0,-148.0
19:30:21.551000,-93.0,18.0,136.0,-1004.0,-359.0,-68.0,573.0,-562.0,-153.0
19:30:21.556000,-135.0,-9.0,184.0,-912.0,-420.0,-36.0,573.0,-562.0,-153.0
19:30:21.560000,-154.0,-33.0,173.0,-876.0,-516.0,-7.0,573.0,-562.0,-153.0
19:30:21.565000,-134.0,-74.0,170.0,-844.0,-633.0,11.0,576.0,-553.0,-153.0
19:30:21.569000,-134.0,-74.0,170.0,-801.0,-734.0,35.0,576.0,-553.0,-153.0
19:30:21.574000,-104.0,-127.0,184.0,-806.0,-773.0,57.0,561.0,-552.0,-145.0
19:30:21.579000,-104.0,-127.0,184.0,-854.0,-789.0,69.0,561.0,-552.0,-145.0
19:30:21.584000,-83.0,-140.0,183.0,-927.0,-793.0,66.0,567.0,-559.0,-154.0
19:30:21.589000,-67.0,-138.0,88.0,-1040.0,-744.0,57.0,567.0,-559.0,-154.0
19:30:21.593000,-27.0,-134.0,-88.0,-1103.0,-725.0,63.0,567.0,-559.0,-154.0
19:30:21.598000,4.0,-130.0,-168.0,-1126.0,-760.0,84.0,567.0,-552.0,-153.0
19:30:21.603000,-2.0,-119.0,-181.0,-1190.0,-763.0,91.0,567.0,-552.0,-153.0
19:30:21.607000,12.0,-100.0,-242.0,-1235.0,-738.0,79.0,564.0,-549.0,-153.0
19:30:21.612000,32.0,-83.0,-343.0,-1223.0,-709.0,87.0,564.0,-549.0,-153.0
19:30:21.616000,32.0,-68.0,-419.0,-1185.0,-687.0,88.0,564.0,-549.0,-153.0
19:30:21.621000,30.0,-59.0,-427.0,-1152.0,-671.0,61.0,561.0,-553.0,-157.0
19:30:21.626000,47.0,-50.0,-402.0,-1146.0,-636.0,55.0,561.0,-553.0,-157.0
19:30:21.631000,44.0,-33.0,-403.0,-1146.0,-636.0,55.0,570.0,-555.0,-160.0
19:30:21.636000,58.0,-29.0,-469.0,-1142.0,-526.0,42.0,570.0,-555.0,-160.0
19:30:21.640000,46.0,-15.0,-518.0,-1142.0,-526.0,42.0,570.0,-555.0,-160.0
19:30:21.645000,53.0,-14.0,-499.0,-1110.0,-523.0,46.0,564.0,-544.0,-156.0
19:30:21.650000,49.0,0.0,-431.0,-1065.0,-554.0,54.0,564.0,-544.0,-156.0
19:30:21.654000,52.0,20.0,-357.0,-1038.0,-615.0,53.0,573.0,-532.0,-163.0
19:30:21.658000,61.0,32.0,-315.0,-1077.0,-691.0,44.0,573.0,-532.0,-163.0
19:30:21.663000,91.0,39.0,-340.0,-1077.0,-691.0,44.0,573.0,-532.0,-163.0
19:30:21.668000,123.0,44.0,-425.0,-1103.0,-638.0,33.0,562.0,-537.0,-162.0
19:30:21.673000,121.0,55.0,-484.0,-1121.0,-603.0,29.0,562.0,-537.0,-162.0
19:30:21.678000,126.0,67.0,-473.0,-1121.0,-648.0,29.0,568.0,-540.0,-154.0
19:30:21.683000,138.0,76.0,-473.0,-1132.0,-664.0,19.0,568.0,-540.0,-154.0
19:30:21.687000,138.0,76.0,-473.0,-1154.0,-655.0,5.0,568.0,-540.0,-154.0
19:30:21.692000,123.0,93.0,-506.0,-1156.0,-622.0,0.0,577.0,-532.0,-159.0
19:30:21.697000,146.0,102.0,-528.0,-1146.0,-583.0,-3.0,577.0,-532.0,-159.0
19:30:21.701000,128.0,110.0,-532.0,-1110.0,-573.0,0.0,576.0,-541.0,-153.0
19:30:21.706000,136.0,117.0,-532.0,-1174.0,-531.0,-10.0,576.0,-541.0,-153.0
19:30:21.710000,179.0,106.0,-543.0,-1194.0,-563.0,-21.0,576.0,-541.0,-153.0
19:30:21.715000,148.0,114.0,-537.0,-1052.0,-586.0,-10.0,573.0,-535.0,-154.0
19:30:21.720000,148.0,110.0,-570.0,-963.0,-498.0,-5.0,573.0,-535.0,-154.0
19:30:21.725000,140.0,100.0,-582.0,-860.0,-429.0,-12.0,574.0,-526.0,-148.0
19:30:21.730000,94.0,99.0,-541.0,-744.0,-315.0,-9.0,574.0,-526.0,-148.0
19:30:21.734000,64.0,91.0,-532.0,-879.0,-248.0,-11.0,574.0,-526.0,-148.0
19:30:21.739000,63.0,70.0,-540.0,-1070.0,-459.0,-46.0,588.0,-522.0,-147.0
19:30:21.744000,35.0,66.0,-431.0,-930.0,-680.0,-48.0,588.0,-522.0,-147.0
19:30:21.748000,32.0,67.0,-365.0,-852.0,-594.0,-30.0,594.0,-522.0,-154.0
19:30:21.753000,71.0,43.0,-459.0,-852.0,-594.0,-30.0,594.0,-522.0,-154.0
19:30:21.757000,61.0,39.0,-530.0,-875.0,-431.0,-35.0,594.0,-522.0,-154.0
19:30:21.762000,60.0,37.0,-557.0,-861.0,-372.0,-51.0,577.0,-525.0,-154.0
19:30:21.767000,30.0,37.0,-531.0,-972.0,-412.0,-66.0,577.0,-525.0,-154.0
19:30:21.772000,20.0,47.0,-505.0,-1009.0,-487.0,-58.0,591.0,-517.0,-153.0
19:30:21.777000,47.0,46.0,-543.0,-1024.0,-507.0,-48.0,591.0,-517.0,-153.0
19:30:21.781000,47.0,46.0,-543.0,-1032.0,-508.0,-44.0,591.0,-517.0,-153.0
19:30:21.786000,37.0,48.0,-553.0,-984.0,-525.0,-51.0,589.0,-513.0,-144.0
19:30:21.791000,56.0,44.0,-549.0,-966.0,-514.0,-65.0,589.0,-513.0,-144.0
19:30:21.795000,56.0,44.0,-549.0,-992.0,-447.0,-56.0,588.0,-508.0,-135.0
19:30:21.800000,57.0,46.0,-557.0,-1006.0,-408.0,-52.0,588.0,-508.0,-135.0
19:30:21.804000,77.0,41.0,-592.0,-964.0,-421.0,-55.0,588.0,-508.0,-135.0
19:30:21.809000,99.0,37.0,-632.0,-930.0,-417.0,-44.0,598.0,-502.0,-145.0
19:30:21.814000,115.0,33.0,-688.0,-908.0,-441.0,-44.0,598.0,-502.0,-145.0
19:30:21.819000,123.0,39.0,-662.0,-909.0,-445.0,-54.0,594.0,-502.0,-142.0
19:30:21.824000,163.0,32.0,-607.0,-958.0,-407.0,-25.0,594.0,-502.0,-142.0
19:30:21.828000,154.0,37.0,-586.0,-987.0,-406.0,-25.0,594.0,-502.0,-142.0
19:30:21.833000,167.0,39.0,-596.0,-994.0,-404.0,-42.0,598.0,-496.0,-135.0
19:30:21.837000,181.0,37.0,-611.0,-996.0,-385.0,-21.0,598.0,-496.0,-135.0
19:30:21.842000,186.0,44.0,-592.0,-979.0,-375.0,-14.0,601.0,-499.0,-144.0
19:30:21.847000,193.0,50.0,-553.0,-996.0,-354.0,-6.0,601.0,-499.0,-144.0
19:30:21.852000,189.0,57.0,-546.0,-996.0,-354.0,-6.0,601.0,-486.0,-130.0
19:30:21.856000,175.0,70.0,-581.0,-1019.0,-283.0,6.0,601.0,-486.0,-130.0
19:30:21.861000,167.0,83.0,-605.0,-1011.0,-283.0,6.0,601.0,-486.0,-130.0
19:30:21.866000,162.0,93.0,-595.0,-975.0,-303.0,7.0,595.0,-484.0,-141.0
19:30:21.871000,163.0,104.0,-595.0,-966.0,-315.0,15.0,595.0,-484.0,-141.0
19:30:21.875000,150.0,123.0,-616.0,-983.0,-317.0,22.0,598.0,-490.0,-133.0
19:30:21.880000,154.0,135.0,-637.0,-995.0,-308.0,26.0,598.0,-490.0,-133.0
19:30:21.884000,161.0,149.0,-658.0,-1026.0,-288.0,26.0,598.0,-490.0,-133.0
19:30:21.889000,164.0,158.0,-682.0,-1038.0,-285.0,28.0,607.0,-480.0,-126.0
19:30:21.894000,161.0,175.0,-682.0,-1029.0,-312.0,28.0,607.0,-480.0,-126.0
19:30:21.899000,172.0,191.0,-674.0,-1044.0,-317.0,24.0,604.0,-480.0,-148.0
19:30:21.903000,175.0,208.0,-689.0,-1069.0,-282.0,22.0,604.0,-480.0,-148.0
19:30:21.908000,175.0,208.0,-689.0,-1081.0,-279.0,22.0,604.0,-480.0,-148.0
19:30:21.913000,165.0,226.0,-681.0,-1085.0,-310.0,19.0,603.0,-468.0,-147.0
19:30:21.918000,168.0,242.0,-651.0,-1090.0,-318.0,14.0,603.0,-468.0,-147.0
19:30:21.922000,172.0,261.0,-642.0,-1094.0,-270.0,13.0,612.0,-468.0,-138.0
19:30:21.927000,184.0,281.0,-663.0,-1088.0,-228.0,14.0,612.0,-468.0,-138.0
19:30:21.931000,175.0,306.0,-681.0,-1088.0,-229.0,15.0,612.0,-468.0,-138.0
19:30:21.936000,170.0,327.0,-681.0,-1100.0,-249.0,8.0,612.0,-472.0,-129.0
19:30:21.941000,156.0,349.0,-672.0,-1104.0,-270.0,0.0,612.0,-472.0,-129.0
19:30:21.946000,143.0,376.0,-669.0,-1109.0,-254.0,-7.0,619.0,-462.0,-133.0
19:30:21.950000,151.0,397.0,-694.0,-1141.0,-244.0,-17.0,619.0,-462.0,-133.0
19:30:21.955000,154.0,417.0,-723.0,-1160.0,-273.0,-26.0,619.0,-462.0,-133.0
19:30:21.960000,158.0,432.0,-744.0,-1152.0,-307.0,-41.0,628.0,-456.0,-129.0
19:30:21.965000,167.0,446.0,-769.0,-1143.0,-311.0,-60.0,628.0,-456.0,-129.0
19:30:21.969000,188.0,456.0,-800.0,-1143.0,-311.0,-60.0,642.0,-454.0,-123.0
19:30:21.974000,205.0,466.0,-842.0,-1161.0,-241.0,-90.0,642.0,-454.0,-123.0
19:30:21.978000,213.0,480.0,-866.0,-1161.0,-241.0,-90.0,642.0,-454.0,-123.0
19:30:21.983000,223.0,485.0,-885.0,-1151.0,-242.0,-96.0,618.0,-453.0,-103.0
19:30:21.988000,231.0,491.0,-908.0,-1139.0,-234.0,-100.0,618.0,-453.0,-103.0
19:30:21.993000,238.0,493.0,-905.0,-1127.0,-227.0,-105.0,636.0,-442.0,-112.0
19:30:21.997000,235.0,501.0,-892.0,-1109.0,-215.0,-109.0,636.0,-442.0,-112.0
19:30:22.002000,235.0,501.0,-892.0,-1110.0,-177.0,-117.0,636.0,-442.0,-112.0
19:30:22.007000,228.0,520.0,-942.0,-1112.0,-136.0,-118.0,640.0,-438.0,-114.0
19:30:22.012000,224.0,526.0,-979.0,-1090.0,-103.0,-118.0,640.0,-438.0,-114.0
19:30:22.016000,224.0,526.0,-979.0,-1051.0,-98.0,-118.0,639.0,-427.0,-97.0
19:30:22.021000,216.0,527.0,-1014.0,-1054.0,-84.0,-127.0,639.0,-427.0,-97.0
19:30:22.026000,223.0,522.0,-1029.0,-1099.0,-36.0,-135.0,657.0,-418.0,-94.0
19:30:22.030000,208.0,529.0,-1050.0,-1107.0,-23.0,-134.0,657.0,-418.0,-94.0
19:30:22.034000,187.0,536.0,-1071.0,-1108.0,2.0,-136.0,657.0,-418.0,-94.0
19:30:22.040000,154.0,544.0,-1068.0,-1154.0,60.0,-139.0,657.0,-409.0,-93.0
19:30:22.044000,124.0,556.0,-1085.0,-1175.0,61.0,-155.0,657.0,-409.0,-93.0
19:30:22.049000,128.0,561.0,-1100.0,-1150.0,-17.0,-150.0,657.0,-408.0,-91.0
19:30:22.054000,73.0,564.0,-1049.0,-1151.0,-38.0,-161.0,657.0,-408.0,-91.0
19:30:22.058000,86.0,579.0,-1011.0,-1162.0,29.0,-187.0,657.0,-408.0,-91.0
19:30:22.063000,114.0,582.0,-1037.0,-1140.0,36.0,-176.0,663.0,-406.0,-88.0
19:30:22.068000,101.0,581.0,-999.0,-1145.0,31.0,-179.0,663.0,-406.0,-88.0
19:30:22.073000,121.0,575.0,-978.0,-1145.0,31.0,-179.0,667.0,-397.0,-73.0
19:30:22.077000,112.0,585.0,-985.0,-1164.0,35.0,-193.0,667.0,-397.0,-73.0
19:30:22.081000,109.0,590.0,-968.0,-1161.0,19.0,-195.0,667.0,-397.0,-73.0
19:30:22.087000,122.0,592.0,-961.0,-1139.0,14.0,-202.0,663.0,-375.0,-75.0
19:30:22.091000,157.0,583.0,-998.0,-1117.0,9.0,-216.0,663.0,-375.0,-75.0
19:30:22.096000,177.0,570.0,-1029.0,-1099.0,0.0,-227.0,667.0,-391.0,-75.0
19:30:22.101000,199.0,553.0,-1026.0,-1083.0,-2.0,-234.0,667.0,-391.0,-75.0
19:30:22.105000,228.0,529.0,-1023.0,-1081.0,36.0,-242.0,667.0,-391.0,-75.0
19:30:22.110000,242.0,513.0,-1030.0,-1082.0,86.0,-247.0,679.0,-361.0,-60.0
19:30:22.115000,249.0,496.0,-1026.0,-1076.0,107.0,-252.0,679.0,-361.0,-60.0
19:30:22.120000,264.0,478.0,-1003.0,-1061.0,135.0,-260.0,675.0,-358.0,-58.0
19:30:22.124000,264.0,478.0,-1003.0,-1057.0,184.0,-266.0,675.0,-358.0,-58.0
19:30:22.128000,270.0,463.0,-987.0,-1062.0,221.0,-269.0,675.0,-358.0,-58.0
19:30:22.134000,263.0,455.0,-984.0,-1060.0,238.0,-272.0,684.0,-352.0,-48.0
19:30:22.138000,249.0,448.0,-989.0,-1040.0,245.0,-276.0,684.0,-352.0,-48.0
19:30:22.143000,242.0,441.0,-978.0,-1018.0,269.0,-283.0,682.0,-346.0,-55.0
19:30:22.148000,239.0,434.0,-961.0,-1016.0,314.0,-287.0,682.0,-346.0,-55.0
19:30:22.152000,229.0,429.0,-937.0,-1021.0,336.0,-290.0,682.0,-346.0,-55.0
19:30:22.157000,216.0,427.0,-920.0,-1019.0,336.0,-294.0,687.0,-349.0,-43.0
19:30:22.162000,213.0,417.0,-909.0,-999.0,310.0,-297.0,687.0,-349.0,-43.0
19:30:22.167000,205.0,410.0,-886.0,-983.0,293.0,-303.0,685.0,-336.0,-42.0
19:30:22.171000,210.0,399.0,-884.0,-977.0,311.0,-308.0,685.0,-336.0,-42.0
19:30:22.175000,216.0,380.0,-893.0,-965.0,334.0,-312.0,685.0,-336.0,-42.0
19:30:22.181000,216.0,363.0,-900.0,-949.0,364.0,-323.0,690.0,-321.0,-37.0
19:30:22.185000,224.0,346.0,-899.0,-949.0,391.0,-331.0,690.0,-321.0,-37.0
19:30:22.190000,231.0,322.0,-891.0,-912.0,410.0,-332.0,690.0,-321.0,-33.0
19:30:22.195000,235.0,298.0,-882.0,-912.0,410.0,-332.0,690.0,-321.0,-33.0
19:30:22.199000,240.0,273.0,-877.0,-920.0,434.0,-333.0,690.0,-321.0,-33.0
19:30:22.204000,245.0,249.0,-853.0,-931.0,456.0,-340.0,693.0,-310.0,-34.0
19:30:22.209000,247.0,226.0,-824.0,-950.0,474.0,-350.0,693.0,-310.0,-34.0
19:30:22.214000,241.0,205.0,-796.0,-976.0,509.0,-358.0,693.0,-307.0,-25.0
19:30:22.218000,228.0,186.0,-772.0,-984.0,544.0,-365.0,693.0,-307.0,-25.0
19:30:22.222000,228.0,186.0,-772.0,-982.0,587.0,-376.0,693.0,-307.0,-25.0
19:30:22.228000,206.0,158.0,-774.0,-972.0,635.0,-388.0,682.0,-298.0,-33.0
19:30:22.232000,198.0,139.0,-751.0,-962.0,658.0,-393.0,682.0,-298.0,-33.0
19:30:22.236000,198.0,139.0,-751.0,-978.0,659.0,-396.0,690.0,-286.0,-19.0
19:30:22.242000,182.0,125.0,-720.0,-1024.0,632.0,-398.0,690.0,-286.0,-19.0
19:30:22.246000,163.0,112.0,-669.0,-1083.0,595.0,-398.0,690.0,-286.0,-19.0
19:30:22.251000,142.0,100.0,-639.0,-1133.0,594.0,-397.0,696.0,-280.0,-21.0
19:30:22.256000,121.0,88.0,-625.0,-1132.0,628.0,-396.0,696.0,-280.0,-21.0
19:30:22.261000,109.0,77.0,-612.0,-1072.0,650.0,-397.0,687.0,-286.0,-21.0
19:30:22.265000,109.0,67.0,-569.0,-1026.0,633.0,-398.0,687.0,-286.0,-21.0
19:30:22.269000,111.0,60.0,-497.0,-1014.0,612.0,-400.0,687.0,-286.0,-21.0
19:30:22.275000,119.0,55.0,-431.0,-974.0,611.0,-394.0,685.0,-270.0,-27.0
19:30:22.279000,112.0,62.0,-419.0,-962.0,596.0,-397.0,685.0,-270.0,-27.0
19:30:22.284000,114.0,81.0,-429.0,-1035.0,598.0,-396.0,696.0,-264.0,-21.0
19:30:22.289000,137.0,76.0,-459.0,-1075.0,595.0,-382.0,696.0,-264.0,-21.0
19:30:22.294000,156.0,74.0,-462.0,-1075.0,595.0,-382.0,697.0,-271.0,-18.0
19:30:22.298000,173.0,60.0,-413.0,-1037.0,539.0,-366.0,697.0,-271.0,-18.0
19:30:22.302000,177.0,60.0,-357.0,-1012.0,497.0,-344.0,697.0,-271.0,-18.0
19:30:22.308000,180.0,68.0,-342.0,-1015.0,510.0,-341.0,684.0,-265.0,-21.0
19:30:22.312000,197.0,63.0,-345.0,-1019.0,543.0,-340.0,684.0,-265.0,-21.0
19:30:22.317000,210.0,55.0,-333.0,-1012.0,533.0,-330.0,699.0,-261.0,-12.0
19:30:22.322000,240.0,33.0,-326.0,-989.0,526.0,-325.0,699.0,-261.0,-12.0
19:30:22.326000,249.0,13.0,-303.0,-966.0,533.0,-319.0,699.0,-261.0,-12.0
19:30:22.331000,249.0,0.0,-294.0,-973.0,545.0,-311.0,693.0,-261.0,-18.0
19:30:22.336000,264.0,-33.0,-298.0,-996.0,582.0,-309.0,693.0,-261.0,-18.0
19:30:22.341000,259.0,-64.0,-274.0,-994.0,593.0,-303.0,685.0,-262.0,-15.0
19:30:22.345000,259.0,-64.0,-274.0,-984.0,605.0,-299.0,685.0,-262.0,-15.0
19:30:22.349000,249.0,-95.0,-236.0,-984.0,654.0,-292.0,685.0,-262.0,-15.0
19:30:22.355000,235.0,-131.0,-220.0,-957.0,683.0,-279.0,691.0,-255.0,-15.0
19:30:22.359000,203.0,-154.0,-184.0,-917.0,675.0,-270.0,691.0,-255.0,-15.0
19:30:22.364000,161.0,-166.0,-114.0,-903.0,673.0,-255.0,690.0,-255.0,-15.0
19:30:22.368000,114.0,-184.0,-65.0,-881.0,666.0,-235.0,690.0,-255.0,-15.0
19:30:22.373000,58.0,-196.0,-24.0,-820.0,620.0,-220.0,690.0,-255.0,-15.0
19:30:22.378000,0.0,-198.0,39.0,-755.0,560.0,-208.0,682.0,-252.0,-7.0
19:30:22.383000,-46.0,-203.0,95.0,-718.0,512.0,-199.0,682.0,-252.0,-7.0
19:30:22.388000,-97.0,-199.0,146.0,-703.0,465.0,-199.0,696.0,-259.0,-19.0
19:30:22.392000,-140.0,-193.0,186.0,-697.0,422.0,-206.0,696.0,-259.0,-19.0
19:30:22.396000,-177.0,-184.0,211.0,-700.0,389.0,-215.0,696.0,-259.0,-19.0
19:30:22.402000,-197.0,-178.0,221.0,-703.0,360.0,-228.0,694.0,-253.0,-18.0
19:30:22.406000,-212.0,-172.0,221.0,-703.0,360.0,-228.0,694.0,-253.0,-18.0
19:30:22.410000,-221.0,-166.0,207.0,-686.0,330.0,-253.0,690.0,-247.0,-10.0
19:30:22.416000,-221.0,-165.0,175.0,-686.0,330.0,-253.0,690.0,-247.0,-10.0
19:30:22.420000,-218.0,-165.0,139.0,-672.0,340.0,-263.0,690.0,-247.0,-10.0
19:30:22.425000,-216.0,-169.0,104.0,-642.0,352.0,-267.0,694.0,-265.0,-22.0
19:30:22.430000,-210.0,-174.0,79.0,-604.0,364.0,-265.0,694.0,-265.0,-22.0
19:30:22.434000,-207.0,-176.0,73.0,-566.0,366.0,-260.0,699.0,-252.0,-19.0
19:30:22.439000,-205.0,-175.0,79.0,-527.0,357.0,-252.0,699.0,-252.0,-19.0
19:30:22.443000,-205.0,-175.0,79.0,-499.0,350.0,-241.0,699.0,-252.0,-19.0
19:30:22.449000,-193.0,-166.0,100.0,-477.0,337.0,-226.0,687.0,-253.0,-18.0
19:30:22.453000,-193.0,-166.0,100.0,-452.0,310.0,-210.0,687.0,-253.0,-18.0
19:30:22.457000,-184.0,-163.0,122.0,-430.0,272.0,-195.0,696.0,-246.0,0.0
19:30:22.463000,-171.0,-160.0,151.0,-425.0,248.0,-183.0,696.0,-246.0,0.0
19:30:22.467000,-147.0,-163.0,158.0,-429.0,242.0,-176.0,696.0,-246.0,0.0
19:30:22.472000,-132.0,-159.0,149.0,-436.0,245.0,-171.0,690.0,-247.0,-15.0
19:30:22.477000,-126.0,-154.0,146.0,-459.0,261.0,-169.0,690.0,-247.0,-15.0
19:30:22.481000,-119.0,-153.0,151.0,-494.0,282.0,-171.0,700.0,-249.0,-19.0
19:30:22.486000,-118.0,-150.0,149.0,-528.0,301.0,-171.0,700.0,-249.0,-19.0
19:30:22.490000,-131.0,-145.0,147.0,-548.0,324.0,-170.0,700.0,-249.0,-19.0
19:30:22.496000,-153.0,-140.0,156.0,-556.0,350.0,-170.0,697.0,-253.0,-13.0
19:30:22.500000,-181.0,-134.0,173.0,-552.0,366.0,-170.0,697.0,-253.0,-13.0
19:30:22.505000,-216.0,-128.0,202.0,-552.0,366.0,-170.0,700.0,-252.0,-9.0
19:30:22.510000,-254.0,-120.0,238.0,-506.0,348.0,-173.0,700.0,-252.0,-9.0
19:30:22.514000,-288.0,-114.0,278.0,-506.0,322.0,-176.0,700.0,-252.0,-9.0
19:30:22.519000,-319.0,-108.0,324.0,-475.0,322.0,-176.0,697.0,-255.0,-21.0
19:30:22.524000,-343.0,-103.0,366.0,-446.0,294.0,-181.0,697.0,-255.0,-21.0
19:30:22.528000,-358.0,-100.0,399.0,-424.0,267.0,-189.0,696.0,-249.0,-12.0
19:30:22.533000,-361.0,-98.0,424.0,-410.0,232.0,-191.0,696.0,-249.0,-12.0
19:30:22.537000,-350.0,-93.0,438.0,-399.0,186.0,-192.0,696.0,-249.0,-12.0
19:30:22.543000,-329.0,-95.0,436.0,-392.0,139.0,-195.0,696.0,-259.0,-10.0
19:30:22.547000,-295.0,-100.0,425.0,-387.0,92.0,-196.0,696.0,-259.0,-10.0
19:30:22.552000,-252.0,-111.0,411.0,-386.0,49.0,-196.0,693.0,-255.0,1.0
19:30:22.557000,-204.0,-124.0,394.0,-388.0,21.0,-194.0,693.0,-255.0,1.0
19:30:22.561000,-204.0,-124.0,394.0,-396.0,14.0,-192.0,693.0,-255.0,1.0
19:30:22.566000,-156.0,-138.0,377.0,-404.0,23.0,-184.0,705.0,-271.0,-18.0
19:30:22.571000,-112.0,-150.0,364.0,-407.0,38.0,-172.0,705.0,-271.0,-18.0
19:30:22.575000,-76.0,-163.0,360.0,-406.0,57.0,-160.0,699.0,-270.0,-12.0
19:30:22.580000,-46.0,-175.0,365.0,-402.0,75.0,-148.0,699.0,-270.0,-12.0
19:30:22.584000,-26.0,-186.0,379.0,-400.0,92.0,-140.0,699.0,-270.0,-12.0
19:30:22.590000,-14.0,-196.0,403.0,-405.0,114.0,-133.0,700.0,-262.0,-3.0
19:30:22.594000,-9.0,-205.0,427.0,-412.0,138.0,-125.0,700.0,-262.0,-3.0
19:30:22.599000,-13.0,-208.0,452.0,-417.0,159.0,-118.0,702.0,-274.0,-24.0
19:30:22.604000,-21.0,-212.0,483.0,-422.0,175.0,-111.0,702.0,-274.0,-24.0
19:30:22.608000,-35.0,-214.0,509.0,-424.0,187.0,-106.0,702.0,-274.0,-24.0
19:30:22.613000,-49.0,-217.0,528.0,-417.0,189.0,-102.0,697.0,-271.0,-19.0
19:30:22.618000,-65.0,-219.0,549.0,-409.0,185.0,-101.0,697.0,-271.0,-19.0
19:30:22.622000,-77.0,-223.0,569.0,-409.0,185.0,-101.0,697.0,-282.0,-19.0
19:30:22.627000,-88.0,-225.0,579.0,-409.0,186.0,-101.0,697.0,-282.0,-19.0
19:30:22.631000,-99.0,-228.0,589.0,-414.0,185.0,-100.0,697.0,-282.0,-19.0
19:30:22.637000,-106.0,-233.0,606.0,-419.0,178.0,-98.0,703.0,-277.0,-22.0
19:30:22.641000,-109.0,-239.0,625.0,-424.0,164.0,-96.0,703.0,-277.0,-22.0
19:30:22.646000,-108.0,-247.0,644.0,-429.0,150.0,-93.0,693.0,-292.0,-15.0
19:30:22.651000,-105.0,-258.0,661.0,-428.0,140.0,-90.0,693.0,-292.0,-15.0
19:30:22.655000,-101.0,-269.0,689.0,-418.0,130.0,-84.0,693.0,-292.0,-15.0
19:30:22.660000,-98.0,-284.0,730.0,-406.0,120.0,-78.0,697.0,-294.0,-25.0
19:30:22.665000,-94.0,-298.0,770.0,-402.0,115.0,-73.0,697.0,-294.0,-25.0
19:30:22.669000,-93.0,-317.0,809.0,-401.0,113.0,-67.0,703.0,-306.0,-21.0
19:30:22.674000,-93.0,-317.0,809.0,-396.0,111.0,-60.0,703.0,-306.0,-21.0
19:30:22.678000,-93.0,-336.0,856.0,-387.0,102.0,-52.0,703.0,-306.0,-21.0
19:30:22.684000,-98.0,-354.0,914.0,-381.0,94.0,-46.0,702.0,-307.0,-10.0
19:30:22.688000,-102.0,-373.0,974.0,-381.0,89.0,-43.0,702.0,-307.0,-10.0
19:30:22.693000,-107.0,-392.0,1031.0,-382.0,82.0,-43.0,697.0,-313.0,-33.0
19:30:22.698000,-116.0,-409.0,1089.0,-385.0,75.0,-46.0,697.0,-313.0,-33.0
19:30:22.702000,-124.0,-427.0,1145.0,-392.0,71.0,-50.0,697.0,-313.0,-33.0
19:30:22.707000,-134.0,-441.0,1195.0,-400.0,69.0,-54.0,697.0,-325.0,-37.0
19:30:22.712000,-144.0,-454.0,1238.0,-406.0,67.0,-57.0,697.0,-325.0,-37.0
19:30:22.716000,-154.0,-465.0,1276.0,-412.0,68.0,-58.0,697.0,-331.0,-43.0
19:30:22.721000,-165.0,-474.0,1311.0,-416.0,69.0,-55.0,697.0,-331.0,-43.0
19:30:22.729000,-196.0,-487.0,1374.0,-404.0,40.0,-50.0,693.0,-342.0,-49.0
19:30:22.731000,-196.0,-487.0,1374.0,-404.0,40.0,-50.0,693.0,-342.0,-49.0
19:30:22.735000,-207.0,-497.0,1411.0,-404.0,40.0,-50.0,693.0,-342.0,-49.0
19:30:22.740000,-216.0,-506.0,1453.0,-395.0,12.0,-48.0,687.0,-339.0,-34.0
19:30:22.745000,-224.0,-514.0,1489.0,-400.0,-1.0,-47.0,687.0,-339.0,-34.0
19:30:22.749000,-236.0,-520.0,1520.0,-418.0,6.0,-45.0,703.0,-364.0,-57.0
19:30:22.754000,-256.0,-523.0,1551.0,-441.0,22.0,-40.0,703.0,-364.0,-57.0
19:30:22.758000,-280.0,-525.0,1593.0,-456.0,23.0,-32.0,703.0,-364.0,-57.0
19:30:22.763000,-299.0,-526.0,1645.0,-455.0,2.0,-22.0,696.0,-381.0,-58.0
19:30:22.768000,-315.0,-525.0,1693.0,-446.0,-28.0,-12.0,696.0,-381.0,-58.0
19:30:22.773000,-329.0,-522.0,1736.0,-437.0,-60.0,-3.0,687.0,-385.0,-70.0
19:30:22.778000,-340.0,-517.0,1777.0,-426.0,-88.0,6.0,687.0,-385.0,-70.0
19:30:22.782000,-340.0,-517.0,1777.0,-416.0,-121.0,16.0,687.0,-385.0,-70.0
19:30:22.787000,-347.0,-511.0,1817.0,-411.0,-163.0,21.0,688.0,-397.0,-73.0
19:30:22.792000,-347.0,-501.0,1859.0,-424.0,-204.0,21.0,688.0,-397.0,-73.0
19:30:22.796000,-343.0,-488.0,1891.0,-460.0,-240.0,19.0,681.0,-411.0,-75.0
19:30:22.801000,-335.0,-471.0,1913.0,-507.0,-272.0,16.0,681.0,-411.0,-75.0
19:30:22.805000,-324.0,-449.0,1929.0,-555.0,-306.0,15.0,681.0,-411.0,-75.0
19:30:22.810000,-315.0,-427.0,1934.0,-594.0,-338.0,15.0,681.0,-427.0,-75.0
19:30:22.815000,-309.0,-401.0,1924.0,-613.0,-373.0,14.0,681.0,-427.0,-75.0
19:30:22.820000,-305.0,-376.0,1904.0,-616.0,-408.0,7.0,667.0,-460.0,-79.0
19:30:22.825000,-298.0,-357.0,1874.0,-617.0,-428.0,0.0,667.0,-460.0,-79.0
