hh:mm:ss.ms,gyroX[mdps],gyroY[mdps],gyroZ[mdps],accX[mg],accY[mg],accZ[mg],magX[mG],magY[mG],magZ[mG]
19:30:58.909000,-40.0,-26.0,290.0,-1129.0,101.0,-218.0,658.0,-366.0,57.0
19:30:58.913000,-45.0,-13.0,261.0,-1167.0,99.0,-219.0,658.0,-366.0,57.0
19:30:58.918000,-40.0,-3.0,221.0,-1174.0,72.0,-221.0,661.0,-363.0,60.0
19:30:58.923000,-24.0,0.0,190.0,-1174.0,72.0,-221.0,661.0,-363.0,60.0
19:30:58.928000,-10.0,10.0,151.0,-1167.0,40.0,-227.0,661.0,-370.0,51.0
19:30:58.932000,4.0,18.0,88.0,-1185.0,34.0,-238.0,661.0,-370.0,51.0
19:30:58.937000,21.0,23.0,7.0,-1228.0,68.0,-255.0,661.0,-370.0,51.0
19:30:58.942000,23.0,38.0,-72.0,-1266.0,129.0,-272.0,658.0,-366.0,64.0
19:30:58.947000,23.0,51.0,-133.0,-1290.0,171.0,-284.0,658.0,-366.0,64.0
19:30:58.951000,17.0,68.0,-170.0,-1302.0,186.0,-296.0,664.0,-358.0,60.0
19:30:58.956000,2.0,79.0,-186.0,-1309.0,188.0,-305.0,664.0,-358.0,60.0
19:30:58.960000,2.0,79.0,-186.0,-1294.0,173.0,-310.0,664.0,-358.0,60.0
19:30:58.965000,-23.0,85.0,-97.0,-1251.0,138.0,-316.0,660.0,-370.0,60.0
19:30:58.970000,-23.0,85.0,-97.0,-1238.0,96.0,-326.0,660.0,-370.0,60.0
19:30:58.975000,-28.0,93.0,-72.0,-1249.0,69.0,-331.0,672.0,-355.0,55.0
19:30:58.979000,-32.0,94.0,-64.0,-1246.0,47.0,-334.0,672.0,-355.0,55.0
19:30:58.984000,-25.0,89.0,-33.0,-1246.0,21.0,-337.0,672.0,-355.0,55.0
19:30:58.989000,-14.0,89.0,-4.0,-1257.0,-15.0,-342.0,660.0,-358.0,61.0
19:30:58.994000,-4.0,96.0,0.0,-1269.0,-42.0,-353.0,660.0,-358.0,61.0
19:30:58.998000,19.0,97.0,-11.0,-1255.0,-37.0,-358.0,648.0,-361.0,72.0
19:30:59.003000,30.0,89.0,12.0,-1223.0,-27.0,-359.0,648.0,-361.0,72.0
19:30:59.007000,16.0,98.0,37.0,-1224.0,0.0,-370.0,648.0,-361.0,72.0
19:30:59.012000,37.0,96.0,12.0,-1223.0,6.0,-371.0,657.0,-360.0,66.0
19:30:59.017000,46.0,89.0,3.0,-1199.0,12.0,-372.0,657.0,-360.0,66.0
19:30:59.022000,90.0,59.0,17.0,-1199.0,12.0,-372.0,645.0,-364.0,57.0
19:30:59.026000,93.0,52.0,-10.0,-1287.0,85.0,-368.0,645.0,-364.0,57.0
19:30:59.031000,72.0,72.0,-103.0,-1287.0,85.0,-368.0,645.0,-364.0,57.0
19:30:59.036000,94.0,58.0,-119.0,-1278.0,46.0,-357.0,660.0,-355.0,61.0
19:30:59.041000,106.0,46.0,-39.0,-1108.0,-16.0,-316.0,660.0,-355.0,61.0
19:30:59.045000,86.0,46.0,21.0,-1108.0,-16.0,-316.0,657.0,-358.0,79.0
19:30:59.050000,140.0,18.0,38.0,-1075.0,-20.0,-300.0,657.0,-358.0,79.0
19:30:59.054000,196.0,-14.0,-24.0,-1054.0,43.0,-293.0,657.0,-358.0,79.0
19:30:59.059000,186.0,-21.0,-69.0,-1071.0,176.0,-265.0,652.0,-361.0,58.0
19:30:59.064000,137.0,-17.0,-57.0,-1070.0,160.0,-237.0,652.0,-361.0,58.0
19:30:59.069000,113.0,-18.0,-46.0,-1098.0,49.0,-230.0,660.0,-358.0,58.0
19:30:59.073000,113.0,-32.0,-63.0,-1150.0,80.0,-238.0,660.0,-358.0,58.0
19:30:59.078000,113.0,-32.0,-63.0,-1154.0,153.0,-249.0,660.0,-358.0,58.0
19:30:59.083000,79.0,-24.0,-49.0,-1143.0,179.0,-230.0,663.0,-358.0,54.0
19:30:59.088000,44.0,-23.0,-39.0,-1150.0,169.0,-226.0,663.0,-358.0,54.0
19:30:59.092000,15.0,-25.0,-49.0,-1158.0,126.0,-239.0,649.0,-358.0,58.0
19:30:59.097000,-7.0,-28.0,-57.0,-1175.0,117.0,-232.0,649.0,-358.0,58.0
19:30:59.101000,-18.0,-29.0,-70.0,-1162.0,107.0,-222.0,649.0,-358.0,58.0
19:30:59.106000,-42.0,-23.0,-60.0,-1133.0,88.0,-217.0,655.0,-355.0,60.0
19:30:59.111000,-55.0,-21.0,-67.0,-1124.0,101.0,-219.0,655.0,-355.0,60.0
19:30:59.116000,-48.0,-24.0,-76.0,-1108.0,133.0,-218.0,663.0,-358.0,52.0
19:30:59.120000,-42.0,-34.0,-17.0,-1111.0,111.0,-209.0,663.0,-358.0,52.0
19:30:59.125000,-71.0,-20.0,-30.0,-1150.0,53.0,-234.0,663.0,-358.0,52.0
19:30:59.130000,-44.0,-18.0,-91.0,-1160.0,42.0,-248.0,646.0,-351.0,58.0
19:30:59.135000,-37.0,-10.0,-112.0,-1151.0,71.0,-238.0,646.0,-351.0,58.0
19:30:59.139000,-48.0,0.0,-105.0,-1151.0,71.0,-238.0,648.0,-352.0,72.0
19:30:59.144000,-79.0,16.0,-72.0,-1172.0,74.0,-238.0,648.0,-352.0,72.0
19:30:59.148000,-101.0,38.0,-42.0,-1200.0,5.0,-233.0,648.0,-352.0,72.0
19:30:59.153000,-89.0,53.0,-63.0,-1206.0,-3.0,-242.0,645.0,-354.0,66.0
19:30:59.158000,-91.0,65.0,-124.0,-1186.0,103.0,-251.0,645.0,-354.0,66.0
19:30:59.163000,-109.0,78.0,-122.0,-1147.0,114.0,-244.0,655.0,-361.0,52.0
19:30:59.167000,-87.0,79.0,-123.0,-1110.0,5.0,-241.0,655.0,-361.0,52.0
19:30:59.171000,-71.0,89.0,-140.0,-1090.0,-80.0,-240.0,655.0,-361.0,52.0
19:30:59.177000,-21.0,90.0,-149.0,-1096.0,-92.0,-247.0,655.0,-358.0,60.0
19:30:59.182000,18.0,88.0,-193.0,-1126.0,-65.0,-255.0,655.0,-358.0,60.0
19:30:59.186000,21.0,107.0,-250.0,-1135.0,-67.0,-249.0,657.0,-355.0,52.0
19:30:59.191000,21.0,107.0,-250.0,-1137.0,-68.0,-258.0,657.0,-355.0,52.0
19:30:59.195000,67.0,111.0,-287.0,-1133.0,-73.0,-264.0,657.0,-355.0,52.0
19:30:59.200000,76.0,123.0,-315.0,-1113.0,-58.0,-261.0,651.0,-355.0,58.0
19:30:59.205000,94.0,137.0,-348.0,-1086.0,-13.0,-256.0,651.0,-355.0,58.0
19:30:59.210000,99.0,147.0,-413.0,-1039.0,-1.0,-260.0,660.0,-348.0,67.0
19:30:59.214000,138.0,136.0,-447.0,-1002.0,0.0,-261.0,660.0,-348.0,67.0
19:30:59.218000,154.0,132.0,-427.0,-1009.0,16.0,-260.0,660.0,-348.0,67.0
19:30:59.224000,161.0,128.0,-441.0,-1021.0,45.0,-276.0,655.0,-331.0,72.0
19:30:59.229000,175.0,128.0,-481.0,-1011.0,87.0,-280.0,655.0,-331.0,72.0
19:30:59.233000,194.0,112.0,-487.0,-999.0,144.0,-278.0,654.0,-324.0,61.0
19:30:59.238000,197.0,101.0,-499.0,-984.0,190.0,-282.0,654.0,-324.0,61.0
19:30:59.242000,201.0,86.0,-515.0,-977.0,210.0,-285.0,654.0,-324.0,61.0
19:30:59.247000,210.0,65.0,-505.0,-982.0,206.0,-283.0,657.0,-337.0,58.0
19:30:59.252000,195.0,61.0,-491.0,-982.0,206.0,-283.0,657.0,-337.0,58.0
19:30:59.257000,195.0,44.0,-485.0,-993.0,203.0,-276.0,655.0,-325.0,58.0
19:30:59.261000,189.0,32.0,-492.0,-1009.0,212.0,-272.0,655.0,-325.0,58.0
19:30:59.265000,181.0,28.0,-501.0,-1031.0,224.0,-273.0,655.0,-325.0,58.0
19:30:59.271000,170.0,22.0,-514.0,-1060.0,242.0,-270.0,646.0,-330.0,63.0
19:30:59.276000,145.0,23.0,-518.0,-1080.0,236.0,-264.0,646.0,-330.0,63.0
19:30:59.280000,129.0,21.0,-510.0,-1097.0,213.0,-260.0,640.0,-321.0,73.0
19:30:59.285000,110.0,23.0,-501.0,-1116.0,204.0,-254.0,640.0,-321.0,73.0
19:30:59.289000,110.0,23.0,-501.0,-1134.0,201.0,-248.0,640.0,-321.0,73.0
19:30:59.294000,70.0,42.0,-562.0,-1140.0,190.0,-244.0,651.0,-313.0,63.0
19:30:59.299000,70.0,42.0,-562.0,-1123.0,184.0,-241.0,651.0,-313.0,63.0
19:30:59.304000,63.0,54.0,-590.0,-1104.0,214.0,-239.0,636.0,-309.0,58.0
19:30:59.308000,71.0,66.0,-625.0,-1091.0,249.0,-236.0,636.0,-309.0,58.0
19:30:59.312000,80.0,77.0,-644.0,-1096.0,241.0,-233.0,636.0,-309.0,58.0
19:30:59.318000,82.0,89.0,-658.0,-1114.0,196.0,-230.0,646.0,-301.0,67.0
19:30:59.322000,84.0,107.0,-679.0,-1130.0,187.0,-233.0,646.0,-301.0,67.0
19:30:59.327000,109.0,119.0,-715.0,-1128.0,224.0,-234.0,648.0,-309.0,58.0
19:30:59.332000,133.0,131.0,-728.0,-1106.0,255.0,-230.0,648.0,-309.0,58.0
19:30:59.336000,155.0,139.0,-721.0,-1090.0,257.0,-229.0,648.0,-309.0,58.0
19:30:59.341000,167.0,144.0,-714.0,-1075.0,240.0,-230.0,651.0,-303.0,57.0
19:30:59.346000,184.0,150.0,-723.0,-1055.0,264.0,-236.0,651.0,-303.0,57.0
19:30:59.351000,220.0,145.0,-740.0,-1055.0,264.0,-236.0,646.0,-295.0,61.0
19:30:59.355000,228.0,138.0,-735.0,-1029.0,326.0,-250.0,646.0,-295.0,61.0
19:30:59.359000,252.0,140.0,-714.0,-1025.0,394.0,-256.0,645.0,-291.0,61.0
19:30:59.365000,253.0,137.0,-691.0,-1025.0,394.0,-256.0,645.0,-291.0,61.0
19:30:59.369000,240.0,138.0,-679.0,-1037.0,446.0,-257.0,645.0,-291.0,61.0
19:30:59.374000,233.0,140.0,-681.0,-1053.0,479.0,-265.0,631.0,-285.0,72.0
19:30:59.379000,219.0,142.0,-688.0,-1056.0,511.0,-263.0,631.0,-285.0,72.0
19:30:59.384000,196.0,144.0,-684.0,-1047.0,525.0,-259.0,639.0,-276.0,64.0
19:30:59.388000,178.0,143.0,-646.0,-1029.0,514.0,-257.0,639.0,-276.0,64.0
19:30:59.392000,162.0,143.0,-646.0,-1023.0,504.0,-260.0,639.0,-276.0,64.0
19:30:59.398000,143.0,134.0,-616.0,-1035.0,510.0,-263.0,648.0,-274.0,63.0
19:30:59.402000,130.0,131.0,-613.0,-1026.0,507.0,-261.0,648.0,-274.0,63.0
19:30:59.406000,130.0,131.0,-613.0,-997.0,490.0,-258.0,640.0,-277.0,61.0
19:30:59.412000,107.0,132.0,-584.0,-981.0,493.0,-253.0,640.0,-277.0,61.0
19:30:59.416000,89.0,130.0,-566.0,-978.0,506.0,-241.0,640.0,-277.0,61.0
19:30:59.421000,65.0,133.0,-597.0,-956.0,478.0,-237.0,646.0,-264.0,64.0
19:30:59.426000,50.0,135.0,-623.0,-926.0,440.0,-238.0,646.0,-264.0,64.0
19:30:59.431000,49.0,131.0,-622.0,-908.0,421.0,-233.0,633.0,-265.0,72.0
19:30:59.435000,53.0,128.0,-620.0,-897.0,406.0,-239.0,633.0,-265.0,72.0
19:30:59.439000,69.0,126.0,-592.0,-912.0,404.0,-237.0,633.0,-265.0,72.0
19:30:59.445000,65.0,120.0,-590.0,-945.0,394.0,-233.0,637.0,-258.0,64.0
19:30:59.449000,72.0,119.0,-609.0,-964.0,387.0,-242.0,637.0,-258.0,64.0
19:30:59.454000,91.0,114.0,-619.0,-975.0,410.0,-248.0,633.0,-244.0,72.0
19:30:59.459000,99.0,114.0,-629.0,-986.0,434.0,-252.0,633.0,-244.0,72.0
19:30:59.463000,98.0,117.0,-635.0,-1001.0,443.0,-259.0,633.0,-244.0,72.0
19:30:59.468000,102.0,119.0,-629.0,-1001.0,465.0,-268.0,639.0,-241.0,64.0
19:30:59.473000,112.0,119.0,-634.0,-1016.0,465.0,-268.0,639.0,-241.0,64.0
19:30:59.477000,116.0,121.0,-618.0,-1006.0,495.0,-275.0,637.0,-247.0,63.0
19:30:59.482000,113.0,124.0,-590.0,-971.0,516.0,-278.0,637.0,-247.0,63.0
19:30:59.486000,115.0,126.0,-564.0,-948.0,546.0,-284.0,637.0,-247.0,63.0
19:30:59.492000,116.0,130.0,-524.0,-948.0,575.0,-296.0,642.0,-235.0,61.0
19:30:59.496000,113.0,134.0,-497.0,-976.0,598.0,-304.0,642.0,-235.0,61.0
19:30:59.501000,116.0,137.0,-543.0,-1004.0,631.0,-309.0,633.0,-238.0,63.0
19:30:59.506000,119.0,140.0,-527.0,-1010.0,651.0,-314.0,633.0,-238.0,63.0
19:30:59.510000,109.0,146.0,-460.0,-1019.0,635.0,-316.0,634.0,-231.0,69.0
19:30:59.515000,117.0,143.0,-417.0,-1063.0,621.0,-312.0,634.0,-231.0,69.0
19:30:59.519000,117.0,143.0,-417.0,-1064.0,647.0,-311.0,634.0,-231.0,69.0
19:30:59.525000,107.0,152.0,-406.0,-987.0,646.0,-310.0,636.0,-217.0,66.0
19:30:59.529000,102.0,156.0,-323.0,-928.0,638.0,-313.0,636.0,-217.0,66.0
19:30:59.534000,124.0,147.0,-268.0,-915.0,688.0,-320.0,630.0,-228.0,73.0
19:30:59.539000,130.0,149.0,-271.0,-910.0,718.0,-321.0,630.0,-228.0,73.0
19:30:59.543000,131.0,152.0,-263.0,-931.0,736.0,-322.0,630.0,-228.0,73.0
19:30:59.548000,130.0,154.0,-265.0,-927.0,731.0,-322.0,634.0,-220.0,81.0
19:30:59.553000,121.0,154.0,-206.0,-881.0,686.0,-324.0,634.0,-220.0,81.0
19:30:59.557000,119.0,149.0,-119.0,-886.0,686.0,-332.0,633.0,-217.0,75.0
19:30:59.562000,115.0,147.0,-95.0,-909.0,722.0,-338.0,633.0,-217.0,75.0
19:30:59.566000,103.0,144.0,-88.0,-895.0,733.0,-338.0,633.0,-217.0,75.0
19:30:59.572000,98.0,133.0,-53.0,-868.0,723.0,-339.0,627.0,-213.0,75.0
19:30:59.576000,82.0,119.0,6.0,-857.0,727.0,-342.0,627.0,-213.0,75.0
19:30:59.581000,70.0,103.0,42.0,-857.0,727.0,-342.0,630.0,-214.0,78.0
19:30:59.585000,56.0,85.0,79.0,-827.0,743.0,-345.0,630.0,-214.0,78.0
19:30:59.590000,45.0,68.0,135.0,-827.0,743.0,-345.0,630.0,-214.0,78.0
19:30:59.595000,29.0,60.0,193.0,-821.0,737.0,-346.0,630.0,-223.0,78.0
19:30:59.600000,13.0,54.0,239.0,-835.0,739.0,-350.0,630.0,-223.0,78.0
19:30:59.604000,-3.0,49.0,276.0,-854.0,739.0,-351.0,627.0,-228.0,75.0
19:30:59.609000,-11.0,39.0,321.0,-852.0,710.0,-351.0,627.0,-228.0,75.0
19:30:59.613000,-11.0,39.0,321.0,-851.0,670.0,-349.0,627.0,-228.0,75.0
19:30:59.619000,-20.0,12.0,417.0,-852.0,629.0,-342.0,631.0,-220.0,72.0
19:30:59.623000,-12.0,-4.0,464.0,-845.0,584.0,-331.0,631.0,-220.0,72.0
19:30:59.628000,-12.0,-4.0,464.0,-830.0,544.0,-317.0,636.0,-220.0,75.0
19:30:59.633000,6.0,-25.0,483.0,-788.0,497.0,-298.0,636.0,-220.0,75.0
19:30:59.640000,53.0,-70.0,551.0,-688.0,387.0,-262.0,642.0,-231.0,69.0
19:30:59.642000,53.0,-70.0,551.0,-688.0,387.0,-262.0,642.0,-231.0,69.0
19:30:59.646000,78.0,-88.0,563.0,-664.0,368.0,-251.0,642.0,-231.0,69.0
19:30:59.651000,95.0,-99.0,556.0,-645.0,368.0,-244.0,645.0,-235.0,72.0
19:30:59.656000,106.0,-103.0,543.0,-637.0,381.0,-234.0,645.0,-235.0,72.0
19:30:59.661000,98.0,-98.0,527.0,-640.0,398.0,-227.0,636.0,-231.0,81.0
19:30:59.666000,77.0,-84.0,497.0,-647.0,411.0,-225.0,636.0,-231.0,81.0
19:30:59.670000,47.0,-69.0,453.0,-649.0,418.0,-225.0,636.0,-231.0,81.0
19:30:59.675000,15.0,-50.0,395.0,-647.0,431.0,-228.0,646.0,-226.0,66.0
19:30:59.680000,-16.0,-32.0,329.0,-650.0,458.0,-232.0,646.0,-226.0,66.0
19:30:59.684000,-51.0,-17.0,256.0,-655.0,482.0,-233.0,648.0,-243.0,90.0
19:30:59.689000,-88.0,-7.0,189.0,-655.0,482.0,-233.0,648.0,-243.0,90.0
19:30:59.693000,-126.0,-2.0,140.0,-651.0,484.0,-230.0,648.0,-243.0,90.0
19:30:59.698000,-158.0,-7.0,111.0,-634.0,464.0,-223.0,636.0,-253.0,78.0
19:30:59.703000,-185.0,-18.0,106.0,-597.0,426.0,-214.0,636.0,-253.0,78.0
19:30:59.708000,-205.0,-40.0,122.0,-543.0,387.0,-199.0,655.0,-240.0,63.0
19:30:59.713000,-219.0,-62.0,154.0,-488.0,358.0,-195.0,655.0,-240.0,63.0
19:30:59.717000,-229.0,-89.0,195.0,-449.0,340.0,-184.0,655.0,-240.0,63.0
19:30:59.722000,-236.0,-121.0,239.0,-428.0,325.0,-162.0,654.0,-247.0,72.0
19:30:59.727000,-236.0,-150.0,290.0,-416.0,292.0,-143.0,654.0,-247.0,72.0
19:30:59.731000,-228.0,-183.0,356.0,-407.0,229.0,-120.0,652.0,-246.0,73.0
19:30:59.736000,-228.0,-183.0,356.0,-408.0,154.0,-99.0,652.0,-246.0,73.0
19:30:59.740000,-209.0,-214.0,413.0,-417.0,90.0,-79.0,652.0,-246.0,73.0
19:30:59.745000,-182.0,-241.0,455.0,-430.0,45.0,-63.0,657.0,-250.0,58.0
19:30:59.750000,-149.0,-261.0,480.0,-449.0,22.0,-55.0,657.0,-250.0,58.0
19:30:59.755000,-116.0,-270.0,476.0,-479.0,28.0,-52.0,651.0,-247.0,69.0
19:30:59.760000,-85.0,-270.0,442.0,-517.0,60.0,-54.0,651.0,-247.0,69.0
19:30:59.764000,-60.0,-260.0,381.0,-553.0,102.0,-56.0,651.0,-247.0,69.0
19:30:59.769000,-42.0,-242.0,306.0,-582.0,135.0,-59.0,649.0,-255.0,63.0
19:30:59.774000,-33.0,-217.0,234.0,-602.0,153.0,-63.0,649.0,-255.0,63.0
19:30:59.778000,-25.0,-189.0,163.0,-612.0,163.0,-69.0,648.0,-258.0,75.0
19:30:59.783000,-21.0,-158.0,100.0,-613.0,171.0,-76.0,648.0,-258.0,75.0
19:30:59.787000,-22.0,-131.0,55.0,-608.0,190.0,-83.0,648.0,-258.0,75.0
19:30:59.792000,-26.0,-103.0,21.0,-595.0,219.0,-89.0,664.0,-256.0,61.0
19:30:59.797000,-45.0,-75.0,4.0,-595.0,244.0,-96.0,664.0,-256.0,61.0
19:30:59.802000,-69.0,-50.0,10.0,-574.0,244.0,-96.0,661.0,-252.0,60.0
19:30:59.807000,-100.0,-27.0,26.0,-554.0,264.0,-104.0,661.0,-252.0,60.0
19:30:59.811000,-135.0,-6.0,46.0,-537.0,277.0,-111.0,661.0,-252.0,60.0
19:30:59.816000,-175.0,11.0,73.0,-521.0,278.0,-118.0,651.0,-253.0,58.0
19:30:59.821000,-204.0,22.0,102.0,-506.0,264.0,-126.0,651.0,-253.0,58.0
19:30:59.825000,-224.0,26.0,128.0,-493.0,236.0,-135.0,663.0,-258.0,64.0
19:30:59.830000,-240.0,31.0,144.0,-485.0,201.0,-145.0,663.0,-258.0,64.0
19:30:59.834000,-240.0,31.0,144.0,-488.0,181.0,-159.0,663.0,-258.0,64.0
19:30:59.839000,-244.0,31.0,125.0,-493.0,169.0,-172.0,651.0,-256.0,58.0
19:30:59.844000,-245.0,31.0,116.0,-496.0,152.0,-182.0,651.0,-256.0,58.0
19:30:59.849000,-245.0,31.0,116.0,-496.0,129.0,-189.0,652.0,-250.0,63.0
19:30:59.854000,-245.0,30.0,109.0,-488.0,104.0,-195.0,652.0,-250.0,63.0
19:30:59.858000,-242.0,27.0,105.0,-474.0,82.0,-203.0,652.0,-250.0,63.0
19:30:59.863000,-231.0,21.0,92.0,-465.0,73.0,-213.0,651.0,-253.0,61.0
19:30:59.868000,-216.0,14.0,72.0,-463.0,77.0,-218.0,651.0,-253.0,61.0
19:30:59.872000,-199.0,7.0,53.0,-465.0,80.0,-219.0,658.0,-262.0,64.0
19:30:59.877000,-182.0,-1.0,43.0,-461.0,65.0,-217.0,658.0,-262.0,64.0
19:30:59.881000,-160.0,-13.0,46.0,-450.0,37.0,-212.0,658.0,-262.0,64.0
19:30:59.886000,-128.0,-27.0,58.0,-439.0,6.0,-207.0,649.0,-255.0,60.0
19:30:59.891000,-89.0,-44.0,77.0,-438.0,-11.0,-199.0,649.0,-255.0,60.0
19:30:59.896000,-49.0,-62.0,97.0,-438.0,-11.0,-199.0,655.0,-253.0,64.0
19:30:59.901000,-11.0,-79.0,116.0,-469.0,-12.0,-188.0,655.0,-253.0,64.0
19:30:59.905000,21.0,-92.0,138.0,-485.0,-6.0,-180.0,655.0,-253.0,64.0
19:30:59.910000,42.0,-102.0,159.0,-485.0,-6.0,-180.0,649.0,-246.0,61.0
19:30:59.915000,58.0,-109.0,177.0,-502.0,5.0,-167.0,649.0,-246.0,61.0
19:30:59.919000,69.0,-116.0,191.0,-502.0,5.0,-167.0,639.0,-256.0,69.0
19:30:59.924000,79.0,-121.0,195.0,-500.0,9.0,-163.0,639.0,-256.0,69.0
19:30:59.928000,84.0,-126.0,185.0,-500.0,25.0,-160.0,639.0,-256.0,69.0
19:30:59.933000,85.0,-131.0,167.0,-500.0,48.0,-156.0,655.0,-262.0,67.0
19:30:59.938000,81.0,-138.0,151.0,-498.0,67.0,-150.0,655.0,-262.0,67.0
19:30:59.943000,72.0,-147.0,142.0,-498.0,78.0,-142.0,663.0,-267.0,60.0
19:30:59.948000,59.0,-156.0,140.0,-498.0,86.0,-135.0,663.0,-267.0,60.0
19:30:59.952000,59.0,-156.0,140.0,-498.0,94.0,-129.0,663.0,-267.0,60.0
19:30:59.957000,42.0,-165.0,142.0,-498.0,100.0,-122.0,654.0,-261.0,55.0
19:30:59.961000,25.0,-177.0,147.0,-497.0,106.0,-115.0,654.0,-261.0,55.0
19:30:59.966000,7.0,-190.0,151.0,-496.0,107.0,-105.0,645.0,-255.0,60.0
19:30:59.971000,-8.0,-206.0,160.0,-494.0,102.0,-96.0,645.0,-255.0,60.0
19:30:59.975000,-17.0,-222.0,170.0,-499.0,96.0,-90.0,645.0,-255.0,60.0
19:30:59.980000,-22.0,-238.0,179.0,-518.0,98.0,-85.0,658.0,-262.0,52.0
19:30:59.985000,-24.0,-250.0,177.0,-540.0,102.0,-79.0,658.0,-262.0,52.0
19:30:59.990000,-25.0,-257.0,174.0,-559.0,96.0,-73.0,658.0,-262.0,51.0
19:30:59.995000,-23.0,-262.0,177.0,-580.0,95.0,-70.0,658.0,-262.0,51.0
19:30:59.999000,-20.0,-264.0,177.0,-602.0,107.0,-69.0,658.0,-262.0,51.0
19:31:00.004000,-18.0,-262.0,174.0,-620.0,124.0,-69.0,658.0,-262.0,51.0
19:31:00.009000,-16.0,-258.0,174.0,-627.0,135.0,-70.0,658.0,-262.0,51.0
19:31:00.013000,-18.0,-251.0,185.0,-627.0,135.0,-70.0,652.0,-267.0,42.0
19:31:00.018000,-22.0,-241.0,201.0,-626.0,146.0,-70.0,652.0,-267.0,42.0
19:31:00.022000,-28.0,-232.0,218.0,-621.0,159.0,-72.0,652.0,-267.0,42.0
19:31:00.027000,-35.0,-222.0,233.0,-615.0,173.0,-76.0,649.0,-279.0,45.0
19:31:00.032000,-44.0,-213.0,244.0,-612.0,187.0,-77.0,649.0,-279.0,45.0
19:31:00.037000,-51.0,-207.0,256.0,-610.0,187.0,-77.0,652.0,-280.0,42.0
19:31:00.042000,-52.0,-205.0,272.0,-605.0,165.0,-76.0,652.0,-280.0,42.0
19:31:00.046000,-46.0,-207.0,287.0,-603.0,132.0,-77.0,652.0,-280.0,42.0
19:31:00.051000,-38.0,-210.0,295.0,-605.0,108.0,-80.0,651.0,-268.0,37.0
19:31:00.056000,-32.0,-212.0,300.0,-612.0,108.0,-85.0,651.0,-268.0,37.0
19:31:00.060000,-32.0,-214.0,303.0,-622.0,131.0,-91.0,639.0,-273.0,63.0
19:31:00.065000,-32.0,-214.0,303.0,-634.0,161.0,-95.0,639.0,-273.0,63.0
19:31:00.069000,-39.0,-212.0,308.0,-645.0,183.0,-98.0,639.0,-273.0,63.0
19:31:00.074000,-50.0,-207.0,319.0,-652.0,188.0,-103.0,646.0,-276.0,30.0
19:31:00.079000,-57.0,-199.0,338.0,-657.0,179.0,-110.0,646.0,-276.0,30.0
19:31:00.084000,-60.0,-193.0,363.0,-668.0,169.0,-114.0,642.0,-282.0,31.0
19:31:00.089000,-64.0,-182.0,391.0,-680.0,152.0,-113.0,642.0,-282.0,31.0
19:31:00.093000,-67.0,-164.0,422.0,-684.0,119.0,-112.0,642.0,-282.0,31.0
19:31:00.098000,-63.0,-149.0,456.0,-681.0,74.0,-119.0,649.0,-285.0,34.0
19:31:00.103000,-47.0,-142.0,480.0,-682.0,45.0,-125.0,649.0,-285.0,34.0
19:31:00.107000,-23.0,-140.0,484.0,-694.0,47.0,-124.0,649.0,-294.0,36.0
19:31:00.112000,0.0,-140.0,476.0,-711.0,67.0,-121.0,649.0,-294.0,36.0
19:31:00.116000,21.0,-139.0,468.0,-728.0,90.0,-116.0,649.0,-294.0,36.0
19:31:00.121000,33.0,-138.0,461.0,-746.0,115.0,-111.0,640.0,-292.0,33.0
19:31:00.126000,33.0,-134.0,455.0,-746.0,144.0,-115.0,640.0,-292.0,33.0
19:31:00.131000,23.0,-126.0,445.0,-763.0,144.0,-115.0,646.0,-298.0,27.0
19:31:00.136000,-7.0,-114.0,430.0,-779.0,179.0,-117.0,646.0,-298.0,27.0
19:31:00.140000,-44.0,-105.0,413.0,-790.0,209.0,-119.0,646.0,-298.0,27.0
19:31:00.145000,-78.0,-96.0,389.0,-792.0,220.0,-129.0,643.0,-303.0,30.0
19:31:00.150000,-111.0,-86.0,357.0,-805.0,220.0,-139.0,643.0,-303.0,30.0
19:31:00.154000,-140.0,-74.0,327.0,-830.0,220.0,-151.0,654.0,-300.0,30.0
19:31:00.159000,-164.0,-68.0,308.0,-860.0,209.0,-164.0,654.0,-300.0,30.0
19:31:00.163000,-164.0,-68.0,308.0,-889.0,188.0,-179.0,654.0,-300.0,30.0
19:31:00.168000,-189.0,-53.0,273.0,-916.0,173.0,-192.0,645.0,-313.0,31.0
19:31:00.173000,-194.0,-47.0,259.0,-937.0,162.0,-202.0,645.0,-313.0,31.0
19:31:00.178000,-194.0,-47.0,259.0,-948.0,145.0,-211.0,640.0,-304.0,36.0
19:31:00.183000,-193.0,-44.0,255.0,-949.0,125.0,-217.0,640.0,-304.0,36.0
19:31:00.187000,-185.0,-44.0,259.0,-940.0,116.0,-225.0,640.0,-304.0,36.0
19:31:00.192000,-171.0,-46.0,268.0,-925.0,127.0,-233.0,642.0,-309.0,30.0
19:31:00.197000,-156.0,-50.0,278.0,-906.0,157.0,-235.0,642.0,-309.0,30.0
19:31:00.201000,-145.0,-56.0,292.0,-885.0,191.0,-235.0,636.0,-309.0,28.0
19:31:00.206000,-135.0,-60.0,312.0,-865.0,213.0,-234.0,636.0,-309.0,28.0
19:31:00.210000,-128.0,-63.0,337.0,-848.0,220.0,-233.0,636.0,-309.0,28.0
19:31:00.215000,-119.0,-67.0,363.0,-838.0,224.0,-234.0,640.0,-316.0,27.0
19:31:00.220000,-111.0,-72.0,384.0,-841.0,241.0,-240.0,640.0,-316.0,27.0
19:31:00.225000,-104.0,-77.0,394.0,-841.0,241.0,-240.0,646.0,-313.0,28.0
19:31:00.230000,-102.0,-79.0,393.0,-879.0,332.0,-263.0,646.0,-313.0,28.0
19:31:00.234000,-109.0,-79.0,383.0,-904.0,394.0,-277.0,646.0,-313.0,28.0
19:31:00.239000,-117.0,-76.0,365.0,-925.0,460.0,-297.0,637.0,-307.0,34.0
19:31:00.244000,-123.0,-74.0,338.0,-925.0,460.0,-297.0,637.0,-307.0,34.0
19:31:00.248000,-126.0,-67.0,295.0,-944.0,536.0,-324.0,643.0,-315.0,39.0
19:31:00.253000,-119.0,-58.0,233.0,-960.0,627.0,-356.0,643.0,-315.0,39.0
19:31:00.257000,-107.0,-47.0,170.0,-963.0,716.0,-388.0,643.0,-315.0,39.0
19:31:00.262000,-84.0,-38.0,118.0,-957.0,787.0,-413.0,646.0,-316.0,25.0
19:31:00.267000,-56.0,-33.0,93.0,-946.0,828.0,-425.0,646.0,-316.0,25.0
19:31:00.272000,-28.0,-28.0,108.0,-922.0,837.0,-422.0,634.0,-319.0,24.0
19:31:00.277000,2.0,-29.0,149.0,-892.0,832.0,-411.0,634.0,-319.0,24.0
19:31:00.281000,2.0,-29.0,149.0,-853.0,831.0,-398.0,634.0,-319.0,24.0
19:31:00.286000,23.0,-34.0,193.0,-792.0,822.0,-377.0,637.0,-331.0,24.0
19:31:00.291000,34.0,-46.0,255.0,-713.0,800.0,-353.0,637.0,-331.0,24.0
19:31:00.295000,46.0,-62.0,342.0,-644.0,801.0,-333.0,622.0,-321.0,16.0
19:31:00.300000,58.0,-80.0,408.0,-584.0,837.0,-306.0,622.0,-321.0,16.0
19:31:00.304000,53.0,-95.0,449.0,-529.0,881.0,-274.0,622.0,-321.0,16.0
19:31:00.309000,31.0,-102.0,476.0,-514.0,922.0,-253.0,631.0,-328.0,27.0
19:31:00.314000,7.0,-109.0,478.0,-538.0,934.0,-243.0,631.0,-328.0,27.0
19:31:00.319000,-14.0,-114.0,452.0,-583.0,905.0,-238.0,631.0,-336.0,16.0
19:31:00.324000,-41.0,-111.0,421.0,-653.0,866.0,-241.0,631.0,-336.0,16.0
19:31:00.328000,-55.0,-111.0,392.0,-736.0,835.0,-255.0,631.0,-336.0,16.0
19:31:00.333000,-60.0,-101.0,350.0,-841.0,818.0,-273.0,637.0,-336.0,7.0
19:31:00.338000,-84.0,-89.0,295.0,-932.0,819.0,-301.0,637.0,-336.0,7.0
19:31:00.342000,-124.0,-73.0,260.0,-932.0,819.0,-301.0,639.0,-328.0,15.0
19:31:00.347000,-197.0,-67.0,-128.0,-1349.0,835.0,-300.0,639.0,-328.0,15.0
19:31:00.351000,-119.0,-9.0,-275.0,-1819.0,741.0,-356.0,639.0,-328.0,15.0
19:31:00.356000,-159.0,21.0,565.0,-1544.0,494.0,-375.0,634.0,-339.0,19.0
19:31:00.361000,-145.0,58.0,1110.0,-955.0,523.0,-336.0,634.0,-339.0,19.0
19:31:00.366000,-109.0,62.0,896.0,-784.0,766.0,-324.0,630.0,-342.0,22.0
19:31:00.371000,-44.0,86.0,334.0,-873.0,861.0,-324.0,630.0,-342.0,22.0
19:31:00.375000,-47.0,116.0,-49.0,-1000.0,789.0,-323.0,630.0,-342.0,22.0
19:31:00.380000,-44.0,140.0,102.0,-984.0,484.0,-291.0,631.0,-342.0,19.0
19:31:00.385000,-19.0,147.0,275.0,-953.0,313.0,-289.0,631.0,-342.0,19.0
19:31:00.389000,1.0,161.0,287.0,-1137.0,415.0,-299.0,621.0,-346.0,21.0
19:31:00.394000,1.0,161.0,287.0,-1292.0,489.0,-316.0,621.0,-346.0,21.0
19:31:00.398000,8.0,172.0,217.0,-1373.0,471.0,-332.0,621.0,-346.0,21.0
19:31:00.403000,16.0,183.0,154.0,-1440.0,412.0,-351.0,631.0,-346.0,13.0
19:31:00.408000,2.0,203.0,133.0,-1484.0,378.0,-361.0,631.0,-346.0,13.0
19:31:00.413000,-19.0,224.0,130.0,-1479.0,379.0,-360.0,622.0,-351.0,18.0
19:31:00.418000,-35.0,231.0,86.0,-1433.0,374.0,-361.0,622.0,-351.0,18.0
19:31:00.425000,-30.0,209.0,34.0,-1158.0,317.0,-359.0,625.0,-351.0,24.0
19:31:00.427000,-30.0,209.0,34.0,-1158.0,317.0,-359.0,625.0,-351.0,24.0
19:31:00.431000,-28.0,182.0,95.0,-1136.0,336.0,-353.0,625.0,-351.0,24.0
19:31:00.436000,-37.0,162.0,127.0,-1138.0,341.0,-354.0,624.0,-342.0,16.0
19:31:00.441000,-48.0,145.0,86.0,-1137.0,325.0,-354.0,624.0,-342.0,16.0
19:31:00.446000,-56.0,121.0,69.0,-1137.0,325.0,-354.0,621.0,-345.0,22.0
19:31:00.450000,-63.0,89.0,121.0,-1151.0,292.0,-336.0,621.0,-345.0,22.0
19:31:00.455000,-83.0,68.0,191.0,-1151.0,263.0,-322.0,621.0,-345.0,22.0
19:31:00.460000,-105.0,53.0,247.0,-1146.0,263.0,-322.0,627.0,-345.0,24.0
19:31:00.465000,-119.0,44.0,270.0,-1167.0,220.0,-306.0,627.0,-345.0,24.0
19:31:00.469000,-122.0,37.0,277.0,-1214.0,111.0,-285.0,630.0,-349.0,37.0
19:31:00.474000,-115.0,32.0,268.0,-1214.0,111.0,-285.0,630.0,-349.0,37.0
19:31:00.478000,-112.0,35.0,244.0,-1226.0,43.0,-268.0,630.0,-349.0,37.0
19:31:00.483000,-116.0,46.0,235.0,-1218.0,-25.0,-244.0,622.0,-355.0,21.0
19:31:00.488000,-108.0,53.0,226.0,-1183.0,-68.0,-220.0,622.0,-355.0,21.0
19:31:00.493000,-56.0,35.0,219.0,-1150.0,-87.0,-201.0,628.0,-352.0,22.0
19:31:00.497000,-6.0,27.0,200.0,-1165.0,-82.0,-193.0,628.0,-352.0,22.0
19:31:00.502000,-6.0,27.0,200.0,-1246.0,-64.0,-194.0,628.0,-352.0,22.0
19:31:00.507000,-14.0,50.0,134.0,-1294.0,-73.0,-196.0,630.0,-364.0,21.0
19:31:00.512000,-13.0,64.0,82.0,-1293.0,-52.0,-203.0,630.0,-364.0,21.0
19:31:00.516000,-23.0,84.0,28.0,-1292.0,11.0,-213.0,624.0,-363.0,25.0
19:31:00.521000,-16.0,91.0,-38.0,-1293.0,64.0,-220.0,624.0,-363.0,25.0
19:31:00.525000,-33.0,112.0,-113.0,-1286.0,86.0,-220.0,624.0,-363.0,25.0
19:31:00.530000,-11.0,108.0,-149.0,-1283.0,63.0,-223.0,610.0,-355.0,24.0
19:31:00.535000,-37.0,127.0,-164.0,-1301.0,22.0,-245.0,610.0,-355.0,24.0
19:31:00.540000,-42.0,162.0,-214.0,-1283.0,-8.0,-246.0,631.0,-355.0,28.0
19:31:00.544000,-36.0,178.0,-254.0,-1236.0,8.0,-261.0,631.0,-355.0,28.0
19:31:00.549000,8.0,180.0,-256.0,-1243.0,72.0,-271.0,631.0,-355.0,28.0
19:31:00.554000,-2.0,197.0,-282.0,-1224.0,49.0,-256.0,630.0,-346.0,24.0
19:31:00.559000,-21.0,213.0,-247.0,-1182.0,20.0,-274.0,630.0,-346.0,24.0
19:31:00.563000,41.0,193.0,-196.0,-1197.0,84.0,-280.0,630.0,-357.0,27.0
19:31:00.568000,34.0,200.0,-191.0,-1197.0,84.0,-280.0,630.0,-357.0,27.0
19:31:00.572000,28.0,214.0,-198.0,-1218.0,144.0,-287.0,630.0,-357.0,27.0
19:31:00.577000,27.0,221.0,-185.0,-1199.0,183.0,-300.0,625.0,-345.0,25.0
19:31:00.582000,41.0,216.0,-165.0,-1099.0,227.0,-288.0,625.0,-345.0,25.0
19:31:00.587000,21.0,202.0,-159.0,-1149.0,208.0,-284.0,627.0,-352.0,28.0
19:31:00.591000,-32.0,229.0,-49.0,-1247.0,51.0,-303.0,627.0,-352.0,28.0
19:31:00.596000,-24.0,228.0,11.0,-1218.0,-60.0,-323.0,627.0,-352.0,28.0
19:31:00.601000,-14.0,182.0,-21.0,-1168.0,-19.0,-322.0,619.0,-346.0,25.0
19:31:00.606000,14.0,149.0,-49.0,-1052.0,101.0,-327.0,619.0,-346.0,25.0
19:31:00.610000,14.0,149.0,-49.0,-989.0,214.0,-342.0,628.0,-342.0,43.0
19:31:00.615000,33.0,121.0,-121.0,-1027.0,214.0,-352.0,628.0,-342.0,43.0
19:31:00.619000,42.0,102.0,-200.0,-1051.0,107.0,-362.0,628.0,-342.0,43.0
19:31:00.624000,29.0,88.0,-187.0,-1062.0,15.0,-364.0,627.0,-348.0,30.0
19:31:00.629000,14.0,63.0,-123.0,-1068.0,50.0,-370.0,627.0,-348.0,30.0
19:31:00.634000,21.0,35.0,-101.0,-1049.0,145.0,-371.0,628.0,-345.0,34.0
19:31:00.638000,18.0,-2.0,-103.0,-1002.0,164.0,-370.0,628.0,-345.0,34.0
19:31:00.643000,-7.0,-23.0,-81.0,-969.0,116.0,-372.0,628.0,-345.0,34.0
19:31:00.648000,-16.0,-46.0,-62.0,-976.0,78.0,-362.0,625.0,-349.0,36.0
19:31:00.653000,-24.0,-72.0,-54.0,-985.0,93.0,-344.0,625.0,-349.0,36.0
19:31:00.657000,-15.0,-102.0,-37.0,-981.0,107.0,-335.0,636.0,-348.0,31.0
19:31:00.662000,-25.0,-121.0,-33.0,-946.0,65.0,-333.0,636.0,-348.0,31.0
19:31:00.666000,-19.0,-142.0,-2.0,-968.0,10.0,-332.0,636.0,-348.0,31.0
19:31:00.671000,-4.0,-163.0,55.0,-1071.0,19.0,-320.0,627.0,-352.0,31.0
19:31:00.676000,-4.0,-172.0,65.0,-1071.0,19.0,-320.0,627.0,-352.0,31.0
19:31:00.681000,3.0,-164.0,-1.0,-1141.0,66.0,-321.0,625.0,-352.0,40.0
19:31:00.685000,29.0,-172.0,-25.0,-1147.0,78.0,-323.0,625.0,-352.0,40.0
19:31:00.690000,26.0,-177.0,7.0,-1101.0,41.0,-293.0,625.0,-352.0,40.0
19:31:00.695000,26.0,-170.0,37.0,-1060.0,-10.0,-274.0,622.0,-349.0,24.0
19:31:00.699000,53.0,-174.0,33.0,-1134.0,31.0,-266.0,622.0,-349.0,24.0
19:31:00.704000,62.0,-172.0,-15.0,-1134.0,31.0,-266.0,613.0,-340.0,36.0
19:31:00.709000,79.0,-175.0,-21.0,-1120.0,0.0,-257.0,613.0,-340.0,36.0
19:31:00.713000,79.0,-175.0,-21.0,-1108.0,-61.0,-240.0,613.0,-340.0,36.0
19:31:00.718000,147.0,-191.0,0.0,-1115.0,-64.0,-240.0,633.0,-352.0,21.0
19:31:00.723000,147.0,-191.0,0.0,-1119.0,-13.0,-242.0,633.0,-352.0,21.0
19:31:00.728000,165.0,-191.0,-28.0,-1101.0,20.0,-233.0,628.0,-343.0,19.0
19:31:00.732000,177.0,-187.0,-33.0,-1087.0,49.0,-222.0,628.0,-343.0,19.0
19:31:00.736000,178.0,-187.0,-58.0,-1065.0,61.0,-211.0,628.0,-343.0,19.0
19:31:00.742000,169.0,-182.0,-78.0,-1044.0,79.0,-203.0,622.0,-345.0,22.0
19:31:00.747000,166.0,-179.0,-91.0,-1055.0,119.0,-193.0,622.0,-345.0,22.0
19:31:00.751000,154.0,-172.0,-94.0,-1042.0,119.0,-183.0,618.0,-355.0,15.0
19:31:00.756000,145.0,-165.0,-88.0,-1048.0,91.0,-171.0,618.0,-355.0,15.0
19:31:00.760000,135.0,-158.0,-72.0,-1113.0,96.0,-163.0,618.0,-355.0,15.0
19:31:00.765000,137.0,-147.0,-94.0,-1120.0,71.0,-157.0,619.0,-342.0,18.0
19:31:00.770000,120.0,-126.0,-98.0,-1099.0,47.0,-155.0,619.0,-342.0,18.0
19:31:00.775000,123.0,-113.0,-126.0,-1099.0,47.0,-155.0,618.0,-348.0,7.0
19:31:00.779000,123.0,-100.0,-144.0,-1092.0,107.0,-155.0,618.0,-348.0,7.0
19:31:00.783000,112.0,-84.0,-134.0,-1092.0,134.0,-156.0,618.0,-348.0,7.0
19:31:00.789000,119.0,-78.0,-156.0,-1088.0,134.0,-156.0,619.0,-354.0,10.0
19:31:00.794000,123.0,-67.0,-200.0,-1065.0,73.0,-163.0,619.0,-354.0,10.0
19:31:00.798000,126.0,-60.0,-214.0,-1065.0,73.0,-163.0,628.0,-346.0,7.0
19:31:00.803000,127.0,-53.0,-191.0,-1054.0,93.0,-164.0,628.0,-346.0,7.0
19:31:00.807000,112.0,-39.0,-174.0,-1053.0,114.0,-161.0,628.0,-346.0,7.0
19:31:00.812000,100.0,-24.0,-173.0,-1087.0,149.0,-157.0,618.0,-345.0,4.0
19:31:00.817000,88.0,-1.0,-196.0,-1118.0,187.0,-159.0,618.0,-345.0,4.0
19:31:00.822000,74.0,10.0,-203.0,-1113.0,165.0,-158.0,631.0,-343.0,7.0
19:31:00.826000,65.0,20.0,-202.0,-1097.0,136.0,-152.0,631.0,-343.0,7.0
19:31:00.830000,65.0,20.0,-202.0,-1077.0,157.0,-149.0,631.0,-343.0,7.0
19:31:00.836000,46.0,26.0,-217.0,-1053.0,193.0,-151.0,616.0,-345.0,4.0
19:31:00.841000,22.0,37.0,-242.0,-1033.0,209.0,-155.0,616.0,-345.0,4.0
19:31:00.845000,9.0,37.0,-252.0,-1028.0,208.0,-158.0,597.0,-352.0,22.0
19:31:00.850000,3.0,37.0,-266.0,-1050.0,214.0,-165.0,597.0,-352.0,22.0
19:31:00.854000,-4.0,32.0,-287.0,-1069.0,234.0,-167.0,597.0,-352.0,22.0
19:31:00.859000,-32.0,39.0,-305.0,-1064.0,244.0,-163.0,625.0,-336.0,9.0
19:31:00.864000,-58.0,46.0,-330.0,-1067.0,241.0,-172.0,625.0,-336.0,9.0
19:31:00.869000,-77.0,53.0,-340.0,-1078.0,235.0,-176.0,618.0,-336.0,10.0
19:31:00.873000,-112.0,65.0,-345.0,-1086.0,248.0,-176.0,618.0,-336.0,10.0
19:31:00.877000,-130.0,72.0,-349.0,-1073.0,258.0,-176.0,618.0,-336.0,10.0
19:31:00.883000,-158.0,80.0,-338.0,-1034.0,246.0,-172.0,615.0,-334.0,19.0
19:31:00.888000,-176.0,87.0,-343.0,-1036.0,247.0,-176.0,615.0,-334.0,19.0
19:31:00.892000,-182.0,92.0,-359.0,-1036.0,247.0,-176.0,624.0,-327.0,18.0
19:31:00.897000,-192.0,105.0,-369.0,-1042.0,235.0,-177.0,624.0,-327.0,18.0
19:31:00.901000,-191.0,118.0,-378.0,-1052.0,213.0,-184.0,624.0,-327.0,18.0
19:31:00.906000,-196.0,133.0,-368.0,-1081.0,207.0,-193.0,622.0,-327.0,12.0
19:31:00.911000,-196.0,154.0,-359.0,-1090.0,191.0,-194.0,622.0,-327.0,12.0
19:31:00.916000,-187.0,172.0,-367.0,-1100.0,168.0,-203.0,622.0,-327.0,13.0
19:31:00.920000,-170.0,186.0,-371.0,-1101.0,153.0,-214.0,622.0,-327.0,13.0
19:31:00.924000,-144.0,189.0,-371.0,-1070.0,141.0,-222.0,622.0,-327.0,13.0
19:31:00.930000,-119.0,193.0,-373.0,-1050.0,143.0,-232.0,624.0,-327.0,15.0
19:31:00.934000,-99.0,201.0,-357.0,-1042.0,142.0,-238.0,624.0,-327.0,15.0
19:31:00.939000,-72.0,207.0,-327.0,-1037.0,126.0,-242.0,604.0,-324.0,21.0
19:31:00.944000,-72.0,207.0,-327.0,-1054.0,115.0,-253.0,604.0,-324.0,21.0
19:31:00.948000,-41.0,211.0,-313.0,-1069.0,119.0,-266.0,604.0,-324.0,21.0
19:31:00.953000,-13.0,217.0,-315.0,-1091.0,134.0,-276.0,618.0,-327.0,13.0
19:31:00.958000,14.0,215.0,-329.0,-1093.0,162.0,-278.0,618.0,-327.0,13.0
19:31:00.963000,30.0,214.0,-342.0,-1083.0,182.0,-286.0,619.0,-310.0,13.0
19:31:00.967000,39.0,214.0,-355.0,-1081.0,183.0,-297.0,619.0,-310.0,13.0
19:31:00.971000,57.0,212.0,-372.0,-1068.0,166.0,-297.0,619.0,-310.0,13.0
19:31:00.977000,70.0,207.0,-362.0,-1067.0,154.0,-295.0,624.0,-312.0,39.0
19:31:00.981000,77.0,207.0,-335.0,-1076.0,177.0,-291.0,624.0,-312.0,39.0
19:31:00.986000,76.0,214.0,-332.0,-1087.0,193.0,-289.0,615.0,-309.0,15.0
19:31:00.991000,78.0,224.0,-348.0,-1099.0,186.0,-292.0,615.0,-309.0,15.0
19:31:00.995000,85.0,233.0,-373.0,-1105.0,175.0,-293.0,615.0,-309.0,15.0
19:31:01.000000,100.0,237.0,-408.0,-1087.0,167.0,-289.0,625.0,-309.0,25.0
19:31:01.005000,108.0,240.0,-445.0,-1087.0,167.0,-289.0,625.0,-309.0,25.0
19:31:01.010000,112.0,242.0,-480.0,-1057.0,173.0,-285.0,630.0,-289.0,21.0
19:31:01.014000,123.0,243.0,-506.0,-1018.0,190.0,-285.0,630.0,-289.0,21.0
19:31:01.022000,130.0,243.0,-525.0,-998.0,236.0,-291.0,631.0,-303.0,27.0
19:31:01.024000,137.0,245.0,-557.0,-998.0,236.0,-291.0,631.0,-303.0,27.0
19:31:01.028000,147.0,242.0,-581.0,-1005.0,250.0,-293.0,631.0,-303.0,27.0
19:31:01.033000,155.0,239.0,-593.0,-1007.0,234.0,-296.0,612.0,-301.0,25.0
19:31:01.038000,171.0,233.0,-613.0,-1016.0,220.0,-304.0,612.0,-301.0,25.0
19:31:01.043000,182.0,228.0,-632.0,-1023.0,229.0,-310.0,622.0,-285.0,33.0
19:31:01.047000,189.0,223.0,-648.0,-1021.0,256.0,-312.0,622.0,-285.0,33.0
19:31:01.051000,189.0,223.0,-648.0,-1014.0,299.0,-317.0,622.0,-285.0,33.0
19:31:01.057000,196.0,221.0,-667.0,-992.0,340.0,-325.0,624.0,-286.0,37.0
19:31:01.061000,205.0,224.0,-671.0,-979.0,368.0,-326.0,624.0,-286.0,37.0
19:31:01.066000,194.0,233.0,-670.0,-993.0,392.0,-329.0,609.0,-283.0,46.0
19:31:01.071000,184.0,244.0,-686.0,-1007.0,405.0,-337.0,609.0,-283.0,46.0
19:31:01.075000,180.0,257.0,-711.0,-1017.0,411.0,-343.0,609.0,-283.0,46.0
19:31:01.080000,173.0,269.0,-732.0,-1024.0,425.0,-350.0,624.0,-271.0,36.0
19:31:01.085000,171.0,279.0,-751.0,-1025.0,434.0,-360.0,624.0,-271.0,36.0
19:31:01.090000,175.0,278.0,-758.0,-1018.0,429.0,-367.0,622.0,-273.0,40.0
19:31:01.094000,182.0,271.0,-746.0,-1008.0,431.0,-377.0,622.0,-273.0,40.0
19:31:01.098000,192.0,263.0,-739.0,-997.0,452.0,-382.0,622.0,-273.0,40.0
19:31:01.104000,198.0,256.0,-758.0,-978.0,467.0,-388.0,631.0,-274.0,39.0
19:31:01.108000,201.0,253.0,-764.0,-951.0,467.0,-397.0,631.0,-274.0,39.0
19:31:01.113000,223.0,240.0,-748.0,-951.0,467.0,-397.0,625.0,-273.0,45.0
19:31:01.118000,242.0,226.0,-737.0,-935.0,477.0,-403.0,625.0,-273.0,45.0
19:31:01.122000,244.0,219.0,-732.0,-926.0,488.0,-408.0,625.0,-273.0,45.0
19:31:01.127000,261.0,211.0,-732.0,-911.0,504.0,-414.0,615.0,-249.0,31.0
19:31:01.132000,279.0,194.0,-717.0,-901.0,524.0,-423.0,615.0,-249.0,31.0
19:31:01.137000,289.0,176.0,-692.0,-901.0,542.0,-428.0,628.0,-250.0,39.0
19:31:01.141000,299.0,160.0,-681.0,-906.0,564.0,-433.0,628.0,-250.0,39.0
19:31:01.145000,301.0,147.0,-676.0,-906.0,588.0,-438.0,628.0,-250.0,39.0
19:31:01.151000,296.0,138.0,-662.0,-888.0,608.0,-437.0,634.0,-246.0,45.0
19:31:01.155000,301.0,130.0,-658.0,-871.0,636.0,-440.0,634.0,-246.0,45.0
19:31:01.160000,308.0,119.0,-662.0,-880.0,667.0,-449.0,618.0,-240.0,43.0
19:31:01.165000,308.0,119.0,-662.0,-918.0,682.0,-448.0,618.0,-240.0,43.0
19:31:01.169000,296.0,112.0,-656.0,-973.0,693.0,-448.0,618.0,-240.0,43.0
19:31:01.174000,287.0,114.0,-642.0,-998.0,705.0,-450.0,616.0,-234.0,45.0
19:31:01.179000,279.0,117.0,-607.0,-988.0,690.0,-438.0,616.0,-234.0,45.0
19:31:01.184000,246.0,123.0,-540.0,-942.0,687.0,-436.0,630.0,-235.0,36.0
19:31:01.188000,231.0,129.0,-564.0,-983.0,707.0,-430.0,630.0,-235.0,36.0
19:31:01.192000,235.0,123.0,-592.0,-1051.0,699.0,-416.0,630.0,-235.0,36.0
19:31:01.198000,212.0,123.0,-513.0,-1045.0,705.0,-418.0,616.0,-240.0,37.0
19:31:01.202000,191.0,126.0,-418.0,-1027.0,747.0,-417.0,616.0,-240.0,37.0
19:31:01.207000,172.0,136.0,-377.0,-1017.0,801.0,-412.0,622.0,-229.0,34.0
19:31:01.212000,166.0,140.0,-390.0,-1035.0,832.0,-402.0,622.0,-229.0,34.0
19:31:01.216000,144.0,150.0,-343.0,-1052.0,828.0,-388.0,622.0,-229.0,34.0
19:31:01.221000,117.0,163.0,-287.0,-1037.0,816.0,-371.0,622.0,-231.0,39.0
19:31:01.226000,88.0,177.0,-275.0,-1037.0,816.0,-371.0,622.0,-231.0,39.0
19:31:01.231000,67.0,176.0,-247.0,-994.0,796.0,-348.0,624.0,-228.0,42.0
19:31:01.235000,58.0,175.0,-198.0,-971.0,774.0,-330.0,624.0,-228.0,42.0
19:31:01.239000,70.0,168.0,-116.0,-970.0,703.0,-324.0,624.0,-228.0,42.0
19:31:01.245000,99.0,149.0,-57.0,-991.0,598.0,-315.0,621.0,-231.0,61.0
19:31:01.249000,135.0,132.0,-11.0,-986.0,547.0,-302.0,621.0,-231.0,61.0
19:31:01.254000,154.0,105.0,33.0,-943.0,534.0,-284.0,627.0,-220.0,46.0
19:31:01.259000,174.0,79.0,28.0,-908.0,525.0,-272.0,627.0,-220.0,46.0
19:31:01.263000,174.0,79.0,28.0,-869.0,550.0,-274.0,627.0,-220.0,46.0
19:31:01.268000,213.0,17.0,98.0,-809.0,550.0,-264.0,618.0,-226.0,45.0
19:31:01.273000,213.0,17.0,98.0,-778.0,540.0,-256.0,618.0,-226.0,45.0
19:31:01.278000,211.0,-5.0,161.0,-799.0,600.0,-268.0,622.0,-228.0,48.0
19:31:01.282000,212.0,-25.0,167.0,-788.0,618.0,-266.0,622.0,-228.0,48.0
19:31:01.286000,162.0,-25.0,219.0,-753.0,596.0,-262.0,622.0,-228.0,48.0
19:31:01.292000,130.0,-22.0,278.0,-740.0,608.0,-267.0,631.0,-223.0,43.0
19:31:01.296000,99.0,-7.0,285.0,-708.0,608.0,-263.0,631.0,-223.0,43.0
19:31:01.301000,44.0,13.0,312.0,-683.0,597.0,-263.0,615.0,-226.0,54.0
19:31:01.306000,16.0,28.0,319.0,-684.0,589.0,-271.0,615.0,-226.0,54.0
19:31:01.310000,-21.0,51.0,285.0,-682.0,556.0,-272.0,615.0,-226.0,54.0
19:31:01.315000,-49.0,65.0,262.0,-683.0,503.0,-274.0,628.0,-220.0,49.0
19:31:01.320000,-56.0,70.0,252.0,-676.0,430.0,-272.0,628.0,-220.0,49.0
19:31:01.325000,-65.0,71.0,256.0,-676.0,430.0,-272.0,636.0,-229.0,51.0
19:31:01.329000,-50.0,63.0,259.0,-628.0,329.0,-259.0,636.0,-229.0,51.0
19:31:01.333000,-32.0,51.0,259.0,-628.0,329.0,-259.0,636.0,-229.0,51.0
19:31:01.339000,-2.0,29.0,273.0,-556.0,236.0,-243.0,633.0,-232.0,40.0
19:31:01.343000,42.0,-2.0,273.0,-556.0,236.0,-243.0,633.0,-232.0,40.0
19:31:01.348000,83.0,-30.0,277.0,-525.0,220.0,-235.0,630.0,-241.0,52.0
19:31:01.353000,114.0,-56.0,291.0,-489.0,215.0,-226.0,630.0,-241.0,52.0
19:31:01.357000,144.0,-76.0,289.0,-475.0,238.0,-214.0,630.0,-241.0,52.0
19:31:01.362000,154.0,-88.0,297.0,-466.0,262.0,-198.0,640.0,-241.0,49.0
19:31:01.367000,163.0,-95.0,293.0,-462.0,273.0,-183.0,640.0,-241.0,49.0
19:31:01.372000,167.0,-95.0,257.0,-470.0,285.0,-171.0,642.0,-237.0,48.0
19:31:01.376000,162.0,-91.0,207.0,-479.0,286.0,-157.0,642.0,-237.0,48.0
19:31:01.380000,162.0,-91.0,207.0,-491.0,278.0,-147.0,642.0,-237.0,48.0
19:31:01.386000,157.0,-85.0,156.0,-507.0,274.0,-143.0,640.0,-240.0,67.0
19:31:01.390000,147.0,-77.0,100.0,-531.0,286.0,-143.0,640.0,-240.0,67.0
19:31:01.395000,130.0,-69.0,42.0,-559.0,308.0,-145.0,634.0,-250.0,51.0
19:31:01.400000,107.0,-59.0,-3.0,-581.0,331.0,-147.0,634.0,-250.0,51.0
19:31:01.404000,81.0,-47.0,-37.0,-589.0,343.0,-146.0,634.0,-250.0,51.0
19:31:01.409000,53.0,-36.0,-60.0,-582.0,338.0,-145.0,639.0,-241.0,46.0
19:31:01.414000,28.0,-29.0,-69.0,-566.0,329.0,-146.0,639.0,-241.0,46.0
19:31:01.419000,9.0,-28.0,-74.0,-540.0,320.0,-144.0,633.0,-247.0,58.0
19:31:01.423000,-9.0,-30.0,-65.0,-511.0,320.0,-145.0,633.0,-247.0,58.0
19:31:01.427000,-25.0,-37.0,-47.0,-493.0,331.0,-147.0,633.0,-247.0,58.0
19:31:01.433000,-44.0,-44.0,-21.0,-482.0,336.0,-149.0,639.0,-240.0,39.0
19:31:01.437000,-65.0,-50.0,20.0,-478.0,329.0,-153.0,639.0,-240.0,39.0
19:31:01.442000,-87.0,-55.0,67.0,-478.0,329.0,-153.0,634.0,-235.0,55.0
19:31:01.447000,-106.0,-60.0,107.0,-478.0,316.0,-159.0,634.0,-235.0,55.0
19:31:01.451000,-124.0,-64.0,137.0,-480.0,306.0,-163.0,634.0,-235.0,55.0
19:31:01.456000,-143.0,-66.0,164.0,-475.0,298.0,-167.0,642.0,-243.0,43.0
19:31:01.461000,-161.0,-67.0,189.0,-460.0,282.0,-169.0,642.0,-243.0,43.0
19:31:01.466000,-172.0,-66.0,207.0,-442.0,258.0,-172.0,643.0,-238.0,51.0
19:31:01.470000,-177.0,-65.0,209.0,-430.0,236.0,-175.0,643.0,-238.0,51.0
19:31:01.474000,-176.0,-61.0,199.0,-427.0,218.0,-178.0,643.0,-238.0,51.0
19:31:01.480000,-168.0,-58.0,185.0,-430.0,195.0,-182.0,645.0,-246.0,36.0
19:31:01.484000,-150.0,-57.0,174.0,-435.0,161.0,-185.0,645.0,-246.0,36.0
19:31:01.489000,-123.0,-62.0,164.0,-438.0,123.0,-186.0,642.0,-241.0,51.0
19:31:01.494000,-123.0,-62.0,164.0,-435.0,91.0,-185.0,642.0,-241.0,51.0
19:31:01.498000,-88.0,-68.0,154.0,-432.0,75.0,-183.0,642.0,-241.0,51.0
19:31:01.503000,-49.0,-79.0,146.0,-429.0,74.0,-178.0,649.0,-246.0,49.0
19:31:01.508000,-14.0,-92.0,147.0,-428.0,85.0,-174.0,649.0,-246.0,49.0
19:31:01.513000,18.0,-104.0,158.0,-438.0,106.0,-170.0,651.0,-246.0,49.0
19:31:01.517000,44.0,-114.0,173.0,-456.0,131.0,-164.0,651.0,-246.0,49.0
19:31:01.521000,58.0,-122.0,191.0,-472.0,150.0,-155.0,651.0,-246.0,49.0
19:31:01.527000,66.0,-129.0,214.0,-483.0,158.0,-147.0,645.0,-246.0,58.0
19:31:01.531000,68.0,-135.0,244.0,-495.0,162.0,-140.0,645.0,-246.0,58.0
19:31:01.536000,67.0,-137.0,272.0,-512.0,175.0,-135.0,649.0,-252.0,45.0
19:31:01.541000,60.0,-138.0,290.0,-526.0,191.0,-128.0,649.0,-252.0,45.0
19:31:01.545000,48.0,-137.0,305.0,-533.0,199.0,-120.0,649.0,-252.0,45.0
19:31:01.550000,32.0,-137.0,325.0,-533.0,195.0,-113.0,651.0,-253.0,43.0
19:31:01.555000,18.0,-137.0,342.0,-533.0,195.0,-113.0,651.0,-253.0,43.0
19:31:01.560000,4.0,-140.0,351.0,-532.0,189.0,-107.0,643.0,-256.0,37.0
19:31:01.564000,-7.0,-143.0,357.0,-530.0,181.0,-103.0,643.0,-256.0,37.0
19:31:01.568000,-17.0,-149.0,364.0,-514.0,156.0,-97.0,643.0,-256.0,37.0
19:31:01.574000,-30.0,-157.0,373.0,-514.0,156.0,-97.0,654.0,-256.0,39.0
19:31:01.578000,-41.0,-165.0,379.0,-503.0,144.0,-95.0,654.0,-256.0,39.0
19:31:01.583000,-49.0,-175.0,382.0,-495.0,132.0,-93.0,649.0,-261.0,42.0
19:31:01.588000,-50.0,-189.0,384.0,-488.0,112.0,-94.0,649.0,-261.0,42.0
19:31:01.592000,-50.0,-189.0,384.0,-487.0,91.0,-96.0,649.0,-261.0,42.0
19:31:01.597000,-42.0,-217.0,366.0,-497.0,85.0,-100.0,657.0,-259.0,39.0
19:31:01.602000,-42.0,-217.0,366.0,-510.0,91.0,-105.0,657.0,-259.0,39.0
19:31:01.607000,-42.0,-226.0,352.0,-519.0,104.0,-111.0,649.0,-268.0,36.0
19:31:01.611000,-46.0,-234.0,340.0,-528.0,123.0,-118.0,649.0,-268.0,36.0
19:31:01.619000,-80.0,-238.0,317.0,-554.0,178.0,-129.0,645.0,-270.0,51.0
19:31:01.621000,-80.0,-238.0,317.0,-554.0,178.0,-129.0,645.0,-270.0,51.0
19:31:01.625000,-108.0,-233.0,305.0,-556.0,193.0,-132.0,645.0,-270.0,51.0
19:31:01.630000,-139.0,-226.0,300.0,-545.0,187.0,-134.0,657.0,-262.0,34.0
19:31:01.635000,-164.0,-221.0,299.0,-528.0,161.0,-137.0,657.0,-262.0,34.0
19:31:01.639000,-177.0,-219.0,295.0,-519.0,138.0,-143.0,645.0,-276.0,25.0
19:31:01.644000,-182.0,-220.0,282.0,-520.0,125.0,-147.0,645.0,-276.0,25.0
19:31:01.648000,-182.0,-222.0,268.0,-525.0,119.0,-148.0,645.0,-276.0,25.0
19:31:01.654000,-180.0,-221.0,260.0,-532.0,117.0,-148.0,652.0,-276.0,31.0
19:31:01.658000,-179.0,-221.0,258.0,-534.0,113.0,-149.0,652.0,-276.0,31.0
19:31:01.662000,-176.0,-223.0,263.0,-532.0,112.0,-150.0,648.0,-271.0,28.0
19:31:01.668000,-172.0,-225.0,266.0,-532.0,112.0,-150.0,648.0,-271.0,28.0
19:31:01.672000,-171.0,-224.0,263.0,-532.0,128.0,-150.0,648.0,-271.0,28.0
19:31:01.677000,-172.0,-221.0,259.0,-532.0,149.0,-151.0,634.0,-265.0,31.0
19:31:01.682000,-172.0,-221.0,257.0,-526.0,164.0,-154.0,634.0,-265.0,31.0
19:31:01.686000,-172.0,-219.0,256.0,-525.0,177.0,-158.0,654.0,-279.0,16.0
19:31:01.691000,-171.0,-215.0,259.0,-533.0,188.0,-163.0,654.0,-279.0,16.0
19:31:01.695000,-171.0,-215.0,259.0,-550.0,191.0,-169.0,654.0,-279.0,16.0
19:31:01.701000,-170.0,-203.0,284.0,-577.0,191.0,-176.0,646.0,-274.0,21.0
19:31:01.705000,-171.0,-191.0,303.0,-607.0,188.0,-181.0,646.0,-274.0,21.0
19:31:01.710000,-171.0,-191.0,303.0,-625.0,176.0,-184.0,627.0,-285.0,24.0
19:31:01.715000,-168.0,-178.0,329.0,-630.0,148.0,-189.0,627.0,-285.0,24.0
19:31:01.719000,-160.0,-167.0,355.0,-631.0,117.0,-193.0,627.0,-285.0,24.0
19:31:01.724000,-143.0,-154.0,373.0,-636.0,99.0,-196.0,649.0,-282.0,10.0
19:31:01.729000,-124.0,-140.0,383.0,-644.0,95.0,-200.0,649.0,-282.0,10.0
19:31:01.733000,-101.0,-129.0,388.0,-652.0,103.0,-204.0,640.0,-285.0,22.0
19:31:01.738000,-78.0,-119.0,388.0,-666.0,127.0,-207.0,640.0,-285.0,22.0
19:31:01.742000,-60.0,-110.0,382.0,-675.0,157.0,-209.0,640.0,-285.0,22.0
19:31:01.748000,-44.0,-105.0,379.0,-673.0,183.0,-209.0,651.0,-295.0,22.0
19:31:01.752000,-35.0,-103.0,385.0,-670.0,212.0,-209.0,651.0,-295.0,22.0
