hh:mm:ss.ms,gyroX[mdps],gyroY[mdps],gyroZ[mdps],accX[mg],accY[mg],accZ[mg],magX[mG],magY[mG],magZ[mG]
19:31:13.102000,-231.0,87.0,-123.0,-1130.0,232.0,-231.0,631.0,-379.0,7.0
19:31:13.107000,-213.0,78.0,-90.0,-1113.0,169.0,-230.0,631.0,-379.0,7.0
19:31:13.111000,-213.0,78.0,-90.0,-1129.0,99.0,-230.0,622.0,-387.0,21.0
19:31:13.116000,-189.0,73.0,-37.0,-1140.0,57.0,-226.0,622.0,-387.0,21.0
19:31:13.120000,-167.0,75.0,16.0,-1142.0,50.0,-227.0,622.0,-387.0,21.0
19:31:13.126000,-140.0,78.0,44.0,-1141.0,52.0,-237.0,615.0,-381.0,21.0
19:31:13.130000,-116.0,87.0,56.0,-1143.0,65.0,-243.0,615.0,-381.0,21.0
19:31:13.135000,-107.0,108.0,23.0,-1149.0,97.0,-240.0,630.0,-369.0,10.0
19:31:13.140000,-99.0,125.0,-23.0,-1147.0,114.0,-244.0,630.0,-369.0,10.0
19:31:13.144000,-78.0,132.0,-37.0,-1128.0,103.0,-252.0,630.0,-369.0,10.0
19:31:13.149000,-59.0,142.0,-35.0,-1119.0,106.0,-262.0,621.0,-370.0,-7.0
19:31:13.154000,-25.0,140.0,-67.0,-1127.0,144.0,-272.0,621.0,-370.0,-7.0
19:31:13.158000,-9.0,140.0,-98.0,-1131.0,220.0,-282.0,628.0,-375.0,0.0
19:31:13.163000,3.0,140.0,-151.0,-1138.0,310.0,-294.0,628.0,-375.0,0.0
19:31:13.167000,4.0,145.0,-221.0,-1133.0,352.0,-297.0,628.0,-375.0,0.0
19:31:13.173000,2.0,142.0,-224.0,-1133.0,352.0,-297.0,613.0,-382.0,4.0
19:31:13.177000,2.0,136.0,-163.0,-1129.0,351.0,-300.0,613.0,-382.0,4.0
19:31:13.182000,-18.0,139.0,-128.0,-1159.0,359.0,-302.0,621.0,-379.0,3.0
19:31:13.187000,-27.0,137.0,-101.0,-1202.0,371.0,-297.0,621.0,-379.0,3.0
19:31:13.191000,-41.0,140.0,-53.0,-1214.0,329.0,-289.0,621.0,-379.0,3.0
19:31:13.196000,-37.0,139.0,-38.0,-1214.0,255.0,-279.0,621.0,-382.0,12.0
19:31:13.200000,-9.0,123.0,-47.0,-1222.0,204.0,-272.0,621.0,-382.0,12.0
19:31:13.205000,1.0,122.0,-27.0,-1200.0,164.0,-268.0,604.0,-376.0,15.0
19:31:13.210000,32.0,114.0,-25.0,-1192.0,152.0,-267.0,604.0,-376.0,15.0
19:31:13.215000,59.0,116.0,-28.0,-1230.0,151.0,-268.0,622.0,-370.0,10.0
19:31:13.233000,106.0,160.0,-66.0,-1329.0,120.0,-273.0,607.0,-381.0,25.0
19:31:13.238000,128.0,182.0,-71.0,-1339.0,100.0,-262.0,607.0,-381.0,25.0
19:31:13.243000,137.0,205.0,-91.0,-1326.0,100.0,-255.0,607.0,-381.0,25.0
19:31:13.248000,161.0,216.0,-93.0,-1295.0,93.0,-253.0,618.0,-379.0,18.0
19:31:13.252000,164.0,222.0,-87.0,-1255.0,91.0,-250.0,618.0,-379.0,18.0
19:31:13.257000,177.0,224.0,-97.0,-1171.0,119.0,-266.0,618.0,-379.0,18.0
19:31:13.262000,216.0,216.0,-77.0,-1091.0,179.0,-271.0,624.0,-375.0,16.0
19:31:13.267000,211.0,196.0,-33.0,-1065.0,268.0,-262.0,624.0,-375.0,16.0
19:31:13.271000,170.0,209.0,-69.0,-1065.0,268.0,-262.0,615.0,-381.0,30.0
19:31:13.276000,164.0,221.0,-135.0,-927.0,306.0,-251.0,615.0,-381.0,30.0
19:31:13.280000,151.0,219.0,-154.0,-927.0,545.0,-251.0,615.0,-381.0,30.0
19:31:13.285000,199.0,149.0,-115.0,-622.0,545.0,-192.0,625.0,-384.0,19.0
19:31:13.290000,162.0,95.0,-18.0,-754.0,529.0,-201.0,625.0,-384.0,19.0
19:31:13.295000,112.0,116.0,172.0,-1009.0,98.0,-228.0,621.0,-381.0,28.0
19:31:13.299000,186.0,59.0,272.0,-1056.0,-36.0,-221.0,621.0,-381.0,28.0
19:31:13.304000,93.0,72.0,207.0,-1119.0,154.0,-215.0,621.0,-381.0,28.0
19:31:13.309000,23.0,72.0,109.0,-1044.0,304.0,-195.0,630.0,-382.0,16.0
19:31:13.314000,16.0,77.0,84.0,-1024.0,353.0,-221.0,630.0,-382.0,16.0
19:31:13.318000,102.0,42.0,73.0,-993.0,403.0,-236.0,624.0,-391.0,24.0
19:31:13.323000,40.0,41.0,-16.0,-989.0,398.0,-214.0,624.0,-391.0,24.0
19:31:13.327000,40.0,41.0,-16.0,-979.0,279.0,-214.0,624.0,-391.0,24.0
19:31:13.332000,67.0,37.0,-10.0,-992.0,197.0,-214.0,631.0,-382.0,21.0
19:31:13.337000,38.0,45.0,12.0,-1072.0,150.0,-208.0,631.0,-382.0,21.0
19:31:13.342000,9.0,28.0,2.0,-1100.0,121.0,-226.0,639.0,-388.0,28.0
19:31:13.346000,21.0,23.0,4.0,-1105.0,151.0,-237.0,639.0,-388.0,28.0
19:31:13.351000,31.0,22.0,13.0,-1080.0,175.0,-237.0,639.0,-388.0,28.0
19:31:13.356000,58.0,2.0,10.0,-1080.0,219.0,-239.0,628.0,-391.0,42.0
19:31:13.361000,60.0,-15.0,-45.0,-1049.0,206.0,-246.0,628.0,-391.0,42.0
19:31:13.365000,23.0,-2.0,-82.0,-1008.0,117.0,-258.0,630.0,-387.0,30.0
19:31:13.370000,14.0,4.0,-73.0,-1061.0,62.0,-266.0,630.0,-387.0,30.0
19:31:13.374000,4.0,4.0,9.0,-1131.0,65.0,-280.0,630.0,-387.0,30.0
19:31:13.379000,14.0,3.0,98.0,-1160.0,107.0,-292.0,628.0,-393.0,30.0
19:31:13.384000,-6.0,9.0,111.0,-1181.0,139.0,-294.0,628.0,-393.0,30.0
19:31:13.389000,-20.0,25.0,49.0,-1181.0,139.0,-294.0,625.0,-385.0,22.0
19:31:13.393000,27.0,20.0,-12.0,-1181.0,152.0,-304.0,625.0,-385.0,22.0
19:31:13.398000,-4.0,35.0,-30.0,-1144.0,112.0,-293.0,625.0,-385.0,22.0
19:31:13.403000,22.0,23.0,-60.0,-1096.0,97.0,-285.0,615.0,-390.0,27.0
19:31:13.408000,42.0,18.0,-50.0,-1056.0,112.0,-300.0,615.0,-390.0,27.0
19:31:13.412000,17.0,27.0,-88.0,-1044.0,121.0,-292.0,615.0,-397.0,40.0
19:31:13.416000,14.0,28.0,-189.0,-1057.0,148.0,-286.0,615.0,-397.0,40.0
19:31:13.421000,5.0,29.0,-240.0,-1071.0,105.0,-289.0,615.0,-397.0,40.0
19:31:13.426000,24.0,21.0,-247.0,-1062.0,80.0,-291.0,618.0,-391.0,34.0
19:31:13.431000,21.0,18.0,-254.0,-1060.0,154.0,-294.0,618.0,-391.0,34.0
19:31:13.436000,0.0,16.0,-264.0,-1056.0,195.0,-283.0,621.0,-391.0,33.0
19:31:13.440000,0.0,16.0,-264.0,-1093.0,169.0,-283.0,621.0,-391.0,33.0
19:31:13.445000,24.0,8.0,-282.0,-1112.0,129.0,-285.0,621.0,-391.0,33.0
19:31:13.450000,34.0,12.0,-291.0,-1127.0,125.0,-289.0,624.0,-391.0,21.0
19:31:13.455000,49.0,9.0,-273.0,-1151.0,144.0,-282.0,624.0,-391.0,21.0
19:31:13.459000,25.0,21.0,-277.0,-1124.0,180.0,-274.0,625.0,-390.0,27.0
19:31:13.464000,16.0,29.0,-303.0,-1094.0,275.0,-270.0,625.0,-390.0,27.0
19:31:13.468000,0.0,23.0,-337.0,-1092.0,336.0,-273.0,625.0,-390.0,27.0
19:31:13.473000,-25.0,41.0,-348.0,-1120.0,299.0,-284.0,628.0,-381.0,37.0
19:31:13.478000,-53.0,58.0,-349.0,-1143.0,255.0,-286.0,628.0,-381.0,37.0
19:31:13.483000,-65.0,79.0,-387.0,-1133.0,270.0,-290.0,627.0,-381.0,37.0
19:31:13.487000,-73.0,94.0,-403.0,-1118.0,311.0,-288.0,627.0,-381.0,37.0
19:31:13.492000,-96.0,115.0,-375.0,-1146.0,324.0,-300.0,627.0,-381.0,37.0
19:31:13.497000,-114.0,138.0,-366.0,-1154.0,298.0,-308.0,618.0,-373.0,49.0
19:31:13.502000,-121.0,162.0,-350.0,-1154.0,298.0,-308.0,618.0,-373.0,49.0
19:31:13.506000,-116.0,182.0,-333.0,-1120.0,282.0,-307.0,627.0,-379.0,33.0
19:31:13.511000,-109.0,198.0,-341.0,-1113.0,291.0,-318.0,627.0,-379.0,33.0
19:31:13.515000,-97.0,213.0,-338.0,-1117.0,271.0,-322.0,627.0,-379.0,33.0
19:31:13.520000,-80.0,226.0,-331.0,-1099.0,229.0,-322.0,631.0,-373.0,46.0
19:31:13.525000,-43.0,234.0,-332.0,-1091.0,201.0,-338.0,631.0,-373.0,46.0
19:31:13.530000,-15.0,231.0,-305.0,-1088.0,194.0,-350.0,631.0,-376.0,42.0
19:31:13.534000,7.0,233.0,-282.0,-1065.0,192.0,-344.0,631.0,-376.0,42.0
19:31:13.539000,7.0,233.0,-282.0,-1044.0,198.0,-349.0,631.0,-376.0,42.0
19:31:13.544000,86.0,227.0,-311.0,-1034.0,213.0,-364.0,634.0,-378.0,40.0
19:31:13.549000,86.0,227.0,-311.0,-1019.0,218.0,-367.0,634.0,-378.0,40.0
19:31:13.553000,109.0,219.0,-338.0,-1013.0,205.0,-367.0,625.0,-367.0,54.0
19:31:13.558000,130.0,212.0,-361.0,-997.0,212.0,-372.0,625.0,-367.0,54.0
19:31:13.562000,167.0,195.0,-361.0,-1005.0,247.0,-372.0,625.0,-367.0,54.0
19:31:13.567000,182.0,174.0,-340.0,-1027.0,270.0,-362.0,622.0,-370.0,39.0
19:31:13.572000,171.0,168.0,-331.0,-997.0,281.0,-356.0,622.0,-370.0,39.0
19:31:13.577000,180.0,152.0,-335.0,-949.0,308.0,-353.0,636.0,-367.0,40.0
19:31:13.581000,181.0,137.0,-339.0,-939.0,357.0,-342.0,636.0,-367.0,40.0
19:31:13.589000,138.0,124.0,-354.0,-987.0,370.0,-321.0,637.0,-375.0,60.0
19:31:13.591000,138.0,124.0,-354.0,-987.0,370.0,-321.0,637.0,-375.0,60.0
19:31:13.595000,117.0,118.0,-372.0,-1003.0,380.0,-311.0,637.0,-375.0,60.0
19:31:13.600000,105.0,106.0,-366.0,-1013.0,389.0,-301.0,633.0,-366.0,54.0
19:31:13.605000,84.0,103.0,-366.0,-1021.0,390.0,-286.0,633.0,-366.0,54.0
19:31:13.610000,57.0,107.0,-387.0,-1021.0,390.0,-286.0,637.0,-361.0,60.0
19:31:13.614000,59.0,108.0,-408.0,-1020.0,380.0,-278.0,637.0,-361.0,60.0
19:31:13.618000,85.0,105.0,-424.0,-981.0,355.0,-284.0,637.0,-361.0,60.0
19:31:13.624000,53.0,126.0,-434.0,-1006.0,379.0,-266.0,640.0,-361.0,54.0
19:31:13.628000,36.0,154.0,-439.0,-1084.0,465.0,-245.0,640.0,-361.0,54.0
19:31:13.632000,28.0,175.0,-433.0,-1001.0,461.0,-225.0,637.0,-358.0,52.0
19:31:13.638000,29.0,193.0,-430.0,-1001.0,461.0,-225.0,637.0,-358.0,52.0
19:31:13.642000,38.0,210.0,-464.0,-925.0,421.0,-221.0,637.0,-358.0,52.0
19:31:13.647000,51.0,212.0,-501.0,-828.0,409.0,-234.0,624.0,-351.0,72.0
19:31:13.652000,72.0,198.0,-541.0,-732.0,337.0,-287.0,624.0,-351.0,72.0
19:31:13.657000,61.0,185.0,-606.0,-723.0,242.0,-336.0,634.0,-343.0,63.0
19:31:13.661000,61.0,185.0,-606.0,-804.0,186.0,-385.0,634.0,-343.0,63.0
19:31:13.665000,43.0,191.0,-657.0,-968.0,323.0,-406.0,634.0,-343.0,63.0
19:31:13.671000,13.0,206.0,-687.0,-1095.0,433.0,-411.0,648.0,-339.0,70.0
19:31:13.675000,-42.0,242.0,-744.0,-1161.0,303.0,-449.0,648.0,-339.0,70.0
19:31:13.680000,-49.0,242.0,-718.0,-1228.0,443.0,-403.0,642.0,-342.0,58.0
19:31:13.685000,25.0,203.0,-714.0,-1149.0,526.0,-398.0,642.0,-342.0,58.0
19:31:13.689000,32.0,198.0,-658.0,-1030.0,441.0,-413.0,642.0,-342.0,58.0
19:31:13.694000,106.0,133.0,-541.0,-982.0,396.0,-351.0,648.0,-330.0,70.0
19:31:13.699000,121.0,118.0,-448.0,-960.0,340.0,-335.0,648.0,-330.0,70.0
19:31:13.704000,186.0,94.0,-371.0,-942.0,279.0,-351.0,636.0,-336.0,61.0
19:31:13.708000,226.0,88.0,-291.0,-926.0,225.0,-370.0,636.0,-336.0,61.0
19:31:13.712000,274.0,90.0,-326.0,-933.0,344.0,-379.0,636.0,-336.0,61.0
19:31:13.718000,322.0,90.0,-471.0,-879.0,504.0,-379.0,645.0,-331.0,61.0
19:31:13.722000,329.0,109.0,-569.0,-787.0,648.0,-372.0,645.0,-331.0,61.0
19:31:13.727000,310.0,140.0,-591.0,-787.0,648.0,-372.0,646.0,-324.0,70.0
19:31:13.732000,305.0,161.0,-602.0,-748.0,721.0,-365.0,646.0,-324.0,70.0
19:31:13.736000,263.0,177.0,-612.0,-768.0,744.0,-369.0,646.0,-327.0,70.0
19:31:13.741000,179.0,195.0,-624.0,-811.0,673.0,-379.0,646.0,-327.0,70.0
19:31:13.745000,143.0,205.0,-631.0,-854.0,488.0,-425.0,646.0,-327.0,70.0
19:31:13.751000,162.0,213.0,-660.0,-958.0,421.0,-496.0,648.0,-325.0,82.0
19:31:13.755000,187.0,210.0,-665.0,-1076.0,531.0,-526.0,648.0,-325.0,82.0
19:31:13.760000,134.0,217.0,-660.0,-1093.0,671.0,-513.0,642.0,-327.0,69.0
19:31:13.765000,141.0,191.0,-631.0,-1137.0,778.0,-483.0,642.0,-327.0,69.0
19:31:13.769000,141.0,191.0,-631.0,-1244.0,791.0,-451.0,642.0,-327.0,69.0
19:31:13.774000,109.0,175.0,-511.0,-1298.0,695.0,-405.0,657.0,-309.0,82.0
19:31:13.779000,81.0,161.0,-365.0,-1251.0,536.0,-378.0,657.0,-309.0,82.0
19:31:13.783000,75.0,165.0,-223.0,-1067.0,382.0,-377.0,646.0,-313.0,76.0
19:31:13.788000,114.0,152.0,-115.0,-871.0,288.0,-364.0,646.0,-313.0,76.0
19:31:13.792000,163.0,128.0,-107.0,-775.0,267.0,-362.0,646.0,-313.0,76.0
19:31:13.798000,244.0,96.0,-180.0,-753.0,326.0,-362.0,661.0,-310.0,85.0
19:31:13.802000,316.0,58.0,-266.0,-755.0,438.0,-355.0,661.0,-310.0,85.0
19:31:13.807000,338.0,40.0,-347.0,-761.0,569.0,-355.0,643.0,-313.0,82.0
19:31:13.812000,331.0,39.0,-394.0,-768.0,676.0,-357.0,643.0,-313.0,82.0
19:31:13.819000,235.0,55.0,-345.0,-829.0,624.0,-360.0,637.0,-304.0,99.0
19:31:13.821000,235.0,55.0,-345.0,-829.0,624.0,-360.0,637.0,-304.0,99.0
19:31:13.825000,219.0,60.0,-300.0,-868.0,615.0,-370.0,637.0,-304.0,99.0
19:31:13.830000,201.0,60.0,-282.0,-868.0,615.0,-370.0,652.0,-307.0,85.0
19:31:13.835000,182.0,61.0,-277.0,-911.0,629.0,-370.0,652.0,-307.0,85.0
19:31:13.840000,167.0,58.0,-259.0,-917.0,616.0,-365.0,658.0,-307.0,82.0
19:31:13.845000,167.0,48.0,-253.0,-893.0,595.0,-361.0,658.0,-307.0,82.0
19:31:13.849000,170.0,32.0,-226.0,-862.0,584.0,-354.0,658.0,-307.0,82.0
19:31:13.854000,170.0,14.0,-193.0,-832.0,582.0,-344.0,655.0,-300.0,91.0
19:31:13.859000,164.0,-3.0,-194.0,-818.0,603.0,-333.0,655.0,-300.0,91.0
19:31:13.863000,157.0,-24.0,-175.0,-795.0,614.0,-321.0,649.0,-303.0,88.0
19:31:13.868000,146.0,-44.0,-154.0,-771.0,612.0,-310.0,649.0,-303.0,88.0
19:31:13.872000,146.0,-44.0,-154.0,-752.0,612.0,-302.0,649.0,-303.0,88.0
19:31:13.877000,138.0,-68.0,-142.0,-720.0,605.0,-295.0,645.0,-295.0,97.0
19:31:13.882000,138.0,-93.0,-125.0,-694.0,590.0,-285.0,645.0,-295.0,97.0
19:31:13.887000,130.0,-118.0,-89.0,-672.0,573.0,-277.0,648.0,-300.0,91.0
19:31:13.892000,123.0,-140.0,-72.0,-646.0,567.0,-272.0,648.0,-300.0,91.0
19:31:13.896000,117.0,-160.0,-72.0,-617.0,558.0,-265.0,648.0,-300.0,91.0
19:31:13.901000,103.0,-175.0,-67.0,-595.0,551.0,-260.0,655.0,-297.0,85.0
19:31:13.906000,91.0,-190.0,-50.0,-589.0,552.0,-261.0,655.0,-297.0,85.0
19:31:13.910000,75.0,-200.0,-33.0,-601.0,563.0,-265.0,649.0,-295.0,99.0
19:31:13.915000,64.0,-211.0,-28.0,-621.0,574.0,-273.0,649.0,-295.0,99.0
19:31:13.919000,44.0,-215.0,-25.0,-641.0,594.0,-282.0,649.0,-295.0,99.0
19:31:13.924000,23.0,-219.0,-36.0,-654.0,621.0,-292.0,663.0,-294.0,87.0
19:31:13.929000,1.0,-220.0,-35.0,-658.0,643.0,-297.0,663.0,-294.0,87.0
19:31:13.934000,-27.0,-218.0,-44.0,-658.0,643.0,-297.0,655.0,-288.0,88.0
19:31:13.939000,-58.0,-212.0,-58.0,-663.0,669.0,-301.0,655.0,-288.0,88.0
19:31:13.943000,-95.0,-207.0,-41.0,-654.0,666.0,-302.0,655.0,-288.0,88.0
19:31:13.948000,-122.0,-205.0,-16.0,-638.0,640.0,-301.0,658.0,-297.0,93.0
19:31:13.953000,-149.0,-204.0,12.0,-602.0,591.0,-293.0,658.0,-297.0,93.0
19:31:13.957000,-166.0,-207.0,46.0,-602.0,591.0,-293.0,667.0,-294.0,90.0
19:31:13.962000,-183.0,-211.0,92.0,-577.0,563.0,-287.0,667.0,-294.0,90.0
19:31:13.966000,-195.0,-215.0,151.0,-550.0,531.0,-277.0,667.0,-294.0,90.0
19:31:13.971000,-206.0,-221.0,217.0,-524.0,492.0,-266.0,661.0,-292.0,91.0
19:31:13.976000,-217.0,-228.0,282.0,-496.0,444.0,-250.0,661.0,-292.0,91.0
19:31:13.981000,-221.0,-238.0,342.0,-461.0,391.0,-236.0,667.0,-298.0,85.0
19:31:13.986000,-218.0,-238.0,400.0,-423.0,336.0,-225.0,667.0,-298.0,85.0
19:31:13.990000,-218.0,-249.0,400.0,-400.0,290.0,-215.0,667.0,-298.0,85.0
19:31:13.995000,-214.0,-261.0,445.0,-390.0,259.0,-209.0,669.0,-294.0,90.0
19:31:14.000000,-203.0,-270.0,471.0,-388.0,238.0,-207.0,669.0,-294.0,90.0
19:31:14.004000,-189.0,-278.0,469.0,-394.0,225.0,-206.0,655.0,-310.0,87.0
19:31:14.009000,-175.0,-285.0,450.0,-402.0,219.0,-206.0,655.0,-310.0,87.0
19:31:14.013000,-158.0,-291.0,420.0,-416.0,222.0,-207.0,655.0,-310.0,87.0
19:31:14.018000,-139.0,-296.0,377.0,-437.0,228.0,-207.0,663.0,-300.0,81.0
19:31:14.023000,-122.0,-298.0,329.0,-463.0,234.0,-206.0,663.0,-300.0,81.0
19:31:14.028000,-108.0,-297.0,273.0,-484.0,236.0,-207.0,676.0,-303.0,88.0
19:31:14.033000,-94.0,-297.0,229.0,-502.0,235.0,-207.0,676.0,-303.0,88.0
19:31:14.037000,-85.0,-295.0,193.0,-523.0,244.0,-207.0,676.0,-303.0,88.0
19:31:14.042000,-82.0,-289.0,165.0,-540.0,262.0,-207.0,660.0,-306.0,87.0
19:31:14.047000,-86.0,-280.0,147.0,-548.0,283.0,-209.0,660.0,-306.0,87.0
19:31:14.051000,-97.0,-271.0,143.0,-548.0,283.0,-209.0,669.0,-318.0,75.0
19:31:14.056000,-113.0,-261.0,154.0,-552.0,300.0,-210.0,669.0,-318.0,75.0
19:31:14.060000,-134.0,-250.0,179.0,-557.0,313.0,-210.0,669.0,-318.0,75.0
19:31:14.065000,-161.0,-237.0,213.0,-565.0,315.0,-210.0,664.0,-315.0,73.0
19:31:14.070000,-186.0,-223.0,242.0,-570.0,312.0,-208.0,664.0,-315.0,73.0
19:31:14.075000,-210.0,-210.0,270.0,-569.0,303.0,-206.0,661.0,-309.0,76.0
19:31:14.080000,-228.0,-198.0,297.0,-563.0,285.0,-201.0,661.0,-309.0,76.0
19:31:14.084000,-228.0,-198.0,297.0,-554.0,260.0,-194.0,661.0,-309.0,76.0
19:31:14.089000,-240.0,-181.0,324.0,-538.0,225.0,-187.0,675.0,-315.0,88.0
19:31:14.094000,-233.0,-175.0,328.0,-521.0,183.0,-178.0,675.0,-315.0,88.0
19:31:14.098000,-233.0,-175.0,328.0,-507.0,141.0,-167.0,670.0,-315.0,73.0
19:31:14.103000,-211.0,-175.0,327.0,-498.0,102.0,-157.0,670.0,-315.0,73.0
19:31:14.107000,-182.0,-178.0,322.0,-498.0,75.0,-147.0,670.0,-315.0,73.0
19:31:14.112000,-147.0,-182.0,306.0,-505.0,61.0,-138.0,669.0,-321.0,72.0
19:31:14.117000,-106.0,-188.0,281.0,-515.0,57.0,-129.0,669.0,-321.0,72.0
19:31:14.122000,-67.0,-193.0,255.0,-527.0,58.0,-121.0,673.0,-330.0,79.0
19:31:14.127000,-33.0,-196.0,241.0,-543.0,70.0,-117.0,673.0,-330.0,79.0
19:31:14.131000,-7.0,-200.0,234.0,-566.0,98.0,-115.0,673.0,-330.0,79.0
19:31:14.136000,10.0,-200.0,231.0,-589.0,133.0,-111.0,678.0,-330.0,72.0
19:31:14.141000,17.0,-196.0,231.0,-606.0,166.0,-109.0,678.0,-330.0,72.0
19:31:14.145000,20.0,-193.0,231.0,-606.0,184.0,-108.0,667.0,-327.0,75.0
19:31:14.150000,19.0,-190.0,238.0,-617.0,190.0,-106.0,667.0,-327.0,75.0
19:31:14.154000,17.0,-189.0,249.0,-617.0,192.0,-104.0,667.0,-327.0,75.0
19:31:14.159000,16.0,-187.0,263.0,-617.0,192.0,-104.0,676.0,-334.0,69.0
19:31:14.164000,19.0,-188.0,276.0,-613.0,187.0,-101.0,676.0,-334.0,69.0
19:31:14.169000,21.0,-187.0,294.0,-605.0,178.0,-99.0,664.0,-334.0,67.0
19:31:14.174000,27.0,-189.0,316.0,-597.0,168.0,-98.0,664.0,-334.0,67.0
19:31:14.178000,30.0,-189.0,340.0,-606.0,166.0,-94.0,661.0,-345.0,91.0
19:31:14.183000,30.0,-184.0,356.0,-606.0,166.0,-94.0,661.0,-345.0,91.0
19:31:14.187000,24.0,-176.0,366.0,-617.0,172.0,-89.0,661.0,-345.0,91.0
19:31:14.192000,16.0,-165.0,377.0,-617.0,165.0,-82.0,678.0,-342.0,66.0
19:31:14.197000,13.0,-158.0,387.0,-603.0,139.0,-78.0,678.0,-342.0,66.0
19:31:14.202000,14.0,-149.0,381.0,-586.0,118.0,-80.0,672.0,-339.0,66.0
19:31:14.206000,14.0,-149.0,381.0,-580.0,116.0,-86.0,672.0,-339.0,66.0
19:31:14.211000,17.0,-137.0,357.0,-584.0,128.0,-91.0,672.0,-339.0,66.0
19:31:14.216000,18.0,-126.0,323.0,-591.0,138.0,-95.0,673.0,-352.0,70.0
19:31:14.221000,23.0,-116.0,289.0,-599.0,138.0,-100.0,673.0,-352.0,70.0
19:31:14.225000,32.0,-107.0,255.0,-607.0,133.0,-106.0,664.0,-352.0,58.0
19:31:14.230000,49.0,-100.0,219.0,-612.0,132.0,-111.0,664.0,-352.0,58.0
19:31:14.234000,69.0,-97.0,184.0,-615.0,144.0,-116.0,664.0,-352.0,58.0
19:31:14.239000,85.0,-93.0,155.0,-614.0,165.0,-117.0,669.0,-357.0,60.0
19:31:14.244000,94.0,-88.0,140.0,-610.0,186.0,-114.0,669.0,-357.0,60.0
19:31:14.249000,95.0,-82.0,141.0,-605.0,203.0,-110.0,666.0,-355.0,55.0
19:31:14.253000,91.0,-76.0,149.0,-602.0,218.0,-109.0,666.0,-355.0,55.0
19:31:14.258000,78.0,-65.0,161.0,-604.0,227.0,-109.0,666.0,-355.0,55.0
19:31:14.263000,60.0,-55.0,177.0,-615.0,243.0,-111.0,673.0,-357.0,63.0
19:31:14.268000,43.0,-44.0,178.0,-615.0,243.0,-111.0,673.0,-357.0,63.0
19:31:14.272000,20.0,-33.0,168.0,-630.0,269.0,-112.0,673.0,-370.0,66.0
19:31:14.277000,-3.0,-19.0,170.0,-630.0,269.0,-112.0,673.0,-370.0,66.0
19:31:14.281000,-21.0,-5.0,173.0,-628.0,256.0,-111.0,673.0,-370.0,66.0
19:31:14.286000,-35.0,7.0,163.0,-630.0,249.0,-113.0,675.0,-364.0,58.0
19:31:14.291000,-46.0,18.0,144.0,-633.0,247.0,-120.0,675.0,-364.0,58.0
19:31:14.296000,-53.0,30.0,127.0,-634.0,243.0,-128.0,666.0,-370.0,60.0
19:31:14.300000,-57.0,42.0,109.0,-636.0,238.0,-135.0,666.0,-370.0,60.0
19:31:14.305000,-57.0,42.0,109.0,-636.0,230.0,-142.0,666.0,-370.0,60.0
19:31:14.310000,-54.0,58.0,92.0,-631.0,217.0,-147.0,670.0,-373.0,55.0
19:31:14.315000,-54.0,58.0,92.0,-624.0,202.0,-150.0,670.0,-373.0,55.0
19:31:14.319000,-44.0,62.0,91.0,-616.0,192.0,-152.0,670.0,-369.0,81.0
19:31:14.324000,-32.0,65.0,88.0,-614.0,189.0,-154.0,670.0,-369.0,81.0
19:31:14.328000,-17.0,67.0,87.0,-616.0,188.0,-158.0,670.0,-369.0,81.0
19:31:14.333000,-1.0,66.0,90.0,-625.0,189.0,-167.0,673.0,-375.0,63.0
19:31:14.338000,16.0,66.0,93.0,-644.0,194.0,-175.0,673.0,-375.0,63.0
19:31:14.343000,33.0,67.0,89.0,-668.0,198.0,-181.0,670.0,-384.0,66.0
19:31:14.347000,51.0,70.0,89.0,-688.0,197.0,-185.0,670.0,-384.0,66.0
19:31:14.352000,67.0,73.0,95.0,-701.0,199.0,-189.0,670.0,-384.0,66.0
19:31:14.357000,82.0,74.0,103.0,-710.0,210.0,-192.0,678.0,-364.0,75.0
19:31:14.362000,94.0,76.0,107.0,-715.0,229.0,-194.0,678.0,-364.0,75.0
19:31:14.366000,100.0,81.0,109.0,-715.0,229.0,-194.0,669.0,-381.0,58.0
19:31:14.380000,65.0,99.0,98.0,-743.0,336.0,-195.0,658.0,-381.0,82.0
19:31:14.384000,43.0,106.0,95.0,-748.0,352.0,-194.0,658.0,-381.0,82.0
19:31:14.390000,22.0,109.0,89.0,-749.0,356.0,-195.0,658.0,-381.0,82.0
19:31:14.394000,4.0,110.0,76.0,-744.0,359.0,-199.0,658.0,-381.0,82.0
19:31:14.399000,-11.0,109.0,55.0,-743.0,373.0,-207.0,672.0,-388.0,67.0
19:31:14.404000,-30.0,109.0,32.0,-753.0,396.0,-215.0,672.0,-388.0,67.0
19:31:14.408000,-50.0,108.0,11.0,-768.0,420.0,-222.0,672.0,-388.0,67.0
19:31:14.413000,-76.0,108.0,1.0,-781.0,438.0,-228.0,678.0,-382.0,69.0
19:31:14.418000,-99.0,107.0,0.0,-785.0,443.0,-236.0,678.0,-382.0,69.0
19:31:14.423000,-121.0,103.0,4.0,-781.0,439.0,-244.0,667.0,-400.0,73.0
19:31:14.427000,-121.0,103.0,4.0,-778.0,432.0,-254.0,667.0,-400.0,73.0
19:31:14.431000,-140.0,99.0,11.0,-788.0,425.0,-266.0,667.0,-400.0,73.0
19:31:14.437000,-153.0,96.0,21.0,-810.0,421.0,-279.0,661.0,-390.0,75.0
19:31:14.441000,-163.0,98.0,35.0,-843.0,414.0,-291.0,661.0,-390.0,75.0
19:31:14.446000,-172.0,99.0,54.0,-881.0,398.0,-302.0,675.0,-393.0,75.0
19:31:14.451000,-178.0,100.0,81.0,-915.0,372.0,-311.0,675.0,-393.0,75.0
19:31:14.455000,-179.0,102.0,110.0,-938.0,344.0,-321.0,675.0,-393.0,75.0
19:31:14.460000,-176.0,102.0,137.0,-951.0,325.0,-330.0,676.0,-393.0,69.0
19:31:14.465000,-166.0,101.0,154.0,-959.0,321.0,-334.0,676.0,-393.0,69.0
19:31:14.470000,-156.0,98.0,151.0,-959.0,319.0,-340.0,669.0,-400.0,75.0
19:31:14.474000,-141.0,89.0,145.0,-957.0,306.0,-346.0,669.0,-400.0,75.0
19:31:14.478000,-125.0,75.0,147.0,-965.0,294.0,-349.0,669.0,-400.0,75.0
19:31:14.484000,-109.0,60.0,149.0,-968.0,288.0,-353.0,664.0,-399.0,76.0
19:31:14.488000,-94.0,42.0,150.0,-968.0,288.0,-353.0,664.0,-399.0,76.0
19:31:14.493000,-78.0,22.0,137.0,-961.0,293.0,-359.0,676.0,-391.0,76.0
19:31:14.498000,-63.0,1.0,107.0,-950.0,323.0,-364.0,676.0,-391.0,76.0
19:31:14.502000,-53.0,-21.0,67.0,-937.0,370.0,-368.0,676.0,-391.0,76.0
19:31:14.507000,-49.0,-42.0,23.0,-926.0,418.0,-369.0,675.0,-405.0,72.0
19:31:14.512000,-41.0,-63.0,-16.0,-923.0,450.0,-368.0,675.0,-405.0,72.0
19:31:14.517000,-34.0,-78.0,-61.0,-930.0,474.0,-369.0,678.0,-409.0,75.0
19:31:14.521000,-35.0,-83.0,-102.0,-933.0,508.0,-368.0,678.0,-409.0,75.0
19:31:14.525000,-35.0,-83.0,-102.0,-935.0,549.0,-369.0,678.0,-409.0,75.0
19:31:14.531000,-30.0,-77.0,-195.0,-960.0,591.0,-378.0,667.0,-409.0,88.0
19:31:14.535000,-30.0,-77.0,-195.0,-972.0,630.0,-383.0,667.0,-409.0,88.0
19:31:14.540000,-32.0,-72.0,-249.0,-934.0,655.0,-384.0,666.0,-408.0,72.0
19:31:14.545000,-26.0,-71.0,-278.0,-880.0,665.0,-382.0,666.0,-408.0,72.0
19:31:14.549000,-8.0,-79.0,-285.0,-821.0,671.0,-371.0,666.0,-408.0,72.0
19:31:14.554000,11.0,-91.0,-283.0,-762.0,705.0,-361.0,663.0,-396.0,78.0
19:31:14.559000,35.0,-108.0,-290.0,-715.0,757.0,-347.0,663.0,-396.0,78.0
19:31:14.563000,49.0,-128.0,-294.0,-678.0,808.0,-337.0,660.0,-403.0,67.0
19:31:14.568000,56.0,-154.0,-280.0,-674.0,869.0,-339.0,660.0,-403.0,67.0
19:31:14.572000,61.0,-172.0,-254.0,-710.0,935.0,-339.0,660.0,-403.0,67.0
19:31:14.578000,40.0,-175.0,-223.0,-765.0,926.0,-328.0,664.0,-397.0,72.0
19:31:14.582000,23.0,-180.0,-149.0,-815.0,805.0,-307.0,664.0,-397.0,72.0
19:31:14.587000,35.0,-190.0,-55.0,-815.0,805.0,-307.0,667.0,-406.0,63.0
19:31:14.592000,17.0,-184.0,76.0,-838.0,675.0,-310.0,667.0,-406.0,63.0
19:31:14.596000,-4.0,-168.0,329.0,-838.0,675.0,-310.0,667.0,-406.0,63.0
19:31:14.601000,16.0,-164.0,347.0,-932.0,840.0,-312.0,664.0,-405.0,67.0
19:31:14.606000,60.0,-176.0,168.0,-1016.0,1060.0,-318.0,664.0,-405.0,67.0
19:31:14.610000,16.0,-90.0,-113.0,-627.0,954.0,-304.0,648.0,-403.0,81.0
19:31:14.615000,42.0,-102.0,-193.0,-627.0,954.0,-304.0,648.0,-403.0,81.0
19:31:14.619000,36.0,-113.0,-160.0,-583.0,871.0,-257.0,648.0,-403.0,81.0
19:31:14.625000,6.0,-100.0,-36.0,-664.0,869.0,-223.0,654.0,-414.0,69.0
19:31:14.629000,0.0,-63.0,-1.0,-726.0,921.0,-248.0,654.0,-414.0,69.0
19:31:14.634000,34.0,-42.0,-37.0,-746.0,967.0,-294.0,679.0,-406.0,67.0
19:31:14.639000,12.0,-43.0,-59.0,-706.0,961.0,-284.0,679.0,-406.0,67.0
19:31:14.643000,12.0,-43.0,-59.0,-731.0,954.0,-275.0,679.0,-406.0,67.0
19:31:14.648000,2.0,-42.0,-85.0,-852.0,951.0,-293.0,664.0,-408.0,61.0
19:31:14.653000,-10.0,-39.0,-88.0,-934.0,907.0,-314.0,664.0,-408.0,61.0
19:31:14.657000,-16.0,-31.0,-60.0,-951.0,852.0,-323.0,667.0,-417.0,67.0
19:31:14.662000,-14.0,-31.0,-34.0,-956.0,838.0,-326.0,667.0,-417.0,67.0
19:31:14.666000,-15.0,-28.0,-5.0,-958.0,842.0,-345.0,667.0,-417.0,67.0
19:31:14.672000,-15.0,-20.0,49.0,-968.0,839.0,-350.0,649.0,-409.0,58.0
19:31:14.676000,-11.0,-13.0,101.0,-968.0,824.0,-348.0,649.0,-409.0,58.0
19:31:14.681000,-13.0,-1.0,140.0,-950.0,828.0,-345.0,660.0,-414.0,61.0
19:31:14.686000,-14.0,7.0,146.0,-922.0,819.0,-333.0,660.0,-414.0,61.0
19:31:14.690000,-16.0,9.0,153.0,-880.0,738.0,-319.0,660.0,-414.0,61.0
19:31:14.695000,-6.0,7.0,172.0,-856.0,660.0,-310.0,669.0,-417.0,73.0
19:31:14.700000,11.0,1.0,181.0,-865.0,632.0,-295.0,669.0,-417.0,73.0
19:31:14.704000,25.0,-2.0,171.0,-884.0,607.0,-280.0,660.0,-426.0,60.0
19:31:14.709000,31.0,-6.0,158.0,-884.0,607.0,-280.0,660.0,-426.0,60.0
19:31:14.713000,35.0,-9.0,177.0,-883.0,547.0,-268.0,660.0,-426.0,60.0
19:31:14.719000,30.0,-13.0,210.0,-873.0,487.0,-253.0,666.0,-424.0,64.0
19:31:14.723000,22.0,-20.0,228.0,-877.0,460.0,-236.0,666.0,-424.0,64.0
19:31:14.728000,7.0,-21.0,219.0,-883.0,440.0,-221.0,655.0,-430.0,67.0
19:31:14.733000,-11.0,-19.0,182.0,-896.0,420.0,-206.0,655.0,-430.0,67.0
19:31:14.737000,-36.0,-14.0,158.0,-900.0,377.0,-181.0,655.0,-430.0,67.0
19:31:14.742000,-49.0,-7.0,153.0,-866.0,303.0,-161.0,666.0,-438.0,67.0
19:31:14.747000,-57.0,-6.0,137.0,-836.0,252.0,-137.0,666.0,-438.0,67.0
19:31:14.751000,-57.0,-6.0,137.0,-857.0,196.0,-107.0,658.0,-447.0,91.0
19:31:14.756000,-59.0,-6.0,98.0,-821.0,84.0,-102.0,658.0,-447.0,91.0
19:31:14.760000,-30.0,-8.0,153.0,-721.0,6.0,-99.0,658.0,-447.0,91.0
19:31:14.766000,-8.0,-9.0,178.0,-705.0,55.0,-100.0,664.0,-448.0,52.0
19:31:14.770000,35.0,-11.0,54.0,-761.0,132.0,-111.0,664.0,-448.0,52.0
19:31:14.775000,55.0,-8.0,-61.0,-856.0,142.0,-123.0,667.0,-448.0,67.0
19:31:14.780000,69.0,4.0,-113.0,-960.0,128.0,-153.0,667.0,-448.0,67.0
19:31:14.784000,79.0,24.0,-124.0,-1039.0,144.0,-173.0,667.0,-448.0,67.0
19:31:14.789000,86.0,48.0,-144.0,-1131.0,199.0,-179.0,655.0,-448.0,57.0
19:31:14.794000,95.0,72.0,-185.0,-1221.0,256.0,-188.0,655.0,-448.0,57.0
19:31:14.798000,89.0,98.0,-251.0,-1231.0,274.0,-205.0,664.0,-456.0,64.0
19:31:14.803000,72.0,124.0,-321.0,-1179.0,260.0,-206.0,664.0,-456.0,64.0
19:31:14.807000,80.0,129.0,-368.0,-1125.0,237.0,-208.0,664.0,-456.0,64.0
19:31:14.813000,84.0,133.0,-361.0,-1106.0,255.0,-229.0,663.0,-454.0,66.0
19:31:14.817000,95.0,137.0,-369.0,-1106.0,255.0,-229.0,663.0,-454.0,66.0
19:31:14.822000,80.0,158.0,-390.0,-1114.0,336.0,-249.0,666.0,-450.0,72.0
19:31:14.827000,60.0,177.0,-371.0,-1136.0,405.0,-254.0,666.0,-450.0,72.0
19:31:14.831000,62.0,197.0,-355.0,-1166.0,424.0,-263.0,666.0,-450.0,72.0
19:31:14.836000,64.0,222.0,-363.0,-1181.0,430.0,-292.0,684.0,-451.0,69.0
19:31:14.841000,65.0,247.0,-369.0,-1215.0,432.0,-310.0,684.0,-451.0,69.0
19:31:14.845000,64.0,280.0,-392.0,-1285.0,435.0,-325.0,670.0,-451.0,72.0
19:31:14.850000,72.0,306.0,-403.0,-1291.0,437.0,-341.0,670.0,-451.0,72.0
19:31:14.854000,72.0,306.0,-403.0,-1205.0,408.0,-347.0,670.0,-451.0,72.0
19:31:14.860000,119.0,308.0,-366.0,-1147.0,367.0,-349.0,676.0,-450.0,81.0
19:31:14.864000,119.0,308.0,-366.0,-1152.0,369.0,-364.0,676.0,-450.0,81.0
19:31:14.869000,137.0,324.0,-357.0,-1074.0,349.0,-391.0,666.0,-454.0,85.0
19:31:14.874000,185.0,322.0,-345.0,-914.0,285.0,-395.0,666.0,-454.0,85.0
19:31:14.878000,236.0,295.0,-391.0,-912.0,286.0,-377.0,666.0,-454.0,85.0
19:31:14.883000,252.0,282.0,-514.0,-1054.0,333.0,-362.0,678.0,-459.0,84.0
19:31:14.888000,269.0,266.0,-570.0,-1108.0,292.0,-340.0,678.0,-459.0,84.0
19:31:14.892000,272.0,251.0,-492.0,-1091.0,238.0,-292.0,682.0,-444.0,109.0
19:31:14.897000,296.0,207.0,-410.0,-1100.0,288.0,-285.0,682.0,-444.0,109.0
19:31:14.901000,301.0,197.0,-384.0,-1125.0,382.0,-320.0,682.0,-444.0,109.0
19:31:14.907000,298.0,189.0,-410.0,-1143.0,422.0,-329.0,681.0,-462.0,87.0
19:31:14.911000,327.0,159.0,-457.0,-1085.0,300.0,-299.0,681.0,-462.0,87.0
19:31:14.916000,347.0,111.0,-392.0,-1085.0,300.0,-299.0,679.0,-447.0,96.0
19:31:14.921000,362.0,76.0,-308.0,-1181.0,290.0,-248.0,679.0,-447.0,96.0
19:31:14.925000,356.0,62.0,-281.0,-1181.0,290.0,-248.0,679.0,-447.0,96.0
19:31:14.930000,345.0,31.0,-253.0,-1202.0,398.0,-238.0,679.0,-442.0,94.0
19:31:14.934000,319.0,-9.0,-224.0,-902.0,372.0,-255.0,679.0,-442.0,94.0
19:31:14.940000,294.0,-60.0,-214.0,-902.0,372.0,-255.0,685.0,-447.0,100.0
19:31:14.944000,219.0,-78.0,-278.0,-819.0,438.0,-260.0,685.0,-447.0,100.0
19:31:14.949000,131.0,-40.0,-361.0,-796.0,577.0,-282.0,685.0,-447.0,88.0
19:31:14.954000,48.0,40.0,-391.0,-821.0,689.0,-371.0,685.0,-447.0,88.0
19:31:14.958000,-39.0,109.0,-389.0,-962.0,751.0,-466.0,685.0,-447.0,88.0
19:31:14.963000,-128.0,170.0,-384.0,-1226.0,739.0,-497.0,688.0,-448.0,87.0
19:31:14.968000,-129.0,190.0,-350.0,-1505.0,660.0,-484.0,688.0,-448.0,87.0
19:31:14.973000,-129.0,190.0,-350.0,-1705.0,548.0,-496.0,682.0,-457.0,87.0
19:31:14.977000,-69.0,158.0,-301.0,-1840.0,454.0,-493.0,682.0,-457.0,87.0
19:31:14.981000,11.0,98.0,-294.0,-1894.0,425.0,-457.0,682.0,-457.0,87.0
19:31:14.987000,107.0,56.0,-325.0,-1792.0,381.0,-419.0,675.0,-450.0,102.0
19:31:14.991000,179.0,21.0,-287.0,-1609.0,262.0,-382.0,675.0,-450.0,102.0
19:31:14.996000,249.0,-23.0,-157.0,-1511.0,156.0,-344.0,703.0,-448.0,99.0
19:31:15.001000,291.0,-55.0,-23.0,-1519.0,149.0,-318.0,703.0,-448.0,99.0
19:31:15.005000,291.0,-58.0,115.0,-1504.0,194.0,-312.0,703.0,-448.0,99.0
19:31:15.010000,255.0,-27.0,288.0,-1426.0,206.0,-301.0,700.0,-453.0,94.0
19:31:15.015000,208.0,1.0,420.0,-1381.0,198.0,-299.0,700.0,-453.0,94.0
19:31:15.020000,163.0,48.0,395.0,-1390.0,178.0,-296.0,702.0,-460.0,96.0
19:31:15.024000,131.0,99.0,267.0,-1383.0,121.0,-282.0,702.0,-460.0,96.0
19:31:15.028000,116.0,159.0,123.0,-1375.0,61.0,-264.0,702.0,-460.0,96.0
19:31:15.034000,126.0,211.0,-32.0,-1375.0,-5.0,-247.0,699.0,-465.0,111.0
19:31:15.038000,144.0,275.0,-172.0,-1393.0,-5.0,-247.0,699.0,-465.0,111.0
19:31:15.043000,179.0,336.0,-319.0,-1389.0,-66.0,-254.0,696.0,-465.0,100.0
19:31:15.048000,201.0,406.0,-482.0,-1392.0,-69.0,-263.0,696.0,-465.0,100.0
19:31:15.052000,228.0,473.0,-620.0,-1396.0,-75.0,-252.0,696.0,-465.0,100.0
19:31:15.057000,284.0,512.0,-693.0,-1306.0,-149.0,-242.0,714.0,-451.0,108.0
19:31:15.062000,345.0,544.0,-766.0,-1180.0,-149.0,-246.0,714.0,-451.0,108.0
19:31:15.067000,378.0,589.0,-859.0,-1134.0,5.0,-241.0,717.0,-445.0,111.0
19:31:15.071000,409.0,618.0,-916.0,-1104.0,138.0,-232.0,717.0,-445.0,111.0
19:31:15.075000,409.0,618.0,-916.0,-1001.0,161.0,-240.0,717.0,-445.0,111.0
19:31:15.081000,458.0,646.0,-881.0,-913.0,219.0,-249.0,699.0,-448.0,117.0
19:31:15.085000,458.0,646.0,-881.0,-912.0,360.0,-243.0,699.0,-448.0,117.0
19:31:15.090000,455.0,667.0,-896.0,-897.0,434.0,-227.0,720.0,-438.0,120.0
19:31:15.095000,459.0,670.0,-884.0,-828.0,424.0,-233.0,720.0,-438.0,120.0
19:31:15.099000,477.0,665.0,-841.0,-808.0,464.0,-248.0,720.0,-438.0,120.0
19:31:15.104000,481.0,669.0,-828.0,-860.0,540.0,-218.0,715.0,-430.0,129.0
19:31:15.109000,473.0,682.0,-826.0,-880.0,507.0,-184.0,715.0,-430.0,129.0
19:31:15.113000,474.0,686.0,-767.0,-837.0,397.0,-191.0,727.0,-414.0,165.0
19:31:15.118000,499.0,668.0,-683.0,-816.0,391.0,-209.0,727.0,-414.0,165.0
19:31:15.123000,522.0,656.0,-668.0,-849.0,500.0,-189.0,727.0,-414.0,165.0
19:31:15.128000,504.0,666.0,-695.0,-818.0,517.0,-171.0,727.0,-414.0,165.0
19:31:15.132000,506.0,666.0,-630.0,-708.0,419.0,-177.0,727.0,-414.0,165.0
19:31:15.137000,517.0,657.0,-518.0,-652.0,404.0,-172.0,730.0,-405.0,165.0
19:31:15.142000,527.0,653.0,-488.0,-647.0,484.0,-168.0,730.0,-405.0,165.0
19:31:15.146000,532.0,655.0,-515.0,-647.0,484.0,-168.0,724.0,-403.0,159.0
19:31:15.151000,539.0,654.0,-519.0,-620.0,535.0,-174.0,724.0,-403.0,159.0
19:31:15.155000,541.0,659.0,-518.0,-597.0,559.0,-185.0,724.0,-403.0,159.0
19:31:15.161000,528.0,677.0,-526.0,-625.0,600.0,-187.0,730.0,-391.0,163.0
19:31:15.165000,522.0,695.0,-515.0,-664.0,605.0,-192.0,730.0,-391.0,163.0
19:31:15.170000,524.0,711.0,-494.0,-684.0,560.0,-207.0,738.0,-390.0,172.0
19:31:15.175000,524.0,728.0,-497.0,-711.0,543.0,-223.0,738.0,-390.0,172.0
19:31:15.179000,524.0,728.0,-497.0,-744.0,571.0,-236.0,738.0,-390.0,172.0
19:31:15.184000,506.0,770.0,-505.0,-762.0,593.0,-238.0,730.0,-385.0,178.0
19:31:15.189000,496.0,791.0,-465.0,-755.0,571.0,-236.0,730.0,-385.0,178.0
19:31:15.193000,496.0,791.0,-465.0,-734.0,524.0,-241.0,729.0,-387.0,190.0
19:31:15.198000,497.0,805.0,-421.0,-719.0,502.0,-253.0,729.0,-387.0,190.0
19:31:15.202000,505.0,812.0,-405.0,-720.0,529.0,-267.0,729.0,-387.0,190.0
19:31:15.208000,509.0,815.0,-413.0,-729.0,580.0,-276.0,727.0,-373.0,222.0
19:31:15.212000,501.0,816.0,-413.0,-726.0,608.0,-281.0,727.0,-373.0,222.0
19:31:15.217000,487.0,817.0,-378.0,-708.0,603.0,-287.0,739.0,-363.0,208.0
19:31:15.222000,475.0,815.0,-322.0,-693.0,590.0,-295.0,739.0,-363.0,208.0
19:31:15.226000,462.0,812.0,-280.0,-678.0,586.0,-302.0,739.0,-363.0,208.0
19:31:15.231000,450.0,804.0,-256.0,-654.0,585.0,-308.0,738.0,-357.0,210.0
19:31:15.236000,440.0,794.0,-239.0,-625.0,579.0,-312.0,738.0,-357.0,210.0
19:31:15.240000,432.0,781.0,-221.0,-597.0,566.0,-315.0,750.0,-358.0,225.0
19:31:15.245000,430.0,767.0,-200.0,-575.0,547.0,-318.0,750.0,-358.0,225.0
19:31:15.252000,448.0,730.0,-182.0,-562.0,528.0,-320.0,756.0,-364.0,238.0
19:31:15.255000,448.0,730.0,-182.0,-562.0,528.0,-320.0,756.0,-364.0,238.0
19:31:15.259000,465.0,711.0,-191.0,-560.0,518.0,-321.0,756.0,-364.0,238.0
19:31:15.264000,483.0,693.0,-198.0,-557.0,510.0,-321.0,739.0,-351.0,235.0
19:31:15.269000,504.0,676.0,-196.0,-547.0,499.0,-322.0,739.0,-351.0,235.0
19:31:15.273000,524.0,660.0,-193.0,-538.0,495.0,-321.0,748.0,-339.0,246.0
19:31:15.278000,546.0,647.0,-189.0,-535.0,498.0,-322.0,748.0,-339.0,246.0
19:31:15.282000,569.0,639.0,-189.0,-541.0,506.0,-325.0,748.0,-339.0,246.0
19:31:15.287000,585.0,634.0,-192.0,-559.0,518.0,-320.0,741.0,-346.0,253.0
19:31:15.292000,597.0,634.0,-180.0,-569.0,516.0,-307.0,741.0,-346.0,253.0
19:31:15.297000,623.0,627.0,-154.0,-546.0,483.0,-302.0,730.0,-337.0,258.0
19:31:15.302000,623.0,627.0,-154.0,-522.0,466.0,-304.0,730.0,-337.0,258.0
19:31:15.306000,651.0,620.0,-147.0,-527.0,502.0,-299.0,730.0,-337.0,258.0
19:31:15.311000,669.0,620.0,-162.0,-534.0,541.0,-290.0,739.0,-331.0,250.0
19:31:15.316000,680.0,622.0,-167.0,-521.0,542.0,-285.0,739.0,-331.0,250.0
19:31:15.320000,693.0,621.0,-151.0,-510.0,537.0,-282.0,742.0,-325.0,258.0
19:31:15.325000,706.0,621.0,-144.0,-513.0,557.0,-280.0,742.0,-325.0,258.0
19:31:15.329000,716.0,623.0,-155.0,-516.0,588.0,-277.0,742.0,-325.0,258.0
19:31:15.334000,720.0,626.0,-172.0,-507.0,610.0,-273.0,735.0,-331.0,267.0
19:31:15.339000,721.0,630.0,-180.0,-495.0,628.0,-271.0,735.0,-331.0,267.0
19:31:15.344000,720.0,634.0,-187.0,-491.0,648.0,-267.0,735.0,-321.0,270.0
19:31:15.348000,714.0,641.0,-198.0,-487.0,662.0,-263.0,735.0,-321.0,270.0
19:31:15.353000,710.0,648.0,-210.0,-482.0,668.0,-260.0,735.0,-321.0,270.0
19:31:15.358000,707.0,655.0,-217.0,-481.0,671.0,-260.0,732.0,-319.0,288.0
19:31:15.363000,704.0,662.0,-224.0,-481.0,680.0,-259.0,732.0,-319.0,288.0
19:31:15.367000,702.0,669.0,-226.0,-484.0,680.0,-259.0,738.0,-313.0,292.0
19:31:15.372000,702.0,675.0,-223.0,-489.0,690.0,-256.0,738.0,-313.0,292.0
19:31:15.376000,702.0,682.0,-214.0,-494.0,699.0,-256.0,738.0,-313.0,292.0
19:31:15.381000,699.0,689.0,-206.0,-500.0,713.0,-256.0,732.0,-304.0,289.0
19:31:15.386000,693.0,698.0,-196.0,-503.0,731.0,-255.0,732.0,-304.0,289.0
19:31:15.391000,683.0,706.0,-175.0,-499.0,745.0,-253.0,732.0,-304.0,301.0
19:31:15.395000,671.0,714.0,-147.0,-489.0,755.0,-252.0,732.0,-304.0,301.0
19:31:15.400000,671.0,714.0,-147.0,-481.0,761.0,-253.0,732.0,-304.0,301.0
19:31:15.405000,641.0,727.0,-79.0,-477.0,765.0,-255.0,736.0,-301.0,303.0
19:31:15.410000,625.0,731.0,-42.0,-471.0,768.0,-255.0,736.0,-301.0,303.0
19:31:15.414000,625.0,731.0,-42.0,-462.0,769.0,-255.0,726.0,-295.0,313.0
19:31:15.419000,610.0,736.0,-9.0,-450.0,765.0,-254.0,726.0,-295.0,313.0
19:31:15.423000,596.0,739.0,23.0,-431.0,751.0,-255.0,726.0,-295.0,313.0
19:31:15.428000,586.0,741.0,53.0,-414.0,734.0,-258.0,730.0,-301.0,327.0
19:31:15.433000,580.0,744.0,82.0,-404.0,719.0,-261.0,730.0,-301.0,327.0
19:31:15.438000,573.0,745.0,110.0,-399.0,707.0,-265.0,715.0,-288.0,318.0
19:31:15.442000,568.0,747.0,137.0,-398.0,697.0,-268.0,715.0,-288.0,318.0
19:31:15.447000,563.0,750.0,164.0,-399.0,690.0,-270.0,715.0,-288.0,318.0
19:31:15.452000,558.0,753.0,183.0,-397.0,684.0,-271.0,729.0,-292.0,330.0
19:31:15.457000,558.0,758.0,192.0,-392.0,675.0,-273.0,729.0,-292.0,330.0
19:31:15.461000,562.0,764.0,193.0,-392.0,675.0,-273.0,727.0,-289.0,327.0
19:31:15.466000,570.0,769.0,189.0,-388.0,662.0,-278.0,727.0,-289.0,327.0
19:31:15.470000,583.0,774.0,179.0,-393.0,663.0,-282.0,727.0,-289.0,327.0
19:31:15.475000,600.0,781.0,165.0,-393.0,663.0,-282.0,733.0,-291.0,340.0
19:31:15.480000,620.0,791.0,148.0,-409.0,672.0,-289.0,733.0,-291.0,340.0
19:31:15.485000,637.0,801.0,128.0,-432.0,691.0,-295.0,715.0,-291.0,340.0
19:31:15.489000,655.0,815.0,114.0,-452.0,706.0,-297.0,715.0,-291.0,340.0
19:31:15.494000,674.0,828.0,112.0,-457.0,703.0,-294.0,715.0,-291.0,340.0
19:31:15.499000,699.0,839.0,113.0,-446.0,686.0,-290.0,718.0,-291.0,349.0
19:31:15.504000,728.0,848.0,116.0,-429.0,668.0,-287.0,718.0,-291.0,349.0
19:31:15.508000,760.0,858.0,117.0,-418.0,663.0,-286.0,708.0,-288.0,360.0
19:31:15.513000,791.0,870.0,123.0,-416.0,670.0,-287.0,708.0,-288.0,360.0
19:31:15.520000,820.0,886.0,132.0,-441.0,694.0,-293.0,700.0,-295.0,369.0
19:31:15.522000,820.0,886.0,132.0,-441.0,694.0,-293.0,700.0,-295.0,369.0
19:31:15.526000,849.0,905.0,144.0,-462.0,706.0,-294.0,700.0,-295.0,369.0
19:31:15.532000,879.0,928.0,157.0,-482.0,711.0,-293.0,706.0,-283.0,372.0
19:31:15.536000,913.0,952.0,172.0,-496.0,708.0,-293.0,706.0,-283.0,372.0
19:31:15.541000,950.0,982.0,193.0,-510.0,707.0,-290.0,700.0,-285.0,366.0
19:31:15.546000,991.0,1014.0,216.0,-524.0,706.0,-282.0,700.0,-285.0,366.0
19:31:15.550000,1035.0,1048.0,243.0,-536.0,704.0,-270.0,700.0,-285.0,366.0
19:31:15.555000,1080.0,1085.0,279.0,-545.0,701.0,-257.0,693.0,-268.0,375.0
19:31:15.560000,1128.0,1127.0,318.0,-553.0,701.0,-238.0,693.0,-268.0,375.0
19:31:15.565000,1180.0,1171.0,356.0,-564.0,699.0,-216.0,699.0,-282.0,378.0
19:31:15.569000,1234.0,1218.0,393.0,-573.0,691.0,-193.0,699.0,-282.0,378.0
19:31:15.573000,1294.0,1267.0,434.0,-581.0,676.0,-169.0,699.0,-282.0,378.0
19:31:15.579000,1357.0,1318.0,480.0,-593.0,663.0,-145.0,681.0,-274.0,402.0
19:31:15.583000,1421.0,1369.0,528.0,-593.0,663.0,-145.0,681.0,-274.0,402.0
19:31:15.588000,1483.0,1422.0,576.0,-610.0,660.0,-120.0,688.0,-273.0,406.0
19:31:15.593000,1542.0,1476.0,625.0,-626.0,666.0,-94.0,688.0,-273.0,406.0
19:31:15.597000,1596.0,1528.0,675.0,-638.0,680.0,-68.0,688.0,-273.0,406.0
19:31:15.602000,1645.0,1582.0,721.0,-645.0,700.0,-42.0,679.0,-276.0,409.0
19:31:15.607000,1688.0,1637.0,762.0,-650.0,728.0,-18.0,679.0,-276.0,409.0
19:31:15.612000,1726.0,1691.0,800.0,-655.0,759.0,2.0,678.0,-276.0,438.0
19:31:15.616000,1759.0,1748.0,836.0,-660.0,784.0,20.0,678.0,-276.0,438.0
19:31:15.620000,1759.0,1748.0,836.0,-666.0,800.0,35.0,678.0,-276.0,438.0
19:31:15.626000,1820.0,1863.0,913.0,-674.0,810.0,50.0,667.0,-273.0,426.0
19:31:15.630000,1820.0,1863.0,913.0,-684.0,814.0,67.0,667.0,-273.0,426.0
19:31:15.635000,1847.0,1920.0,949.0,-693.0,817.0,81.0,666.0,-267.0,445.0
19:31:15.640000,1875.0,1975.0,982.0,-698.0,818.0,97.0,666.0,-267.0,445.0
19:31:15.644000,1902.0,2027.0,1011.0,-694.0,818.0,117.0,666.0,-267.0,445.0
19:31:15.649000,1929.0,2075.0,1038.0,-683.0,809.0,138.0,658.0,-262.0,444.0
19:31:15.654000,1962.0,2121.0,1064.0,-668.0,796.0,160.0,658.0,-262.0,444.0
19:31:15.659000,1997.0,2165.0,1086.0,-653.0,784.0,180.0,631.0,-267.0,460.0
19:31:15.663000,2034.0,2209.0,1104.0,-646.0,773.0,197.0,631.0,-267.0,460.0
19:31:15.667000,2072.0,2256.0,1120.0,-649.0,763.0,214.0,631.0,-267.0,460.0
19:31:15.673000,2109.0,2305.0,1135.0,-655.0,750.0,231.0,631.0,-261.0,471.0
19:31:15.677000,2146.0,2354.0,1150.0,-662.0,738.0,248.0,631.0,-261.0,471.0
19:31:15.682000,2184.0,2401.0,1161.0,-662.0,738.0,248.0,621.0,-261.0,483.0
19:31:15.687000,2223.0,2447.0,1166.0,-662.0,717.0,279.0,621.0,-261.0,483.0
19:31:15.691000,2263.0,2488.0,1166.0,-662.0,716.0,291.0,621.0,-261.0,483.0
19:31:15.696000,2304.0,2527.0,1162.0,-649.0,730.0,300.0,610.0,-252.0,496.0
19:31:15.701000,2340.0,2561.0,1148.0,-649.0,730.0,300.0,610.0,-252.0,496.0
19:31:15.706000,2368.0,2588.0,1130.0,-648.0,756.0,306.0,573.0,-247.0,514.0
19:31:15.710000,2385.0,2612.0,1113.0,-647.0,786.0,308.0,573.0,-247.0,514.0
19:31:15.714000,2395.0,2630.0,1098.0,-643.0,814.0,308.0,573.0,-247.0,514.0
19:31:15.720000,2397.0,2641.0,1087.0,-633.0,840.0,306.0,576.0,-235.0,529.0
19:31:15.724000,2393.0,2644.0,1076.0,-618.0,861.0,302.0,576.0,-235.0,529.0
19:31:15.729000,2382.0,2643.0,1067.0,-600.0,876.0,295.0,559.0,-228.0,535.0
19:31:15.734000,2363.0,2638.0,1062.0,-583.0,891.0,285.0,559.0,-228.0,535.0
19:31:15.738000,2363.0,2638.0,1062.0,-573.0,910.0,271.0,559.0,-228.0,535.0
19:31:15.743000,2333.0,2633.0,1057.0,-572.0,933.0,253.0,544.0,-217.0,547.0
19:31:15.748000,2289.0,2627.0,1050.0,-576.0,953.0,234.0,544.0,-217.0,547.0
19:31:15.753000,2237.0,2622.0,1043.0,-576.0,963.0,215.0,537.0,-205.0,544.0
19:31:15.757000,2182.0,2619.0,1034.0,-571.0,960.0,193.0,537.0,-205.0,544.0
19:31:15.761000,2128.0,2612.0,1024.0,-565.0,951.0,173.0,537.0,-205.0,544.0
19:31:15.767000,2075.0,2601.0,1010.0,-562.0,940.0,156.0,516.0,-207.0,540.0
19:31:15.771000,2025.0,2585.0,994.0,-558.0,929.0,139.0,516.0,-207.0,540.0
19:31:15.776000,1978.0,2566.0,977.0,-551.0,914.0,124.0,517.0,-181.0,553.0
19:31:15.781000,1934.0,2542.0,962.0,-539.0,893.0,106.0,517.0,-181.0,553.0
19:31:15.788000,1866.0,2475.0,938.0,-507.0,849.0,73.0,492.0,-189.0,556.0
19:31:15.790000,1866.0,2475.0,938.0,-507.0,849.0,73.0,492.0,-189.0,556.0
19:31:15.794000,1841.0,2436.0,923.0,-496.0,838.0,56.0,492.0,-189.0,556.0
19:31:15.800000,1820.0,2392.0,901.0,-488.0,833.0,39.0,468.0,-172.0,570.0
19:31:15.804000,1801.0,2345.0,876.0,-488.0,833.0,39.0,468.0,-172.0,570.0
19:31:15.809000,1786.0,2297.0,854.0,-479.0,826.0,21.0,462.0,-144.0,565.0
19:31:15.814000,1769.0,2248.0,837.0,-468.0,810.0,4.0,462.0,-144.0,565.0
19:31:15.818000,1755.0,2195.0,824.0,-458.0,787.0,-15.0,462.0,-144.0,565.0
19:31:15.823000,1743.0,2141.0,805.0,-452.0,771.0,-36.0,436.0,-150.0,570.0
19:31:15.827000,1726.0,2086.0,772.0,-457.0,802.0,-82.0,436.0,-150.0,570.0
19:31:15.833000,1703.0,2032.0,729.0,-457.0,802.0,-82.0,423.0,-135.0,583.0
19:31:15.837000,1670.0,1977.0,683.0,-456.0,834.0,-100.0,423.0,-135.0,583.0
19:31:15.841000,1670.0,1977.0,683.0,-446.0,854.0,-116.0,423.0,-135.0,583.0
19:31:15.847000,1591.0,1858.0,595.0,-424.0,860.0,-131.0,405.0,-135.0,568.0
19:31:15.851000,1591.0,1858.0,595.0,-396.0,863.0,-145.0,405.0,-135.0,568.0
19:31:15.856000,1552.0,1794.0,548.0,-373.0,874.0,-160.0,396.0,-112.0,562.0
19:31:15.861000,1511.0,1727.0,499.0,-357.0,890.0,-174.0,396.0,-112.0,562.0
19:31:15.865000,1467.0,1660.0,451.0,-349.0,905.0,-184.0,396.0,-112.0,562.0
19:31:15.870000,1420.0,1595.0,412.0,-346.0,911.0,-193.0,390.0,-99.0,555.0
19:31:15.875000,1372.0,1529.0,381.0,-348.0,908.0,-199.0,390.0,-99.0,555.0
19:31:15.880000,1325.0,1463.0,359.0,-352.0,900.0,-204.0,375.0,-97.0,561.0
19:31:15.884000,1281.0,1397.0,345.0,-360.0,892.0,-210.0,375.0,-97.0,561.0
19:31:15.888000,1243.0,1330.0,334.0,-372.0,889.0,-215.0,375.0,-97.0,561.0
19:31:15.894000,1207.0,1267.0,324.0,-387.0,891.0,-218.0,367.0,-66.0,546.0
19:31:15.898000,1174.0,1206.0,315.0,-404.0,891.0,-220.0,367.0,-66.0,546.0
19:31:15.903000,1141.0,1148.0,312.0,-404.0,891.0,-220.0,358.0,-70.0,549.0
19:31:15.908000,1110.0,1092.0,313.0,-439.0,888.0,-220.0,358.0,-70.0,549.0
19:31:15.912000,1081.0,1040.0,315.0,-439.0,888.0,-220.0,358.0,-70.0,549.0
19:31:15.917000,1052.0,990.0,314.0,-468.0,896.0,-217.0,355.0,-61.0,549.0
19:31:15.922000,1024.0,943.0,312.0,-468.0,896.0,-217.0,355.0,-61.0,549.0
19:31:15.927000,994.0,903.0,310.0,-485.0,903.0,-214.0,330.0,-57.0,543.0
19:31:15.931000,965.0,866.0,310.0,-502.0,902.0,-211.0,330.0,-57.0,543.0
19:31:15.935000,935.0,831.0,312.0,-517.0,897.0,-209.0,330.0,-57.0,543.0
19:31:15.941000,906.0,801.0,306.0,-535.0,897.0,-208.0,339.0,-54.0,538.0
19:31:15.945000,876.0,774.0,297.0,-555.0,903.0,-207.0,339.0,-54.0,538.0
19:31:15.950000,845.0,751.0,284.0,-574.0,911.0,-205.0,339.0,-37.0,537.0
19:31:15.955000,811.0,730.0,266.0,-594.0,922.0,-204.0,339.0,-37.0,537.0
19:31:15.959000,811.0,730.0,266.0,-610.0,931.0,-202.0,339.0,-37.0,537.0
19:31:15.964000,774.0,709.0,248.0,-617.0,934.0,-199.0,336.0,-46.0,526.0
19:31:15.969000,737.0,689.0,228.0,-616.0,932.0,-196.0,336.0,-46.0,526.0
