hh:mm:ss.ms,gyroX[mdps],gyroY[mdps],gyroZ[mdps],accX[mg],accY[mg],accZ[mg],magX[mG],magY[mG],magZ[mG]
19:30:21.584000,-83.0,-140.0,183.0,-927.0,-793.0,66.0,567.0,-559.0,-154.0
19:30:21.589000,-67.0,-138.0,88.0,-1040.0,-744.0,57.0,567.0,-559.0,-154.0
19:30:21.593000,-27.0,-134.0,-88.0,-1103.0,-725.0,63.0,567.0,-559.0,-154.0
19:30:21.598000,4.0,-130.0,-168.0,-1126.0,-760.0,84.0,567.0,-552.0,-153.0
19:30:21.603000,-2.0,-119.0,-181.0,-1190.0,-763.0,91.0,567.0,-552.0,-153.0
19:30:21.607000,12.0,-100.0,-242.0,-1235.0,-738.0,79.0,564.0,-549.0,-153.0
19:30:21.612000,32.0,-83.0,-343.0,-1223.0,-709.0,87.0,564.0,-549.0,-153.0
19:30:21.616000,32.0,-68.0,-419.0,-1185.0,-687.0,88.0,564.0,-549.0,-153.0
19:30:21.621000,30.0,-59.0,-427.0,-1152.0,-671.0,61.0,561.0,-553.0,-157.0
19:30:21.626000,47.0,-50.0,-402.0,-1146.0,-636.0,55.0,561.0,-553.0,-157.0
19:30:21.631000,44.0,-33.0,-403.0,-1146.0,-636.0,55.0,570.0,-555.0,-160.0
19:30:21.636000,58.0,-29.0,-469.0,-1142.0,-526.0,42.0,570.0,-555.0,-160.0
19:30:21.640000,46.0,-15.0,-518.0,-1142.0,-526.0,42.0,570.0,-555.0,-160.0
19:30:21.645000,53.0,-14.0,-499.0,-1110.0,-523.0,46.0,564.0,-544.0,-156.0
19:30:21.650000,49.0,0.0,-431.0,-1065.0,-554.0,54.0,564.0,-544.0,-156.0
19:30:21.654000,52.0,20.0,-357.0,-1038.0,-615.0,53.0,573.0,-532.0,-163.0
19:30:21.658000,61.0,32.0,-315.0,-1077.0,-691.0,44.0,573.0,-532.0,-163.0
19:30:21.663000,91.0,39.0,-340.0,-1077.0,-691.0,44.0,573.0,-532.0,-163.0
19:30:21.668000,123.0,44.0,-425.0,-1103.0,-638.0,33.0,562.0,-537.0,-162.0
19:30:21.673000,121.0,55.0,-484.0,-1121.0,-603.0,29.0,562.0,-537.0,-162.0
19:30:21.678000,126.0,67.0,-473.0,-1121.0,-648.0,29.0,568.0,-540.0,-154.0
19:30:21.683000,138.0,76.0,-473.0,-1132.0,-664.0,19.0,568.0,-540.0,-154.0
19:30:21.687000,138.0,76.0,-473.0,-1154.0,-655.0,5.0,568.0,-540.0,-154.0
19:30:21.692000,123.0,93.0,-506.0,-1156.0,-622.0,0.0,577.0,-532.0,-159.0
19:30:21.697000,146.0,102.0,-528.0,-1146.0,-583.0,-3.0,577.0,-532.0,-159.0
19:30:21.701000,128.0,110.0,-532.0,-1110.0,-573.0,0.0,576.0,-541.0,-153.0
19:30:21.706000,136.0,117.0,-532.0,-1174.0,-531.0,-10.0,576.0,-541.0,-153.0
19:30:21.710000,179.0,106.0,-543.0,-1194.0,-563.0,-21.0,576.0,-541.0,-153.0
19:30:21.715000,148.0,114.0,-537.0,-1052.0,-586.0,-10.0,573.0,-535.0,-154.0
19:30:21.720000,148.0,110.0,-570.0,-963.0,-498.0,-5.0,573.0,-535.0,-154.0
19:30:21.725000,140.0,100.0,-582.0,-860.0,-429.0,-12.0,574.0,-526.0,-148.0
19:30:21.730000,94.0,99.0,-541.0,-744.0,-315.0,-9.0,574.0,-526.0,-148.0
19:30:21.734000,64.0,91.0,-532.0,-879.0,-248.0,-11.0,574.0,-526.0,-148.0
19:30:21.739000,63.0,70.0,-540.0,-1070.0,-459.0,-46.0,588.0,-522.0,-147.0
19:30:21.744000,35.0,66.0,-431.0,-930.0,-680.0,-48.0,588.0,-522.0,-147.0
19:30:21.748000,32.0,67.0,-365.0,-852.0,-594.0,-30.0,594.0,-522.0,-154.0
19:30:21.753000,71.0,43.0,-459.0,-852.0,-594.0,-30.0,594.0,-522.0,-154.0
19:30:21.757000,61.0,39.0,-530.0,-875.0,-431.0,-35.0,594.0,-522.0,-154.0
19:30:21.762000,60.0,37.0,-557.0,-861.0,-372.0,-51.0,577.0,-525.0,-154.0
19:30:21.767000,30.0,37.0,-531.0,-972.0,-412.0,-66.0,577.0,-525.0,-154.0
19:30:21.772000,20.0,47.0,-505.0,-1009.0,-487.0,-58.0,591.0,-517.0,-153.0
19:30:21.777000,47.0,46.0,-543.0,-1024.0,-507.0,-48.0,591.0,-517.0,-153.0
19:30:21.781000,47.0,46.0,-543.0,-1032.0,-508.0,-44.0,591.0,-517.0,-153.0
19:30:21.786000,37.0,48.0,-553.0,-984.0,-525.0,-51.0,589.0,-513.0,-144.0
19:30:21.791000,56.0,44.0,-549.0,-966.0,-514.0,-65.0,589.0,-513.0,-144.0
19:30:21.795000,56.0,44.0,-549.0,-992.0,-447.0,-56.0,588.0,-508.0,-135.0
19:30:21.800000,57.0,46.0,-557.0,-1006.0,-408.0,-52.0,588.0,-508.0,-135.0
19:30:21.804000,77.0,41.0,-592.0,-964.0,-421.0,-55.0,588.0,-508.0,-135.0
19:30:21.809000,99.0,37.0,-632.0,-930.0,-417.0,-44.0,598.0,-502.0,-145.0
19:30:21.814000,115.0,33.0,-688.0,-908.0,-441.0,-44.0,598.0,-502.0,-145.0
19:30:21.819000,123.0,39.0,-662.0,-909.0,-445.0,-54.0,594.0,-502.0,-142.0
19:30:21.824000,163.0,32.0,-607.0,-958.0,-407.0,-25.0,594.0,-502.0,-142.0
19:30:21.828000,154.0,37.0,-586.0,-987.0,-406.0,-25.0,594.0,-502.0,-142.0
19:30:21.833000,167.0,39.0,-596.0,-994.0,-404.0,-42.0,598.0,-496.0,-135.0
19:30:21.837000,181.0,37.0,-611.0,-996.0,-385.0,-21.0,598.0,-496.0,-135.0
19:30:21.842000,186.0,44.0,-592.0,-979.0,-375.0,-14.0,601.0,-499.0,-144.0
19:30:21.847000,193.0,50.0,-553.0,-996.0,-354.0,-6.0,601.0,-499.0,-144.0
19:30:21.852000,189.0,57.0,-546.0,-996.0,-354.0,-6.0,601.0,-486.0,-130.0
19:30:21.856000,175.0,70.0,-581.0,-1019.0,-283.0,6.0,601.0,-486.0,-130.0
19:30:21.861000,167.0,83.0,-605.0,-1011.0,-283.0,6.0,601.0,-486.0,-130.0
19:30:21.866000,162.0,93.0,-595.0,-975.0,-303.0,7.0,595.0,-484.0,-141.0
19:30:21.871000,163.0,104.0,-595.0,-966.0,-315.0,15.0,595.0,-484.0,-141.0
19:30:21.875000,150.0,123.0,-616.0,-983.0,-317.0,22.0,598.0,-490.0,-133.0
19:30:21.880000,154.0,135.0,-637.0,-995.0,-308.0,26.0,598.0,-490.0,-133.0
19:30:21.884000,161.0,149.0,-658.0,-1026.0,-288.0,26.0,598.0,-490.0,-133.0
19:30:21.889000,164.0,158.0,-682.0,-1038.0,-285.0,28.0,607.0,-480.0,-126.0
19:30:21.894000,161.0,175.0,-682.0,-1029.0,-312.0,28.0,607.0,-480.0,-126.0
19:30:21.899000,172.0,191.0,-674.0,-1044.0,-317.0,24.0,604.0,-480.0,-148.0
19:30:21.903000,175.0,208.0,-689.0,-1069.0,-282.0,22.0,604.0,-480.0,-148.0
19:30:21.908000,175.0,208.0,-689.0,-1081.0,-279.0,22.0,604.0,-480.0,-148.0
19:30:21.913000,165.0,226.0,-681.0,-1085.0,-310.0,19.0,603.0,-468.0,-147.0
19:30:21.918000,168.0,242.0,-651.0,-1090.0,-318.0,14.0,603.0,-468.0,-147.0
19:30:21.922000,172.0,261.0,-642.0,-1094.0,-270.0,13.0,612.0,-468.0,-138.0
19:30:21.927000,184.0,281.0,-663.0,-1088.0,-228.0,14.0,612.0,-468.0,-138.0
19:30:21.931000,175.0,306.0,-681.0,-1088.0,-229.0,15.0,612.0,-468.0,-138.0
19:30:21.936000,170.0,327.0,-681.0,-1100.0,-249.0,8.0,612.0,-472.0,-129.0
19:30:21.941000,156.0,349.0,-672.0,-1104.0,-270.0,0.0,612.0,-472.0,-129.0
19:30:21.946000,143.0,376.0,-669.0,-1109.0,-254.0,-7.0,619.0,-462.0,-133.0
19:30:21.950000,151.0,397.0,-694.0,-1141.0,-244.0,-17.0,619.0,-462.0,-133.0
19:30:21.955000,154.0,417.0,-723.0,-1160.0,-273.0,-26.0,619.0,-462.0,-133.0
19:30:21.960000,158.0,432.0,-744.0,-1152.0,-307.0,-41.0,628.0,-456.0,-129.0
19:30:21.965000,167.0,446.0,-769.0,-1143.0,-311.0,-60.0,628.0,-456.0,-129.0
19:30:21.969000,188.0,456.0,-800.0,-1143.0,-311.0,-60.0,642.0,-454.0,-123.0
19:30:21.974000,205.0,466.0,-842.0,-1161.0,-241.0,-90.0,642.0,-454.0,-123.0
19:30:21.978000,213.0,480.0,-866.0,-1161.0,-241.0,-90.0,642.0,-454.0,-123.0
19:30:21.983000,223.0,485.0,-885.0,-1151.0,-242.0,-96.0,618.0,-453.0,-103.0
19:30:21.988000,231.0,491.0,-908.0,-1139.0,-234.0,-100.0,618.0,-453.0,-103.0
19:30:21.993000,238.0,493.0,-905.0,-1127.0,-227.0,-105.0,636.0,-442.0,-112.0
19:30:21.997000,235.0,501.0,-892.0,-1109.0,-215.0,-109.0,636.0,-442.0,-112.0
19:30:22.002000,235.0,501.0,-892.0,-1110.0,-177.0,-117.0,636.0,-442.0,-112.0
19:30:22.007000,228.0,520.0,-942.0,-1112.0,-136.0,-118.0,640.0,-438.0,-114.0
19:30:22.012000,224.0,526.0,-979.0,-1090.0,-103.0,-118.0,640.0,-438.0,-114.0
19:30:22.016000,224.0,526.0,-979.0,-1051.0,-98.0,-118.0,639.0,-427.0,-97.0
19:30:22.021000,216.0,527.0,-1014.0,-1054.0,-84.0,-127.0,639.0,-427.0,-97.0
19:30:22.026000,223.0,522.0,-1029.0,-1099.0,-36.0,-135.0,657.0,-418.0,-94.0
19:30:22.030000,208.0,529.0,-1050.0,-1107.0,-23.0,-134.0,657.0,-418.0,-94.0
19:30:22.034000,187.0,536.0,-1071.0,-1108.0,2.0,-136.0,657.0,-418.0,-94.0
19:30:22.040000,154.0,544.0,-1068.0,-1154.0,60.0,-139.0,657.0,-409.0,-93.0
19:30:22.044000,124.0,556.0,-1085.0,-1175.0,61.0,-155.0,657.0,-409.0,-93.0
19:30:22.049000,128.0,561.0,-1100.0,-1150.0,-17.0,-150.0,657.0,-408.0,-91.0
19:30:22.054000,73.0,564.0,-1049.0,-1151.0,-38.0,-161.0,657.0,-408.0,-91.0
19:30:22.058000,86.0,579.0,-1011.0,-1162.0,29.0,-187.0,657.0,-408.0,-91.0
19:30:22.063000,114.0,582.0,-1037.0,-1140.0,36.0,-176.0,663.0,-406.0,-88.0
19:30:22.068000,101.0,581.0,-999.0,-1145.0,31.0,-179.0,663.0,-406.0,-88.0
19:30:22.073000,121.0,575.0,-978.0,-1145.0,31.0,-179.0,667.0,-397.0,-73.0
19:30:22.077000,112.0,585.0,-985.0,-1164.0,35.0,-193.0,667.0,-397.0,-73.0
19:30:22.081000,109.0,590.0,-968.0,-1161.0,19.0,-195.0,667.0,-397.0,-73.0
19:30:22.087000,122.0,592.0,-961.0,-1139.0,14.0,-202.0,663.0,-375.0,-75.0
19:30:22.091000,157.0,583.0,-998.0,-1117.0,9.0,-216.0,663.0,-375.0,-75.0
19:30:22.096000,177.0,570.0,-1029.0,-1099.0,0.0,-227.0,667.0,-391.0,-75.0
19:30:22.101000,199.0,553.0,-1026.0,-1083.0,-2.0,-234.0,667.0,-391.0,-75.0
19:30:22.105000,228.0,529.0,-1023.0,-1081.0,36.0,-242.0,667.0,-391.0,-75.0
19:30:22.110000,242.0,513.0,-1030.0,-1082.0,86.0,-247.0,679.0,-361.0,-60.0
19:30:22.115000,249.0,496.0,-1026.0,-1076.0,107.0,-252.0,679.0,-361.0,-60.0
19:30:22.120000,264.0,478.0,-1003.0,-1061.0,135.0,-260.0,675.0,-358.0,-58.0
19:30:22.124000,264.0,478.0,-1003.0,-1057.0,184.0,-266.0,675.0,-358.0,-58.0
19:30:22.128000,270.0,463.0,-987.0,-1062.0,221.0,-269.0,675.0,-358.0,-58.0
19:30:22.134000,263.0,455.0,-984.0,-1060.0,238.0,-272.0,684.0,-352.0,-48.0
19:30:22.138000,249.0,448.0,-989.0,-1040.0,245.0,-276.0,684.0,-352.0,-48.0
19:30:22.143000,242.0,441.0,-978.0,-1018.0,269.0,-283.0,682.0,-346.0,-55.0
19:30:22.148000,239.0,434.0,-961.0,-1016.0,314.0,-287.0,682.0,-346.0,-55.0
19:30:22.152000,229.0,429.0,-937.0,-1021.0,336.0,-290.0,682.0,-346.0,-55.0
19:30:22.157000,216.0,427.0,-920.0,-1019.0,336.0,-294.0,687.0,-349.0,-43.0
19:30:22.162000,213.0,417.0,-909.0,-999.0,310.0,-297.0,687.0,-349.0,-43.0
19:30:22.167000,205.0,410.0,-886.0,-983.0,293.0,-303.0,685.0,-336.0,-42.0
19:30:22.171000,210.0,399.0,-884.0,-977.0,311.0,-308.0,685.0,-336.0,-42.0
19:30:22.175000,216.0,380.0,-893.0,-965.0,334.0,-312.0,685.0,-336.0,-42.0
19:30:22.181000,216.0,363.0,-900.0,-949.0,364.0,-323.0,690.0,-321.0,-37.0
19:30:22.185000,224.0,346.0,-899.0,-949.0,391.0,-331.0,690.0,-321.0,-37.0
19:30:22.190000,231.0,322.0,-891.0,-912.0,410.0,-332.0,690.0,-321.0,-33.0
19:30:22.195000,235.0,298.0,-882.0,-912.0,410.0,-332.0,690.0,-321.0,-33.0
19:30:22.199000,240.0,273.0,-877.0,-920.0,434.0,-333.0,690.0,-321.0,-33.0
19:30:22.204000,245.0,249.0,-853.0,-931.0,456.0,-340.0,693.0,-310.0,-34.0
19:30:22.209000,247.0,226.0,-824.0,-950.0,474.0,-350.0,693.0,-310.0,-34.0
19:30:22.214000,241.0,205.0,-796.0,-976.0,509.0,-358.0,693.0,-307.0,-25.0
19:30:22.218000,228.0,186.0,-772.0,-984.0,544.0,-365.0,693.0,-307.0,-25.0
19:30:22.222000,228.0,186.0,-772.0,-982.0,587.0,-376.0,693.0,-307.0,-25.0
19:30:22.228000,206.0,158.0,-774.0,-972.0,635.0,-388.0,682.0,-298.0,-33.0
19:30:22.232000,198.0,139.0,-751.0,-962.0,658.0,-393.0,682.0,-298.0,-33.0
19:30:22.236000,198.0,139.0,-751.0,-978.0,659.0,-396.0,690.0,-286.0,-19.0
19:30:22.242000,182.0,125.0,-720.0,-1024.0,632.0,-398.0,690.0,-286.0,-19.0
19:30:22.246000,163.0,112.0,-669.0,-1083.0,595.0,-398.0,690.0,-286.0,-19.0
19:30:22.251000,142.0,100.0,-639.0,-1133.0,594.0,-397.0,696.0,-280.0,-21.0
19:30:22.256000,121.0,88.0,-625.0,-1132.0,628.0,-396.0,696.0,-280.0,-21.0
19:30:22.261000,109.0,77.0,-612.0,-1072.0,650.0,-397.0,687.0,-286.0,-21.0
19:30:22.265000,109.0,67.0,-569.0,-1026.0,633.0,-398.0,687.0,-286.0,-21.0
19:30:22.269000,111.0,60.0,-497.0,-1014.0,612.0,-400.0,687.0,-286.0,-21.0
19:30:22.275000,119.0,55.0,-431.0,-974.0,611.0,-394.0,685.0,-270.0,-27.0
19:30:22.279000,112.0,62.0,-419.0,-962.0,596.0,-397.0,685.0,-270.0,-27.0
19:30:22.284000,114.0,81.0,-429.0,-1035.0,598.0,-396.0,696.0,-264.0,-21.0
19:30:22.289000,137.0,76.0,-459.0,-1075.0,595.0,-382.0,696.0,-264.0,-21.0
19:30:22.294000,156.0,74.0,-462.0,-1075.0,595.0,-382.0,697.0,-271.0,-18.0
19:30:22.298000,173.0,60.0,-413.0,-1037.0,539.0,-366.0,697.0,-271.0,-18.0
19:30:22.302000,177.0,60.0,-357.0,-1012.0,497.0,-344.0,697.0,-271.0,-18.0
19:30:22.308000,180.0,68.0,-342.0,-1015.0,510.0,-341.0,684.0,-265.0,-21.0
19:30:22.312000,197.0,63.0,-345.0,-1019.0,543.0,-340.0,684.0,-265.0,-21.0
19:30:22.317000,210.0,55.0,-333.0,-1012.0,533.0,-330.0,699.0,-261.0,-12.0
19:30:22.322000,240.0,33.0,-326.0,-989.0,526.0,-325.0,699.0,-261.0,-12.0
19:30:22.326000,249.0,13.0,-303.0,-966.0,533.0,-319.0,699.0,-261.0,-12.0
19:30:22.331000,249.0,0.0,-294.0,-973.0,545.0,-311.0,693.0,-261.0,-18.0
19:30:22.336000,264.0,-33.0,-298.0,-996.0,582.0,-309.0,693.0,-261.0,-18.0
19:30:22.341000,259.0,-64.0,-274.0,-994.0,593.0,-303.0,685.0,-262.0,-15.0
19:30:22.345000,259.0,-64.0,-274.0,-984.0,605.0,-299.0,685.0,-262.0,-15.0
19:30:22.349000,249.0,-95.0,-236.0,-984.0,654.0,-292.0,685.0,-262.0,-15.0
19:30:22.355000,235.0,-131.0,-220.0,-957.0,683.0,-279.0,691.0,-255.0,-15.0
19:30:22.359000,203.0,-154.0,-184.0,-917.0,675.0,-270.0,691.0,-255.0,-15.0
19:30:22.364000,161.0,-166.0,-114.0,-903.0,673.0,-255.0,690.0,-255.0,-15.0
19:30:22.368000,114.0,-184.0,-65.0,-881.0,666.0,-235.0,690.0,-255.0,-15.0
19:30:22.373000,58.0,-196.0,-24.0,-820.0,620.0,-220.0,690.0,-255.0,-15.0
19:30:22.378000,0.0,-198.0,39.0,-755.0,560.0,-208.0,682.0,-252.0,-7.0
19:30:22.383000,-46.0,-203.0,95.0,-718.0,512.0,-199.0,682.0,-252.0,-7.0
19:30:22.388000,-97.0,-199.0,146.0,-703.0,465.0,-199.0,696.0,-259.0,-19.0
19:30:22.392000,-140.0,-193.0,186.0,-697.0,422.0,-206.0,696.0,-259.0,-19.0
19:30:22.396000,-177.0,-184.0,211.0,-700.0,389.0,-215.0,696.0,-259.0,-19.0
19:30:22.402000,-197.0,-178.0,221.0,-703.0,360.0,-228.0,694.0,-253.0,-18.0
19:30:22.406000,-212.0,-172.0,221.0,-703.0,360.0,-228.0,694.0,-253.0,-18.0
19:30:22.410000,-221.0,-166.0,207.0,-686.0,330.0,-253.0,690.0,-247.0,-10.0
19:30:22.416000,-221.0,-165.0,175.0,-686.0,330.0,-253.0,690.0,-247.0,-10.0
19:30:22.420000,-218.0,-165.0,139.0,-672.0,340.0,-263.0,690.0,-247.0,-10.0
19:30:22.425000,-216.0,-169.0,104.0,-642.0,352.0,-267.0,694.0,-265.0,-22.0
19:30:22.430000,-210.0,-174.0,79.0,-604.0,364.0,-265.0,694.0,-265.0,-22.0
19:30:22.434000,-207.0,-176.0,73.0,-566.0,366.0,-260.0,699.0,-252.0,-19.0
19:30:22.439000,-205.0,-175.0,79.0,-527.0,357.0,-252.0,699.0,-252.0,-19.0
19:30:22.443000,-205.0,-175.0,79.0,-499.0,350.0,-241.0,699.0,-252.0,-19.0
19:30:22.449000,-193.0,-166.0,100.0,-477.0,337.0,-226.0,687.0,-253.0,-18.0
19:30:22.453000,-193.0,-166.0,100.0,-452.0,310.0,-210.0,687.0,-253.0,-18.0
19:30:22.457000,-184.0,-163.0,122.0,-430.0,272.0,-195.0,696.0,-246.0,0.0
19:30:22.463000,-171.0,-160.0,151.0,-425.0,248.0,-183.0,696.0,-246.0,0.0
19:30:22.467000,-147.0,-163.0,158.0,-429.0,242.0,-176.0,696.0,-246.0,0.0
19:30:22.472000,-132.0,-159.0,149.0,-436.0,245.0,-171.0,690.0,-247.0,-15.0
19:30:22.477000,-126.0,-154.0,146.0,-459.0,261.0,-169.0,690.0,-247.0,-15.0
19:30:22.481000,-119.0,-153.0,151.0,-494.0,282.0,-171.0,700.0,-249.0,-19.0
19:30:22.486000,-118.0,-150.0,149.0,-528.0,301.0,-171.0,700.0,-249.0,-19.0
19:30:22.490000,-131.0,-145.0,147.0,-548.0,324.0,-170.0,700.0,-249.0,-19.0
19:30:22.496000,-153.0,-140.0,156.0,-556.0,350.0,-170.0,697.0,-253.0,-13.0
19:30:22.500000,-181.0,-134.0,173.0,-552.0,366.0,-170.0,697.0,-253.0,-13.0
19:30:22.505000,-216.0,-128.0,202.0,-552.0,366.0,-170.0,700.0,-252.0,-9.0
19:30:22.510000,-254.0,-120.0,238.0,-506.0,348.0,-173.0,700.0,-252.0,-9.0
19:30:22.514000,-288.0,-114.0,278.0,-506.0,322.0,-176.0,700.0,-252.0,-9.0
19:30:22.519000,-319.0,-108.0,324.0,-475.0,322.0,-176.0,697.0,-255.0,-21.0
19:30:22.524000,-343.0,-103.0,366.0,-446.0,294.0,-181.0,697.0,-255.0,-21.0
19:30:22.528000,-358.0,-100.0,399.0,-424.0,267.0,-189.0,696.0,-249.0,-12.0
19:30:22.533000,-361.0,-98.0,424.0,-410.0,232.0,-191.0,696.0,-249.0,-12.0
19:30:22.537000,-350.0,-93.0,438.0,-399.0,186.0,-192.0,696.0,-249.0,-12.0
19:30:22.543000,-329.0,-95.0,436.0,-392.0,139.0,-195.0,696.0,-259.0,-10.0
19:30:22.547000,-295.0,-100.0,425.0,-387.0,92.0,-196.0,696.0,-259.0,-10.0
19:30:22.552000,-252.0,-111.0,411.0,-386.0,49.0,-196.0,693.0,-255.0,1.0
19:30:22.557000,-204.0,-124.0,394.0,-388.0,21.0,-194.0,693.0,-255.0,1.0
19:30:22.561000,-204.0,-124.0,394.0,-396.0,14.0,-192.0,693.0,-255.0,1.0
19:30:22.566000,-156.0,-138.0,377.0,-404.0,23.0,-184.0,705.0,-271.0,-18.0
19:30:22.571000,-112.0,-150.0,364.0,-407.0,38.0,-172.0,705.0,-271.0,-18.0
19:30:22.575000,-76.0,-163.0,360.0,-406.0,57.0,-160.0,699.0,-270.0,-12.0
19:30:22.580000,-46.0,-175.0,365.0,-402.0,75.0,-148.0,699.0,-270.0,-12.0
19:30:22.584000,-26.0,-186.0,379.0,-400.0,92.0,-140.0,699.0,-270.0,-12.0
19:30:22.590000,-14.0,-196.0,403.0,-405.0,114.0,-133.0,700.0,-262.0,-3.0
19:30:22.594000,-9.0,-205.0,427.0,-412.0,138.0,-125.0,700.0,-262.0,-3.0
19:30:22.599000,-13.0,-208.0,452.0,-417.0,159.0,-118.0,702.0,-274.0,-24.0
19:30:22.604000,-21.0,-212.0,483.0,-422.0,175.0,-111.0,702.0,-274.0,-24.0
19:30:22.608000,-35.0,-214.0,509.0,-424.0,187.0,-106.0,702.0,-274.0,-24.0
19:30:22.613000,-49.0,-217.0,528.0,-417.0,189.0,-102.0,697.0,-271.0,-19.0
19:30:22.618000,-65.0,-219.0,549.0,-409.0,185.0,-101.0,697.0,-271.0,-19.0
19:30:22.622000,-77.0,-223.0,569.0,-409.0,185.0,-101.0,697.0,-282.0,-19.0
19:30:22.627000,-88.0,-225.0,579.0,-409.0,186.0,-101.0,697.0,-282.0,-19.0
19:30:22.631000,-99.0,-228.0,589.0,-414.0,185.0,-100.0,697.0,-282.0,-19.0
19:30:22.637000,-106.0,-233.0,606.0,-419.0,178.0,-98.0,703.0,-277.0,-22.0
19:30:22.641000,-109.0,-239.0,625.0,-424.0,164.0,-96.0,703.0,-277.0,-22.0
19:30:22.646000,-108.0,-247.0,644.0,-429.0,150.0,-93.0,693.0,-292.0,-15.0
19:30:22.651000,-105.0,-258.0,661.0,-428.0,140.0,-90.0,693.0,-292.0,-15.0
19:30:22.655000,-101.0,-269.0,689.0,-418.0,130.0,-84.0,693.0,-292.0,-15.0
19:30:22.660000,-98.0,-284.0,730.0,-406.0,120.0,-78.0,697.0,-294.0,-25.0
19:30:22.665000,-94.0,-298.0,770.0,-402.0,115.0,-73.0,697.0,-294.0,-25.0
19:30:22.669000,-93.0,-317.0,809.0,-401.0,113.0,-67.0,703.0,-306.0,-21.0
19:30:22.674000,-93.0,-317.0,809.0,-396.0,111.0,-60.0,703.0,-306.0,-21.0
19:30:22.678000,-93.0,-336.0,856.0,-387.0,102.0,-52.0,703.0,-306.0,-21.0
19:30:22.684000,-98.0,-354.0,914.0,-381.0,94.0,-46.0,702.0,-307.0,-10.0
19:30:22.688000,-102.0,-373.0,974.0,-381.0,89.0,-43.0,702.0,-307.0,-10.0
19:30:22.693000,-107.0,-392.0,1031.0,-382.0,82.0,-43.0,697.0,-313.0,-33.0
19:30:22.698000,-116.0,-409.0,1089.0,-385.0,75.0,-46.0,697.0,-313.0,-33.0
19:30:22.702000,-124.0,-427.0,1145.0,-392.0,71.0,-50.0,697.0,-313.0,-33.0
19:30:22.707000,-134.0,-441.0,1195.0,-400.0,69.0,-54.0,697.0,-325.0,-37.0
19:30:22.712000,-144.0,-454.0,1238.0,-406.0,67.0,-57.0,697.0,-325.0,-37.0
19:30:22.716000,-154.0,-465.0,1276.0,-412.0,68.0,-58.0,697.0,-331.0,-43.0
19:30:22.721000,-165.0,-474.0,1311.0,-416.0,69.0,-55.0,697.0,-331.0,-43.0
19:30:22.729000,-196.0,-487.0,1374.0,-404.0,40.0,-50.0,693.0,-342.0,-49.0
19:30:22.731000,-196.0,-487.0,1374.0,-404.0,40.0,-50.0,693.0,-342.0,-49.0
19:30:22.735000,-207.0,-497.0,1411.0,-404.0,40.0,-50.0,693.0,-342.0,-49.0
19:30:22.740000,-216.0,-506.0,1453.0,-395.0,12.0,-48.0,687.0,-339.0,-34.0
19:30:22.745000,-224.0,-514.0,1489.0,-400.0,-1.0,-47.0,687.0,-339.0,-34.0
19:30:22.749000,-236.0,-520.0,1520.0,-418.0,6.0,-45.0,703.0,-364.0,-57.0
19:30:22.754000,-256.0,-523.0,1551.0,-441.0,22.0,-40.0,703.0,-364.0,-57.0
19:30:22.758000,-280.0,-525.0,1593.0,-456.0,23.0,-32.0,703.0,-364.0,-57.0
19:30:22.763000,-299.0,-526.0,1645.0,-455.0,2.0,-22.0,696.0,-381.0,-58.0
19:30:22.768000,-315.0,-525.0,1693.0,-446.0,-28.0,-12.0,696.0,-381.0,-58.0
19:30:22.773000,-329.0,-522.0,1736.0,-437.0,-60.0,-3.0,687.0,-385.0,-70.0
19:30:22.778000,-340.0,-517.0,1777.0,-426.0,-88.0,6.0,687.0,-385.0,-70.0
19:30:22.782000,-340.0,-517.0,1777.0,-416.0,-121.0,16.0,687.0,-385.0,-70.0
19:30:22.787000,-347.0,-511.0,1817.0,-411.0,-163.0,21.0,688.0,-397.0,-73.0
19:30:22.792000,-347.0,-501.0,1859.0,-424.0,-204.0,21.0,688.0,-397.0,-73.0
19:30:22.796000,-343.0,-488.0,1891.0,-460.0,-240.0,19.0,681.0,-411.0,-75.0
19:30:22.801000,-335.0,-471.0,1913.0,-507.0,-272.0,16.0,681.0,-411.0,-75.0
19:30:22.805000,-324.0,-449.0,1929.0,-555.0,-306.0,15.0,681.0,-411.0,-75.0
19:30:22.810000,-315.0,-427.0,1934.0,-594.0,-338.0,15.0,681.0,-427.0,-75.0
19:30:22.815000,-309.0,-401.0,1924.0,-613.0,-373.0,14.0,681.0,-427.0,-75.0
19:30:22.820000,-305.0,-376.0,1904.0,-616.0,-408.0,7.0,667.0,-460.0,-79.0
19:30:22.825000,-298.0,-357.0,1874.0,-617.0,-428.0,0.0,667.0,-460.0,-79.0
19:30:22.829000,-296.0,-341.0,1830.0,-630.0,-429.0,-2.0,667.0,-460.0,-79.0
19:30:22.834000,-305.0,-324.0,1775.0,-650.0,-426.0,0.0,669.0,-466.0,-93.0
19:30:22.839000,-321.0,-310.0,1715.0,-666.0,-436.0,2.0,669.0,-466.0,-93.0
19:30:22.843000,-338.0,-298.0,1649.0,-666.0,-436.0,2.0,651.0,-475.0,-105.0
19:30:22.848000,-355.0,-292.0,1578.0,-674.0,-458.0,-1.0,651.0,-475.0,-105.0
19:30:22.852000,-370.0,-287.0,1504.0,-683.0,-478.0,-8.0,651.0,-475.0,-105.0
19:30:22.857000,-386.0,-282.0,1423.0,-706.0,-491.0,-13.0,657.0,-492.0,-94.0
19:30:22.862000,-406.0,-273.0,1339.0,-740.0,-506.0,-12.0,657.0,-492.0,-94.0
19:30:22.867000,-415.0,-263.0,1260.0,-772.0,-536.0,-10.0,642.0,-501.0,-93.0
19:30:22.872000,-413.0,-246.0,1175.0,-813.0,-569.0,-17.0,642.0,-501.0,-93.0
19:30:22.876000,-409.0,-222.0,1082.0,-872.0,-592.0,-26.0,642.0,-501.0,-93.0
19:30:22.881000,-396.0,-195.0,989.0,-946.0,-610.0,-41.0,640.0,-498.0,-109.0
19:30:22.886000,-379.0,-161.0,894.0,-1029.0,-624.0,-59.0,640.0,-498.0,-109.0
19:30:22.890000,-358.0,-119.0,799.0,-1114.0,-637.0,-73.0,628.0,-511.0,-108.0
19:30:22.895000,-358.0,-119.0,799.0,-1187.0,-666.0,-78.0,628.0,-511.0,-108.0
19:30:22.899000,-332.0,-79.0,711.0,-1229.0,-721.0,-82.0,628.0,-511.0,-108.0
19:30:22.904000,-298.0,-43.0,644.0,-1245.0,-782.0,-92.0,640.0,-514.0,-93.0
19:30:22.909000,-259.0,-11.0,590.0,-1254.0,-817.0,-105.0,640.0,-514.0,-93.0
19:30:22.914000,-221.0,1.0,543.0,-1263.0,-799.0,-122.0,627.0,-508.0,-111.0
19:30:22.919000,-189.0,16.0,495.0,-1276.0,-716.0,-136.0,627.0,-508.0,-111.0
19:30:22.923000,-171.0,40.0,436.0,-1293.0,-614.0,-142.0,627.0,-508.0,-111.0
19:30:22.928000,-176.0,77.0,389.0,-1316.0,-541.0,-153.0,627.0,-517.0,-114.0
19:30:22.933000,-158.0,83.0,333.0,-1325.0,-445.0,-178.0,627.0,-517.0,-114.0
19:30:22.937000,-152.0,97.0,213.0,-1279.0,-350.0,-198.0,628.0,-513.0,-111.0
19:30:22.942000,-164.0,126.0,105.0,-1231.0,-281.0,-214.0,628.0,-513.0,-111.0
19:30:22.946000,-157.0,129.0,9.0,-1172.0,-197.0,-222.0,628.0,-513.0,-111.0
19:30:22.951000,-158.0,115.0,-36.0,-1069.0,-113.0,-239.0,630.0,-522.0,-115.0
19:30:22.956000,-141.0,105.0,-40.0,-1069.0,-113.0,-239.0,630.0,-522.0,-115.0
19:30:22.961000,-111.0,96.0,-101.0,-1027.0,-5.0,-275.0,627.0,-517.0,-115.0
19:30:22.966000,-91.0,84.0,-211.0,-1082.0,145.0,-300.0,627.0,-517.0,-115.0
19:30:22.970000,-86.0,63.0,-289.0,-1150.0,298.0,-317.0,627.0,-517.0,-115.0
19:30:22.975000,-82.0,44.0,-343.0,-1201.0,446.0,-340.0,619.0,-519.0,-109.0
19:30:22.980000,-102.0,36.0,-399.0,-1259.0,599.0,-346.0,619.0,-519.0,-109.0
19:30:22.984000,-140.0,49.0,-436.0,-1313.0,715.0,-328.0,633.0,-499.0,-117.0
19:30:22.989000,-155.0,39.0,-434.0,-1367.0,731.0,-303.0,633.0,-499.0,-117.0
19:30:22.993000,-155.0,39.0,-434.0,-1317.0,616.0,-272.0,633.0,-499.0,-117.0
19:30:22.998000,-146.0,30.0,-336.0,-1254.0,477.0,-252.0,612.0,-493.0,-93.0
19:30:23.003000,-146.0,30.0,-336.0,-1269.0,372.0,-213.0,612.0,-493.0,-93.0
19:30:23.008000,-135.0,14.0,-320.0,-1084.0,317.0,-204.0,631.0,-499.0,-117.0
19:30:23.013000,-133.0,49.0,-78.0,-827.0,272.0,-200.0,631.0,-499.0,-117.0
19:30:23.017000,-107.0,65.0,147.0,-818.0,250.0,-140.0,631.0,-499.0,-117.0
19:30:23.022000,-79.0,59.0,51.0,-828.0,279.0,-126.0,622.0,-499.0,-111.0
19:30:23.027000,-11.0,45.0,-51.0,-710.0,312.0,-150.0,622.0,-499.0,-111.0
19:30:23.031000,70.0,30.0,8.0,-720.0,392.0,-151.0,624.0,-499.0,-105.0
19:30:23.036000,86.0,35.0,-11.0,-858.0,444.0,-142.0,624.0,-499.0,-105.0
19:30:23.040000,72.0,37.0,-56.0,-958.0,422.0,-147.0,624.0,-499.0,-105.0
19:30:23.045000,72.0,32.0,-84.0,-1028.0,415.0,-163.0,627.0,-502.0,-112.0
19:30:23.050000,75.0,27.0,-156.0,-1076.0,419.0,-172.0,627.0,-502.0,-112.0
19:30:23.055000,62.0,19.0,-222.0,-1076.0,419.0,-172.0,618.0,-490.0,-109.0
19:30:23.060000,46.0,8.0,-200.0,-1034.0,337.0,-179.0,618.0,-490.0,-109.0
19:30:23.064000,32.0,-9.0,-116.0,-1034.0,337.0,-179.0,618.0,-490.0,-109.0
19:30:23.069000,27.0,-20.0,-29.0,-1060.0,320.0,-181.0,630.0,-495.0,-109.0
19:30:23.074000,25.0,-30.0,28.0,-1077.0,275.0,-181.0,630.0,-495.0,-109.0
19:30:23.078000,30.0,-37.0,94.0,-1106.0,110.0,-197.0,628.0,-495.0,-112.0
19:30:23.083000,44.0,-43.0,156.0,-1106.0,110.0,-197.0,628.0,-495.0,-112.0
19:30:23.087000,70.0,-55.0,170.0,-1172.0,51.0,-207.0,628.0,-495.0,-112.0
19:30:23.092000,109.0,-65.0,126.0,-1266.0,28.0,-214.0,613.0,-499.0,-105.0
19:30:23.097000,72.0,-54.0,81.0,-1344.0,4.0,-221.0,613.0,-499.0,-105.0
19:30:23.102000,63.0,-47.0,56.0,-1397.0,-4.0,-240.0,618.0,-495.0,-121.0
19:30:23.107000,66.0,-39.0,25.0,-1439.0,-18.0,-265.0,618.0,-495.0,-121.0
19:30:23.111000,66.0,-39.0,25.0,-1486.0,-40.0,-284.0,618.0,-495.0,-121.0
19:30:23.116000,40.0,-16.0,-53.0,-1526.0,-50.0,-298.0,619.0,-498.0,-114.0
19:30:23.120000,39.0,-2.0,-136.0,-1516.0,-97.0,-297.0,619.0,-498.0,-114.0
19:30:23.125000,0.0,21.0,-175.0,-1484.0,-134.0,-298.0,613.0,-499.0,-97.0
19:30:23.130000,-5.0,38.0,-201.0,-1438.0,-156.0,-300.0,613.0,-499.0,-97.0
19:30:23.135000,11.0,39.0,-210.0,-1362.0,-215.0,-283.0,616.0,-495.0,-115.0
19:30:23.139000,-1.0,37.0,-214.0,-1326.0,-269.0,-279.0,616.0,-495.0,-115.0
19:30:23.144000,4.0,28.0,-268.0,-1338.0,-310.0,-274.0,616.0,-495.0,-115.0
19:30:23.149000,19.0,4.0,-348.0,-1286.0,-373.0,-250.0,610.0,-492.0,-117.0
19:30:23.154000,38.0,-25.0,-337.0,-1164.0,-425.0,-221.0,610.0,-492.0,-117.0
19:30:23.158000,65.0,-65.0,-186.0,-1066.0,-441.0,-187.0,621.0,-490.0,-111.0
19:30:23.163000,48.0,-87.0,-31.0,-1060.0,-395.0,-156.0,621.0,-490.0,-111.0
19:30:23.167000,21.0,-102.0,-31.0,-1103.0,-360.0,-129.0,621.0,-490.0,-111.0
19:30:23.172000,4.0,-115.0,-106.0,-1103.0,-431.0,-103.0,618.0,-486.0,-108.0
19:30:23.177000,-16.0,-126.0,-124.0,-1110.0,-431.0,-103.0,618.0,-486.0,-108.0
19:30:23.182000,-18.0,-126.0,-151.0,-1123.0,-503.0,-85.0,601.0,-493.0,-117.0
19:30:23.186000,0.0,-133.0,-177.0,-1167.0,-524.0,-71.0,601.0,-493.0,-117.0
19:30:23.191000,-7.0,-128.0,-169.0,-1209.0,-521.0,-48.0,601.0,-493.0,-117.0
19:30:23.196000,-34.0,-112.0,-185.0,-1265.0,-493.0,-20.0,613.0,-487.0,-117.0
19:30:23.201000,-52.0,-98.0,-245.0,-1317.0,-485.0,-2.0,613.0,-487.0,-117.0
19:30:23.205000,-53.0,-76.0,-312.0,-1317.0,-524.0,3.0,618.0,-477.0,-121.0
19:30:23.210000,-19.0,-62.0,-394.0,-1292.0,-559.0,1.0,618.0,-477.0,-121.0
19:30:23.214000,-19.0,-62.0,-394.0,-1284.0,-577.0,-11.0,618.0,-477.0,-121.0
19:30:23.219000,37.0,-46.0,-500.0,-1299.0,-597.0,-30.0,595.0,-484.0,-109.0
19:30:23.224000,37.0,-46.0,-500.0,-1332.0,-573.0,-46.0,595.0,-484.0,-109.0
19:30:23.229000,42.0,-31.0,-529.0,-1376.0,-472.0,-62.0,613.0,-477.0,-115.0
19:30:23.233000,71.0,-23.0,-609.0,-1387.0,-394.0,-70.0,613.0,-477.0,-115.0
19:30:23.238000,67.0,2.0,-643.0,-1350.0,-373.0,-74.0,613.0,-477.0,-115.0
19:30:23.243000,109.0,5.0,-605.0,-1299.0,-394.0,-74.0,610.0,-468.0,-120.0
19:30:23.248000,109.0,9.0,-553.0,-1283.0,-413.0,-71.0,610.0,-468.0,-120.0
19:30:23.252000,118.0,12.0,-553.0,-1294.0,-399.0,-66.0,616.0,-469.0,-118.0
19:30:23.257000,100.0,14.0,-574.0,-1268.0,-403.0,-62.0,616.0,-469.0,-118.0
19:30:23.261000,95.0,18.0,-528.0,-1225.0,-391.0,-67.0,616.0,-469.0,-118.0
19:30:23.266000,105.0,16.0,-454.0,-1213.0,-365.0,-61.0,615.0,-463.0,-124.0
19:30:23.271000,103.0,17.0,-376.0,-1233.0,-313.0,-54.0,615.0,-463.0,-124.0
19:30:23.276000,103.0,19.0,-371.0,-1233.0,-313.0,-54.0,601.0,-459.0,-115.0
19:30:23.280000,72.0,29.0,-394.0,-1231.0,-279.0,-53.0,601.0,-459.0,-115.0
19:30:23.285000,58.0,46.0,-392.0,-1231.0,-279.0,-53.0,601.0,-459.0,-115.0
19:30:23.290000,16.0,72.0,-366.0,-1228.0,-324.0,-88.0,618.0,-466.0,-123.0
19:30:23.295000,-4.0,88.0,-345.0,-1200.0,-291.0,-74.0,618.0,-466.0,-123.0
19:30:23.299000,-14.0,105.0,-316.0,-1304.0,-190.0,-109.0,621.0,-460.0,-114.0
19:30:23.304000,82.0,90.0,-303.0,-1304.0,-190.0,-109.0,621.0,-460.0,-114.0
19:30:23.308000,-43.0,128.0,-299.0,-1387.0,-299.0,-79.0,621.0,-460.0,-114.0
19:30:23.313000,-35.0,138.0,-216.0,-1173.0,-536.0,-59.0,603.0,-454.0,-114.0
19:30:23.318000,21.0,124.0,-247.0,-1047.0,-571.0,-110.0,603.0,-454.0,-114.0
19:30:23.323000,62.0,126.0,-367.0,-1065.0,-422.0,-121.0,619.0,-451.0,-108.0
19:30:23.327000,75.0,119.0,-478.0,-1102.0,-268.0,-137.0,619.0,-451.0,-108.0
19:30:23.332000,75.0,119.0,-478.0,-1073.0,-225.0,-128.0,619.0,-451.0,-108.0
19:30:23.337000,53.0,125.0,-500.0,-1031.0,-295.0,-132.0,615.0,-451.0,-117.0
19:30:23.341000,48.0,123.0,-458.0,-1055.0,-281.0,-150.0,615.0,-451.0,-117.0
19:30:23.346000,88.0,99.0,-459.0,-1037.0,-242.0,-145.0,612.0,-445.0,-94.0
19:30:23.351000,64.0,95.0,-508.0,-1003.0,-257.0,-132.0,612.0,-445.0,-94.0
19:30:23.356000,56.0,84.0,-529.0,-992.0,-250.0,-127.0,616.0,-436.0,-111.0
19:30:23.360000,58.0,66.0,-493.0,-983.0,-273.0,-126.0,616.0,-436.0,-111.0
19:30:23.364000,34.0,55.0,-427.0,-997.0,-296.0,-131.0,616.0,-436.0,-111.0
19:30:23.370000,22.0,46.0,-396.0,-1028.0,-275.0,-135.0,625.0,-441.0,-108.0
19:30:23.374000,32.0,42.0,-356.0,-1072.0,-195.0,-142.0,625.0,-441.0,-108.0
19:30:23.379000,39.0,49.0,-288.0,-1072.0,-164.0,-142.0,612.0,-447.0,-106.0
19:30:23.384000,-23.0,69.0,-270.0,-1083.0,-211.0,-104.0,612.0,-447.0,-106.0
19:30:23.388000,-34.0,83.0,-305.0,-1044.0,-243.0,-105.0,612.0,-447.0,-106.0
19:30:23.393000,10.0,72.0,-268.0,-1044.0,-243.0,-105.0,619.0,-436.0,-106.0
19:30:23.398000,-22.0,88.0,-241.0,-1016.0,-301.0,-86.0,619.0,-436.0,-106.0
19:30:23.403000,-27.0,105.0,-265.0,-1053.0,-369.0,-80.0,636.0,-429.0,-102.0
19:30:23.407000,17.0,107.0,-275.0,-1115.0,-379.0,-97.0,636.0,-429.0,-102.0
19:30:23.411000,58.0,115.0,-305.0,-1162.0,-314.0,-99.0,636.0,-429.0,-102.0
19:30:23.417000,50.0,133.0,-352.0,-1167.0,-248.0,-79.0,621.0,-432.0,-96.0
19:30:23.421000,55.0,158.0,-406.0,-1112.0,-259.0,-75.0,621.0,-432.0,-96.0
19:30:23.426000,78.0,163.0,-396.0,-1039.0,-289.0,-80.0,631.0,-435.0,-100.0
19:30:23.431000,70.0,179.0,-326.0,-1003.0,-290.0,-78.0,631.0,-435.0,-100.0
19:30:23.435000,70.0,179.0,-326.0,-1011.0,-228.0,-79.0,631.0,-435.0,-100.0
19:30:23.440000,66.0,198.0,-319.0,-1042.0,-160.0,-82.0,628.0,-432.0,-103.0
19:30:23.445000,56.0,218.0,-341.0,-1052.0,-170.0,-90.0,628.0,-432.0,-103.0
19:30:23.450000,74.0,227.0,-395.0,-1032.0,-190.0,-100.0,631.0,-421.0,-93.0
19:30:23.454000,93.0,231.0,-402.0,-1012.0,-185.0,-104.0,631.0,-421.0,-93.0
19:30:23.458000,101.0,233.0,-363.0,-1011.0,-153.0,-114.0,631.0,-421.0,-93.0
19:30:23.464000,122.0,234.0,-375.0,-1011.0,-121.0,-122.0,618.0,-417.0,-100.0
19:30:23.468000,117.0,243.0,-401.0,-995.0,-140.0,-126.0,618.0,-417.0,-100.0
19:30:23.473000,119.0,250.0,-392.0,-986.0,-175.0,-129.0,630.0,-421.0,-85.0
19:30:23.478000,135.0,243.0,-344.0,-993.0,-209.0,-134.0,630.0,-421.0,-85.0
19:30:23.482000,131.0,250.0,-315.0,-1007.0,-215.0,-141.0,630.0,-421.0,-85.0
19:30:23.487000,149.0,248.0,-312.0,-1008.0,-216.0,-142.0,640.0,-424.0,-97.0
19:30:23.492000,144.0,243.0,-282.0,-989.0,-241.0,-149.0,640.0,-424.0,-97.0
19:30:23.497000,145.0,239.0,-228.0,-989.0,-241.0,-149.0,625.0,-423.0,-97.0
19:30:23.501000,153.0,236.0,-168.0,-976.0,-182.0,-160.0,625.0,-423.0,-97.0
19:30:23.505000,172.0,226.0,-191.0,-976.0,-182.0,-160.0,625.0,-423.0,-97.0
19:30:23.511000,179.0,219.0,-237.0,-967.0,-142.0,-158.0,634.0,-418.0,-94.0
19:30:23.515000,203.0,201.0,-240.0,-895.0,-212.0,-157.0,634.0,-418.0,-94.0
19:30:23.520000,229.0,177.0,-236.0,-895.0,-212.0,-157.0,639.0,-424.0,-87.0
19:30:23.525000,231.0,167.0,-245.0,-904.0,-214.0,-161.0,639.0,-424.0,-87.0
19:30:23.529000,247.0,147.0,-263.0,-918.0,-203.0,-150.0,639.0,-424.0,-87.0
19:30:23.534000,228.0,136.0,-282.0,-924.0,-161.0,-132.0,637.0,-414.0,-72.0
19:30:23.539000,211.0,137.0,-319.0,-928.0,-126.0,-130.0,637.0,-414.0,-72.0
19:30:23.544000,208.0,124.0,-366.0,-936.0,-78.0,-128.0,642.0,-405.0,-84.0
19:30:23.548000,171.0,124.0,-384.0,-927.0,-70.0,-118.0,642.0,-405.0,-84.0
19:30:23.552000,171.0,124.0,-384.0,-907.0,-98.0,-108.0,642.0,-405.0,-84.0
19:30:23.558000,171.0,107.0,-384.0,-908.0,-110.0,-110.0,643.0,-423.0,-85.0
19:30:23.562000,145.0,113.0,-396.0,-923.0,-108.0,-100.0,643.0,-423.0,-85.0
19:30:23.567000,156.0,103.0,-432.0,-945.0,-96.0,-87.0,645.0,-414.0,-75.0
19:30:23.572000,135.0,114.0,-475.0,-963.0,-80.0,-89.0,645.0,-414.0,-75.0
19:30:23.576000,131.0,115.0,-524.0,-983.0,-66.0,-90.0,645.0,-414.0,-75.0
19:30:23.581000,121.0,118.0,-556.0,-995.0,-71.0,-93.0,643.0,-408.0,-79.0
19:30:23.586000,116.0,125.0,-581.0,-991.0,-79.0,-90.0,643.0,-408.0,-79.0
19:30:23.591000,125.0,127.0,-616.0,-993.0,-81.0,-86.0,639.0,-406.0,-72.0
19:30:23.595000,130.0,136.0,-624.0,-1004.0,-76.0,-92.0,639.0,-406.0,-72.0
19:30:23.599000,128.0,147.0,-597.0,-1034.0,-71.0,-99.0,639.0,-406.0,-72.0
19:30:23.605000,136.0,163.0,-569.0,-1082.0,-67.0,-100.0,642.0,-390.0,-66.0
19:30:23.609000,126.0,180.0,-561.0,-1110.0,-70.0,-105.0,642.0,-390.0,-66.0
19:30:23.614000,130.0,197.0,-562.0,-1110.0,-70.0,-105.0,648.0,-399.0,-76.0
19:30:23.619000,133.0,210.0,-567.0,-1117.0,-83.0,-115.0,648.0,-399.0,-76.0
19:30:23.623000,140.0,224.0,-579.0,-1117.0,-95.0,-119.0,648.0,-399.0,-76.0
19:30:23.628000,153.0,232.0,-585.0,-1134.0,-88.0,-128.0,657.0,-394.0,-72.0
19:30:23.633000,163.0,240.0,-592.0,-1146.0,-70.0,-133.0,657.0,-394.0,-72.0
19:30:23.638000,163.0,254.0,-615.0,-1140.0,-57.0,-136.0,652.0,-393.0,-78.0
19:30:23.642000,177.0,262.0,-640.0,-1147.0,-40.0,-142.0,652.0,-393.0,-78.0
19:30:23.646000,177.0,262.0,-640.0,-1148.0,-40.0,-141.0,652.0,-393.0,-78.0
19:30:23.652000,184.0,282.0,-668.0,-1130.0,-50.0,-140.0,649.0,-388.0,-75.0
19:30:23.656000,189.0,286.0,-691.0,-1130.0,-40.0,-146.0,649.0,-388.0,-75.0
19:30:23.661000,189.0,286.0,-691.0,-1139.0,-34.0,-148.0,652.0,-381.0,-72.0
19:30:23.666000,187.0,291.0,-707.0,-1131.0,-18.0,-148.0,652.0,-381.0,-72.0
19:30:23.670000,194.0,301.0,-729.0,-1125.0,22.0,-148.0,652.0,-381.0,-72.0
19:30:23.675000,191.0,309.0,-768.0,-1118.0,33.0,-149.0,655.0,-382.0,-64.0
19:30:23.680000,175.0,330.0,-787.0,-1110.0,30.0,-153.0,655.0,-382.0,-64.0
19:30:23.685000,190.0,343.0,-807.0,-1112.0,51.0,-159.0,654.0,-369.0,-52.0
19:30:23.689000,200.0,354.0,-835.0,-1126.0,56.0,-162.0,654.0,-369.0,-52.0
19:30:23.697000,201.0,384.0,-854.0,-1135.0,52.0,-169.0,660.0,-366.0,-33.0
19:30:23.699000,201.0,384.0,-854.0,-1135.0,52.0,-169.0,660.0,-366.0,-33.0
19:30:23.703000,209.0,400.0,-858.0,-1148.0,86.0,-176.0,660.0,-366.0,-33.0
19:30:23.708000,203.0,418.0,-879.0,-1163.0,123.0,-184.0,655.0,-352.0,-52.0
19:30:23.713000,205.0,429.0,-893.0,-1147.0,133.0,-190.0,655.0,-352.0,-52.0
19:30:23.718000,200.0,441.0,-891.0,-1147.0,133.0,-190.0,655.0,-351.0,-54.0
19:30:23.722000,198.0,453.0,-874.0,-1123.0,154.0,-198.0,655.0,-351.0,-54.0
19:30:23.726000,174.0,462.0,-823.0,-1116.0,176.0,-197.0,655.0,-351.0,-54.0
19:30:23.732000,169.0,483.0,-779.0,-1128.0,175.0,-207.0,669.0,-346.0,-46.0
19:30:23.736000,165.0,494.0,-763.0,-1115.0,157.0,-211.0,669.0,-346.0,-46.0
19:30:23.741000,167.0,502.0,-746.0,-1115.0,157.0,-211.0,669.0,-345.0,-48.0
19:30:23.746000,163.0,516.0,-730.0,-1091.0,151.0,-217.0,669.0,-345.0,-48.0
19:30:23.750000,171.0,525.0,-737.0,-1076.0,145.0,-223.0,669.0,-345.0,-48.0
19:30:23.755000,181.0,525.0,-759.0,-1068.0,152.0,-230.0,670.0,-345.0,-40.0
19:30:23.760000,184.0,529.0,-755.0,-1060.0,158.0,-239.0,670.0,-345.0,-40.0
19:30:23.765000,181.0,539.0,-750.0,-1036.0,151.0,-246.0,676.0,-327.0,-33.0
19:30:23.769000,181.0,539.0,-750.0,-1027.0,163.0,-256.0,676.0,-327.0,-33.0
19:30:23.773000,195.0,536.0,-756.0,-1026.0,187.0,-262.0,676.0,-327.0,-33.0
19:30:23.779000,197.0,529.0,-759.0,-1002.0,188.0,-268.0,670.0,-316.0,-19.0
19:30:23.783000,198.0,525.0,-748.0,-982.0,202.0,-273.0,670.0,-316.0,-19.0
19:30:23.788000,200.0,519.0,-756.0,-971.0,230.0,-272.0,675.0,-315.0,-21.0
19:30:23.793000,203.0,503.0,-776.0,-948.0,236.0,-276.0,675.0,-315.0,-21.0
19:30:23.797000,204.0,489.0,-782.0,-914.0,240.0,-283.0,675.0,-315.0,-21.0
19:30:23.802000,205.0,470.0,-780.0,-880.0,253.0,-289.0,670.0,-309.0,-21.0
19:30:23.807000,214.0,444.0,-772.0,-859.0,270.0,-298.0,670.0,-309.0,-21.0
19:30:23.812000,217.0,421.0,-769.0,-844.0,287.0,-311.0,681.0,-315.0,-16.0
19:30:23.816000,225.0,400.0,-758.0,-837.0,304.0,-320.0,681.0,-315.0,-16.0
19:30:23.820000,231.0,369.0,-740.0,-848.0,322.0,-324.0,681.0,-315.0,-16.0
19:30:23.826000,220.0,350.0,-744.0,-868.0,338.0,-335.0,673.0,-300.0,4.0
19:30:23.830000,209.0,333.0,-753.0,-875.0,353.0,-345.0,673.0,-300.0,4.0
19:30:23.835000,203.0,322.0,-729.0,-875.0,353.0,-345.0,679.0,-294.0,-16.0
19:30:23.840000,195.0,315.0,-695.0,-863.0,371.0,-351.0,679.0,-294.0,-16.0
19:30:23.844000,184.0,310.0,-695.0,-868.0,403.0,-359.0,679.0,-294.0,-16.0
19:30:23.849000,186.0,299.0,-702.0,-880.0,428.0,-368.0,684.0,-282.0,0.0
19:30:23.854000,182.0,284.0,-686.0,-857.0,420.0,-376.0,684.0,-282.0,0.0
19:30:23.859000,189.0,270.0,-662.0,-836.0,392.0,-382.0,670.0,-288.0,-1.0
19:30:23.863000,205.0,243.0,-634.0,-845.0,370.0,-380.0,670.0,-288.0,-1.0
19:30:23.867000,205.0,243.0,-634.0,-843.0,383.0,-375.0,670.0,-288.0,-1.0
19:30:23.873000,235.0,191.0,-610.0,-839.0,427.0,-375.0,682.0,-280.0,-3.0
19:30:23.877000,244.0,161.0,-619.0,-831.0,447.0,-374.0,682.0,-280.0,-3.0
19:30:23.882000,244.0,161.0,-619.0,-812.0,455.0,-376.0,676.0,-274.0,6.0
19:30:23.887000,261.0,131.0,-620.0,-802.0,500.0,-379.0,676.0,-274.0,6.0
19:30:23.891000,268.0,104.0,-604.0,-804.0,546.0,-380.0,676.0,-274.0,6.0
19:30:23.896000,268.0,79.0,-569.0,-820.0,584.0,-375.0,681.0,-273.0,-1.0
19:30:23.901000,256.0,51.0,-564.0,-838.0,642.0,-374.0,681.0,-273.0,-1.0
19:30:23.906000,261.0,28.0,-562.0,-851.0,692.0,-375.0,675.0,-271.0,6.0
19:30:23.910000,258.0,7.0,-547.0,-874.0,710.0,-363.0,675.0,-271.0,6.0
19:30:23.918000,216.0,-34.0,-495.0,-965.0,735.0,-353.0,673.0,-267.0,18.0
19:30:23.920000,216.0,-34.0,-495.0,-965.0,735.0,-353.0,673.0,-267.0,18.0
19:30:23.924000,197.0,-49.0,-486.0,-1030.0,743.0,-349.0,673.0,-267.0,18.0
19:30:23.929000,178.0,-60.0,-463.0,-1083.0,744.0,-347.0,670.0,-256.0,3.0
19:30:23.934000,161.0,-67.0,-427.0,-1110.0,755.0,-345.0,670.0,-256.0,3.0
19:30:23.938000,135.0,-70.0,-385.0,-1110.0,755.0,-345.0,673.0,-259.0,-3.0
19:30:23.943000,107.0,-67.0,-345.0,-1102.0,762.0,-342.0,673.0,-259.0,-3.0
19:30:23.947000,91.0,-68.0,-308.0,-1061.0,756.0,-344.0,673.0,-259.0,-3.0
19:30:23.953000,90.0,-73.0,-277.0,-1008.0,735.0,-349.0,679.0,-252.0,-1.0
19:30:23.957000,91.0,-74.0,-241.0,-976.0,710.0,-353.0,679.0,-252.0,-1.0
19:30:23.961000,93.0,-73.0,-206.0,-990.0,694.0,-354.0,673.0,-250.0,0.0
19:30:23.967000,88.0,-67.0,-165.0,-1040.0,688.0,-354.0,673.0,-250.0,0.0
19:30:23.971000,80.0,-67.0,-124.0,-1077.0,688.0,-351.0,673.0,-250.0,0.0
19:30:23.976000,86.0,-74.0,-120.0,-1081.0,707.0,-348.0,654.0,-252.0,6.0
19:30:23.981000,99.0,-95.0,-134.0,-1046.0,729.0,-339.0,654.0,-252.0,6.0
19:30:23.985000,91.0,-95.0,-156.0,-972.0,732.0,-332.0,682.0,-247.0,6.0
19:30:23.990000,91.0,-95.0,-156.0,-905.0,712.0,-325.0,682.0,-247.0,6.0
19:30:23.994000,86.0,-103.0,-137.0,-900.0,694.0,-318.0,682.0,-247.0,6.0
19:30:24.000000,84.0,-113.0,-101.0,-942.0,696.0,-317.0,669.0,-258.0,0.0
19:30:24.004000,79.0,-122.0,-60.0,-980.0,687.0,-314.0,669.0,-258.0,0.0
19:30:24.008000,67.0,-130.0,-16.0,-1015.0,678.0,-311.0,675.0,-244.0,-9.0
19:30:24.014000,47.0,-130.0,14.0,-1021.0,654.0,-310.0,675.0,-244.0,-9.0
19:30:24.018000,32.0,-132.0,73.0,-1002.0,602.0,-305.0,675.0,-244.0,-9.0
19:30:24.023000,18.0,-136.0,140.0,-1003.0,564.0,-302.0,670.0,-247.0,-7.0
19:30:24.028000,19.0,-141.0,172.0,-997.0,542.0,-298.0,670.0,-247.0,-7.0
19:30:24.032000,22.0,-144.0,200.0,-964.0,510.0,-287.0,666.0,-244.0,1.0
19:30:24.037000,24.0,-145.0,258.0,-914.0,481.0,-276.0,666.0,-244.0,1.0
19:30:24.041000,28.0,-147.0,324.0,-851.0,447.0,-267.0,666.0,-244.0,1.0
19:30:24.046000,37.0,-153.0,408.0,-788.0,412.0,-261.0,672.0,-252.0,1.0
19:30:24.051000,42.0,-162.0,466.0,-788.0,412.0,-261.0,672.0,-252.0,1.0
19:30:24.055000,47.0,-165.0,487.0,-690.0,390.0,-262.0,679.0,-262.0,16.0
19:30:24.061000,57.0,-170.0,500.0,-690.0,390.0,-262.0,679.0,-262.0,16.0
19:30:24.065000,49.0,-165.0,527.0,-654.0,369.0,-260.0,679.0,-262.0,16.0
19:30:24.070000,37.0,-158.0,548.0,-633.0,365.0,-259.0,685.0,-255.0,0.0
19:30:24.075000,21.0,-147.0,555.0,-623.0,376.0,-261.0,685.0,-255.0,0.0
19:30:24.079000,4.0,-134.0,541.0,-623.0,375.0,-264.0,675.0,-268.0,-1.0
19:30:24.084000,-8.0,-128.0,503.0,-629.0,362.0,-265.0,675.0,-268.0,-1.0
19:30:24.088000,-8.0,-128.0,503.0,-617.0,336.0,-264.0,675.0,-268.0,-1.0
19:30:24.093000,-20.0,-126.0,463.0,-583.0,292.0,-262.0,682.0,-267.0,3.0
19:30:24.098000,-20.0,-126.0,463.0,-559.0,250.0,-261.0,682.0,-267.0,3.0
19:30:24.102000,-12.0,-131.0,458.0,-557.0,241.0,-262.0,687.0,-267.0,-1.0
19:30:24.108000,2.0,-138.0,434.0,-553.0,255.0,-258.0,687.0,-267.0,-1.0
19:30:24.112000,9.0,-144.0,400.0,-534.0,271.0,-254.0,687.0,-267.0,-1.0
19:30:24.117000,16.0,-149.0,377.0,-509.0,278.0,-247.0,670.0,-270.0,-4.0
19:30:24.122000,21.0,-158.0,369.0,-488.0,280.0,-234.0,670.0,-270.0,-4.0
19:30:24.126000,23.0,-167.0,363.0,-466.0,281.0,-221.0,687.0,-274.0,0.0
19:30:24.131000,28.0,-177.0,357.0,-438.0,281.0,-206.0,687.0,-274.0,0.0
19:30:24.135000,36.0,-188.0,352.0,-412.0,290.0,-196.0,687.0,-274.0,0.0
19:30:24.140000,42.0,-201.0,347.0,-399.0,308.0,-182.0,675.0,-285.0,1.0
19:30:24.145000,42.0,-210.0,346.0,-399.0,322.0,-165.0,675.0,-285.0,1.0
19:30:24.149000,41.0,-214.0,350.0,-406.0,328.0,-153.0,688.0,-285.0,-1.0
19:30:24.155000,29.0,-219.0,354.0,-412.0,320.0,-142.0,688.0,-285.0,-1.0
19:30:24.159000,14.0,-219.0,361.0,-416.0,298.0,-130.0,688.0,-285.0,-1.0
19:30:24.164000,-5.0,-222.0,378.0,-416.0,298.0,-130.0,684.0,-294.0,-15.0
19:30:24.169000,-34.0,-223.0,400.0,-427.0,281.0,-120.0,684.0,-294.0,-15.0
19:30:24.173000,-70.0,-221.0,421.0,-447.0,280.0,-111.0,687.0,-286.0,-6.0
19:30:24.178000,-116.0,-214.0,437.0,-476.0,287.0,-105.0,687.0,-286.0,-6.0
19:30:24.182000,-168.0,-200.0,448.0,-509.0,293.0,-104.0,687.0,-286.0,-6.0
19:30:24.187000,-220.0,-182.0,446.0,-534.0,284.0,-106.0,687.0,-286.0,-6.0
19:30:24.192000,-266.0,-161.0,435.0,-539.0,255.0,-113.0,687.0,-286.0,-6.0
19:30:24.197000,-301.0,-140.0,414.0,-533.0,214.0,-125.0,682.0,-294.0,-3.0
19:30:24.202000,-324.0,-119.0,377.0,-532.0,177.0,-140.0,682.0,-294.0,-3.0
19:30:24.206000,-334.0,-98.0,322.0,-538.0,154.0,-154.0,691.0,-297.0,0.0
19:30:24.211000,-334.0,-98.0,322.0,-543.0,133.0,-167.0,691.0,-297.0,0.0
19:30:24.215000,-327.0,-85.0,262.0,-541.0,96.0,-175.0,691.0,-297.0,0.0
19:30:24.220000,-304.0,-79.0,212.0,-540.0,49.0,-178.0,694.0,-297.0,-4.0
19:30:24.225000,-268.0,-80.0,175.0,-541.0,12.0,-177.0,694.0,-297.0,-4.0
19:30:24.230000,-224.0,-89.0,145.0,-527.0,-13.0,-172.0,684.0,-298.0,-13.0
19:30:24.234000,-172.0,-106.0,136.0,-504.0,-28.0,-164.0,684.0,-298.0,-13.0
19:30:24.239000,-121.0,-126.0,151.0,-491.0,-20.0,-152.0,684.0,-298.0,-13.0
19:30:24.244000,-76.0,-147.0,175.0,-485.0,7.0,-140.0,682.0,-300.0,-13.0
19:30:24.249000,-39.0,-163.0,203.0,-476.0,36.0,-128.0,682.0,-300.0,-13.0
19:30:24.253000,-12.0,-178.0,240.0,-465.0,60.0,-118.0,691.0,-297.0,-9.0
19:30:24.258000,4.0,-189.0,287.0,-462.0,84.0,-110.0,691.0,-297.0,-9.0
19:30:24.262000,13.0,-198.0,336.0,-469.0,114.0,-104.0,691.0,-297.0,-9.0
19:30:24.267000,13.0,-205.0,384.0,-481.0,147.0,-98.0,690.0,-301.0,-16.0
19:30:24.272000,2.0,-205.0,427.0,-481.0,147.0,-98.0,690.0,-301.0,-16.0
19:30:24.277000,-15.0,-200.0,466.0,-494.0,172.0,-91.0,687.0,-315.0,-18.0
19:30:24.281000,-38.0,-193.0,504.0,-502.0,185.0,-85.0,687.0,-315.0,-18.0
19:30:24.289000,-61.0,-185.0,540.0,-496.0,177.0,-84.0,676.0,-313.0,0.0
19:30:24.291000,-83.0,-177.0,574.0,-496.0,177.0,-84.0,676.0,-313.0,0.0
19:30:24.295000,-102.0,-170.0,601.0,-490.0,174.0,-86.0,676.0,-313.0,0.0
19:30:24.300000,-117.0,-165.0,624.0,-486.0,169.0,-88.0,688.0,-322.0,-15.0
19:30:24.305000,-128.0,-161.0,648.0,-480.0,156.0,-87.0,688.0,-322.0,-15.0
19:30:24.310000,-132.0,-159.0,680.0,-472.0,131.0,-84.0,693.0,-327.0,-22.0
19:30:24.314000,-127.0,-161.0,721.0,-462.0,91.0,-82.0,693.0,-327.0,-22.0
19:30:24.318000,-127.0,-161.0,721.0,-452.0,45.0,-81.0,693.0,-327.0,-22.0
19:30:24.324000,-118.0,-165.0,770.0,-450.0,12.0,-80.0,691.0,-327.0,-27.0
19:30:24.328000,-105.0,-172.0,816.0,-456.0,-3.0,-80.0,691.0,-327.0,-27.0
19:30:24.333000,-93.0,-182.0,860.0,-463.0,-5.0,-80.0,688.0,-339.0,-18.0
19:30:24.338000,-83.0,-190.0,898.0,-472.0,4.0,-78.0,688.0,-339.0,-18.0
19:30:24.342000,-79.0,-198.0,926.0,-482.0,19.0,-73.0,688.0,-339.0,-18.0
19:30:24.347000,-82.0,-207.0,948.0,-487.0,35.0,-67.0,687.0,-342.0,-22.0
19:30:24.352000,-93.0,-217.0,960.0,-484.0,48.0,-63.0,687.0,-342.0,-22.0
19:30:24.357000,-111.0,-226.0,963.0,-476.0,61.0,-60.0,693.0,-358.0,-25.0
19:30:24.361000,-132.0,-235.0,959.0,-464.0,78.0,-59.0,693.0,-358.0,-25.0
19:30:24.365000,-155.0,-245.0,945.0,-455.0,96.0,-57.0,693.0,-358.0,-25.0
19:30:24.371000,-180.0,-255.0,925.0,-444.0,107.0,-54.0,691.0,-360.0,-27.0
19:30:24.375000,-203.0,-264.0,903.0,-429.0,103.0,-55.0,691.0,-360.0,-27.0
19:30:24.380000,-221.0,-275.0,887.0,-429.0,103.0,-55.0,669.0,-369.0,-19.0
19:30:24.385000,-231.0,-287.0,877.0,-413.0,82.0,-62.0,669.0,-369.0,-19.0
19:30:24.389000,-234.0,-301.0,870.0,-406.0,66.0,-71.0,669.0,-369.0,-19.0
19:30:24.394000,-236.0,-311.0,872.0,-408.0,60.0,-78.0,678.0,-372.0,-28.0
19:30:24.399000,-236.0,-322.0,891.0,-415.0,50.0,-85.0,678.0,-372.0,-28.0
19:30:24.404000,-237.0,-330.0,928.0,-422.0,28.0,-87.0,682.0,-375.0,-34.0
19:30:24.408000,-237.0,-338.0,979.0,-430.0,1.0,-90.0,682.0,-375.0,-34.0
19:30:24.412000,-238.0,-347.0,1036.0,-444.0,-19.0,-93.0,682.0,-375.0,-34.0
19:30:24.418000,-242.0,-352.0,1094.0,-463.0,-26.0,-95.0,688.0,-385.0,-39.0
19:30:24.422000,-249.0,-355.0,1154.0,-483.0,-26.0,-98.0,688.0,-385.0,-39.0
19:30:24.427000,-249.0,-355.0,1154.0,-504.0,-31.0,-99.0,673.0,-388.0,-43.0
