hh:mm:ss.ms,gyroX[mdps],gyroY[mdps],gyroZ[mdps],accX[mg],accY[mg],accZ[mg],magX[mG],magY[mG],magZ[mG]
19:31:06.960000,46.0,-101.0,63.0,-1217.0,-83.0,-255.0,667.0,-361.0,-24.0
19:31:06.964000,46.0,-101.0,63.0,-1232.0,-86.0,-243.0,667.0,-361.0,-24.0
19:31:06.969000,63.0,-106.0,-40.0,-1245.0,-75.0,-235.0,667.0,-372.0,-31.0
19:31:06.974000,63.0,-106.0,-40.0,-1282.0,-45.0,-232.0,667.0,-372.0,-31.0
19:31:06.978000,49.0,-93.0,-148.0,-1327.0,6.0,-232.0,654.0,-369.0,-27.0
19:31:06.983000,47.0,-82.0,-280.0,-1335.0,56.0,-230.0,654.0,-369.0,-27.0
19:31:06.987000,44.0,-72.0,-357.0,-1308.0,101.0,-232.0,654.0,-369.0,-27.0
19:31:06.992000,35.0,-65.0,-378.0,-1314.0,174.0,-238.0,660.0,-355.0,-34.0
19:31:06.997000,28.0,-65.0,-410.0,-1345.0,259.0,-244.0,660.0,-355.0,-34.0
19:31:07.001000,-17.0,-36.0,-436.0,-1332.0,297.0,-244.0,658.0,-349.0,-30.0
19:31:07.007000,-35.0,-4.0,-417.0,-1329.0,327.0,-226.0,658.0,-349.0,-30.0
19:31:07.011000,-36.0,15.0,-425.0,-1379.0,308.0,-219.0,658.0,-349.0,-30.0
19:31:07.016000,-100.0,63.0,-457.0,-1370.0,193.0,-219.0,658.0,-355.0,-42.0
19:31:07.021000,-77.0,77.0,-385.0,-1289.0,108.0,-210.0,658.0,-355.0,-42.0
19:31:07.025000,-44.0,72.0,-256.0,-1289.0,108.0,-210.0,654.0,-351.0,-33.0
19:31:07.030000,-54.0,98.0,-191.0,-1407.0,150.0,-250.0,654.0,-351.0,-33.0
19:31:07.034000,-49.0,126.0,-193.0,-1407.0,150.0,-250.0,654.0,-351.0,-33.0
19:31:07.039000,-56.0,176.0,-214.0,-1434.0,188.0,-237.0,661.0,-348.0,-33.0
19:31:07.044000,-60.0,227.0,-229.0,-1427.0,82.0,-259.0,661.0,-348.0,-33.0
19:31:07.049000,-59.0,260.0,-224.0,-1427.0,82.0,-259.0,646.0,-349.0,-25.0
19:31:07.054000,-14.0,274.0,-204.0,-1341.0,23.0,-259.0,646.0,-349.0,-25.0
19:31:07.058000,21.0,275.0,-171.0,-1240.0,52.0,-259.0,646.0,-349.0,-25.0
19:31:07.063000,35.0,277.0,-170.0,-1232.0,101.0,-274.0,660.0,-343.0,-36.0
19:31:07.068000,31.0,290.0,-201.0,-1230.0,88.0,-273.0,660.0,-343.0,-36.0
19:31:07.072000,59.0,271.0,-170.0,-1156.0,74.0,-269.0,666.0,-346.0,-30.0
19:31:07.077000,37.0,258.0,-150.0,-1100.0,120.0,-280.0,666.0,-346.0,-30.0
19:31:07.081000,37.0,258.0,-150.0,-1095.0,171.0,-297.0,666.0,-346.0,-30.0
19:31:07.086000,53.0,247.0,-149.0,-1093.0,186.0,-306.0,649.0,-342.0,-28.0
19:31:07.091000,63.0,221.0,-164.0,-1054.0,187.0,-303.0,649.0,-342.0,-28.0
19:31:07.096000,36.0,206.0,-175.0,-1003.0,184.0,-304.0,661.0,-343.0,-25.0
19:31:07.101000,23.0,177.0,-130.0,-1005.0,200.0,-311.0,661.0,-343.0,-25.0
19:31:07.105000,9.0,150.0,-172.0,-1025.0,201.0,-317.0,661.0,-343.0,-25.0
19:31:07.110000,7.0,112.0,-247.0,-996.0,171.0,-316.0,676.0,-331.0,-19.0
19:31:07.115000,-41.0,84.0,-268.0,-983.0,190.0,-322.0,676.0,-331.0,-19.0
19:31:07.119000,-64.0,61.0,-282.0,-964.0,178.0,-323.0,660.0,-328.0,-19.0
19:31:07.124000,-89.0,42.0,-270.0,-935.0,108.0,-320.0,660.0,-328.0,-19.0
19:31:07.128000,-79.0,17.0,-224.0,-950.0,73.0,-328.0,660.0,-328.0,-19.0
19:31:07.133000,-53.0,-18.0,-175.0,-978.0,104.0,-326.0,655.0,-336.0,-21.0
19:31:07.138000,-60.0,-37.0,-167.0,-1000.0,161.0,-324.0,655.0,-336.0,-21.0
19:31:07.143000,-72.0,-43.0,-189.0,-1000.0,161.0,-324.0,660.0,-330.0,-21.0
19:31:07.148000,-76.0,-51.0,-201.0,-1004.0,155.0,-325.0,660.0,-330.0,-21.0
19:31:07.152000,-57.0,-59.0,-194.0,-1003.0,117.0,-326.0,660.0,-330.0,-21.0
19:31:07.157000,-45.0,-67.0,-217.0,-1021.0,101.0,-323.0,660.0,-328.0,-13.0
19:31:07.162000,-18.0,-70.0,-250.0,-1033.0,94.0,-322.0,660.0,-328.0,-13.0
19:31:07.166000,7.0,-78.0,-279.0,-1048.0,111.0,-318.0,663.0,-331.0,-25.0
19:31:07.171000,30.0,-77.0,-267.0,-1080.0,93.0,-328.0,663.0,-331.0,-25.0
19:31:07.175000,44.0,-70.0,-263.0,-1121.0,49.0,-337.0,663.0,-331.0,-25.0
19:31:07.180000,54.0,-63.0,-299.0,-1177.0,80.0,-327.0,660.0,-327.0,-19.0
19:31:07.185000,59.0,-53.0,-290.0,-1188.0,122.0,-329.0,660.0,-327.0,-19.0
19:31:07.190000,59.0,-53.0,-290.0,-1155.0,137.0,-329.0,661.0,-325.0,-19.0
19:31:07.195000,79.0,-51.0,-266.0,-1127.0,138.0,-318.0,661.0,-325.0,-19.0
19:31:07.199000,91.0,-46.0,-257.0,-1129.0,137.0,-313.0,661.0,-325.0,-19.0
19:31:07.204000,109.0,-42.0,-279.0,-1142.0,143.0,-313.0,658.0,-330.0,-19.0
19:31:07.209000,123.0,-35.0,-301.0,-1130.0,142.0,-307.0,658.0,-330.0,-19.0
19:31:07.213000,133.0,-31.0,-323.0,-1115.0,126.0,-305.0,669.0,-328.0,-13.0
19:31:07.218000,127.0,-20.0,-359.0,-1102.0,108.0,-311.0,669.0,-328.0,-13.0
19:31:07.222000,148.0,-16.0,-378.0,-1108.0,114.0,-321.0,669.0,-328.0,-13.0
19:31:07.227000,161.0,-12.0,-392.0,-1112.0,142.0,-319.0,654.0,-330.0,-19.0
19:31:07.232000,163.0,-9.0,-400.0,-1108.0,192.0,-314.0,654.0,-330.0,-19.0
19:31:07.237000,155.0,-1.0,-436.0,-1103.0,251.0,-314.0,666.0,-313.0,-15.0
19:31:07.242000,149.0,7.0,-480.0,-1061.0,281.0,-304.0,666.0,-313.0,-15.0
19:31:07.246000,144.0,12.0,-489.0,-1015.0,271.0,-298.0,666.0,-313.0,-15.0
19:31:07.251000,140.0,14.0,-450.0,-1029.0,232.0,-297.0,652.0,-316.0,-22.0
19:31:07.256000,119.0,23.0,-403.0,-1029.0,232.0,-297.0,652.0,-316.0,-22.0
19:31:07.260000,106.0,32.0,-385.0,-1061.0,195.0,-293.0,663.0,-306.0,-13.0
19:31:07.265000,110.0,38.0,-399.0,-1091.0,204.0,-297.0,663.0,-306.0,-13.0
19:31:07.269000,100.0,49.0,-408.0,-1091.0,213.0,-298.0,658.0,-306.0,-6.0
19:31:07.274000,101.0,63.0,-403.0,-1091.0,213.0,-298.0,658.0,-306.0,-6.0
19:31:07.278000,102.0,70.0,-409.0,-1093.0,229.0,-297.0,658.0,-306.0,-6.0
19:31:07.284000,98.0,81.0,-414.0,-1108.0,250.0,-298.0,654.0,-307.0,-16.0
19:31:07.289000,109.0,89.0,-424.0,-1112.0,285.0,-299.0,654.0,-307.0,-16.0
19:31:07.293000,107.0,98.0,-446.0,-1115.0,308.0,-298.0,654.0,-304.0,-22.0
19:31:07.298000,102.0,111.0,-445.0,-1106.0,275.0,-302.0,654.0,-304.0,-22.0
19:31:07.302000,102.0,111.0,-445.0,-1095.0,228.0,-303.0,654.0,-304.0,-22.0
19:31:07.307000,112.0,115.0,-453.0,-1091.0,229.0,-304.0,658.0,-298.0,-18.0
19:31:07.312000,130.0,111.0,-464.0,-1095.0,277.0,-313.0,658.0,-298.0,-18.0
19:31:07.317000,156.0,103.0,-482.0,-1072.0,264.0,-312.0,666.0,-291.0,-24.0
19:31:07.321000,153.0,105.0,-479.0,-1045.0,227.0,-308.0,666.0,-291.0,-24.0
19:31:07.325000,180.0,89.0,-477.0,-1043.0,244.0,-310.0,666.0,-291.0,-24.0
19:31:07.331000,194.0,78.0,-480.0,-1032.0,241.0,-306.0,654.0,-294.0,-12.0
19:31:07.335000,209.0,62.0,-457.0,-1029.0,237.0,-300.0,654.0,-294.0,-12.0
19:31:07.340000,214.0,47.0,-441.0,-1034.0,268.0,-300.0,658.0,-297.0,-15.0
19:31:07.345000,225.0,37.0,-457.0,-1058.0,285.0,-298.0,658.0,-297.0,-15.0
19:31:07.349000,196.0,35.0,-477.0,-1081.0,262.0,-290.0,658.0,-297.0,-15.0
19:31:07.354000,180.0,36.0,-485.0,-1087.0,261.0,-280.0,661.0,-283.0,-13.0
19:31:07.359000,186.0,33.0,-499.0,-1081.0,288.0,-266.0,661.0,-283.0,-13.0
19:31:07.364000,147.0,46.0,-523.0,-1081.0,288.0,-266.0,657.0,-291.0,3.0
19:31:07.368000,135.0,57.0,-541.0,-1067.0,303.0,-261.0,657.0,-291.0,3.0
19:31:07.372000,130.0,61.0,-547.0,-1061.0,311.0,-261.0,657.0,-291.0,3.0
19:31:07.378000,101.0,73.0,-572.0,-1058.0,327.0,-244.0,657.0,-271.0,-19.0
19:31:07.382000,75.0,91.0,-591.0,-1042.0,328.0,-228.0,657.0,-271.0,-19.0
19:31:07.387000,78.0,99.0,-604.0,-1026.0,308.0,-226.0,660.0,-283.0,-15.0
19:31:07.392000,81.0,111.0,-636.0,-1029.0,288.0,-224.0,660.0,-283.0,-15.0
19:31:07.396000,81.0,111.0,-636.0,-1032.0,270.0,-228.0,660.0,-283.0,-15.0
19:31:07.401000,101.0,135.0,-706.0,-1046.0,271.0,-233.0,652.0,-268.0,-1.0
19:31:07.406000,121.0,149.0,-729.0,-1064.0,293.0,-238.0,652.0,-268.0,-1.0
19:31:07.411000,121.0,149.0,-729.0,-1062.0,296.0,-250.0,657.0,-274.0,-1.0
19:31:07.415000,129.0,166.0,-749.0,-1059.0,291.0,-255.0,657.0,-274.0,-1.0
19:31:07.419000,146.0,185.0,-772.0,-1062.0,330.0,-264.0,657.0,-274.0,-1.0
19:31:07.425000,177.0,197.0,-809.0,-1063.0,358.0,-269.0,657.0,-265.0,-12.0
19:31:07.429000,175.0,216.0,-805.0,-1065.0,354.0,-272.0,657.0,-265.0,-12.0
19:31:07.434000,189.0,231.0,-760.0,-1069.0,373.0,-277.0,655.0,-253.0,-3.0
19:31:07.439000,218.0,240.0,-746.0,-1054.0,430.0,-279.0,655.0,-253.0,-3.0
19:31:07.443000,247.0,251.0,-763.0,-1034.0,485.0,-276.0,655.0,-253.0,-3.0
19:31:07.448000,242.0,265.0,-730.0,-1020.0,512.0,-264.0,651.0,-258.0,3.0
19:31:07.453000,235.0,283.0,-691.0,-985.0,553.0,-274.0,651.0,-258.0,3.0
19:31:07.458000,262.0,291.0,-712.0,-985.0,509.0,-274.0,637.0,-244.0,15.0
19:31:07.462000,326.0,280.0,-819.0,-843.0,439.0,-376.0,637.0,-244.0,15.0
19:31:07.466000,265.0,308.0,-954.0,-965.0,575.0,-357.0,637.0,-244.0,15.0
19:31:07.472000,182.0,324.0,-991.0,-965.0,575.0,-357.0,654.0,-226.0,13.0
19:31:07.476000,122.0,343.0,-914.0,-1037.0,717.0,-347.0,654.0,-226.0,13.0
19:31:07.481000,88.0,344.0,-807.0,-1056.0,762.0,-341.0,655.0,-223.0,1.0
19:31:07.486000,71.0,319.0,-687.0,-1095.0,772.0,-328.0,655.0,-223.0,1.0
19:31:07.490000,89.0,295.0,-529.0,-1076.0,561.0,-309.0,655.0,-223.0,1.0
19:31:07.495000,97.0,275.0,-479.0,-1076.0,561.0,-309.0,649.0,-225.0,9.0
19:31:07.500000,122.0,252.0,-530.0,-1059.0,608.0,-306.0,649.0,-225.0,9.0
19:31:07.505000,101.0,260.0,-588.0,-959.0,627.0,-297.0,655.0,-214.0,4.0
19:31:07.509000,105.0,258.0,-623.0,-905.0,678.0,-293.0,655.0,-214.0,4.0
19:31:07.513000,105.0,258.0,-623.0,-945.0,752.0,-294.0,655.0,-214.0,4.0
19:31:07.519000,86.0,261.0,-561.0,-961.0,725.0,-294.0,651.0,-216.0,12.0
19:31:07.523000,75.0,269.0,-549.0,-864.0,676.0,-307.0,651.0,-216.0,12.0
19:31:07.528000,48.0,282.0,-569.0,-804.0,668.0,-308.0,649.0,-220.0,13.0
19:31:07.533000,42.0,269.0,-422.0,-878.0,702.0,-313.0,649.0,-220.0,13.0
19:31:07.540000,13.0,282.0,-323.0,-923.0,779.0,-344.0,646.0,-214.0,13.0
19:31:07.542000,13.0,282.0,-323.0,-923.0,779.0,-344.0,646.0,-214.0,13.0
19:31:07.546000,0.0,292.0,-431.0,-828.0,775.0,-356.0,646.0,-214.0,13.0
19:31:07.552000,-15.0,296.0,-504.0,-722.0,729.0,-362.0,636.0,-199.0,24.0
19:31:07.556000,-50.0,296.0,-463.0,-696.0,682.0,-386.0,636.0,-199.0,24.0
19:31:07.561000,-25.0,286.0,-385.0,-758.0,722.0,-422.0,640.0,-196.0,22.0
19:31:07.565000,-3.0,275.0,-399.0,-808.0,762.0,-436.0,640.0,-196.0,22.0
19:31:07.570000,-3.0,270.0,-367.0,-836.0,735.0,-427.0,640.0,-196.0,22.0
19:31:07.575000,2.0,256.0,-248.0,-902.0,699.0,-414.0,646.0,-201.0,30.0
19:31:07.580000,32.0,229.0,-164.0,-930.0,683.0,-409.0,646.0,-201.0,30.0
19:31:07.584000,68.0,202.0,-147.0,-872.0,649.0,-399.0,646.0,-195.0,31.0
19:31:07.589000,95.0,175.0,-107.0,-872.0,649.0,-399.0,646.0,-195.0,31.0
19:31:07.593000,146.0,137.0,-70.0,-790.0,621.0,-391.0,646.0,-195.0,31.0
19:31:07.599000,186.0,97.0,-53.0,-727.0,618.0,-384.0,654.0,-193.0,36.0
19:31:07.603000,196.0,60.0,-29.0,-678.0,610.0,-367.0,654.0,-193.0,36.0
19:31:07.608000,211.0,31.0,-9.0,-662.0,623.0,-361.0,657.0,-196.0,28.0
19:31:07.613000,213.0,1.0,-8.0,-681.0,661.0,-358.0,657.0,-196.0,28.0
19:31:07.617000,213.0,1.0,-8.0,-707.0,719.0,-352.0,657.0,-196.0,28.0
19:31:07.622000,172.0,-44.0,39.0,-706.0,719.0,-342.0,661.0,-192.0,36.0
19:31:07.627000,137.0,-61.0,89.0,-705.0,688.0,-332.0,661.0,-192.0,36.0
19:31:07.631000,137.0,-61.0,89.0,-711.0,687.0,-331.0,658.0,-201.0,43.0
19:31:07.636000,111.0,-77.0,91.0,-678.0,653.0,-319.0,658.0,-201.0,43.0
19:31:07.640000,70.0,-88.0,108.0,-615.0,595.0,-310.0,658.0,-201.0,43.0
19:31:07.646000,37.0,-93.0,168.0,-580.0,557.0,-309.0,658.0,-196.0,33.0
19:31:07.650000,10.0,-102.0,226.0,-574.0,533.0,-301.0,658.0,-196.0,33.0
19:31:07.655000,-25.0,-104.0,233.0,-543.0,496.0,-295.0,652.0,-192.0,27.0
19:31:07.660000,-46.0,-109.0,241.0,-498.0,461.0,-292.0,652.0,-192.0,27.0
19:31:07.664000,-53.0,-123.0,256.0,-462.0,418.0,-283.0,652.0,-192.0,27.0
19:31:07.669000,-78.0,-131.0,279.0,-447.0,398.0,-280.0,661.0,-195.0,33.0
19:31:07.674000,-71.0,-146.0,267.0,-437.0,417.0,-277.0,661.0,-195.0,33.0
19:31:07.678000,-64.0,-162.0,236.0,-407.0,402.0,-262.0,654.0,-192.0,31.0
19:31:07.683000,-65.0,-179.0,237.0,-390.0,376.0,-247.0,654.0,-192.0,31.0
19:31:07.687000,-48.0,-200.0,230.0,-381.0,350.0,-226.0,654.0,-192.0,31.0
19:31:07.693000,-37.0,-225.0,226.0,-381.0,350.0,-226.0,645.0,-201.0,33.0
19:31:07.697000,-13.0,-251.0,242.0,-350.0,297.0,-203.0,645.0,-201.0,33.0
19:31:07.702000,23.0,-277.0,256.0,-312.0,250.0,-186.0,657.0,-204.0,30.0
19:31:07.707000,56.0,-298.0,281.0,-280.0,224.0,-170.0,657.0,-204.0,30.0
19:31:07.711000,91.0,-319.0,310.0,-267.0,209.0,-157.0,657.0,-204.0,30.0
19:31:07.716000,119.0,-332.0,317.0,-284.0,218.0,-149.0,673.0,-207.0,22.0
19:31:07.721000,139.0,-333.0,304.0,-318.0,237.0,-141.0,673.0,-207.0,22.0
19:31:07.725000,139.0,-333.0,304.0,-352.0,248.0,-134.0,661.0,-217.0,21.0
19:31:07.730000,170.0,-328.0,259.0,-381.0,252.0,-129.0,661.0,-217.0,21.0
19:31:07.734000,170.0,-328.0,259.0,-409.0,259.0,-125.0,661.0,-217.0,21.0
19:31:07.740000,180.0,-317.0,226.0,-437.0,276.0,-120.0,669.0,-208.0,22.0
19:31:07.744000,184.0,-303.0,195.0,-463.0,290.0,-116.0,669.0,-208.0,22.0
19:31:07.749000,184.0,-288.0,177.0,-493.0,308.0,-115.0,673.0,-202.0,16.0
19:31:07.754000,185.0,-273.0,152.0,-521.0,327.0,-112.0,673.0,-202.0,16.0
19:31:07.758000,181.0,-254.0,134.0,-538.0,335.0,-108.0,673.0,-202.0,16.0
19:31:07.763000,175.0,-238.0,132.0,-550.0,343.0,-103.0,663.0,-202.0,15.0
19:31:07.767000,164.0,-220.0,142.0,-564.0,353.0,-99.0,663.0,-202.0,15.0
19:31:07.773000,151.0,-201.0,154.0,-574.0,361.0,-97.0,658.0,-210.0,13.0
19:31:07.777000,134.0,-185.0,177.0,-581.0,366.0,-96.0,658.0,-210.0,13.0
19:31:07.782000,114.0,-169.0,207.0,-587.0,370.0,-96.0,666.0,-216.0,18.0
19:31:07.787000,92.0,-153.0,241.0,-591.0,369.0,-97.0,666.0,-216.0,18.0
19:31:07.791000,66.0,-137.0,280.0,-597.0,365.0,-97.0,666.0,-216.0,18.0
19:31:07.796000,37.0,-120.0,313.0,-602.0,363.0,-96.0,666.0,-220.0,10.0
19:31:07.801000,5.0,-102.0,336.0,-602.0,363.0,-96.0,666.0,-220.0,10.0
19:31:07.805000,-24.0,-85.0,355.0,-596.0,356.0,-95.0,664.0,-222.0,4.0
19:31:07.810000,-53.0,-67.0,370.0,-581.0,337.0,-95.0,664.0,-222.0,4.0
19:31:07.814000,-78.0,-53.0,382.0,-543.0,275.0,-93.0,664.0,-222.0,4.0
19:31:07.820000,-99.0,-43.0,392.0,-543.0,275.0,-93.0,669.0,-229.0,15.0
19:31:07.824000,-112.0,-36.0,396.0,-525.0,233.0,-89.0,669.0,-229.0,15.0
19:31:07.829000,-121.0,-28.0,396.0,-509.0,186.0,-92.0,666.0,-228.0,4.0
19:31:07.834000,-126.0,-28.0,384.0,-496.0,150.0,-94.0,666.0,-228.0,4.0
19:31:07.838000,-126.0,-28.0,384.0,-477.0,125.0,-87.0,666.0,-228.0,4.0
19:31:07.843000,-111.0,-34.0,336.0,-447.0,96.0,-86.0,669.0,-219.0,9.0
19:31:07.848000,-111.0,-34.0,336.0,-426.0,68.0,-88.0,669.0,-219.0,9.0
19:31:07.852000,-91.0,-44.0,311.0,-420.0,56.0,-95.0,669.0,-225.0,12.0
19:31:07.857000,-66.0,-56.0,277.0,-433.0,72.0,-100.0,669.0,-225.0,12.0
19:31:07.864000,-31.0,-72.0,202.0,-488.0,134.0,-100.0,666.0,-231.0,28.0
19:31:07.867000,-31.0,-72.0,202.0,-488.0,134.0,-100.0,666.0,-231.0,28.0
19:31:07.871000,-24.0,-76.0,182.0,-505.0,142.0,-100.0,666.0,-231.0,28.0
19:31:07.876000,-16.0,-81.0,185.0,-518.0,141.0,-100.0,667.0,-234.0,7.0
19:31:07.881000,-7.0,-84.0,200.0,-534.0,141.0,-102.0,667.0,-234.0,7.0
19:31:07.885000,1.0,-89.0,222.0,-544.0,137.0,-103.0,669.0,-232.0,1.0
19:31:07.890000,11.0,-96.0,252.0,-549.0,129.0,-105.0,669.0,-232.0,1.0
19:31:07.894000,20.0,-103.0,287.0,-554.0,129.0,-108.0,669.0,-232.0,1.0
19:31:07.899000,25.0,-110.0,320.0,-563.0,137.0,-110.0,667.0,-246.0,3.0
19:31:07.904000,28.0,-116.0,353.0,-569.0,141.0,-111.0,667.0,-246.0,3.0
19:31:07.908000,25.0,-121.0,387.0,-572.0,145.0,-112.0,667.0,-234.0,7.0
19:31:07.914000,21.0,-125.0,406.0,-572.0,145.0,-112.0,667.0,-234.0,7.0
19:31:07.918000,14.0,-130.0,416.0,-571.0,148.0,-110.0,667.0,-234.0,7.0
19:31:07.923000,8.0,-135.0,423.0,-558.0,141.0,-107.0,660.0,-235.0,9.0
19:31:07.928000,2.0,-142.0,424.0,-543.0,135.0,-105.0,660.0,-235.0,9.0
19:31:07.932000,-4.0,-149.0,421.0,-538.0,138.0,-104.0,666.0,-250.0,10.0
19:31:07.937000,-15.0,-156.0,420.0,-535.0,147.0,-105.0,666.0,-250.0,10.0
19:31:07.941000,-27.0,-165.0,424.0,-529.0,153.0,-105.0,666.0,-250.0,10.0
19:31:07.946000,-39.0,-173.0,429.0,-522.0,161.0,-106.0,670.0,-255.0,0.0
19:31:07.951000,-50.0,-184.0,430.0,-515.0,171.0,-110.0,670.0,-255.0,0.0
19:31:07.955000,-50.0,-184.0,430.0,-509.0,184.0,-109.0,675.0,-256.0,1.0
19:31:07.961000,-67.0,-193.0,431.0,-503.0,192.0,-105.0,675.0,-256.0,1.0
19:31:07.965000,-86.0,-200.0,442.0,-494.0,183.0,-102.0,675.0,-256.0,1.0
19:31:07.970000,-103.0,-207.0,463.0,-492.0,167.0,-100.0,673.0,-253.0,-3.0
19:31:07.975000,-116.0,-213.0,480.0,-506.0,163.0,-98.0,673.0,-253.0,-3.0
19:31:07.979000,-127.0,-217.0,480.0,-528.0,170.0,-100.0,670.0,-262.0,-4.0
19:31:07.984000,-135.0,-219.0,474.0,-545.0,167.0,-105.0,670.0,-262.0,-4.0
19:31:07.988000,-142.0,-219.0,472.0,-562.0,157.0,-113.0,670.0,-262.0,-4.0
19:31:07.993000,-144.0,-219.0,478.0,-578.0,151.0,-119.0,676.0,-258.0,-3.0
19:31:07.998000,-149.0,-219.0,488.0,-586.0,150.0,-124.0,676.0,-258.0,-3.0
19:31:08.002000,-154.0,-217.0,506.0,-581.0,153.0,-131.0,667.0,-262.0,10.0
19:31:08.008000,-159.0,-217.0,529.0,-564.0,160.0,-138.0,667.0,-262.0,10.0
19:31:08.012000,-164.0,-220.0,553.0,-543.0,175.0,-145.0,667.0,-262.0,10.0
19:31:08.017000,-171.0,-225.0,580.0,-523.0,192.0,-148.0,667.0,-273.0,-10.0
19:31:08.022000,-179.0,-228.0,611.0,-523.0,192.0,-148.0,667.0,-273.0,-10.0
19:31:08.026000,-185.0,-232.0,655.0,-500.0,195.0,-152.0,664.0,-277.0,-10.0
19:31:08.031000,-184.0,-240.0,707.0,-475.0,173.0,-157.0,664.0,-277.0,-10.0
19:31:08.035000,-175.0,-251.0,755.0,-458.0,143.0,-160.0,664.0,-277.0,-10.0
19:31:08.040000,-163.0,-261.0,788.0,-459.0,133.0,-157.0,667.0,-274.0,-4.0
19:31:08.045000,-154.0,-271.0,815.0,-474.0,141.0,-149.0,667.0,-274.0,-4.0
19:31:08.050000,-144.0,-282.0,845.0,-482.0,140.0,-142.0,670.0,-288.0,-15.0
19:31:08.055000,-136.0,-293.0,874.0,-488.0,135.0,-136.0,670.0,-288.0,-15.0
19:31:08.059000,-135.0,-301.0,895.0,-502.0,145.0,-132.0,667.0,-289.0,-18.0
19:31:08.064000,-141.0,-305.0,908.0,-521.0,167.0,-126.0,667.0,-289.0,-18.0
19:31:08.068000,-141.0,-305.0,908.0,-540.0,188.0,-115.0,667.0,-289.0,-18.0
19:31:08.073000,-156.0,-306.0,919.0,-553.0,190.0,-106.0,672.0,-303.0,-19.0
19:31:08.078000,-173.0,-306.0,929.0,-563.0,178.0,-102.0,672.0,-303.0,-19.0
19:31:08.083000,-191.0,-306.0,934.0,-586.0,173.0,-99.0,670.0,-303.0,-21.0
19:31:08.087000,-210.0,-304.0,927.0,-619.0,173.0,-97.0,670.0,-303.0,-21.0
19:31:08.092000,-228.0,-302.0,916.0,-652.0,167.0,-100.0,670.0,-303.0,-21.0
19:31:08.097000,-247.0,-299.0,907.0,-688.0,162.0,-109.0,655.0,-310.0,-6.0
19:31:08.102000,-264.0,-293.0,893.0,-726.0,162.0,-117.0,655.0,-310.0,-6.0
19:31:08.106000,-284.0,-284.0,872.0,-756.0,153.0,-122.0,672.0,-325.0,-24.0
19:31:08.111000,-303.0,-273.0,853.0,-768.0,123.0,-132.0,672.0,-325.0,-24.0
19:31:08.115000,-316.0,-261.0,837.0,-780.0,90.0,-141.0,672.0,-325.0,-24.0
19:31:08.120000,-326.0,-249.0,808.0,-803.0,72.0,-149.0,669.0,-330.0,-27.0
19:31:08.125000,-333.0,-237.0,768.0,-832.0,70.0,-158.0,669.0,-330.0,-27.0
19:31:08.130000,-337.0,-220.0,725.0,-832.0,70.0,-158.0,669.0,-331.0,-25.0
19:31:08.134000,-343.0,-198.0,683.0,-918.0,84.0,-180.0,669.0,-331.0,-25.0
19:31:08.139000,-352.0,-170.0,647.0,-918.0,84.0,-180.0,669.0,-331.0,-25.0
19:31:08.144000,-357.0,-137.0,625.0,-969.0,76.0,-190.0,673.0,-327.0,-16.0
19:31:08.149000,-352.0,-108.0,616.0,-1013.0,35.0,-199.0,673.0,-327.0,-16.0
19:31:08.153000,-336.0,-85.0,607.0,-1053.0,-23.0,-206.0,664.0,-343.0,-33.0
19:31:08.158000,-311.0,-65.0,591.0,-1088.0,-69.0,-208.0,664.0,-343.0,-33.0
19:31:08.162000,-286.0,-65.0,571.0,-1111.0,-93.0,-204.0,664.0,-343.0,-33.0
19:31:08.167000,-259.0,-34.0,553.0,-1117.0,-100.0,-200.0,663.0,-336.0,-30.0
19:31:08.172000,-237.0,-21.0,536.0,-1111.0,-97.0,-200.0,663.0,-336.0,-30.0
19:31:08.177000,-237.0,-21.0,536.0,-1114.0,-74.0,-206.0,663.0,-352.0,-33.0
19:31:08.181000,-224.0,-4.0,515.0,-1131.0,-29.0,-213.0,663.0,-352.0,-33.0
19:31:08.186000,-221.0,13.0,485.0,-1150.0,22.0,-216.0,663.0,-352.0,-33.0
19:31:08.191000,-228.0,30.0,448.0,-1146.0,47.0,-218.0,642.0,-354.0,-24.0
19:31:08.196000,-233.0,45.0,424.0,-1112.0,29.0,-222.0,642.0,-354.0,-24.0
19:31:08.200000,-225.0,53.0,410.0,-1066.0,1.0,-229.0,664.0,-342.0,-31.0
19:31:08.205000,-205.0,53.0,382.0,-1024.0,0.0,-241.0,664.0,-342.0,-31.0
19:31:08.209000,-176.0,52.0,334.0,-987.0,31.0,-259.0,664.0,-342.0,-31.0
19:31:08.214000,-143.0,50.0,277.0,-961.0,90.0,-283.0,670.0,-354.0,-43.0
19:31:08.219000,-109.0,46.0,218.0,-960.0,184.0,-315.0,670.0,-354.0,-43.0
19:31:08.223000,-74.0,40.0,148.0,-987.0,311.0,-354.0,657.0,-345.0,-19.0
19:31:08.228000,-43.0,39.0,70.0,-1033.0,448.0,-393.0,657.0,-345.0,-19.0
19:31:08.233000,-23.0,37.0,-1.0,-1084.0,580.0,-426.0,657.0,-345.0,-19.0
19:31:08.238000,-11.0,36.0,-61.0,-1084.0,711.0,-450.0,658.0,-354.0,-33.0
19:31:08.243000,-12.0,39.0,-116.0,-1122.0,711.0,-450.0,658.0,-354.0,-33.0
19:31:08.247000,-26.0,44.0,-160.0,-1129.0,833.0,-465.0,658.0,-355.0,-33.0
19:31:08.252000,-51.0,48.0,-180.0,-1089.0,923.0,-470.0,658.0,-355.0,-33.0
19:31:08.256000,-79.0,49.0,-179.0,-1012.0,970.0,-463.0,658.0,-355.0,-33.0
19:31:08.261000,-108.0,44.0,-163.0,-918.0,975.0,-445.0,657.0,-351.0,-33.0
19:31:08.266000,-130.0,36.0,-119.0,-815.0,933.0,-422.0,657.0,-351.0,-33.0
19:31:08.270000,-126.0,27.0,-48.0,-713.0,831.0,-403.0,649.0,-348.0,-28.0
19:31:08.275000,-90.0,4.0,-7.0,-660.0,708.0,-391.0,649.0,-348.0,-28.0
19:31:08.280000,-90.0,4.0,-7.0,-647.0,628.0,-373.0,649.0,-348.0,-28.0
19:31:08.285000,-18.0,-42.0,23.0,-620.0,609.0,-353.0,660.0,-343.0,-34.0
19:31:08.290000,-18.0,-42.0,23.0,-605.0,657.0,-332.0,660.0,-343.0,-34.0
19:31:08.294000,21.0,-72.0,61.0,-621.0,758.0,-308.0,654.0,-355.0,-34.0
19:31:08.299000,50.0,-95.0,65.0,-648.0,853.0,-284.0,654.0,-355.0,-34.0
19:31:08.303000,63.0,-109.0,51.0,-682.0,915.0,-263.0,654.0,-355.0,-34.0
19:31:08.308000,56.0,-114.0,47.0,-728.0,956.0,-246.0,651.0,-349.0,-33.0
19:31:08.313000,37.0,-112.0,65.0,-782.0,992.0,-241.0,651.0,-349.0,-33.0
19:31:08.317000,9.0,-102.0,97.0,-843.0,1006.0,-247.0,655.0,-352.0,-40.0
19:31:08.322000,-17.0,-74.0,123.0,-964.0,988.0,-254.0,655.0,-352.0,-40.0
19:31:08.327000,-63.0,-57.0,117.0,-1290.0,901.0,-196.0,655.0,-352.0,-40.0
19:31:08.332000,-212.0,-45.0,-135.0,-2088.0,847.0,-273.0,651.0,-354.0,-31.0
19:31:08.337000,-176.0,50.0,-480.0,-2229.0,548.0,-244.0,651.0,-354.0,-31.0
19:31:08.341000,-219.0,28.0,846.0,-2229.0,548.0,-244.0,649.0,-346.0,-31.0
19:31:08.346000,-149.0,140.0,1437.0,-194.0,921.0,-317.0,649.0,-346.0,-31.0
19:31:08.350000,-123.0,130.0,971.0,-194.0,921.0,-317.0,649.0,-346.0,-31.0
19:31:08.355000,-168.0,179.0,316.0,-383.0,1022.0,-222.0,652.0,-361.0,-37.0
19:31:08.359000,-145.0,175.0,111.0,-509.0,544.0,-266.0,652.0,-361.0,-37.0
19:31:08.365000,-112.0,165.0,133.0,-509.0,544.0,-266.0,649.0,-369.0,-33.0
19:31:08.369000,-90.0,171.0,107.0,-792.0,522.0,-302.0,649.0,-369.0,-33.0
19:31:08.374000,-83.0,174.0,-16.0,-1127.0,596.0,-338.0,651.0,-367.0,-31.0
19:31:08.379000,-101.0,181.0,-14.0,-1281.0,565.0,-368.0,651.0,-367.0,-31.0
19:31:08.383000,-101.0,181.0,-14.0,-1312.0,436.0,-393.0,651.0,-367.0,-31.0
19:31:08.388000,-102.0,177.0,141.0,-1338.0,350.0,-427.0,658.0,-366.0,-30.0
19:31:08.393000,-116.0,174.0,128.0,-1294.0,323.0,-444.0,658.0,-366.0,-30.0
19:31:08.398000,-116.0,174.0,128.0,-1234.0,307.0,-442.0,649.0,-354.0,-33.0
19:31:08.402000,-117.0,168.0,115.0,-1167.0,286.0,-448.0,649.0,-354.0,-33.0
19:31:08.406000,-109.0,154.0,142.0,-1110.0,256.0,-442.0,649.0,-354.0,-33.0
19:31:08.412000,-100.0,132.0,158.0,-1060.0,264.0,-428.0,646.0,-366.0,-25.0
19:31:08.416000,-84.0,112.0,108.0,-1005.0,274.0,-415.0,646.0,-366.0,-25.0
19:31:08.421000,-74.0,92.0,63.0,-959.0,238.0,-395.0,645.0,-370.0,-31.0
19:31:08.426000,-83.0,72.0,80.0,-916.0,171.0,-374.0,645.0,-370.0,-31.0
19:31:08.430000,-65.0,36.0,154.0,-911.0,116.0,-355.0,645.0,-370.0,-31.0
19:31:08.435000,-58.0,5.0,203.0,-948.0,124.0,-331.0,649.0,-349.0,-33.0
19:31:08.440000,-61.0,-17.0,182.0,-970.0,113.0,-303.0,649.0,-349.0,-33.0
19:31:08.445000,-69.0,-42.0,168.0,-932.0,28.0,-269.0,649.0,-366.0,-34.0
19:31:08.449000,-77.0,-65.0,211.0,-897.0,-53.0,-242.0,649.0,-366.0,-34.0
19:31:08.453000,-69.0,-93.0,233.0,-907.0,-83.0,-223.0,649.0,-366.0,-34.0
19:31:08.459000,-60.0,-119.0,230.0,-907.0,-83.0,-223.0,645.0,-369.0,-24.0
19:31:08.463000,-56.0,-142.0,203.0,-932.0,-61.0,-203.0,645.0,-369.0,-24.0
19:31:08.468000,-63.0,-162.0,177.0,-954.0,-14.0,-177.0,654.0,-364.0,-36.0
19:31:08.473000,-70.0,-172.0,165.0,-961.0,3.0,-154.0,654.0,-364.0,-36.0
19:31:08.477000,-64.0,-184.0,135.0,-987.0,-3.0,-140.0,654.0,-364.0,-36.0
19:31:08.482000,-51.0,-195.0,105.0,-1036.0,-21.0,-128.0,646.0,-373.0,-21.0
19:31:08.487000,-35.0,-201.0,86.0,-1073.0,-53.0,-120.0,646.0,-373.0,-21.0
19:31:08.492000,-21.0,-198.0,53.0,-1118.0,-64.0,-123.0,649.0,-364.0,-25.0
19:31:08.496000,-9.0,-191.0,-5.0,-1189.0,-33.0,-133.0,649.0,-364.0,-25.0
19:31:08.500000,-9.0,-191.0,-5.0,-1245.0,14.0,-150.0,649.0,-364.0,-25.0
19:31:08.506000,-9.0,-177.0,-30.0,-1297.0,73.0,-168.0,637.0,-364.0,-19.0
19:31:08.510000,-14.0,-153.0,-46.0,-1360.0,114.0,-177.0,637.0,-364.0,-19.0
19:31:08.515000,-19.0,-123.0,-48.0,-1395.0,93.0,-180.0,642.0,-370.0,-39.0
19:31:08.520000,-9.0,-99.0,-24.0,-1401.0,34.0,-191.0,642.0,-370.0,-39.0
19:31:08.524000,14.0,-81.0,2.0,-1397.0,-33.0,-200.0,642.0,-370.0,-39.0
19:31:08.529000,44.0,-50.0,7.0,-1423.0,-71.0,-209.0,649.0,-369.0,-36.0
19:31:08.534000,70.0,-9.0,-30.0,-1462.0,-57.0,-221.0,649.0,-369.0,-36.0
19:31:08.539000,86.0,30.0,-45.0,-1470.0,-39.0,-233.0,648.0,-366.0,-30.0
19:31:08.543000,90.0,67.0,-38.0,-1456.0,-47.0,-239.0,648.0,-366.0,-30.0
19:31:08.547000,89.0,98.0,-13.0,-1428.0,-71.0,-242.0,648.0,-366.0,-30.0
19:31:08.553000,95.0,129.0,-1.0,-1405.0,-113.0,-245.0,633.0,-363.0,-27.0
19:31:08.557000,106.0,153.0,-38.0,-1383.0,-177.0,-248.0,633.0,-363.0,-27.0
19:31:08.562000,142.0,162.0,-77.0,-1383.0,-177.0,-248.0,633.0,-378.0,-25.0
19:31:08.567000,178.0,158.0,-72.0,-1326.0,-183.0,-248.0,633.0,-378.0,-25.0
19:31:08.571000,191.0,160.0,-57.0,-1262.0,-183.0,-248.0,633.0,-378.0,-25.0
19:31:08.576000,218.0,129.0,13.0,-1191.0,-154.0,-252.0,652.0,-366.0,-28.0
19:31:08.581000,221.0,110.0,105.0,-1139.0,-100.0,-245.0,652.0,-366.0,-28.0
19:31:08.585000,198.0,109.0,162.0,-1146.0,27.0,-244.0,643.0,-372.0,-10.0
19:31:08.590000,235.0,81.0,96.0,-1146.0,27.0,-244.0,643.0,-372.0,-10.0
19:31:08.594000,197.0,65.0,-26.0,-1123.0,140.0,-259.0,643.0,-372.0,-10.0
19:31:08.600000,149.0,62.0,-149.0,-1153.0,249.0,-248.0,646.0,-376.0,-25.0
19:31:08.604000,86.0,70.0,-159.0,-1249.0,113.0,-248.0,646.0,-376.0,-25.0
19:31:08.609000,83.0,49.0,-11.0,-1217.0,-187.0,-264.0,648.0,-369.0,-28.0
19:31:08.614000,76.0,29.0,99.0,-1123.0,-264.0,-264.0,648.0,-369.0,-28.0
19:31:08.618000,76.0,29.0,99.0,-1122.0,-156.0,-268.0,648.0,-369.0,-28.0
19:31:08.623000,60.0,0.0,28.0,-1110.0,-18.0,-244.0,643.0,-372.0,-24.0
19:31:08.628000,40.0,-20.0,-121.0,-1048.0,49.0,-222.0,643.0,-372.0,-24.0
19:31:08.632000,53.0,-38.0,-170.0,-969.0,32.0,-208.0,645.0,-373.0,-27.0
19:31:08.637000,65.0,-71.0,-107.0,-966.0,20.0,-187.0,645.0,-373.0,-27.0
19:31:08.641000,48.0,-89.0,-83.0,-1057.0,70.0,-190.0,645.0,-373.0,-27.0
19:31:08.647000,103.0,-104.0,-138.0,-1116.0,104.0,-193.0,634.0,-375.0,-33.0
19:31:08.651000,105.0,-116.0,-168.0,-1118.0,59.0,-172.0,634.0,-375.0,-33.0
19:31:08.656000,32.0,-90.0,-172.0,-1067.0,28.0,-159.0,637.0,-370.0,-34.0
19:31:08.661000,16.0,-81.0,-185.0,-1037.0,78.0,-158.0,637.0,-370.0,-34.0
19:31:08.665000,43.0,-96.0,-146.0,-1100.0,123.0,-157.0,637.0,-370.0,-34.0
19:31:08.670000,10.0,-91.0,-116.0,-1160.0,83.0,-163.0,640.0,-379.0,-27.0
19:31:08.674000,-5.0,-81.0,-144.0,-1145.0,0.0,-165.0,640.0,-379.0,-27.0
19:31:08.680000,14.0,-77.0,-149.0,-1145.0,0.0,-165.0,628.0,-373.0,-18.0
19:31:08.684000,27.0,-74.0,-176.0,-1140.0,-26.0,-160.0,628.0,-373.0,-18.0
19:31:08.689000,32.0,-65.0,-176.0,-1113.0,6.0,-159.0,645.0,-369.0,-30.0
19:31:08.694000,45.0,-62.0,-123.0,-1072.0,28.0,-161.0,645.0,-369.0,-30.0
19:31:08.698000,62.0,-44.0,-87.0,-1090.0,39.0,-177.0,645.0,-369.0,-30.0
19:31:08.703000,56.0,-28.0,-103.0,-1162.0,33.0,-183.0,640.0,-370.0,-22.0
19:31:08.708000,56.0,-2.0,-151.0,-1205.0,16.0,-187.0,640.0,-370.0,-22.0
19:31:08.713000,76.0,8.0,-189.0,-1186.0,-18.0,-202.0,637.0,-367.0,-33.0
19:31:08.717000,103.0,20.0,-171.0,-1139.0,-52.0,-207.0,637.0,-367.0,-33.0
19:31:08.721000,103.0,20.0,-171.0,-1100.0,-55.0,-211.0,637.0,-367.0,-33.0
19:31:08.727000,131.0,28.0,-131.0,-1128.0,-20.0,-207.0,642.0,-366.0,-31.0
19:31:08.731000,121.0,51.0,-142.0,-1180.0,14.0,-219.0,642.0,-366.0,-31.0
19:31:08.736000,130.0,72.0,-193.0,-1189.0,8.0,-239.0,648.0,-372.0,-37.0
19:31:08.741000,133.0,91.0,-215.0,-1165.0,15.0,-241.0,648.0,-372.0,-37.0
19:31:08.745000,140.0,104.0,-184.0,-1149.0,46.0,-231.0,648.0,-372.0,-37.0
19:31:08.750000,130.0,112.0,-184.0,-1141.0,47.0,-226.0,637.0,-376.0,-25.0
19:31:08.755000,108.0,126.0,-213.0,-1136.0,36.0,-238.0,637.0,-376.0,-25.0
19:31:08.760000,105.0,136.0,-229.0,-1143.0,70.0,-244.0,639.0,-361.0,-18.0
19:31:08.764000,121.0,134.0,-252.0,-1136.0,126.0,-240.0,639.0,-361.0,-18.0
19:31:08.772000,101.0,151.0,-272.0,-1054.0,114.0,-239.0,637.0,-361.0,-16.0
19:31:08.774000,101.0,151.0,-272.0,-1054.0,114.0,-239.0,637.0,-361.0,-16.0
19:31:08.778000,81.0,158.0,-245.0,-1096.0,95.0,-250.0,637.0,-361.0,-16.0
19:31:08.783000,86.0,158.0,-279.0,-1147.0,92.0,-251.0,640.0,-369.0,-30.0
19:31:08.788000,59.0,168.0,-322.0,-1147.0,92.0,-251.0,640.0,-369.0,-30.0
19:31:08.792000,36.0,169.0,-358.0,-1159.0,106.0,-251.0,652.0,-355.0,-22.0
19:31:08.797000,33.0,163.0,-385.0,-1136.0,160.0,-267.0,652.0,-355.0,-22.0
19:31:08.801000,8.0,154.0,-385.0,-1087.0,188.0,-272.0,652.0,-355.0,-22.0
19:31:08.807000,-9.0,149.0,-378.0,-1014.0,202.0,-264.0,636.0,-369.0,-25.0
19:31:08.811000,-1.0,141.0,-380.0,-1027.0,192.0,-285.0,636.0,-369.0,-25.0
19:31:08.816000,-2.0,140.0,-356.0,-1094.0,128.0,-299.0,646.0,-358.0,-21.0
19:31:08.821000,2.0,144.0,-344.0,-1118.0,82.0,-296.0,646.0,-358.0,-21.0
19:31:08.825000,2.0,144.0,-344.0,-1150.0,88.0,-303.0,646.0,-358.0,-21.0
19:31:08.830000,9.0,156.0,-383.0,-1169.0,123.0,-297.0,649.0,-352.0,-16.0
19:31:08.835000,9.0,156.0,-383.0,-1179.0,152.0,-293.0,649.0,-352.0,-16.0
19:31:08.839000,17.0,163.0,-392.0,-1182.0,149.0,-290.0,643.0,-351.0,-22.0
19:31:08.844000,9.0,177.0,-396.0,-1186.0,148.0,-283.0,643.0,-351.0,-22.0
19:31:08.848000,31.0,185.0,-403.0,-1157.0,129.0,-273.0,643.0,-351.0,-22.0
19:31:08.854000,38.0,193.0,-420.0,-1096.0,78.0,-262.0,649.0,-351.0,-19.0
19:31:08.858000,50.0,197.0,-442.0,-1053.0,44.0,-271.0,649.0,-351.0,-19.0
19:31:08.863000,106.0,197.0,-464.0,-1034.0,13.0,-284.0,648.0,-345.0,3.0
19:31:08.868000,137.0,196.0,-487.0,-1071.0,11.0,-278.0,648.0,-345.0,3.0
19:31:08.872000,175.0,189.0,-506.0,-1076.0,41.0,-266.0,648.0,-345.0,3.0
19:31:08.877000,212.0,179.0,-523.0,-1031.0,46.0,-265.0,646.0,-342.0,-16.0
19:31:08.882000,224.0,168.0,-532.0,-1027.0,72.0,-276.0,646.0,-342.0,-16.0
19:31:08.886000,265.0,149.0,-564.0,-1027.0,72.0,-276.0,649.0,-337.0,-10.0
19:31:08.891000,291.0,134.0,-610.0,-1024.0,166.0,-285.0,649.0,-337.0,-10.0
19:31:08.895000,310.0,119.0,-641.0,-1024.0,201.0,-280.0,649.0,-337.0,-10.0
19:31:08.901000,312.0,104.0,-627.0,-1010.0,264.0,-267.0,643.0,-331.0,-6.0
19:31:08.905000,301.0,91.0,-646.0,-1010.0,264.0,-267.0,643.0,-331.0,-6.0
19:31:08.910000,284.0,82.0,-657.0,-1019.0,334.0,-259.0,645.0,-328.0,-10.0
19:31:08.915000,268.0,69.0,-634.0,-1028.0,374.0,-253.0,645.0,-328.0,-10.0
19:31:08.919000,224.0,65.0,-604.0,-1050.0,386.0,-241.0,645.0,-328.0,-10.0
19:31:08.924000,181.0,65.0,-590.0,-1064.0,373.0,-228.0,651.0,-325.0,-9.0
19:31:08.929000,167.0,64.0,-588.0,-1057.0,385.0,-226.0,651.0,-325.0,-9.0
19:31:08.933000,147.0,65.0,-601.0,-1035.0,417.0,-219.0,648.0,-319.0,-12.0
19:31:08.938000,123.0,73.0,-610.0,-1025.0,435.0,-209.0,648.0,-319.0,-12.0
19:31:08.942000,123.0,73.0,-610.0,-1034.0,444.0,-207.0,648.0,-319.0,-12.0
19:31:08.947000,102.0,82.0,-599.0,-1055.0,458.0,-205.0,643.0,-316.0,-6.0
19:31:08.952000,77.0,94.0,-600.0,-1069.0,459.0,-204.0,643.0,-316.0,-6.0
19:31:08.957000,53.0,106.0,-612.0,-1068.0,429.0,-206.0,633.0,-315.0,3.0
19:31:08.962000,39.0,119.0,-620.0,-1061.0,410.0,-209.0,633.0,-315.0,3.0
19:31:08.966000,47.0,124.0,-612.0,-1056.0,419.0,-211.0,633.0,-315.0,3.0
19:31:08.971000,40.0,133.0,-583.0,-1075.0,436.0,-217.0,652.0,-303.0,-7.0
19:31:08.976000,32.0,148.0,-571.0,-1092.0,444.0,-218.0,652.0,-303.0,-7.0
19:31:08.980000,24.0,168.0,-566.0,-1095.0,424.0,-218.0,636.0,-307.0,-13.0
19:31:08.985000,18.0,189.0,-542.0,-1113.0,405.0,-226.0,636.0,-307.0,-13.0
19:31:08.989000,20.0,209.0,-521.0,-1132.0,413.0,-233.0,636.0,-307.0,-13.0
19:31:08.994000,16.0,226.0,-517.0,-1119.0,421.0,-242.0,649.0,-298.0,-6.0
19:31:08.999000,14.0,242.0,-501.0,-1078.0,423.0,-247.0,649.0,-298.0,-6.0
19:31:09.004000,26.0,251.0,-480.0,-1078.0,423.0,-247.0,651.0,-300.0,3.0
19:31:09.009000,49.0,256.0,-469.0,-1031.0,436.0,-250.0,651.0,-300.0,3.0
19:31:09.013000,65.0,261.0,-448.0,-984.0,440.0,-255.0,651.0,-300.0,3.0
19:31:09.018000,94.0,263.0,-435.0,-950.0,428.0,-258.0,651.0,-283.0,7.0
19:31:09.023000,128.0,261.0,-434.0,-946.0,417.0,-270.0,651.0,-283.0,7.0
19:31:09.027000,158.0,263.0,-432.0,-954.0,415.0,-281.0,652.0,-294.0,0.0
19:31:09.032000,189.0,262.0,-443.0,-968.0,439.0,-290.0,652.0,-294.0,0.0
19:31:09.036000,206.0,260.0,-460.0,-990.0,468.0,-296.0,652.0,-294.0,0.0
19:31:09.041000,225.0,252.0,-459.0,-1002.0,488.0,-304.0,655.0,-292.0,13.0
19:31:09.046000,244.0,243.0,-440.0,-1016.0,513.0,-321.0,655.0,-292.0,13.0
19:31:09.051000,238.0,241.0,-424.0,-1043.0,529.0,-331.0,655.0,-271.0,7.0
19:31:09.056000,238.0,241.0,-424.0,-1073.0,556.0,-338.0,655.0,-271.0,7.0
19:31:09.060000,220.0,245.0,-408.0,-1096.0,610.0,-347.0,655.0,-271.0,7.0
19:31:09.065000,191.0,255.0,-392.0,-1103.0,670.0,-352.0,651.0,-282.0,16.0
19:31:09.070000,156.0,263.0,-381.0,-1089.0,705.0,-361.0,651.0,-282.0,16.0
19:31:09.074000,126.0,273.0,-368.0,-1073.0,696.0,-368.0,661.0,-280.0,13.0
19:31:09.079000,98.0,273.0,-349.0,-1064.0,651.0,-367.0,661.0,-280.0,13.0
19:31:09.083000,78.0,266.0,-326.0,-1071.0,615.0,-363.0,654.0,-265.0,12.0
19:31:09.088000,46.0,248.0,-337.0,-1094.0,599.0,-370.0,654.0,-265.0,12.0
19:31:09.093000,58.0,231.0,-363.0,-1100.0,580.0,-362.0,654.0,-265.0,12.0
19:31:09.098000,46.0,210.0,-364.0,-1117.0,561.0,-347.0,660.0,-268.0,19.0
19:31:09.103000,18.0,202.0,-335.0,-1161.0,562.0,-349.0,660.0,-268.0,19.0
19:31:09.107000,2.0,196.0,-319.0,-1161.0,562.0,-349.0,657.0,-262.0,22.0
19:31:09.112000,-30.0,200.0,-289.0,-1150.0,533.0,-346.0,657.0,-262.0,22.0
19:31:09.116000,-42.0,201.0,-263.0,-1150.0,533.0,-346.0,657.0,-262.0,22.0
19:31:09.121000,-53.0,195.0,-244.0,-1097.0,480.0,-348.0,658.0,-271.0,28.0
19:31:09.126000,-43.0,187.0,-234.0,-1053.0,422.0,-352.0,658.0,-271.0,28.0
19:31:09.130000,-19.0,179.0,-226.0,-1059.0,375.0,-360.0,657.0,-253.0,31.0
19:31:09.135000,21.0,166.0,-200.0,-1059.0,375.0,-360.0,657.0,-253.0,31.0
19:31:09.140000,58.0,166.0,-242.0,-1089.0,383.0,-372.0,657.0,-253.0,31.0
19:31:09.145000,84.0,161.0,-340.0,-1055.0,403.0,-379.0,655.0,-264.0,31.0
19:31:09.150000,123.0,147.0,-364.0,-970.0,407.0,-366.0,655.0,-264.0,31.0
19:31:09.154000,165.0,126.0,-394.0,-920.0,437.0,-358.0,666.0,-270.0,34.0
19:31:09.159000,175.0,109.0,-420.0,-869.0,452.0,-347.0,666.0,-270.0,34.0
19:31:09.163000,175.0,109.0,-420.0,-809.0,415.0,-341.0,666.0,-270.0,34.0
19:31:09.168000,189.0,91.0,-346.0,-803.0,392.0,-340.0,658.0,-256.0,28.0
19:31:09.173000,190.0,75.0,-258.0,-811.0,417.0,-346.0,658.0,-256.0,28.0
19:31:09.178000,208.0,60.0,-244.0,-806.0,465.0,-354.0,658.0,-253.0,24.0
19:31:09.182000,200.0,53.0,-238.0,-815.0,523.0,-351.0,658.0,-253.0,24.0
19:31:09.187000,198.0,46.0,-236.0,-819.0,565.0,-345.0,658.0,-253.0,24.0
19:31:09.192000,166.0,47.0,-225.0,-808.0,550.0,-337.0,655.0,-243.0,34.0
19:31:09.197000,138.0,54.0,-195.0,-802.0,510.0,-333.0,655.0,-243.0,34.0
19:31:09.201000,116.0,60.0,-159.0,-795.0,471.0,-327.0,663.0,-249.0,31.0
19:31:09.206000,98.0,64.0,-131.0,-772.0,451.0,-330.0,663.0,-249.0,31.0
19:31:09.210000,95.0,63.0,-128.0,-746.0,439.0,-337.0,663.0,-249.0,31.0
19:31:09.215000,85.0,67.0,-147.0,-745.0,439.0,-338.0,664.0,-249.0,30.0
19:31:09.220000,82.0,64.0,-212.0,-740.0,435.0,-334.0,664.0,-249.0,30.0
19:31:09.225000,79.0,65.0,-268.0,-740.0,435.0,-334.0,660.0,-246.0,46.0
19:31:09.229000,86.0,53.0,-295.0,-712.0,399.0,-327.0,660.0,-246.0,46.0
19:31:09.234000,97.0,37.0,-308.0,-674.0,365.0,-317.0,660.0,-246.0,46.0
19:31:09.239000,116.0,17.0,-296.0,-632.0,338.0,-308.0,669.0,-244.0,42.0
19:31:09.244000,150.0,-12.0,-284.0,-594.0,322.0,-300.0,669.0,-244.0,42.0
19:31:09.248000,179.0,-46.0,-261.0,-559.0,319.0,-290.0,667.0,-252.0,28.0
19:31:09.253000,196.0,-77.0,-217.0,-530.0,334.0,-278.0,667.0,-252.0,28.0
19:31:09.257000,209.0,-112.0,-171.0,-512.0,371.0,-267.0,667.0,-252.0,28.0
19:31:09.262000,208.0,-141.0,-114.0,-487.0,410.0,-255.0,658.0,-247.0,40.0
19:31:09.267000,196.0,-170.0,-33.0,-467.0,439.0,-241.0,658.0,-247.0,40.0
19:31:09.272000,177.0,-193.0,35.0,-465.0,472.0,-224.0,654.0,-247.0,28.0
19:31:09.276000,177.0,-193.0,35.0,-454.0,498.0,-202.0,654.0,-247.0,28.0
19:31:09.281000,135.0,-204.0,110.0,-434.0,501.0,-179.0,654.0,-247.0,28.0
19:31:09.286000,94.0,-210.0,177.0,-417.0,482.0,-158.0,661.0,-247.0,30.0
19:31:09.291000,44.0,-207.0,227.0,-399.0,439.0,-136.0,661.0,-247.0,30.0
19:31:09.295000,-2.0,-200.0,268.0,-396.0,397.0,-122.0,666.0,-243.0,36.0
19:31:09.300000,-39.0,-193.0,281.0,-412.0,363.0,-115.0,666.0,-243.0,36.0
19:31:09.304000,-70.0,-181.0,261.0,-435.0,329.0,-113.0,666.0,-243.0,36.0
19:31:09.309000,-102.0,-164.0,239.0,-478.0,309.0,-116.0,654.0,-249.0,31.0
19:31:09.314000,-127.0,-145.0,203.0,-532.0,300.0,-124.0,654.0,-249.0,31.0
19:31:09.319000,-149.0,-126.0,158.0,-573.0,278.0,-131.0,661.0,-246.0,25.0
19:31:09.323000,-163.0,-103.0,123.0,-602.0,246.0,-141.0,661.0,-246.0,25.0
19:31:09.328000,-169.0,-84.0,93.0,-616.0,219.0,-152.0,661.0,-246.0,25.0
19:31:09.333000,-171.0,-65.0,60.0,-613.0,199.0,-162.0,664.0,-243.0,36.0
19:31:09.338000,-167.0,-50.0,34.0,-613.0,199.0,-162.0,664.0,-243.0,36.0
19:31:09.342000,-158.0,-41.0,18.0,-590.0,186.0,-174.0,660.0,-247.0,21.0
19:31:09.347000,-147.0,-36.0,13.0,-553.0,186.0,-185.0,660.0,-247.0,21.0
19:31:09.351000,-137.0,-36.0,18.0,-515.0,203.0,-195.0,660.0,-247.0,21.0
19:31:09.356000,-133.0,-37.0,39.0,-487.0,225.0,-201.0,657.0,-244.0,30.0
19:31:09.361000,-128.0,-40.0,69.0,-468.0,236.0,-205.0,657.0,-244.0,30.0
19:31:09.366000,-123.0,-43.0,100.0,-464.0,231.0,-206.0,672.0,-249.0,36.0
19:31:09.370000,-114.0,-48.0,128.0,-472.0,215.0,-207.0,672.0,-249.0,36.0
19:31:09.375000,-114.0,-48.0,128.0,-484.0,194.0,-208.0,672.0,-249.0,36.0
19:31:09.380000,-81.0,-63.0,175.0,-494.0,173.0,-206.0,666.0,-244.0,22.0
19:31:09.385000,-81.0,-63.0,175.0,-502.0,156.0,-201.0,666.0,-244.0,22.0
19:31:09.389000,-57.0,-70.0,189.0,-504.0,145.0,-194.0,661.0,-255.0,25.0
19:31:09.394000,-32.0,-78.0,195.0,-494.0,132.0,-184.0,661.0,-255.0,25.0
19:31:09.398000,-7.0,-87.0,203.0,-479.0,118.0,-171.0,661.0,-255.0,25.0
19:31:09.403000,16.0,-95.0,212.0,-465.0,110.0,-157.0,661.0,-250.0,39.0
19:31:09.408000,38.0,-102.0,219.0,-458.0,115.0,-144.0,661.0,-250.0,39.0
19:31:09.413000,60.0,-110.0,217.0,-455.0,130.0,-134.0,669.0,-249.0,31.0
19:31:09.417000,75.0,-114.0,214.0,-458.0,149.0,-124.0,669.0,-249.0,31.0
19:31:09.422000,83.0,-114.0,213.0,-470.0,177.0,-118.0,669.0,-249.0,31.0
19:31:09.427000,86.0,-114.0,209.0,-480.0,202.0,-116.0,664.0,-261.0,30.0
19:31:09.432000,81.0,-109.0,213.0,-486.0,214.0,-114.0,664.0,-261.0,30.0
19:31:09.436000,71.0,-102.0,232.0,-486.0,214.0,-114.0,672.0,-264.0,33.0
19:31:09.441000,58.0,-94.0,259.0,-501.0,227.0,-117.0,672.0,-264.0,33.0
19:31:09.445000,42.0,-85.0,294.0,-501.0,227.0,-117.0,672.0,-264.0,33.0
19:31:09.450000,25.0,-76.0,329.0,-536.0,231.0,-129.0,661.0,-259.0,22.0
19:31:09.455000,9.0,-64.0,358.0,-536.0,231.0,-129.0,661.0,-259.0,22.0
19:31:09.460000,-3.0,-55.0,385.0,-549.0,233.0,-136.0,660.0,-265.0,40.0
19:31:09.464000,-11.0,-50.0,416.0,-550.0,223.0,-142.0,660.0,-265.0,40.0
19:31:09.469000,-9.0,-52.0,444.0,-546.0,202.0,-146.0,660.0,-265.0,40.0
19:31:09.474000,0.0,-61.0,475.0,-536.0,173.0,-149.0,670.0,-262.0,37.0
19:31:09.479000,10.0,-73.0,514.0,-516.0,137.0,-146.0,670.0,-262.0,37.0
19:31:09.483000,23.0,-88.0,557.0,-492.0,103.0,-141.0,670.0,-276.0,24.0
19:31:09.488000,36.0,-103.0,585.0,-480.0,87.0,-136.0,670.0,-276.0,24.0
19:31:09.492000,36.0,-103.0,585.0,-485.0,95.0,-133.0,670.0,-276.0,24.0
19:31:09.497000,42.0,-115.0,588.0,-496.0,113.0,-132.0,673.0,-264.0,18.0
19:31:09.502000,39.0,-124.0,576.0,-502.0,125.0,-133.0,673.0,-264.0,18.0
19:31:09.507000,31.0,-132.0,561.0,-506.0,131.0,-136.0,669.0,-277.0,25.0
19:31:09.511000,16.0,-135.0,544.0,-513.0,146.0,-136.0,669.0,-277.0,25.0
19:31:09.516000,-4.0,-135.0,523.0,-518.0,163.0,-135.0,669.0,-277.0,25.0
19:31:09.521000,-30.0,-133.0,500.0,-518.0,166.0,-137.0,666.0,-279.0,24.0
19:31:09.526000,-51.0,-131.0,475.0,-513.0,152.0,-139.0,666.0,-279.0,24.0
19:31:09.530000,-63.0,-132.0,452.0,-509.0,136.0,-141.0,670.0,-294.0,19.0
19:31:09.535000,-69.0,-133.0,428.0,-512.0,130.0,-140.0,670.0,-294.0,19.0
19:31:09.539000,-74.0,-133.0,408.0,-516.0,125.0,-137.0,670.0,-294.0,19.0
19:31:09.544000,-77.0,-133.0,404.0,-522.0,110.0,-136.0,678.0,-298.0,15.0
19:31:09.549000,-79.0,-133.0,416.0,-533.0,92.0,-137.0,678.0,-298.0,15.0
19:31:09.554000,-81.0,-130.0,431.0,-533.0,92.0,-137.0,672.0,-304.0,28.0
19:31:09.558000,-79.0,-130.0,436.0,-547.0,81.0,-140.0,672.0,-304.0,28.0
19:31:09.563000,-75.0,-129.0,431.0,-558.0,78.0,-144.0,672.0,-304.0,28.0
19:31:09.568000,-72.0,-127.0,415.0,-567.0,86.0,-146.0,667.0,-303.0,21.0
19:31:09.573000,-71.0,-125.0,398.0,-575.0,96.0,-149.0,667.0,-303.0,21.0
19:31:09.577000,-74.0,-121.0,383.0,-586.0,106.0,-151.0,678.0,-303.0,18.0
19:31:09.582000,-77.0,-116.0,373.0,-596.0,110.0,-150.0,678.0,-303.0,18.0
19:31:09.586000,-81.0,-110.0,367.0,-599.0,102.0,-146.0,678.0,-303.0,18.0
19:31:09.591000,-83.0,-106.0,357.0,-592.0,89.0,-142.0,672.0,-309.0,19.0
19:31:09.596000,-78.0,-104.0,343.0,-572.0,75.0,-144.0,672.0,-309.0,19.0
19:31:09.601000,-65.0,-104.0,324.0,-544.0,66.0,-150.0,660.0,-306.0,22.0
19:31:09.605000,-65.0,-104.0,324.0,-526.0,70.0,-160.0,660.0,-306.0,22.0
19:31:09.610000,-51.0,-106.0,305.0,-521.0,87.0,-169.0,660.0,-306.0,22.0
19:31:09.615000,-42.0,-111.0,294.0,-527.0,108.0,-173.0,682.0,-315.0,7.0
19:31:09.620000,-38.0,-114.0,295.0,-538.0,123.0,-176.0,682.0,-315.0,7.0
19:31:09.624000,-42.0,-118.0,303.0,-548.0,129.0,-176.0,660.0,-307.0,15.0
19:31:09.629000,-46.0,-121.0,310.0,-553.0,130.0,-176.0,660.0,-307.0,15.0
19:31:09.633000,-49.0,-123.0,312.0,-555.0,131.0,-177.0,660.0,-307.0,15.0
19:31:09.638000,-51.0,-120.0,310.0,-561.0,128.0,-177.0,675.0,-312.0,13.0
19:31:09.643000,-50.0,-114.0,305.0,-574.0,120.0,-177.0,675.0,-312.0,13.0
19:31:09.648000,-46.0,-105.0,301.0,-595.0,109.0,-179.0,670.0,-319.0,4.0
19:31:09.652000,-38.0,-94.0,294.0,-621.0,103.0,-183.0,670.0,-319.0,4.0
19:31:09.657000,-28.0,-85.0,280.0,-644.0,105.0,-184.0,670.0,-319.0,4.0
19:31:09.662000,-19.0,-77.0,262.0,-654.0,116.0,-184.0,673.0,-319.0,6.0
19:31:09.667000,-10.0,-72.0,246.0,-654.0,116.0,-184.0,673.0,-319.0,6.0
19:31:09.671000,-3.0,-70.0,235.0,-653.0,134.0,-185.0,670.0,-324.0,13.0
19:31:09.676000,-5.0,-71.0,227.0,-646.0,166.0,-184.0,670.0,-324.0,13.0
19:31:09.680000,-16.0,-74.0,228.0,-634.0,243.0,-181.0,670.0,-324.0,13.0
19:31:09.685000,-35.0,-78.0,240.0,-617.0,243.0,-181.0,660.0,-330.0,15.0
19:31:09.690000,-62.0,-84.0,260.0,-607.0,269.0,-182.0,660.0,-330.0,15.0
19:31:09.695000,-92.0,-94.0,280.0,-608.0,282.0,-186.0,670.0,-324.0,15.0
19:31:09.699000,-125.0,-104.0,297.0,-623.0,287.0,-189.0,670.0,-324.0,15.0
19:31:09.704000,-125.0,-104.0,297.0,-651.0,290.0,-190.0,670.0,-324.0,15.0
19:31:09.709000,-199.0,-125.0,319.0,-685.0,286.0,-195.0,667.0,-331.0,1.0
19:31:09.714000,-199.0,-125.0,319.0,-727.0,277.0,-202.0,667.0,-331.0,1.0
19:31:09.718000,-233.0,-135.0,318.0,-777.0,275.0,-208.0,669.0,-325.0,0.0
19:31:09.723000,-267.0,-146.0,307.0,-826.0,279.0,-215.0,669.0,-325.0,0.0
19:31:09.730000,-333.0,-163.0,275.0,-889.0,274.0,-217.0,672.0,-340.0,0.0
19:31:09.732000,-333.0,-163.0,275.0,-889.0,274.0,-217.0,672.0,-340.0,0.0
19:31:09.736000,-366.0,-170.0,267.0,-892.0,250.0,-217.0,672.0,-340.0,0.0
19:31:09.742000,-390.0,-183.0,265.0,-884.0,213.0,-218.0,669.0,-333.0,6.0
19:31:09.746000,-401.0,-200.0,264.0,-874.0,176.0,-220.0,669.0,-333.0,6.0
19:31:09.751000,-399.0,-217.0,260.0,-869.0,151.0,-221.0,658.0,-336.0,-1.0
19:31:09.756000,-386.0,-238.0,254.0,-868.0,136.0,-225.0,658.0,-336.0,-1.0
19:31:09.760000,-362.0,-263.0,249.0,-874.0,139.0,-234.0,658.0,-336.0,-1.0
19:31:09.765000,-331.0,-291.0,244.0,-895.0,174.0,-244.0,658.0,-333.0,6.0
19:31:09.770000,-303.0,-317.0,228.0,-925.0,248.0,-256.0,658.0,-333.0,6.0
19:31:09.775000,-281.0,-335.0,201.0,-959.0,347.0,-276.0,661.0,-339.0,-6.0
19:31:09.779000,-265.0,-341.0,167.0,-959.0,347.0,-276.0,661.0,-339.0,-6.0
19:31:09.783000,-255.0,-335.0,117.0,-1001.0,470.0,-304.0,661.0,-339.0,-6.0
19:31:09.789000,-254.0,-312.0,54.0,-1054.0,605.0,-337.0,658.0,-342.0,-6.0
19:31:09.793000,-262.0,-275.0,-9.0,-1107.0,730.0,-369.0,658.0,-342.0,-6.0
19:31:09.798000,-277.0,-221.0,-61.0,-1143.0,822.0,-398.0,660.0,-331.0,1.0
19:31:09.803000,-283.0,-160.0,-98.0,-1157.0,866.0,-428.0,660.0,-331.0,1.0
