hh:mm:ss.ms,gyroX[mdps],gyroY[mdps],gyroZ[mdps],accX[mg],accY[mg],accZ[mg],magX[mG],magY[mG],magZ[mG]
19:30:38.240000,-104.0,-7.0,21.0,-1232.0,-205.0,-200.0,546.0,-321.0,478.0
19:30:38.244000,-42.0,13.0,-58.0,-1291.0,-198.0,-221.0,546.0,-321.0,478.0
19:30:38.249000,-42.0,13.0,-58.0,-1333.0,-156.0,-233.0,541.0,-321.0,483.0
19:30:38.254000,9.0,30.0,-121.0,-1350.0,-78.0,-237.0,541.0,-321.0,483.0
19:30:38.258000,32.0,60.0,-166.0,-1323.0,-9.0,-234.0,541.0,-321.0,483.0
19:30:38.263000,49.0,88.0,-163.0,-1273.0,6.0,-231.0,531.0,-321.0,469.0
19:30:38.268000,56.0,120.0,-142.0,-1217.0,-8.0,-224.0,531.0,-321.0,469.0
19:30:38.273000,88.0,130.0,-110.0,-1167.0,-10.0,-218.0,528.0,-318.0,478.0
19:30:38.277000,135.0,130.0,-51.0,-1146.0,10.0,-215.0,528.0,-318.0,478.0
19:30:38.281000,163.0,134.0,13.0,-1160.0,44.0,-208.0,528.0,-318.0,478.0
19:30:38.287000,172.0,144.0,35.0,-1202.0,75.0,-205.0,535.0,-316.0,486.0
19:30:38.291000,179.0,160.0,-9.0,-1222.0,78.0,-206.0,535.0,-316.0,486.0
19:30:38.296000,203.0,172.0,-57.0,-1222.0,64.0,-199.0,525.0,-312.0,483.0
19:30:38.301000,216.0,183.0,-54.0,-1163.0,61.0,-190.0,525.0,-312.0,483.0
19:30:38.305000,234.0,182.0,-36.0,-1115.0,69.0,-182.0,526.0,-319.0,486.0
19:30:38.310000,241.0,181.0,-50.0,-1115.0,69.0,-182.0,526.0,-319.0,486.0
19:30:38.314000,245.0,189.0,-98.0,-1111.0,67.0,-174.0,526.0,-319.0,486.0
19:30:38.320000,247.0,186.0,-103.0,-1103.0,39.0,-166.0,535.0,-309.0,480.0
19:30:38.324000,231.0,190.0,-95.0,-1085.0,-4.0,-164.0,535.0,-309.0,480.0
19:30:38.328000,249.0,168.0,-100.0,-1093.0,0.0,-170.0,525.0,-319.0,487.0
19:30:38.334000,224.0,168.0,-112.0,-1088.0,43.0,-179.0,525.0,-319.0,487.0
19:30:38.338000,196.0,159.0,-147.0,-1083.0,95.0,-187.0,525.0,-319.0,487.0
19:30:38.343000,133.0,162.0,-172.0,-1067.0,137.0,-199.0,531.0,-309.0,484.0
19:30:38.347000,133.0,162.0,-172.0,-1015.0,152.0,-194.0,531.0,-309.0,484.0
19:30:38.352000,72.0,142.0,-154.0,-957.0,195.0,-188.0,523.0,-313.0,493.0
19:30:38.357000,72.0,142.0,-154.0,-943.0,212.0,-189.0,523.0,-313.0,493.0
19:30:38.362000,47.0,123.0,-137.0,-953.0,126.0,-188.0,519.0,-306.0,477.0
19:30:38.367000,14.0,97.0,-61.0,-945.0,40.0,-210.0,519.0,-306.0,477.0
19:30:38.371000,-9.0,78.0,-44.0,-953.0,74.0,-215.0,519.0,-306.0,477.0
19:30:38.376000,-4.0,62.0,-112.0,-972.0,151.0,-212.0,523.0,-316.0,490.0
19:30:38.381000,-7.0,33.0,-143.0,-968.0,179.0,-204.0,523.0,-316.0,490.0
19:30:38.385000,-32.0,20.0,-128.0,-948.0,176.0,-193.0,520.0,-312.0,493.0
19:30:38.390000,-46.0,11.0,-140.0,-971.0,124.0,-204.0,520.0,-312.0,493.0
19:30:38.394000,-69.0,9.0,-170.0,-994.0,-4.0,-202.0,520.0,-312.0,493.0
19:30:38.399000,-94.0,7.0,-160.0,-990.0,-78.0,-196.0,513.0,-300.0,486.0
19:30:38.404000,-70.0,-20.0,-165.0,-992.0,-18.0,-199.0,513.0,-300.0,486.0
19:30:38.409000,-30.0,-44.0,-158.0,-992.0,-18.0,-199.0,528.0,-307.0,486.0
19:30:38.414000,-7.0,-42.0,-154.0,-1000.0,113.0,-193.0,528.0,-307.0,486.0
19:30:38.418000,8.0,-40.0,-186.0,-1000.0,113.0,-193.0,528.0,-307.0,486.0
19:30:38.423000,-1.0,-30.0,-226.0,-1041.0,124.0,-190.0,522.0,-300.0,490.0
19:30:38.428000,-4.0,-22.0,-227.0,-1055.0,78.0,-184.0,522.0,-300.0,490.0
19:30:38.432000,24.0,-24.0,-193.0,-1037.0,49.0,-180.0,517.0,-306.0,478.0
19:30:38.437000,49.0,-22.0,-158.0,-1011.0,38.0,-171.0,517.0,-306.0,478.0
19:30:38.444000,79.0,-23.0,-188.0,-1036.0,142.0,-137.0,519.0,-304.0,487.0
19:30:38.446000,60.0,2.0,-261.0,-1036.0,142.0,-137.0,519.0,-304.0,487.0
19:30:38.450000,51.0,21.0,-238.0,-1011.0,108.0,-121.0,519.0,-304.0,487.0
19:30:38.456000,57.0,21.0,-214.0,-1052.0,-9.0,-133.0,523.0,-300.0,489.0
19:30:38.460000,82.0,21.0,-291.0,-1154.0,-30.0,-173.0,523.0,-300.0,489.0
19:30:38.465000,82.0,21.0,-291.0,-1180.0,7.0,-184.0,522.0,-297.0,490.0
19:30:38.470000,63.0,42.0,-329.0,-1128.0,27.0,-172.0,522.0,-297.0,490.0
19:30:38.474000,92.0,48.0,-295.0,-1083.0,81.0,-173.0,522.0,-297.0,490.0
19:30:38.479000,87.0,55.0,-273.0,-1055.0,145.0,-172.0,523.0,-309.0,481.0
19:30:38.484000,81.0,67.0,-322.0,-1031.0,160.0,-186.0,523.0,-309.0,481.0
19:30:38.488000,108.0,65.0,-394.0,-1003.0,117.0,-185.0,525.0,-288.0,486.0
19:30:38.493000,137.0,60.0,-399.0,-1021.0,112.0,-185.0,525.0,-288.0,486.0
19:30:38.497000,159.0,53.0,-385.0,-1077.0,140.0,-190.0,525.0,-288.0,486.0
19:30:38.503000,134.0,60.0,-386.0,-1117.0,163.0,-195.0,511.0,-289.0,480.0
19:30:38.507000,122.0,68.0,-393.0,-1118.0,181.0,-205.0,511.0,-289.0,480.0
19:30:38.512000,110.0,79.0,-379.0,-1116.0,182.0,-211.0,523.0,-292.0,483.0
19:30:38.517000,116.0,86.0,-354.0,-1144.0,213.0,-221.0,523.0,-292.0,483.0
19:30:38.521000,130.0,91.0,-352.0,-1149.0,237.0,-221.0,523.0,-292.0,483.0
19:30:38.526000,105.0,105.0,-357.0,-1149.0,250.0,-213.0,522.0,-280.0,490.0
19:30:38.531000,83.0,109.0,-336.0,-1108.0,292.0,-203.0,522.0,-280.0,490.0
19:30:38.536000,49.0,115.0,-350.0,-1108.0,292.0,-203.0,498.0,-277.0,493.0
19:30:38.540000,23.0,136.0,-396.0,-1097.0,290.0,-201.0,498.0,-277.0,493.0
19:30:38.544000,29.0,146.0,-383.0,-1080.0,231.0,-215.0,498.0,-277.0,493.0
19:30:38.550000,35.0,155.0,-378.0,-1093.0,206.0,-223.0,508.0,-279.0,486.0
19:30:38.554000,28.0,176.0,-383.0,-1119.0,209.0,-220.0,508.0,-279.0,486.0
19:30:38.559000,23.0,192.0,-368.0,-1121.0,215.0,-219.0,511.0,-262.0,489.0
19:30:38.564000,-2.0,207.0,-341.0,-1121.0,213.0,-216.0,511.0,-262.0,489.0
19:30:38.568000,-2.0,207.0,-341.0,-1129.0,198.0,-220.0,511.0,-262.0,489.0
19:30:38.573000,-4.0,238.0,-382.0,-1116.0,186.0,-232.0,513.0,-277.0,493.0
19:30:38.578000,-4.0,238.0,-382.0,-1084.0,177.0,-239.0,513.0,-277.0,493.0
19:30:38.583000,13.0,246.0,-389.0,-1059.0,178.0,-242.0,502.0,-274.0,492.0
19:30:38.587000,26.0,259.0,-410.0,-1066.0,177.0,-247.0,502.0,-274.0,492.0
19:30:38.591000,23.0,278.0,-441.0,-1091.0,196.0,-253.0,502.0,-274.0,492.0
19:30:38.597000,47.0,287.0,-433.0,-1102.0,229.0,-255.0,501.0,-273.0,486.0
19:30:38.601000,71.0,287.0,-420.0,-1100.0,241.0,-259.0,501.0,-273.0,486.0
19:30:38.606000,70.0,297.0,-436.0,-1088.0,229.0,-268.0,499.0,-267.0,501.0
19:30:38.611000,81.0,302.0,-407.0,-1088.0,236.0,-275.0,499.0,-267.0,501.0
19:30:38.615000,106.0,297.0,-394.0,-1092.0,243.0,-276.0,499.0,-267.0,501.0
19:30:38.620000,99.0,301.0,-378.0,-1084.0,233.0,-279.0,483.0,-264.0,498.0
19:30:38.625000,117.0,297.0,-354.0,-1077.0,250.0,-282.0,483.0,-264.0,498.0
19:30:38.630000,110.0,301.0,-351.0,-1077.0,250.0,-282.0,496.0,-264.0,496.0
19:30:38.634000,99.0,298.0,-355.0,-1033.0,268.0,-276.0,496.0,-264.0,496.0
19:30:38.638000,109.0,287.0,-346.0,-1033.0,268.0,-276.0,496.0,-264.0,496.0
19:30:38.644000,124.0,273.0,-345.0,-1001.0,252.0,-278.0,493.0,-270.0,499.0
19:30:38.648000,140.0,259.0,-364.0,-979.0,247.0,-281.0,493.0,-270.0,499.0
19:30:38.653000,149.0,243.0,-385.0,-971.0,250.0,-283.0,489.0,-271.0,498.0
19:30:38.658000,158.0,231.0,-410.0,-975.0,264.0,-284.0,489.0,-271.0,498.0
19:30:38.662000,170.0,210.0,-395.0,-968.0,274.0,-281.0,489.0,-271.0,498.0
19:30:38.667000,176.0,190.0,-367.0,-943.0,267.0,-275.0,466.0,-252.0,519.0
19:30:38.672000,156.0,179.0,-376.0,-938.0,277.0,-272.0,466.0,-252.0,519.0
19:30:38.677000,141.0,159.0,-401.0,-932.0,299.0,-270.0,480.0,-261.0,505.0
19:30:38.681000,144.0,136.0,-450.0,-907.0,338.0,-274.0,480.0,-261.0,505.0
19:30:38.685000,144.0,136.0,-450.0,-874.0,379.0,-278.0,480.0,-261.0,505.0
19:30:38.691000,128.0,116.0,-494.0,-834.0,385.0,-275.0,472.0,-250.0,504.0
19:30:38.695000,91.0,98.0,-471.0,-810.0,402.0,-284.0,472.0,-250.0,504.0
19:30:38.700000,86.0,72.0,-441.0,-815.0,445.0,-293.0,469.0,-246.0,499.0
19:30:38.705000,51.0,56.0,-449.0,-828.0,475.0,-297.0,469.0,-246.0,499.0
19:30:38.712000,5.0,22.0,-475.0,-847.0,501.0,-304.0,483.0,-255.0,508.0
19:30:38.714000,5.0,22.0,-475.0,-847.0,501.0,-304.0,483.0,-255.0,508.0
19:30:38.718000,-8.0,10.0,-471.0,-852.0,529.0,-310.0,483.0,-255.0,508.0
19:30:38.724000,-27.0,5.0,-446.0,-861.0,536.0,-309.0,472.0,-246.0,495.0
19:30:38.728000,-64.0,9.0,-401.0,-873.0,528.0,-315.0,472.0,-246.0,495.0
19:30:38.733000,-73.0,14.0,-375.0,-873.0,528.0,-315.0,468.0,-243.0,507.0
19:30:38.738000,-72.0,16.0,-365.0,-879.0,506.0,-329.0,468.0,-243.0,507.0
19:30:38.742000,-75.0,28.0,-347.0,-892.0,484.0,-342.0,468.0,-243.0,507.0
19:30:38.747000,-44.0,37.0,-338.0,-892.0,484.0,-342.0,480.0,-240.0,504.0
19:30:38.752000,-23.0,46.0,-317.0,-937.0,469.0,-345.0,480.0,-240.0,504.0
19:30:38.756000,23.0,62.0,-284.0,-982.0,448.0,-362.0,477.0,-244.0,511.0
19:30:38.761000,74.0,58.0,-219.0,-982.0,448.0,-362.0,477.0,-244.0,511.0
19:30:38.765000,116.0,61.0,-152.0,-1007.0,426.0,-348.0,477.0,-244.0,511.0
19:30:38.771000,112.0,81.0,-134.0,-1020.0,426.0,-336.0,469.0,-243.0,504.0
19:30:38.775000,149.0,88.0,-137.0,-1017.0,457.0,-330.0,469.0,-243.0,504.0
19:30:38.780000,172.0,93.0,-142.0,-1021.0,476.0,-328.0,463.0,-244.0,501.0
19:30:38.785000,188.0,100.0,-139.0,-1022.0,471.0,-316.0,463.0,-244.0,501.0
19:30:38.789000,188.0,100.0,-139.0,-1002.0,471.0,-310.0,463.0,-244.0,501.0
19:30:38.794000,206.0,103.0,-118.0,-965.0,477.0,-303.0,472.0,-238.0,505.0
19:30:38.799000,224.0,101.0,-80.0,-957.0,483.0,-294.0,472.0,-238.0,505.0
19:30:38.804000,246.0,91.0,-42.0,-995.0,488.0,-294.0,456.0,-238.0,507.0
19:30:38.808000,243.0,90.0,-34.0,-1072.0,501.0,-301.0,456.0,-238.0,507.0
19:30:38.812000,239.0,91.0,-95.0,-1080.0,542.0,-324.0,456.0,-238.0,507.0
19:30:38.818000,224.0,119.0,-203.0,-1083.0,591.0,-315.0,472.0,-234.0,504.0
19:30:38.822000,213.0,125.0,-169.0,-1090.0,607.0,-297.0,472.0,-234.0,504.0
19:30:38.827000,192.0,138.0,-56.0,-1048.0,616.0,-300.0,463.0,-226.0,496.0
19:30:38.832000,172.0,145.0,-44.0,-1062.0,644.0,-306.0,463.0,-226.0,496.0
19:30:38.836000,171.0,148.0,-133.0,-1059.0,644.0,-312.0,463.0,-226.0,496.0
19:30:38.841000,153.0,156.0,-202.0,-1017.0,619.0,-313.0,457.0,-229.0,507.0
19:30:38.846000,156.0,142.0,-192.0,-993.0,615.0,-326.0,457.0,-229.0,507.0
19:30:38.851000,150.0,141.0,-156.0,-993.0,615.0,-326.0,457.0,-226.0,522.0
19:30:38.855000,130.0,141.0,-147.0,-1023.0,686.0,-343.0,457.0,-226.0,522.0
19:30:38.859000,119.0,140.0,-130.0,-1056.0,686.0,-343.0,457.0,-226.0,522.0
19:30:38.865000,94.0,145.0,-117.0,-1084.0,722.0,-360.0,453.0,-225.0,498.0
19:30:38.869000,62.0,158.0,-109.0,-1127.0,747.0,-370.0,453.0,-225.0,498.0
19:30:38.874000,32.0,163.0,-88.0,-1154.0,746.0,-380.0,460.0,-217.0,507.0
19:30:38.879000,-4.0,170.0,-43.0,-1153.0,721.0,-381.0,460.0,-217.0,507.0
19:30:38.883000,-29.0,180.0,28.0,-1125.0,690.0,-381.0,460.0,-217.0,507.0
19:30:38.888000,-38.0,193.0,97.0,-1095.0,655.0,-382.0,460.0,-214.0,511.0
19:30:38.893000,-45.0,209.0,122.0,-1086.0,626.0,-378.0,460.0,-214.0,511.0
19:30:38.898000,-52.0,224.0,112.0,-1086.0,601.0,-373.0,453.0,-217.0,507.0
19:30:38.902000,-35.0,229.0,97.0,-1078.0,557.0,-376.0,453.0,-217.0,507.0
19:30:38.906000,-35.0,229.0,97.0,-1067.0,498.0,-385.0,453.0,-217.0,507.0
19:30:38.912000,-21.0,235.0,93.0,-1068.0,468.0,-388.0,451.0,-222.0,508.0
19:30:38.916000,-5.0,232.0,70.0,-1070.0,472.0,-388.0,451.0,-222.0,508.0
19:30:38.921000,14.0,224.0,55.0,-1068.0,474.0,-385.0,456.0,-228.0,504.0
19:30:38.926000,24.0,219.0,64.0,-1093.0,477.0,-382.0,456.0,-228.0,504.0
19:30:38.930000,36.0,210.0,63.0,-1115.0,465.0,-385.0,456.0,-228.0,504.0
19:30:38.935000,51.0,196.0,65.0,-1094.0,433.0,-389.0,445.0,-229.0,520.0
19:30:38.940000,67.0,178.0,84.0,-1042.0,412.0,-387.0,445.0,-229.0,520.0
19:30:38.945000,82.0,156.0,111.0,-975.0,405.0,-386.0,445.0,-229.0,520.0
19:30:38.949000,98.0,130.0,142.0,-895.0,404.0,-387.0,445.0,-229.0,520.0
19:30:38.953000,109.0,106.0,170.0,-808.0,402.0,-387.0,445.0,-229.0,520.0
19:30:38.959000,116.0,86.0,202.0,-738.0,401.0,-394.0,456.0,-222.0,508.0
19:30:38.963000,128.0,63.0,225.0,-684.0,393.0,-400.0,456.0,-222.0,508.0
19:30:38.968000,136.0,46.0,242.0,-684.0,393.0,-400.0,460.0,-220.0,517.0
19:30:38.973000,149.0,27.0,249.0,-647.0,375.0,-400.0,460.0,-220.0,517.0
19:30:38.977000,151.0,14.0,249.0,-641.0,366.0,-393.0,460.0,-220.0,517.0
19:30:38.982000,153.0,0.0,235.0,-655.0,366.0,-377.0,462.0,-217.0,507.0
19:30:38.987000,145.0,-12.0,219.0,-665.0,367.0,-356.0,462.0,-217.0,507.0
19:30:38.992000,137.0,-25.0,212.0,-646.0,350.0,-335.0,448.0,-225.0,504.0
19:30:38.996000,132.0,-40.0,200.0,-628.0,328.0,-317.0,448.0,-225.0,504.0
19:30:39.000000,132.0,-40.0,200.0,-623.0,316.0,-300.0,448.0,-225.0,504.0
19:30:39.006000,110.0,-65.0,178.0,-616.0,309.0,-283.0,453.0,-220.0,508.0
19:30:39.010000,94.0,-75.0,180.0,-611.0,315.0,-265.0,453.0,-220.0,508.0
19:30:39.015000,94.0,-75.0,180.0,-598.0,325.0,-244.0,462.0,-225.0,511.0
19:30:39.020000,74.0,-83.0,185.0,-559.0,320.0,-224.0,462.0,-225.0,511.0
19:30:39.024000,57.0,-93.0,195.0,-510.0,302.0,-208.0,462.0,-225.0,511.0
19:30:39.029000,43.0,-102.0,198.0,-469.0,281.0,-191.0,465.0,-220.0,504.0
19:30:39.034000,30.0,-112.0,197.0,-438.0,258.0,-173.0,465.0,-220.0,504.0
19:30:39.039000,22.0,-120.0,192.0,-406.0,224.0,-156.0,471.0,-232.0,507.0
19:30:39.043000,16.0,-125.0,191.0,-377.0,180.0,-144.0,471.0,-232.0,507.0
19:30:39.047000,19.0,-126.0,189.0,-373.0,152.0,-142.0,471.0,-232.0,507.0
19:30:39.053000,28.0,-126.0,164.0,-400.0,158.0,-148.0,468.0,-223.0,516.0
19:30:39.057000,36.0,-121.0,119.0,-440.0,182.0,-156.0,468.0,-223.0,516.0
19:30:39.062000,37.0,-112.0,70.0,-440.0,213.0,-156.0,472.0,-226.0,504.0
19:30:39.067000,33.0,-103.0,35.0,-505.0,208.0,-168.0,472.0,-226.0,504.0
19:30:39.071000,28.0,-93.0,24.0,-526.0,211.0,-176.0,472.0,-226.0,504.0
19:30:39.076000,20.0,-82.0,21.0,-526.0,211.0,-176.0,466.0,-228.0,507.0
19:30:39.081000,7.0,-67.0,16.0,-540.0,229.0,-183.0,466.0,-228.0,507.0
19:30:39.086000,-13.0,-51.0,19.0,-536.0,253.0,-186.0,463.0,-226.0,504.0
19:30:39.090000,-35.0,-34.0,30.0,-514.0,267.0,-184.0,463.0,-226.0,504.0
19:30:39.094000,-54.0,-18.0,38.0,-477.0,260.0,-183.0,463.0,-226.0,504.0
19:30:39.100000,-63.0,-4.0,30.0,-432.0,237.0,-186.0,475.0,-222.0,513.0
19:30:39.104000,-60.0,0.0,11.0,-392.0,203.0,-194.0,475.0,-222.0,513.0
19:30:39.109000,-44.0,0.0,-18.0,-366.0,175.0,-202.0,472.0,-229.0,507.0
19:30:39.114000,-25.0,-3.0,-53.0,-361.0,168.0,-207.0,472.0,-229.0,507.0
19:30:39.121000,-2.0,-9.0,-84.0,-394.0,181.0,-208.0,468.0,-223.0,511.0
19:30:39.123000,-2.0,-9.0,-84.0,-394.0,181.0,-208.0,468.0,-223.0,511.0
19:30:39.127000,21.0,-19.0,-108.0,-410.0,188.0,-207.0,468.0,-223.0,511.0
19:30:39.133000,44.0,-35.0,-121.0,-417.0,193.0,-198.0,465.0,-219.0,505.0
19:30:39.137000,61.0,-53.0,-110.0,-418.0,206.0,-185.0,465.0,-219.0,505.0
19:30:39.142000,73.0,-67.0,-81.0,-423.0,230.0,-172.0,468.0,-226.0,510.0
19:30:39.147000,73.0,-81.0,-43.0,-428.0,254.0,-159.0,468.0,-226.0,510.0
19:30:39.151000,65.0,-94.0,2.0,-435.0,269.0,-149.0,468.0,-226.0,510.0
19:30:39.156000,53.0,-104.0,60.0,-452.0,273.0,-140.0,471.0,-228.0,505.0
19:30:39.161000,38.0,-112.0,120.0,-477.0,274.0,-133.0,471.0,-228.0,505.0
19:30:39.165000,21.0,-119.0,165.0,-502.0,267.0,-128.0,468.0,-219.0,502.0
19:30:39.170000,2.0,-127.0,202.0,-516.0,242.0,-125.0,468.0,-219.0,502.0
19:30:39.174000,-12.0,-134.0,236.0,-523.0,206.0,-122.0,468.0,-219.0,502.0
19:30:39.180000,-22.0,-142.0,268.0,-531.0,172.0,-119.0,481.0,-220.0,505.0
19:30:39.184000,-25.0,-154.0,284.0,-531.0,147.0,-119.0,481.0,-220.0,505.0
19:30:39.189000,-23.0,-168.0,285.0,-538.0,147.0,-119.0,469.0,-216.0,504.0
19:30:39.194000,-19.0,-184.0,276.0,-543.0,136.0,-122.0,469.0,-216.0,504.0
19:30:39.198000,-19.0,-199.0,268.0,-546.0,136.0,-123.0,469.0,-216.0,504.0
19:30:39.203000,-18.0,-215.0,265.0,-548.0,138.0,-124.0,477.0,-225.0,513.0
19:30:39.208000,-18.0,-231.0,260.0,-548.0,144.0,-127.0,477.0,-225.0,513.0
19:30:39.212000,-23.0,-245.0,259.0,-549.0,152.0,-128.0,469.0,-222.0,507.0
19:30:39.217000,-37.0,-256.0,272.0,-549.0,158.0,-126.0,469.0,-222.0,507.0
19:30:39.221000,-37.0,-256.0,272.0,-548.0,156.0,-120.0,469.0,-222.0,507.0
19:30:39.227000,-79.0,-266.0,323.0,-548.0,139.0,-112.0,475.0,-232.0,501.0
19:30:39.231000,-99.0,-264.0,341.0,-549.0,107.0,-103.0,475.0,-232.0,501.0
19:30:39.236000,-99.0,-264.0,341.0,-553.0,65.0,-99.0,478.0,-229.0,496.0
19:30:39.241000,-112.0,-264.0,347.0,-565.0,24.0,-96.0,478.0,-229.0,496.0
19:30:39.245000,-118.0,-263.0,335.0,-586.0,-2.0,-97.0,478.0,-229.0,496.0
19:30:39.250000,-117.0,-262.0,312.0,-611.0,-14.0,-101.0,490.0,-232.0,498.0
19:30:39.255000,-113.0,-261.0,283.0,-636.0,-8.0,-106.0,490.0,-232.0,498.0
19:30:39.259000,-109.0,-261.0,246.0,-651.0,10.0,-109.0,481.0,-231.0,501.0
19:30:39.264000,-107.0,-259.0,205.0,-640.0,26.0,-108.0,481.0,-231.0,501.0
19:30:39.268000,-105.0,-256.0,168.0,-603.0,29.0,-108.0,481.0,-231.0,501.0
19:30:39.274000,-98.0,-256.0,135.0,-557.0,34.0,-108.0,481.0,-237.0,496.0
19:30:39.278000,-89.0,-255.0,100.0,-522.0,55.0,-110.0,481.0,-237.0,496.0
19:30:39.283000,-85.0,-254.0,70.0,-522.0,55.0,-110.0,490.0,-240.0,499.0
19:30:39.288000,-87.0,-249.0,53.0,-496.0,116.0,-110.0,490.0,-240.0,499.0
19:30:39.292000,-96.0,-241.0,55.0,-505.0,128.0,-105.0,490.0,-240.0,499.0
19:30:39.297000,-105.0,-233.0,64.0,-505.0,128.0,-105.0,499.0,-240.0,493.0
19:30:39.302000,-108.0,-225.0,78.0,-552.0,85.0,-86.0,499.0,-240.0,493.0
19:30:39.306000,-102.0,-219.0,86.0,-552.0,85.0,-86.0,492.0,-238.0,486.0
19:30:39.311000,-91.0,-215.0,88.0,-582.0,59.0,-75.0,492.0,-238.0,486.0
19:30:39.315000,-80.0,-211.0,83.0,-614.0,52.0,-63.0,492.0,-238.0,486.0
19:30:39.321000,-75.0,-201.0,70.0,-646.0,68.0,-53.0,504.0,-234.0,490.0
19:30:39.325000,-75.0,-190.0,55.0,-671.0,89.0,-47.0,504.0,-234.0,490.0
19:30:39.330000,-77.0,-177.0,37.0,-689.0,102.0,-43.0,507.0,-238.0,492.0
19:30:39.335000,-79.0,-161.0,16.0,-703.0,116.0,-42.0,507.0,-238.0,492.0
19:30:39.339000,-79.0,-161.0,16.0,-710.0,130.0,-44.0,507.0,-238.0,492.0
19:30:39.344000,-84.0,-142.0,-7.0,-702.0,135.0,-49.0,493.0,-241.0,499.0
19:30:39.349000,-89.0,-121.0,-25.0,-679.0,124.0,-59.0,493.0,-241.0,499.0
19:30:39.353000,-93.0,-101.0,-37.0,-644.0,105.0,-72.0,496.0,-246.0,504.0
19:30:39.358000,-91.0,-84.0,-41.0,-610.0,91.0,-86.0,496.0,-246.0,504.0
19:30:39.362000,-86.0,-69.0,-44.0,-585.0,86.0,-98.0,496.0,-246.0,504.0
19:30:39.368000,-83.0,-53.0,-49.0,-571.0,83.0,-106.0,498.0,-244.0,496.0
19:30:39.372000,-82.0,-37.0,-52.0,-564.0,74.0,-119.0,498.0,-244.0,496.0
19:30:39.377000,-81.0,-26.0,-53.0,-574.0,67.0,-137.0,498.0,-244.0,501.0
19:30:39.382000,-78.0,-21.0,-58.0,-601.0,80.0,-153.0,498.0,-244.0,501.0
19:30:39.386000,-80.0,-17.0,-72.0,-628.0,106.0,-166.0,498.0,-244.0,501.0
19:30:39.391000,-88.0,-12.0,-81.0,-635.0,118.0,-175.0,495.0,-246.0,499.0
19:30:39.396000,-97.0,-10.0,-74.0,-630.0,115.0,-184.0,495.0,-246.0,499.0
19:30:39.400000,-105.0,-11.0,-61.0,-630.0,115.0,-184.0,480.0,-252.0,499.0
19:30:39.405000,-114.0,-16.0,-46.0,-627.0,119.0,-195.0,480.0,-252.0,499.0
19:30:39.409000,-132.0,-19.0,-29.0,-635.0,142.0,-206.0,480.0,-252.0,499.0
19:30:39.415000,-161.0,-21.0,-5.0,-654.0,173.0,-211.0,496.0,-243.0,495.0
19:30:39.419000,-198.0,-18.0,22.0,-675.0,197.0,-213.0,496.0,-243.0,495.0
19:30:39.424000,-239.0,-16.0,49.0,-691.0,205.0,-215.0,496.0,-250.0,493.0
19:30:39.429000,-277.0,-11.0,74.0,-703.0,197.0,-218.0,496.0,-250.0,493.0
19:30:39.433000,-312.0,-7.0,93.0,-718.0,182.0,-225.0,496.0,-250.0,493.0
19:30:39.438000,-334.0,-2.0,109.0,-742.0,166.0,-235.0,493.0,-238.0,514.0
19:30:39.443000,-347.0,2.0,121.0,-776.0,157.0,-246.0,493.0,-238.0,514.0
19:30:39.447000,-353.0,11.0,130.0,-817.0,154.0,-257.0,481.0,-249.0,514.0
19:30:39.452000,-353.0,11.0,130.0,-853.0,151.0,-266.0,481.0,-249.0,514.0
19:30:39.456000,-349.0,23.0,141.0,-878.0,141.0,-274.0,481.0,-249.0,514.0
19:30:39.462000,-334.0,34.0,156.0,-890.0,128.0,-278.0,493.0,-255.0,487.0
19:30:39.466000,-310.0,42.0,171.0,-892.0,117.0,-278.0,493.0,-255.0,487.0
19:30:39.471000,-280.0,45.0,189.0,-886.0,106.0,-275.0,499.0,-259.0,490.0
19:30:39.476000,-242.0,39.0,219.0,-876.0,97.0,-274.0,499.0,-259.0,490.0
19:30:39.480000,-200.0,26.0,259.0,-867.0,110.0,-274.0,499.0,-259.0,490.0
19:30:39.485000,-162.0,14.0,297.0,-860.0,151.0,-276.0,481.0,-255.0,492.0
19:30:39.490000,-130.0,4.0,329.0,-854.0,210.0,-279.0,481.0,-255.0,492.0
19:30:39.494000,-107.0,-9.0,357.0,-846.0,278.0,-285.0,502.0,-258.0,493.0
19:30:39.499000,-89.0,-23.0,382.0,-846.0,361.0,-294.0,502.0,-258.0,493.0
19:30:39.503000,-81.0,-33.0,399.0,-854.0,458.0,-302.0,502.0,-258.0,493.0
19:30:39.509000,-84.0,-38.0,404.0,-865.0,545.0,-307.0,495.0,-265.0,490.0
19:30:39.513000,-96.0,-37.0,408.0,-865.0,602.0,-313.0,495.0,-265.0,490.0
19:30:39.518000,-110.0,-30.0,413.0,-871.0,602.0,-313.0,502.0,-267.0,495.0
19:30:39.523000,-117.0,-16.0,408.0,-877.0,641.0,-330.0,502.0,-267.0,495.0
19:30:39.527000,-118.0,6.0,383.0,-918.0,767.0,-391.0,502.0,-267.0,495.0
19:30:39.532000,-116.0,36.0,340.0,-918.0,767.0,-391.0,484.0,-267.0,510.0
19:30:39.537000,-115.0,70.0,301.0,-948.0,846.0,-423.0,484.0,-267.0,510.0
19:30:39.541000,-109.0,94.0,283.0,-966.0,898.0,-453.0,493.0,-265.0,498.0
19:30:39.546000,-91.0,90.0,286.0,-964.0,924.0,-478.0,493.0,-265.0,498.0
19:30:39.550000,-91.0,90.0,286.0,-945.0,963.0,-483.0,493.0,-265.0,498.0
19:30:39.556000,-72.0,95.0,299.0,-895.0,1016.0,-477.0,496.0,-267.0,495.0
19:30:39.560000,-67.0,84.0,333.0,-801.0,1041.0,-462.0,496.0,-267.0,495.0
19:30:39.565000,-67.0,84.0,333.0,-677.0,1009.0,-433.0,493.0,-274.0,496.0
19:30:39.570000,-61.0,67.0,385.0,-590.0,970.0,-415.0,493.0,-274.0,496.0
19:30:39.577000,-31.0,11.0,456.0,-490.0,992.0,-402.0,502.0,-277.0,498.0
19:30:39.579000,-31.0,11.0,456.0,-490.0,992.0,-402.0,502.0,-277.0,498.0
19:30:39.583000,-13.0,-18.0,501.0,-481.0,1016.0,-405.0,502.0,-277.0,498.0
19:30:39.588000,2.0,-51.0,525.0,-531.0,1041.0,-408.0,486.0,-283.0,499.0
19:30:39.593000,9.0,-75.0,532.0,-612.0,1036.0,-409.0,486.0,-283.0,499.0
19:30:39.598000,23.0,-98.0,546.0,-676.0,995.0,-415.0,496.0,-279.0,496.0
19:30:39.603000,31.0,-113.0,576.0,-727.0,966.0,-426.0,496.0,-279.0,496.0
19:30:39.607000,27.0,-116.0,596.0,-801.0,961.0,-428.0,496.0,-279.0,496.0
19:30:39.612000,19.0,-121.0,576.0,-876.0,950.0,-421.0,505.0,-288.0,493.0
19:30:39.617000,-7.0,-117.0,527.0,-906.0,933.0,-427.0,505.0,-288.0,493.0
19:30:39.621000,-52.0,-95.0,511.0,-928.0,897.0,-443.0,493.0,-279.0,499.0
19:30:39.626000,-76.0,-65.0,543.0,-928.0,897.0,-443.0,493.0,-279.0,499.0
19:30:39.630000,-71.0,-72.0,483.0,-1014.0,823.0,-428.0,493.0,-279.0,499.0
19:30:39.635000,-127.0,-69.0,396.0,-1044.0,797.0,-417.0,493.0,-292.0,493.0
19:30:39.640000,-200.0,-65.0,528.0,-1159.0,696.0,-416.0,493.0,-292.0,493.0
19:30:39.645000,-158.0,-38.0,273.0,-1685.0,620.0,-438.0,505.0,-298.0,487.0
19:30:39.650000,-145.0,15.0,167.0,-1717.0,638.0,-461.0,505.0,-298.0,487.0
19:30:39.654000,-133.0,37.0,313.0,-942.0,624.0,-414.0,505.0,-298.0,487.0
19:30:39.659000,-142.0,31.0,339.0,-539.0,705.0,-342.0,498.0,-288.0,496.0
19:30:39.673000,-79.0,11.0,94.0,-747.0,565.0,-301.0,480.0,-297.0,516.0
19:30:39.678000,-69.0,11.0,86.0,-928.0,421.0,-299.0,480.0,-297.0,516.0
19:30:39.682000,-59.0,11.0,112.0,-1072.0,366.0,-304.0,480.0,-297.0,516.0
19:30:39.687000,-38.0,25.0,110.0,-1147.0,440.0,-307.0,480.0,-297.0,516.0
19:30:39.692000,-26.0,37.0,45.0,-1137.0,491.0,-296.0,487.0,-300.0,493.0
19:30:39.697000,-46.0,53.0,30.0,-1072.0,466.0,-290.0,487.0,-300.0,493.0
19:30:39.701000,-42.0,60.0,11.0,-992.0,425.0,-282.0,496.0,-312.0,495.0
19:30:39.706000,-40.0,62.0,-2.0,-919.0,384.0,-269.0,496.0,-312.0,495.0
19:30:39.710000,-56.0,65.0,16.0,-936.0,381.0,-254.0,496.0,-312.0,495.0
19:30:39.715000,-70.0,63.0,39.0,-975.0,386.0,-241.0,492.0,-297.0,493.0
19:30:39.720000,-96.0,68.0,48.0,-956.0,350.0,-228.0,492.0,-297.0,493.0
19:30:39.725000,-121.0,67.0,79.0,-956.0,350.0,-228.0,489.0,-300.0,522.0
19:30:39.729000,-128.0,52.0,140.0,-839.0,197.0,-215.0,489.0,-300.0,522.0
19:30:39.734000,-131.0,26.0,204.0,-839.0,197.0,-215.0,489.0,-300.0,522.0
19:30:39.739000,-123.0,-6.0,273.0,-819.0,142.0,-206.0,492.0,-298.0,487.0
19:30:39.744000,-115.0,-36.0,343.0,-808.0,111.0,-207.0,492.0,-298.0,487.0
19:30:39.748000,-105.0,-68.0,409.0,-809.0,81.0,-209.0,496.0,-298.0,492.0
19:30:39.753000,-102.0,-99.0,457.0,-850.0,58.0,-211.0,496.0,-298.0,492.0
19:30:39.757000,-101.0,-123.0,515.0,-912.0,49.0,-217.0,496.0,-298.0,492.0
19:30:39.762000,-93.0,-141.0,593.0,-971.0,36.0,-229.0,489.0,-312.0,490.0
19:30:39.767000,-95.0,-144.0,630.0,-1061.0,39.0,-242.0,489.0,-312.0,490.0
19:30:39.772000,-93.0,-142.0,629.0,-1175.0,59.0,-256.0,483.0,-310.0,489.0
19:30:39.776000,-78.0,-135.0,581.0,-1276.0,67.0,-279.0,483.0,-310.0,489.0
19:30:39.781000,-78.0,-135.0,581.0,-1365.0,86.0,-300.0,483.0,-310.0,489.0
19:30:39.786000,-71.0,-118.0,482.0,-1439.0,120.0,-315.0,489.0,-319.0,489.0
19:30:39.791000,-72.0,-95.0,365.0,-1487.0,140.0,-325.0,489.0,-319.0,489.0
19:30:39.795000,-74.0,-69.0,260.0,-1509.0,113.0,-328.0,501.0,-319.0,486.0
19:30:39.800000,-72.0,-46.0,184.0,-1519.0,27.0,-328.0,501.0,-319.0,486.0
19:30:39.804000,-56.0,-28.0,152.0,-1549.0,-52.0,-327.0,501.0,-319.0,486.0
19:30:39.809000,-32.0,-12.0,117.0,-1579.0,-89.0,-335.0,501.0,-321.0,495.0
19:30:39.814000,0.0,3.0,62.0,-1583.0,-117.0,-342.0,501.0,-321.0,495.0
19:30:39.819000,22.0,17.0,-3.0,-1561.0,-131.0,-340.0,493.0,-325.0,489.0
19:30:39.823000,52.0,28.0,-55.0,-1512.0,-114.0,-341.0,493.0,-325.0,489.0
19:30:39.828000,81.0,35.0,-88.0,-1474.0,-84.0,-348.0,493.0,-325.0,489.0
19:30:39.833000,98.0,48.0,-128.0,-1483.0,-65.0,-359.0,496.0,-328.0,493.0
19:30:39.838000,114.0,57.0,-200.0,-1498.0,-74.0,-366.0,496.0,-328.0,493.0
19:30:39.842000,108.0,79.0,-266.0,-1498.0,-74.0,-366.0,489.0,-319.0,498.0
19:30:39.847000,118.0,93.0,-332.0,-1484.0,-77.0,-365.0,489.0,-319.0,498.0
19:30:39.851000,135.0,86.0,-343.0,-1426.0,-83.0,-366.0,489.0,-319.0,498.0
19:30:39.856000,130.0,93.0,-312.0,-1311.0,-104.0,-365.0,495.0,-315.0,492.0
19:30:39.861000,102.0,118.0,-331.0,-1225.0,-69.0,-359.0,495.0,-315.0,492.0
19:30:39.866000,136.0,73.0,-282.0,-1150.0,4.0,-357.0,496.0,-319.0,504.0
19:30:39.870000,133.0,53.0,-212.0,-1067.0,78.0,-358.0,496.0,-319.0,504.0
19:30:39.875000,120.0,48.0,-243.0,-1066.0,140.0,-364.0,496.0,-319.0,504.0
19:30:39.880000,123.0,27.0,-279.0,-1065.0,151.0,-368.0,477.0,-310.0,495.0
19:30:39.885000,121.0,2.0,-302.0,-1016.0,179.0,-372.0,477.0,-310.0,495.0
19:30:39.889000,100.0,-18.0,-291.0,-993.0,255.0,-365.0,484.0,-322.0,486.0
19:30:39.894000,100.0,-18.0,-291.0,-975.0,287.0,-341.0,484.0,-322.0,486.0
19:30:39.898000,54.0,-16.0,-263.0,-922.0,316.0,-323.0,484.0,-322.0,486.0
19:30:39.903000,42.0,-33.0,-276.0,-848.0,337.0,-302.0,487.0,-309.0,501.0
19:30:39.908000,73.0,-64.0,-266.0,-864.0,210.0,-289.0,487.0,-309.0,501.0
19:30:39.913000,49.0,-67.0,-171.0,-1012.0,-31.0,-298.0,484.0,-313.0,492.0
19:30:39.917000,43.0,-87.0,-38.0,-1076.0,-162.0,-296.0,484.0,-313.0,492.0
19:30:39.921000,63.0,-94.0,23.0,-1100.0,34.0,-284.0,484.0,-313.0,492.0
19:30:39.927000,128.0,-114.0,-69.0,-1058.0,320.0,-254.0,486.0,-312.0,501.0
19:30:39.932000,96.0,-102.0,-166.0,-903.0,355.0,-228.0,486.0,-312.0,501.0
19:30:39.936000,32.0,-95.0,-175.0,-847.0,284.0,-235.0,483.0,-313.0,480.0
19:30:39.941000,36.0,-102.0,-145.0,-914.0,249.0,-235.0,483.0,-313.0,480.0
19:30:39.945000,31.0,-109.0,-60.0,-1026.0,209.0,-230.0,483.0,-313.0,480.0
19:30:39.950000,0.0,-104.0,-44.0,-1106.0,163.0,-229.0,481.0,-309.0,487.0
19:30:39.955000,-6.0,-105.0,-72.0,-1106.0,163.0,-229.0,481.0,-309.0,487.0
19:30:39.960000,-93.0,-90.0,-148.0,-1147.0,46.0,-213.0,487.0,-306.0,489.0
19:30:39.964000,-39.0,-105.0,-171.0,-1159.0,-26.0,-224.0,487.0,-306.0,489.0
19:30:39.968000,-26.0,-101.0,-102.0,-1140.0,0.0,-246.0,487.0,-306.0,489.0
19:30:39.974000,6.0,-107.0,-58.0,-1104.0,33.0,-241.0,490.0,-309.0,486.0
19:30:39.979000,11.0,-113.0,-39.0,-1085.0,72.0,-237.0,490.0,-309.0,486.0
19:30:39.983000,27.0,-110.0,-52.0,-1082.0,101.0,-244.0,490.0,-303.0,487.0
19:30:39.988000,14.0,-100.0,-102.0,-1088.0,113.0,-245.0,490.0,-303.0,487.0
19:30:39.995000,18.0,-86.0,-143.0,-1089.0,166.0,-248.0,486.0,-304.0,495.0
19:30:39.997000,39.0,-86.0,-137.0,-1089.0,166.0,-248.0,486.0,-304.0,495.0
19:30:40.001000,39.0,-86.0,-137.0,-1098.0,214.0,-236.0,486.0,-304.0,495.0
19:30:40.007000,37.0,-75.0,-129.0,-1100.0,199.0,-224.0,487.0,-310.0,487.0
19:30:40.011000,7.0,-48.0,-71.0,-1095.0,141.0,-211.0,487.0,-310.0,487.0
19:30:40.016000,16.0,-52.0,-49.0,-1114.0,132.0,-208.0,489.0,-309.0,472.0
19:30:40.021000,52.0,-52.0,-50.0,-1136.0,102.0,-200.0,489.0,-309.0,472.0
19:30:40.025000,34.0,-40.0,-88.0,-1142.0,43.0,-184.0,489.0,-309.0,472.0
19:30:40.030000,10.0,-24.0,-199.0,-1110.0,26.0,-191.0,480.0,-309.0,481.0
19:30:40.034000,39.0,-28.0,-225.0,-1043.0,29.0,-187.0,480.0,-309.0,481.0
19:30:40.040000,24.0,-19.0,-53.0,-1049.0,93.0,-174.0,490.0,-309.0,481.0
19:30:40.044000,16.0,-16.0,-3.0,-1117.0,216.0,-182.0,490.0,-309.0,481.0
19:30:40.048000,25.0,0.0,-110.0,-1075.0,222.0,-171.0,490.0,-309.0,481.0
19:30:40.054000,5.0,12.0,-158.0,-1012.0,152.0,-159.0,490.0,-307.0,481.0
19:30:40.058000,-3.0,5.0,-163.0,-1004.0,100.0,-163.0,490.0,-307.0,481.0
19:30:40.063000,-14.0,16.0,-176.0,-1004.0,100.0,-163.0,486.0,-306.0,487.0
19:30:40.068000,1.0,18.0,-153.0,-1008.0,81.0,-166.0,486.0,-306.0,487.0
19:30:40.072000,9.0,18.0,-205.0,-1042.0,116.0,-163.0,486.0,-306.0,487.0
19:30:40.077000,27.0,22.0,-234.0,-1032.0,131.0,-158.0,502.0,-309.0,490.0
19:30:40.082000,42.0,11.0,-188.0,-939.0,66.0,-155.0,502.0,-309.0,490.0
19:30:40.087000,37.0,5.0,-132.0,-939.0,66.0,-155.0,486.0,-301.0,510.0
19:30:40.091000,46.0,0.0,-120.0,-944.0,136.0,-155.0,486.0,-301.0,510.0
19:30:40.095000,23.0,8.0,-198.0,-975.0,206.0,-163.0,486.0,-301.0,510.0
19:30:40.101000,14.0,18.0,-275.0,-996.0,213.0,-167.0,486.0,-298.0,487.0
19:30:40.105000,9.0,18.0,-301.0,-984.0,211.0,-176.0,486.0,-298.0,487.0
19:30:40.110000,9.0,18.0,-301.0,-964.0,219.0,-177.0,492.0,-294.0,486.0
19:30:40.115000,-14.0,15.0,-287.0,-970.0,218.0,-180.0,492.0,-294.0,486.0
19:30:40.119000,-39.0,20.0,-264.0,-1012.0,193.0,-195.0,492.0,-294.0,486.0
19:30:40.124000,-57.0,33.0,-254.0,-1066.0,165.0,-208.0,484.0,-304.0,492.0
19:30:40.129000,-71.0,49.0,-295.0,-1071.0,177.0,-213.0,484.0,-304.0,492.0
19:30:40.134000,-69.0,53.0,-336.0,-1020.0,209.0,-217.0,478.0,-295.0,489.0
19:30:40.138000,-76.0,58.0,-359.0,-976.0,218.0,-223.0,478.0,-295.0,489.0
19:30:40.142000,-73.0,63.0,-359.0,-968.0,203.0,-227.0,478.0,-295.0,489.0
19:30:40.148000,-73.0,67.0,-338.0,-983.0,183.0,-232.0,486.0,-288.0,481.0
19:30:40.152000,-72.0,72.0,-321.0,-1003.0,172.0,-244.0,486.0,-288.0,481.0
19:30:40.157000,-67.0,77.0,-298.0,-1022.0,203.0,-256.0,489.0,-306.0,487.0
19:30:40.162000,-54.0,81.0,-319.0,-1047.0,250.0,-268.0,489.0,-306.0,487.0
19:30:40.166000,-46.0,93.0,-351.0,-1047.0,267.0,-268.0,489.0,-306.0,487.0
19:30:40.171000,-44.0,101.0,-359.0,-1047.0,279.0,-263.0,481.0,-303.0,493.0
19:30:40.176000,-44.0,109.0,-359.0,-1000.0,283.0,-263.0,481.0,-303.0,493.0
19:30:40.181000,-42.0,116.0,-335.0,-1000.0,283.0,-263.0,478.0,-295.0,484.0
19:30:40.185000,-36.0,121.0,-293.0,-996.0,272.0,-262.0,478.0,-295.0,484.0
19:30:40.189000,-42.0,135.0,-273.0,-1024.0,254.0,-256.0,478.0,-295.0,484.0
19:30:40.195000,-25.0,147.0,-287.0,-1059.0,245.0,-264.0,486.0,-304.0,489.0
19:30:40.199000,-17.0,160.0,-291.0,-1072.0,239.0,-272.0,486.0,-304.0,489.0
19:30:40.204000,-11.0,170.0,-263.0,-1043.0,229.0,-259.0,472.0,-291.0,490.0
19:30:40.209000,-14.0,179.0,-226.0,-1017.0,226.0,-252.0,472.0,-291.0,490.0
19:30:40.213000,-14.0,179.0,-226.0,-1026.0,237.0,-252.0,472.0,-291.0,490.0
19:30:40.218000,0.0,188.0,-252.0,-1046.0,254.0,-254.0,477.0,-292.0,496.0
19:30:40.223000,0.0,188.0,-252.0,-1047.0,246.0,-254.0,477.0,-292.0,496.0
19:30:40.228000,6.0,192.0,-268.0,-1032.0,233.0,-255.0,483.0,-294.0,481.0
19:30:40.232000,26.0,186.0,-284.0,-1013.0,239.0,-255.0,483.0,-294.0,481.0
19:30:40.236000,48.0,177.0,-305.0,-985.0,247.0,-253.0,483.0,-294.0,481.0
19:30:40.242000,65.0,165.0,-296.0,-956.0,250.0,-249.0,477.0,-289.0,484.0
19:30:40.246000,83.0,147.0,-258.0,-944.0,262.0,-249.0,477.0,-289.0,484.0
19:30:40.251000,102.0,124.0,-233.0,-939.0,278.0,-251.0,472.0,-279.0,489.0
19:30:40.256000,128.0,98.0,-237.0,-921.0,296.0,-251.0,472.0,-279.0,489.0
19:30:40.260000,144.0,67.0,-253.0,-899.0,337.0,-254.0,472.0,-279.0,489.0
19:30:40.265000,149.0,37.0,-282.0,-890.0,408.0,-259.0,474.0,-280.0,505.0
19:30:40.270000,142.0,12.0,-306.0,-898.0,474.0,-260.0,474.0,-280.0,505.0
19:30:40.275000,127.0,-9.0,-301.0,-898.0,474.0,-260.0,466.0,-279.0,483.0
19:30:40.279000,112.0,-25.0,-295.0,-943.0,567.0,-260.0,466.0,-279.0,483.0
19:30:40.283000,92.0,-33.0,-302.0,-943.0,567.0,-260.0,466.0,-279.0,483.0
19:30:40.289000,74.0,-33.0,-304.0,-960.0,587.0,-261.0,469.0,-279.0,490.0
19:30:40.293000,55.0,-30.0,-282.0,-956.0,577.0,-265.0,469.0,-279.0,490.0
19:30:40.298000,31.0,-25.0,-251.0,-972.0,556.0,-275.0,469.0,-277.0,493.0
19:30:40.303000,2.0,-15.0,-223.0,-1003.0,544.0,-279.0,469.0,-277.0,493.0
19:30:40.307000,-24.0,1.0,-197.0,-1036.0,533.0,-284.0,469.0,-277.0,493.0
19:30:40.312000,-39.0,21.0,-163.0,-1052.0,503.0,-291.0,472.0,-267.0,495.0
19:30:40.317000,-42.0,37.0,-116.0,-1053.0,457.0,-294.0,472.0,-267.0,495.0
19:30:40.322000,-35.0,56.0,-75.0,-1063.0,408.0,-305.0,466.0,-280.0,492.0
19:30:40.326000,-20.0,76.0,-45.0,-1068.0,355.0,-318.0,466.0,-280.0,492.0
19:30:40.330000,-20.0,76.0,-45.0,-1077.0,306.0,-329.0,466.0,-280.0,492.0
19:30:40.336000,-14.0,94.0,-16.0,-1079.0,286.0,-346.0,465.0,-279.0,487.0
19:30:40.340000,-3.0,118.0,9.0,-1088.0,303.0,-367.0,465.0,-279.0,487.0
19:30:40.345000,10.0,147.0,-4.0,-1115.0,320.0,-381.0,466.0,-280.0,496.0
19:30:40.350000,28.0,174.0,-53.0,-1120.0,295.0,-391.0,466.0,-280.0,496.0
19:30:40.357000,88.0,204.0,-112.0,-1075.0,239.0,-408.0,472.0,-279.0,499.0
19:30:40.359000,88.0,204.0,-112.0,-1075.0,239.0,-408.0,472.0,-279.0,499.0
19:30:40.363000,118.0,206.0,-123.0,-1053.0,229.0,-415.0,472.0,-279.0,499.0
19:30:40.369000,151.0,200.0,-139.0,-1039.0,244.0,-427.0,468.0,-273.0,495.0
19:30:40.373000,192.0,186.0,-174.0,-1029.0,288.0,-432.0,468.0,-273.0,495.0
19:30:40.378000,226.0,167.0,-226.0,-1029.0,320.0,-432.0,462.0,-274.0,496.0
19:30:40.383000,225.0,150.0,-261.0,-994.0,389.0,-418.0,462.0,-274.0,496.0
19:30:40.387000,235.0,135.0,-287.0,-999.0,425.0,-419.0,462.0,-274.0,496.0
19:30:40.392000,257.0,118.0,-312.0,-999.0,425.0,-419.0,463.0,-274.0,502.0
19:30:40.396000,254.0,107.0,-330.0,-1052.0,466.0,-411.0,463.0,-274.0,502.0
19:30:40.401000,245.0,102.0,-358.0,-1052.0,466.0,-411.0,463.0,-273.0,496.0
19:30:40.406000,240.0,95.0,-380.0,-1086.0,513.0,-407.0,463.0,-273.0,496.0
19:30:40.410000,249.0,88.0,-395.0,-1111.0,560.0,-410.0,463.0,-273.0,496.0
19:30:40.416000,212.0,90.0,-413.0,-1138.0,579.0,-406.0,462.0,-268.0,492.0
19:30:40.420000,198.0,97.0,-427.0,-1180.0,576.0,-403.0,462.0,-268.0,492.0
19:30:40.425000,193.0,106.0,-448.0,-1245.0,600.0,-409.0,463.0,-259.0,502.0
19:30:40.430000,170.0,110.0,-431.0,-1255.0,598.0,-401.0,463.0,-259.0,502.0
19:30:40.434000,170.0,110.0,-431.0,-1235.0,516.0,-389.0,463.0,-259.0,502.0
19:30:40.439000,121.0,123.0,-396.0,-1236.0,440.0,-394.0,460.0,-256.0,499.0
19:30:40.444000,138.0,121.0,-373.0,-1265.0,426.0,-395.0,460.0,-256.0,499.0
19:30:40.448000,137.0,121.0,-411.0,-1338.0,419.0,-390.0,454.0,-253.0,511.0
19:30:40.453000,125.0,134.0,-455.0,-1373.0,404.0,-393.0,454.0,-253.0,511.0
19:30:40.457000,168.0,129.0,-418.0,-1341.0,445.0,-394.0,454.0,-253.0,511.0
19:30:40.463000,196.0,144.0,-366.0,-1258.0,529.0,-395.0,453.0,-253.0,495.0
19:30:40.467000,214.0,163.0,-338.0,-1175.0,550.0,-386.0,453.0,-253.0,495.0
19:30:40.472000,209.0,183.0,-289.0,-1143.0,526.0,-382.0,463.0,-258.0,501.0
19:30:40.477000,240.0,187.0,-274.0,-1129.0,530.0,-381.0,463.0,-258.0,501.0
19:30:40.481000,242.0,207.0,-364.0,-1105.0,498.0,-368.0,463.0,-258.0,501.0
19:30:40.486000,233.0,217.0,-317.0,-1084.0,444.0,-351.0,453.0,-246.0,508.0
19:30:40.491000,265.0,190.0,-226.0,-1091.0,432.0,-334.0,453.0,-246.0,508.0
19:30:40.495000,270.0,175.0,-211.0,-1091.0,432.0,-334.0,450.0,-247.0,499.0
19:30:40.500000,284.0,168.0,-256.0,-1102.0,462.0,-308.0,450.0,-247.0,499.0
19:30:40.504000,319.0,142.0,-228.0,-1028.0,462.0,-308.0,450.0,-247.0,499.0
19:30:40.510000,314.0,121.0,-144.0,-920.0,437.0,-283.0,454.0,-238.0,498.0
19:30:40.514000,339.0,95.0,-108.0,-866.0,428.0,-267.0,454.0,-238.0,498.0
19:30:40.519000,348.0,83.0,-99.0,-847.0,461.0,-269.0,457.0,-243.0,489.0
19:30:40.524000,347.0,56.0,-84.0,-857.0,466.0,-259.0,457.0,-243.0,489.0
19:30:40.528000,317.0,49.0,-68.0,-888.0,476.0,-241.0,457.0,-243.0,489.0
19:30:40.533000,303.0,41.0,-3.0,-872.0,489.0,-235.0,460.0,-235.0,496.0
19:30:40.538000,282.0,39.0,39.0,-827.0,489.0,-229.0,460.0,-235.0,496.0
19:30:40.542000,262.0,42.0,35.0,-804.0,510.0,-230.0,436.0,-237.0,499.0
19:30:40.547000,237.0,58.0,-2.0,-811.0,535.0,-242.0,436.0,-237.0,499.0
19:30:40.551000,237.0,58.0,-2.0,-847.0,537.0,-247.0,436.0,-237.0,499.0
19:30:40.557000,219.0,69.0,-30.0,-879.0,504.0,-249.0,453.0,-228.0,486.0
19:30:40.561000,190.0,82.0,-16.0,-887.0,459.0,-257.0,453.0,-228.0,486.0
19:30:40.566000,168.0,95.0,18.0,-861.0,415.0,-265.0,448.0,-229.0,495.0
19:30:40.571000,145.0,109.0,82.0,-826.0,376.0,-270.0,448.0,-229.0,495.0
19:30:40.575000,133.0,124.0,138.0,-797.0,358.0,-276.0,448.0,-229.0,495.0
19:30:40.580000,128.0,138.0,162.0,-740.0,337.0,-281.0,454.0,-226.0,505.0
19:30:40.585000,121.0,161.0,178.0,-663.0,327.0,-285.0,454.0,-226.0,505.0
19:30:40.589000,126.0,181.0,172.0,-603.0,340.0,-284.0,460.0,-220.0,495.0
19:30:40.594000,129.0,198.0,153.0,-565.0,353.0,-280.0,460.0,-220.0,495.0
19:30:40.598000,133.0,209.0,133.0,-529.0,347.0,-279.0,460.0,-220.0,495.0
19:30:40.604000,140.0,211.0,111.0,-497.0,320.0,-277.0,457.0,-235.0,490.0
19:30:40.608000,150.0,203.0,78.0,-468.0,276.0,-270.0,457.0,-235.0,490.0
19:30:40.613000,163.0,184.0,50.0,-468.0,276.0,-270.0,459.0,-231.0,496.0
19:30:40.618000,175.0,160.0,34.0,-420.0,226.0,-256.0,459.0,-231.0,496.0
19:30:40.625000,185.0,132.0,7.0,-339.0,239.0,-231.0,450.0,-229.0,487.0
19:30:40.627000,188.0,102.0,-37.0,-339.0,239.0,-231.0,450.0,-229.0,487.0
19:30:40.631000,177.0,74.0,-97.0,-334.0,306.0,-220.0,450.0,-229.0,487.0
19:30:40.636000,154.0,51.0,-142.0,-343.0,376.0,-207.0,445.0,-225.0,498.0
19:30:40.641000,127.0,31.0,-157.0,-350.0,410.0,-194.0,445.0,-225.0,498.0
19:30:40.646000,105.0,7.0,-160.0,-365.0,409.0,-186.0,456.0,-225.0,496.0
19:30:40.651000,88.0,-16.0,-166.0,-390.0,396.0,-181.0,456.0,-225.0,496.0
19:30:40.655000,88.0,-16.0,-166.0,-413.0,389.0,-176.0,456.0,-225.0,496.0
19:30:40.660000,71.0,-36.0,-173.0,-432.0,395.0,-173.0,447.0,-226.0,502.0
19:30:40.665000,56.0,-56.0,-159.0,-454.0,401.0,-173.0,447.0,-226.0,502.0
19:30:40.669000,44.0,-70.0,-132.0,-481.0,400.0,-172.0,459.0,-216.0,483.0
19:30:40.674000,33.0,-81.0,-105.0,-502.0,393.0,-169.0,459.0,-216.0,483.0
19:30:40.678000,23.0,-89.0,-74.0,-520.0,380.0,-167.0,459.0,-216.0,483.0
19:30:40.683000,11.0,-92.0,-35.0,-531.0,360.0,-167.0,450.0,-222.0,496.0
19:30:40.688000,0.0,-91.0,13.0,-534.0,335.0,-169.0,450.0,-222.0,496.0
19:30:40.693000,-9.0,-90.0,72.0,-533.0,314.0,-173.0,463.0,-219.0,493.0
19:30:40.698000,-19.0,-87.0,136.0,-530.0,303.0,-179.0,463.0,-219.0,493.0
19:30:40.702000,-28.0,-80.0,193.0,-530.0,303.0,-183.0,463.0,-219.0,493.0
19:30:40.707000,-39.0,-72.0,235.0,-531.0,304.0,-183.0,451.0,-216.0,484.0
19:30:40.712000,-56.0,-58.0,265.0,-521.0,286.0,-182.0,451.0,-216.0,484.0
19:30:40.716000,-68.0,-49.0,282.0,-502.0,249.0,-184.0,459.0,-226.0,501.0
19:30:40.721000,-74.0,-44.0,287.0,-502.0,249.0,-184.0,459.0,-226.0,501.0
19:30:40.725000,-72.0,-43.0,277.0,-484.0,211.0,-187.0,459.0,-226.0,501.0
19:30:40.730000,-70.0,-46.0,258.0,-470.0,186.0,-188.0,463.0,-225.0,487.0
19:30:40.735000,-69.0,-50.0,245.0,-456.0,167.0,-188.0,463.0,-225.0,487.0
19:30:40.740000,-65.0,-56.0,238.0,-438.0,147.0,-185.0,457.0,-222.0,490.0
19:30:40.745000,-62.0,-60.0,232.0,-418.0,129.0,-178.0,457.0,-222.0,490.0
19:30:40.749000,-53.0,-67.0,222.0,-400.0,115.0,-169.0,457.0,-222.0,490.0
19:30:40.754000,-39.0,-74.0,208.0,-384.0,98.0,-159.0,469.0,-228.0,487.0
19:30:40.758000,-39.0,-74.0,208.0,-370.0,69.0,-151.0,469.0,-228.0,487.0
19:30:40.763000,15.0,-88.0,184.0,-376.0,36.0,-147.0,469.0,-229.0,484.0
19:30:40.768000,15.0,-88.0,184.0,-404.0,14.0,-144.0,469.0,-229.0,484.0
19:30:40.772000,47.0,-90.0,172.0,-442.0,5.0,-141.0,469.0,-229.0,484.0
19:30:40.777000,79.0,-88.0,165.0,-476.0,10.0,-137.0,465.0,-223.0,486.0
19:30:40.782000,106.0,-85.0,159.0,-502.0,25.0,-133.0,465.0,-223.0,486.0
19:30:40.787000,125.0,-77.0,154.0,-519.0,49.0,-129.0,465.0,-226.0,496.0
19:30:40.792000,137.0,-69.0,148.0,-526.0,74.0,-124.0,465.0,-226.0,496.0
19:30:40.796000,141.0,-58.0,148.0,-522.0,97.0,-118.0,465.0,-226.0,496.0
19:30:40.801000,137.0,-49.0,155.0,-512.0,117.0,-113.0,480.0,-226.0,495.0
19:30:40.806000,128.0,-41.0,161.0,-499.0,134.0,-112.0,480.0,-226.0,495.0
19:30:40.810000,119.0,-35.0,161.0,-488.0,146.0,-111.0,468.0,-217.0,511.0
19:30:40.815000,108.0,-31.0,163.0,-482.0,153.0,-111.0,468.0,-217.0,511.0
19:30:40.819000,98.0,-33.0,163.0,-480.0,155.0,-113.0,468.0,-217.0,511.0
19:30:40.824000,87.0,-39.0,170.0,-485.0,157.0,-114.0,457.0,-232.0,490.0
19:30:40.829000,74.0,-48.0,185.0,-485.0,163.0,-114.0,457.0,-232.0,490.0
19:30:40.834000,58.0,-56.0,204.0,-495.0,163.0,-114.0,475.0,-219.0,492.0
19:30:40.839000,38.0,-66.0,225.0,-503.0,167.0,-115.0,475.0,-219.0,492.0
19:30:40.843000,16.0,-77.0,240.0,-507.0,170.0,-115.0,475.0,-219.0,492.0
19:30:40.848000,-8.0,-88.0,254.0,-501.0,167.0,-116.0,472.0,-229.0,489.0
19:30:40.853000,-30.0,-102.0,266.0,-488.0,154.0,-121.0,472.0,-229.0,489.0
19:30:40.857000,-53.0,-116.0,268.0,-477.0,145.0,-124.0,469.0,-226.0,483.0
19:30:40.862000,-77.0,-127.0,262.0,-473.0,148.0,-126.0,469.0,-226.0,483.0
19:30:40.866000,-77.0,-127.0,262.0,-468.0,153.0,-126.0,469.0,-226.0,483.0
19:30:40.871000,-116.0,-152.0,243.0,-459.0,148.0,-127.0,466.0,-229.0,492.0
19:30:40.876000,-128.0,-166.0,231.0,-451.0,135.0,-129.0,466.0,-229.0,492.0
19:30:40.881000,-128.0,-166.0,231.0,-455.0,124.0,-135.0,469.0,-234.0,489.0
19:30:40.886000,-135.0,-179.0,215.0,-471.0,115.0,-141.0,469.0,-234.0,489.0
19:30:40.890000,-139.0,-189.0,203.0,-488.0,102.0,-145.0,469.0,-234.0,489.0
19:30:40.895000,-137.0,-200.0,198.0,-504.0,81.0,-148.0,472.0,-237.0,490.0
19:30:40.900000,-131.0,-207.0,196.0,-523.0,59.0,-152.0,472.0,-237.0,490.0
19:30:40.904000,-120.0,-212.0,193.0,-542.0,46.0,-154.0,477.0,-232.0,490.0
19:30:40.909000,-108.0,-213.0,186.0,-559.0,44.0,-152.0,477.0,-232.0,490.0
19:30:40.913000,-99.0,-212.0,177.0,-572.0,50.0,-145.0,477.0,-232.0,490.0
19:30:40.918000,-91.0,-212.0,165.0,-579.0,63.0,-138.0,472.0,-234.0,474.0
19:30:40.923000,-87.0,-210.0,149.0,-580.0,82.0,-134.0,472.0,-234.0,474.0
19:30:40.928000,-91.0,-212.0,136.0,-580.0,82.0,-134.0,480.0,-240.0,484.0
19:30:40.933000,-102.0,-216.0,119.0,-566.0,142.0,-131.0,480.0,-240.0,484.0
19:30:40.937000,-122.0,-221.0,100.0,-555.0,182.0,-131.0,480.0,-240.0,484.0
19:30:40.942000,-150.0,-225.0,77.0,-538.0,215.0,-132.0,483.0,-243.0,490.0
19:30:40.947000,-184.0,-227.0,58.0,-538.0,215.0,-132.0,483.0,-243.0,490.0
19:30:40.951000,-217.0,-225.0,46.0,-519.0,234.0,-138.0,483.0,-237.0,480.0
19:30:40.956000,-244.0,-221.0,41.0,-505.0,233.0,-145.0,483.0,-237.0,480.0
19:30:40.960000,-258.0,-213.0,39.0,-503.0,215.0,-156.0,483.0,-237.0,480.0
19:30:40.965000,-259.0,-200.0,39.0,-520.0,187.0,-169.0,483.0,-246.0,484.0
19:30:40.970000,-247.0,-185.0,43.0,-554.0,153.0,-181.0,483.0,-246.0,484.0
19:30:40.975000,-223.0,-168.0,60.0,-593.0,114.0,-189.0,487.0,-241.0,486.0
19:30:40.980000,-184.0,-151.0,93.0,-625.0,61.0,-193.0,487.0,-241.0,486.0
19:30:40.984000,-184.0,-151.0,93.0,-654.0,12.0,-195.0,487.0,-241.0,486.0
19:30:40.989000,-137.0,-133.0,125.0,-680.0,-9.0,-194.0,493.0,-246.0,487.0
19:30:40.994000,-92.0,-114.0,144.0,-686.0,-8.0,-190.0,493.0,-246.0,487.0
19:30:40.998000,-51.0,-99.0,160.0,-672.0,0.0,-182.0,484.0,-247.0,480.0
19:30:41.003000,-19.0,-82.0,172.0,-653.0,23.0,-172.0,484.0,-247.0,480.0
19:30:41.007000,-1.0,-65.0,176.0,-641.0,61.0,-166.0,484.0,-247.0,480.0
19:30:41.012000,9.0,-49.0,168.0,-632.0,97.0,-169.0,486.0,-250.0,477.0
19:30:41.017000,12.0,-36.0,149.0,-629.0,126.0,-173.0,486.0,-250.0,477.0
19:30:41.022000,10.0,-25.0,119.0,-633.0,143.0,-176.0,486.0,-261.0,486.0
19:30:41.027000,4.0,-16.0,92.0,-638.0,140.0,-180.0,486.0,-261.0,486.0
19:30:41.031000,-3.0,-11.0,75.0,-645.0,127.0,-187.0,486.0,-261.0,486.0
19:30:41.036000,-10.0,-11.0,69.0,-653.0,119.0,-193.0,487.0,-255.0,483.0
19:30:41.041000,-16.0,-12.0,63.0,-660.0,125.0,-199.0,487.0,-255.0,483.0
19:30:41.045000,-22.0,-16.0,56.0,-660.0,125.0,-199.0,483.0,-244.0,481.0
19:30:41.050000,-24.0,-24.0,50.0,-663.0,139.0,-204.0,483.0,-244.0,481.0
19:30:41.054000,-21.0,-34.0,45.0,-663.0,153.0,-210.0,483.0,-244.0,481.0
19:30:41.059000,-16.0,-44.0,37.0,-675.0,173.0,-216.0,484.0,-256.0,481.0
19:30:41.064000,-14.0,-54.0,35.0,-698.0,196.0,-217.0,484.0,-256.0,481.0
19:30:41.069000,-9.0,-65.0,46.0,-721.0,207.0,-215.0,483.0,-249.0,480.0
19:30:41.074000,1.0,-79.0,63.0,-740.0,212.0,-217.0,483.0,-249.0,480.0
19:30:41.081000,4.0,-93.0,78.0,-797.0,301.0,-214.0,480.0,-255.0,489.0
19:30:41.083000,-7.0,-107.0,100.0,-797.0,301.0,-214.0,480.0,-255.0,489.0
19:30:41.087000,-7.0,-107.0,100.0,-813.0,352.0,-205.0,480.0,-255.0,489.0
19:30:41.092000,-57.0,-138.0,201.0,-811.0,376.0,-194.0,487.0,-252.0,481.0
