hh:mm:ss.ms,gyroX[mdps],gyroY[mdps],gyroZ[mdps],accX[mg],accY[mg],accZ[mg],magX[mG],magY[mG],magZ[mG]
19:31:11.589000,-132.0,-36.0,305.0,-997.0,33.0,-189.0,636.0,-355.0,-21.0
19:31:11.593000,-131.0,-39.0,262.0,-1025.0,17.0,-203.0,636.0,-355.0,-21.0
19:31:11.598000,-121.0,-47.0,239.0,-1057.0,42.0,-219.0,645.0,-364.0,-19.0
19:31:11.603000,-107.0,-56.0,210.0,-1093.0,84.0,-234.0,645.0,-364.0,-19.0
19:31:11.610000,-114.0,-49.0,144.0,-1143.0,131.0,-270.0,633.0,-373.0,-19.0
19:31:11.612000,-114.0,-49.0,144.0,-1143.0,131.0,-270.0,633.0,-373.0,-19.0
19:31:11.616000,-115.0,-43.0,116.0,-1195.0,150.0,-283.0,633.0,-373.0,-19.0
19:31:11.622000,-128.0,-37.0,77.0,-1237.0,170.0,-287.0,637.0,-367.0,-16.0
19:31:11.626000,-121.0,-42.0,35.0,-1213.0,153.0,-306.0,637.0,-367.0,-16.0
19:31:11.631000,-114.0,-43.0,16.0,-1213.0,153.0,-306.0,636.0,-366.0,-21.0
19:31:11.636000,-109.0,-54.0,46.0,-1171.0,155.0,-330.0,636.0,-366.0,-21.0
19:31:11.640000,-99.0,-67.0,97.0,-1149.0,155.0,-330.0,636.0,-366.0,-21.0
19:31:11.645000,-91.0,-79.0,114.0,-1154.0,190.0,-346.0,642.0,-363.0,-12.0
19:31:11.649000,-95.0,-87.0,99.0,-1192.0,193.0,-372.0,642.0,-363.0,-12.0
19:31:11.655000,-109.0,-90.0,105.0,-1192.0,193.0,-372.0,633.0,-376.0,-19.0
19:31:11.659000,-100.0,-95.0,135.0,-1212.0,148.0,-380.0,633.0,-376.0,-19.0
19:31:11.663000,-83.0,-97.0,165.0,-1240.0,88.0,-388.0,633.0,-376.0,-19.0
19:31:11.669000,-62.0,-100.0,168.0,-1261.0,27.0,-385.0,640.0,-366.0,-16.0
19:31:11.673000,-28.0,-102.0,158.0,-1271.0,-12.0,-384.0,640.0,-366.0,-16.0
19:31:11.678000,0.0,-96.0,122.0,-1283.0,-21.0,-382.0,634.0,-372.0,-19.0
19:31:11.683000,10.0,-89.0,92.0,-1293.0,0.0,-384.0,634.0,-372.0,-19.0
19:31:11.687000,10.0,-89.0,92.0,-1270.0,11.0,-385.0,634.0,-372.0,-19.0
19:31:11.692000,24.0,-80.0,107.0,-1264.0,-1.0,-380.0,633.0,-369.0,-15.0
19:31:11.697000,35.0,-69.0,98.0,-1260.0,-14.0,-377.0,633.0,-369.0,-15.0
19:31:11.702000,61.0,-79.0,103.0,-1217.0,-14.0,-360.0,639.0,-372.0,-13.0
19:31:11.706000,49.0,-88.0,106.0,-1190.0,1.0,-341.0,639.0,-372.0,-13.0
19:31:11.710000,33.0,-75.0,53.0,-1182.0,16.0,-347.0,639.0,-372.0,-13.0
19:31:11.716000,58.0,-54.0,-28.0,-1161.0,37.0,-330.0,634.0,-373.0,-19.0
19:31:11.720000,60.0,-86.0,-52.0,-1149.0,84.0,-301.0,634.0,-373.0,-19.0
19:31:11.725000,15.0,-77.0,-21.0,-1159.0,84.0,-300.0,630.0,-366.0,-27.0
19:31:11.730000,-14.0,-62.0,-62.0,-1175.0,38.0,-300.0,630.0,-366.0,-27.0
19:31:11.734000,16.0,-79.0,-126.0,-1186.0,26.0,-266.0,630.0,-366.0,-27.0
19:31:11.739000,5.0,-84.0,-123.0,-1186.0,26.0,-266.0,634.0,-381.0,-28.0
19:31:11.744000,4.0,-88.0,-104.0,-1139.0,-26.0,-256.0,634.0,-381.0,-28.0
19:31:11.749000,32.0,-114.0,-101.0,-1139.0,-26.0,-256.0,607.0,-363.0,-7.0
19:31:11.753000,22.0,-128.0,-72.0,-1025.0,73.0,-226.0,607.0,-363.0,-7.0
19:31:11.757000,10.0,-141.0,-107.0,-960.0,162.0,-186.0,607.0,-363.0,-7.0
19:31:11.763000,40.0,-158.0,-121.0,-1035.0,67.0,-190.0,627.0,-372.0,-27.0
19:31:11.767000,73.0,-172.0,-84.0,-1039.0,-26.0,-184.0,627.0,-372.0,-27.0
19:31:11.772000,101.0,-184.0,-123.0,-1052.0,35.0,-145.0,633.0,-364.0,-25.0
19:31:11.777000,107.0,-172.0,-148.0,-1162.0,41.0,-138.0,633.0,-364.0,-25.0
19:31:11.781000,107.0,-172.0,-148.0,-1198.0,27.0,-145.0,633.0,-364.0,-25.0
19:31:11.786000,166.0,-138.0,-156.0,-1135.0,85.0,-124.0,624.0,-363.0,-19.0
19:31:11.791000,154.0,-113.0,-168.0,-1130.0,113.0,-103.0,624.0,-363.0,-19.0
19:31:11.796000,154.0,-113.0,-168.0,-1200.0,209.0,-112.0,625.0,-372.0,-24.0
19:31:11.800000,163.0,-84.0,-266.0,-1231.0,268.0,-129.0,625.0,-372.0,-24.0
19:31:11.804000,128.0,-54.0,-373.0,-1191.0,174.0,-124.0,625.0,-372.0,-24.0
19:31:11.810000,112.0,-34.0,-347.0,-1193.0,144.0,-130.0,622.0,-369.0,-30.0
19:31:11.814000,121.0,-17.0,-322.0,-1250.0,172.0,-140.0,622.0,-369.0,-30.0
19:31:11.819000,80.0,14.0,-313.0,-1249.0,139.0,-154.0,624.0,-363.0,-25.0
19:31:11.824000,81.0,42.0,-277.0,-1194.0,122.0,-165.0,624.0,-363.0,-25.0
19:31:11.828000,67.0,63.0,-277.0,-1136.0,128.0,-174.0,624.0,-363.0,-25.0
19:31:11.833000,51.0,83.0,-268.0,-1130.0,162.0,-191.0,627.0,-360.0,-22.0
19:31:11.838000,71.0,88.0,-260.0,-1170.0,151.0,-206.0,627.0,-360.0,-22.0
19:31:11.843000,36.0,112.0,-259.0,-1170.0,151.0,-206.0,612.0,-358.0,-24.0
19:31:11.847000,32.0,122.0,-242.0,-1175.0,58.0,-234.0,612.0,-358.0,-24.0
19:31:11.851000,37.0,130.0,-250.0,-1122.0,66.0,-241.0,612.0,-358.0,-24.0
19:31:11.857000,38.0,127.0,-305.0,-1122.0,66.0,-241.0,621.0,-355.0,-22.0
19:31:11.861000,68.0,120.0,-319.0,-1109.0,106.0,-260.0,621.0,-355.0,-22.0
19:31:11.866000,96.0,119.0,-303.0,-1121.0,183.0,-280.0,631.0,-349.0,-21.0
19:31:11.871000,88.0,109.0,-303.0,-1126.0,220.0,-275.0,631.0,-349.0,-21.0
19:31:11.875000,92.0,116.0,-381.0,-1094.0,223.0,-281.0,631.0,-349.0,-21.0
19:31:11.880000,100.0,109.0,-418.0,-1094.0,223.0,-281.0,628.0,-361.0,-9.0
19:31:11.885000,86.0,102.0,-375.0,-1047.0,200.0,-267.0,628.0,-361.0,-9.0
19:31:11.890000,78.0,101.0,-377.0,-1087.0,262.0,-262.0,621.0,-354.0,-22.0
19:31:11.894000,48.0,110.0,-394.0,-1138.0,289.0,-254.0,621.0,-354.0,-22.0
19:31:11.898000,48.0,110.0,-394.0,-1148.0,267.0,-243.0,621.0,-354.0,-22.0
19:31:11.904000,53.0,110.0,-413.0,-1160.0,244.0,-240.0,636.0,-351.0,-27.0
19:31:11.908000,56.0,112.0,-440.0,-1145.0,264.0,-229.0,636.0,-351.0,-27.0
19:31:11.913000,58.0,106.0,-449.0,-1117.0,351.0,-211.0,628.0,-340.0,-21.0
19:31:11.918000,26.0,115.0,-486.0,-1111.0,359.0,-203.0,628.0,-340.0,-21.0
19:31:11.925000,-21.0,142.0,-460.0,-1113.0,249.0,-179.0,628.0,-342.0,-19.0
19:31:11.927000,-21.0,142.0,-460.0,-1113.0,249.0,-179.0,628.0,-342.0,-19.0
19:31:11.931000,-4.0,142.0,-483.0,-1103.0,221.0,-177.0,628.0,-342.0,-19.0
19:31:11.937000,-11.0,147.0,-482.0,-1116.0,203.0,-173.0,616.0,-345.0,-19.0
19:31:11.941000,-17.0,157.0,-441.0,-1166.0,205.0,-175.0,616.0,-345.0,-19.0
19:31:11.946000,-35.0,174.0,-450.0,-1178.0,210.0,-185.0,634.0,-337.0,-10.0
19:31:11.951000,-18.0,189.0,-452.0,-1160.0,208.0,-195.0,634.0,-337.0,-10.0
19:31:11.955000,-11.0,205.0,-479.0,-1138.0,236.0,-202.0,634.0,-337.0,-10.0
19:31:11.960000,18.0,215.0,-507.0,-1086.0,240.0,-204.0,619.0,-331.0,-16.0
19:31:11.965000,14.0,231.0,-496.0,-1047.0,185.0,-200.0,619.0,-331.0,-16.0
19:31:11.969000,19.0,244.0,-487.0,-1047.0,185.0,-200.0,628.0,-321.0,3.0
19:31:11.974000,51.0,245.0,-508.0,-1060.0,174.0,-211.0,628.0,-321.0,3.0
19:31:11.978000,51.0,256.0,-542.0,-1073.0,188.0,-215.0,628.0,-321.0,3.0
19:31:11.984000,79.0,261.0,-568.0,-1064.0,219.0,-223.0,628.0,-324.0,-7.0
19:31:11.988000,79.0,263.0,-592.0,-1054.0,258.0,-228.0,628.0,-324.0,-7.0
19:31:11.993000,99.0,260.0,-585.0,-1054.0,241.0,-230.0,631.0,-315.0,-13.0
19:31:11.998000,112.0,251.0,-590.0,-1057.0,212.0,-233.0,631.0,-315.0,-13.0
19:31:12.002000,112.0,251.0,-590.0,-1057.0,214.0,-235.0,631.0,-315.0,-13.0
19:31:12.007000,117.0,240.0,-600.0,-1046.0,243.0,-243.0,631.0,-319.0,-7.0
19:31:12.011000,117.0,240.0,-600.0,-1030.0,282.0,-245.0,631.0,-319.0,-7.0
19:31:12.016000,107.0,237.0,-609.0,-1014.0,307.0,-248.0,628.0,-306.0,-10.0
19:31:12.021000,108.0,234.0,-625.0,-1008.0,322.0,-254.0,628.0,-306.0,-10.0
19:31:12.025000,105.0,236.0,-629.0,-1016.0,318.0,-252.0,628.0,-306.0,-10.0
19:31:12.031000,93.0,238.0,-629.0,-1028.0,311.0,-252.0,633.0,-301.0,-9.0
19:31:12.035000,95.0,242.0,-641.0,-1048.0,321.0,-261.0,633.0,-301.0,-9.0
19:31:12.040000,86.0,249.0,-644.0,-1058.0,326.0,-263.0,628.0,-301.0,10.0
19:31:12.045000,80.0,257.0,-628.0,-1047.0,321.0,-265.0,628.0,-301.0,10.0
19:31:12.049000,94.0,261.0,-605.0,-1039.0,320.0,-260.0,628.0,-301.0,10.0
19:31:12.054000,88.0,267.0,-598.0,-1018.0,337.0,-260.0,639.0,-297.0,1.0
19:31:12.059000,73.0,280.0,-599.0,-983.0,347.0,-270.0,639.0,-297.0,1.0
19:31:12.063000,79.0,287.0,-591.0,-983.0,347.0,-270.0,609.0,-294.0,7.0
19:31:12.068000,109.0,288.0,-590.0,-972.0,352.0,-299.0,609.0,-294.0,7.0
19:31:12.072000,128.0,291.0,-569.0,-986.0,340.0,-314.0,609.0,-294.0,7.0
19:31:12.078000,151.0,296.0,-555.0,-986.0,340.0,-314.0,634.0,-288.0,9.0
19:31:12.082000,177.0,297.0,-553.0,-980.0,358.0,-308.0,634.0,-288.0,9.0
19:31:12.087000,196.0,293.0,-540.0,-970.0,381.0,-323.0,645.0,-283.0,9.0
19:31:12.092000,196.0,296.0,-548.0,-993.0,405.0,-360.0,645.0,-283.0,9.0
19:31:12.096000,222.0,291.0,-567.0,-981.0,429.0,-358.0,645.0,-283.0,9.0
19:31:12.101000,236.0,280.0,-548.0,-905.0,401.0,-339.0,628.0,-285.0,16.0
19:31:12.106000,280.0,257.0,-522.0,-866.0,397.0,-365.0,628.0,-285.0,16.0
19:31:12.110000,289.0,246.0,-519.0,-891.0,461.0,-387.0,640.0,-277.0,18.0
19:31:12.115000,303.0,244.0,-541.0,-900.0,510.0,-373.0,640.0,-277.0,18.0
19:31:12.119000,303.0,244.0,-541.0,-868.0,531.0,-355.0,640.0,-277.0,18.0
19:31:12.125000,303.0,226.0,-539.0,-855.0,541.0,-360.0,631.0,-279.0,18.0
19:31:12.129000,301.0,214.0,-506.0,-876.0,590.0,-342.0,631.0,-279.0,18.0
19:31:12.134000,306.0,196.0,-513.0,-882.0,660.0,-292.0,640.0,-267.0,13.0
19:31:12.139000,296.0,182.0,-556.0,-878.0,716.0,-309.0,640.0,-267.0,13.0
19:31:12.143000,272.0,175.0,-583.0,-877.0,735.0,-342.0,640.0,-267.0,13.0
19:31:12.148000,236.0,172.0,-579.0,-867.0,710.0,-332.0,636.0,-268.0,34.0
19:31:12.153000,222.0,153.0,-553.0,-864.0,685.0,-327.0,636.0,-268.0,34.0
19:31:12.157000,189.0,144.0,-526.0,-884.0,691.0,-312.0,633.0,-265.0,18.0
19:31:12.162000,149.0,144.0,-508.0,-903.0,718.0,-285.0,633.0,-265.0,18.0
19:31:12.166000,127.0,138.0,-457.0,-903.0,722.0,-261.0,633.0,-265.0,18.0
19:31:12.171000,98.0,145.0,-374.0,-930.0,724.0,-274.0,640.0,-267.0,24.0
19:31:12.176000,98.0,156.0,-354.0,-984.0,754.0,-292.0,640.0,-267.0,24.0
19:31:12.181000,85.0,164.0,-349.0,-984.0,754.0,-292.0,637.0,-261.0,27.0
19:31:12.186000,75.0,184.0,-289.0,-1020.0,776.0,-304.0,637.0,-261.0,27.0
19:31:12.190000,52.0,214.0,-290.0,-1042.0,783.0,-318.0,637.0,-261.0,27.0
19:31:12.195000,28.0,247.0,-281.0,-1080.0,756.0,-303.0,640.0,-247.0,22.0
19:31:12.200000,23.0,259.0,-309.0,-1087.0,714.0,-289.0,640.0,-247.0,22.0
19:31:12.204000,23.0,273.0,-331.0,-1039.0,708.0,-296.0,621.0,-258.0,42.0
19:31:12.209000,24.0,273.0,-252.0,-1008.0,702.0,-295.0,621.0,-258.0,42.0
19:31:12.213000,27.0,281.0,-195.0,-1005.0,684.0,-292.0,621.0,-258.0,42.0
19:31:12.218000,30.0,285.0,-189.0,-1012.0,671.0,-301.0,640.0,-250.0,28.0
19:31:12.223000,25.0,288.0,-181.0,-1006.0,640.0,-307.0,640.0,-250.0,28.0
19:31:12.228000,44.0,280.0,-172.0,-961.0,612.0,-317.0,639.0,-246.0,36.0
19:31:12.233000,44.0,280.0,-172.0,-897.0,597.0,-344.0,639.0,-246.0,36.0
19:31:12.237000,76.0,266.0,-152.0,-863.0,580.0,-356.0,639.0,-246.0,36.0
19:31:12.242000,86.0,259.0,-111.0,-911.0,581.0,-345.0,634.0,-240.0,51.0
19:31:12.247000,95.0,248.0,-87.0,-985.0,585.0,-340.0,634.0,-240.0,51.0
19:31:12.251000,106.0,239.0,-100.0,-1010.0,578.0,-338.0,652.0,-243.0,42.0
19:31:12.256000,128.0,233.0,-142.0,-966.0,532.0,-337.0,652.0,-243.0,42.0
19:31:12.260000,148.0,221.0,-125.0,-908.0,462.0,-336.0,652.0,-243.0,42.0
19:31:12.265000,160.0,209.0,-66.0,-897.0,462.0,-342.0,640.0,-243.0,45.0
19:31:12.270000,182.0,196.0,-72.0,-892.0,519.0,-349.0,640.0,-243.0,45.0
19:31:12.275000,196.0,186.0,-119.0,-865.0,551.0,-347.0,649.0,-240.0,42.0
19:31:12.280000,196.0,180.0,-144.0,-843.0,554.0,-344.0,649.0,-240.0,42.0
19:31:12.287000,170.0,163.0,-130.0,-786.0,555.0,-342.0,652.0,-240.0,39.0
19:31:12.289000,170.0,163.0,-130.0,-786.0,555.0,-342.0,652.0,-240.0,39.0
19:31:12.293000,150.0,148.0,-123.0,-786.0,558.0,-341.0,652.0,-240.0,39.0
19:31:12.298000,124.0,131.0,-92.0,-728.0,558.0,-341.0,637.0,-240.0,48.0
19:31:12.303000,109.0,114.0,-72.0,-667.0,555.0,-345.0,637.0,-240.0,48.0
19:31:12.308000,81.0,96.0,-88.0,-637.0,581.0,-347.0,640.0,-246.0,57.0
19:31:12.312000,46.0,81.0,-62.0,-616.0,600.0,-345.0,640.0,-246.0,57.0
19:31:12.317000,19.0,65.0,-21.0,-603.0,587.0,-348.0,640.0,-246.0,57.0
19:31:12.322000,-17.0,47.0,-7.0,-609.0,584.0,-346.0,652.0,-243.0,51.0
19:31:12.327000,-61.0,33.0,-12.0,-605.0,596.0,-336.0,652.0,-243.0,51.0
19:31:12.331000,-61.0,33.0,-12.0,-569.0,566.0,-321.0,657.0,-238.0,55.0
19:31:12.336000,-121.0,-2.0,70.0,-521.0,501.0,-306.0,657.0,-238.0,55.0
19:31:12.340000,-121.0,-2.0,70.0,-493.0,446.0,-286.0,657.0,-238.0,55.0
19:31:12.345000,-147.0,-25.0,102.0,-474.0,384.0,-262.0,649.0,-243.0,51.0
19:31:12.350000,-165.0,-51.0,138.0,-446.0,320.0,-244.0,649.0,-243.0,51.0
19:31:12.355000,-159.0,-86.0,172.0,-404.0,255.0,-228.0,645.0,-234.0,55.0
19:31:12.359000,-157.0,-119.0,207.0,-365.0,192.0,-213.0,645.0,-234.0,55.0
19:31:12.364000,-143.0,-156.0,246.0,-354.0,170.0,-209.0,645.0,-234.0,55.0
19:31:12.369000,-121.0,-186.0,265.0,-361.0,188.0,-209.0,651.0,-246.0,46.0
19:31:12.374000,-100.0,-209.0,254.0,-371.0,228.0,-213.0,651.0,-246.0,46.0
19:31:12.378000,-79.0,-224.0,224.0,-387.0,259.0,-219.0,655.0,-241.0,72.0
19:31:12.383000,-64.0,-230.0,200.0,-417.0,276.0,-225.0,655.0,-241.0,72.0
19:31:12.387000,-49.0,-231.0,168.0,-458.0,287.0,-230.0,655.0,-241.0,72.0
19:31:12.392000,-37.0,-226.0,130.0,-490.0,291.0,-232.0,657.0,-234.0,55.0
19:31:12.397000,-25.0,-219.0,91.0,-502.0,288.0,-233.0,657.0,-234.0,55.0
19:31:12.402000,-14.0,-209.0,62.0,-502.0,288.0,-233.0,655.0,-252.0,45.0
19:31:12.406000,-4.0,-198.0,39.0,-504.0,287.0,-231.0,655.0,-252.0,45.0
19:31:12.411000,5.0,-189.0,31.0,-497.0,289.0,-225.0,655.0,-252.0,45.0
19:31:12.416000,16.0,-182.0,28.0,-487.0,289.0,-220.0,661.0,-253.0,49.0
19:31:12.421000,30.0,-177.0,25.0,-479.0,293.0,-213.0,661.0,-253.0,49.0
19:31:12.425000,39.0,-174.0,27.0,-474.0,300.0,-206.0,655.0,-243.0,49.0
19:31:12.430000,46.0,-171.0,41.0,-476.0,311.0,-199.0,655.0,-243.0,49.0
19:31:12.434000,44.0,-169.0,72.0,-484.0,318.0,-193.0,655.0,-243.0,49.0
19:31:12.439000,37.0,-164.0,115.0,-496.0,321.0,-189.0,646.0,-255.0,51.0
19:31:12.444000,23.0,-156.0,163.0,-511.0,325.0,-187.0,646.0,-255.0,51.0
19:31:12.449000,1.0,-146.0,210.0,-520.0,326.0,-184.0,654.0,-249.0,46.0
19:31:12.453000,1.0,-146.0,210.0,-518.0,321.0,-183.0,654.0,-249.0,46.0
19:31:12.458000,-24.0,-133.0,250.0,-507.0,313.0,-184.0,654.0,-249.0,46.0
19:31:12.463000,-51.0,-117.0,277.0,-494.0,307.0,-186.0,649.0,-249.0,42.0
19:31:12.468000,-79.0,-100.0,284.0,-481.0,300.0,-187.0,649.0,-249.0,42.0
19:31:12.472000,-105.0,-86.0,277.0,-468.0,283.0,-187.0,661.0,-256.0,52.0
19:31:12.477000,-122.0,-70.0,266.0,-458.0,259.0,-185.0,661.0,-256.0,52.0
19:31:12.481000,-135.0,-58.0,252.0,-452.0,225.0,-181.0,661.0,-256.0,52.0
19:31:12.486000,-137.0,-49.0,234.0,-439.0,182.0,-175.0,660.0,-250.0,46.0
19:31:12.491000,-126.0,-45.0,215.0,-424.0,138.0,-168.0,660.0,-250.0,46.0
19:31:12.496000,-103.0,-46.0,194.0,-414.0,104.0,-161.0,660.0,-256.0,43.0
19:31:12.500000,-72.0,-50.0,170.0,-404.0,77.0,-155.0,660.0,-256.0,43.0
19:31:12.505000,-32.0,-58.0,157.0,-400.0,61.0,-150.0,660.0,-256.0,43.0
19:31:12.510000,9.0,-68.0,154.0,-407.0,69.0,-146.0,658.0,-255.0,39.0
19:31:12.514000,48.0,-79.0,156.0,-421.0,102.0,-144.0,658.0,-255.0,39.0
19:31:12.519000,74.0,-89.0,163.0,-421.0,102.0,-144.0,667.0,-250.0,48.0
19:31:12.524000,88.0,-94.0,174.0,-439.0,149.0,-144.0,667.0,-250.0,48.0
19:31:12.529000,88.0,-98.0,194.0,-457.0,198.0,-145.0,651.0,-264.0,51.0
19:31:12.533000,77.0,-99.0,223.0,-469.0,242.0,-145.0,651.0,-264.0,51.0
19:31:12.537000,60.0,-101.0,261.0,-477.0,276.0,-146.0,651.0,-264.0,51.0
19:31:12.543000,41.0,-105.0,303.0,-479.0,295.0,-150.0,658.0,-262.0,51.0
19:31:12.547000,21.0,-109.0,347.0,-481.0,305.0,-156.0,658.0,-262.0,51.0
19:31:12.552000,1.0,-115.0,387.0,-486.0,305.0,-160.0,666.0,-264.0,46.0
19:31:12.557000,-19.0,-121.0,429.0,-485.0,290.0,-162.0,666.0,-264.0,46.0
19:31:12.561000,-19.0,-121.0,429.0,-476.0,264.0,-162.0,666.0,-264.0,46.0
19:31:12.566000,-31.0,-130.0,471.0,-469.0,237.0,-162.0,663.0,-265.0,45.0
19:31:12.571000,-37.0,-143.0,508.0,-470.0,216.0,-162.0,663.0,-265.0,45.0
19:31:12.576000,-40.0,-157.0,532.0,-477.0,197.0,-160.0,658.0,-279.0,48.0
19:31:12.580000,-43.0,-172.0,547.0,-481.0,170.0,-158.0,658.0,-279.0,48.0
19:31:12.584000,-40.0,-189.0,564.0,-481.0,133.0,-159.0,658.0,-279.0,48.0
19:31:12.590000,-30.0,-207.0,578.0,-480.0,99.0,-161.0,672.0,-277.0,43.0
19:31:12.594000,-20.0,-227.0,586.0,-478.0,78.0,-165.0,672.0,-277.0,43.0
19:31:12.599000,-11.0,-246.0,585.0,-479.0,76.0,-168.0,654.0,-274.0,45.0
19:31:12.604000,-7.0,-262.0,578.0,-486.0,93.0,-168.0,654.0,-274.0,45.0
19:31:12.611000,-18.0,-277.0,530.0,-500.0,144.0,-159.0,654.0,-282.0,43.0
19:31:12.613000,-18.0,-277.0,530.0,-500.0,144.0,-159.0,654.0,-282.0,43.0
19:31:12.617000,-31.0,-279.0,498.0,-512.0,168.0,-156.0,654.0,-282.0,43.0
19:31:12.623000,-46.0,-277.0,464.0,-512.0,199.0,-156.0,657.0,-288.0,34.0
19:31:12.627000,-65.0,-270.0,431.0,-536.0,199.0,-156.0,657.0,-288.0,34.0
19:31:12.632000,-87.0,-260.0,404.0,-568.0,227.0,-155.0,666.0,-288.0,33.0
19:31:12.637000,-105.0,-250.0,392.0,-596.0,239.0,-154.0,666.0,-288.0,33.0
19:31:12.641000,-109.0,-247.0,394.0,-610.0,221.0,-156.0,666.0,-288.0,33.0
19:31:12.646000,-102.0,-248.0,407.0,-606.0,186.0,-156.0,651.0,-295.0,31.0
19:31:12.651000,-92.0,-252.0,434.0,-593.0,155.0,-151.0,651.0,-295.0,31.0
19:31:12.655000,-84.0,-257.0,473.0,-574.0,142.0,-145.0,655.0,-292.0,28.0
19:31:12.660000,-80.0,-263.0,516.0,-560.0,144.0,-140.0,655.0,-292.0,28.0
19:31:12.664000,-80.0,-263.0,516.0,-565.0,159.0,-137.0,655.0,-292.0,28.0
19:31:12.670000,-98.0,-259.0,557.0,-588.0,187.0,-134.0,649.0,-310.0,37.0
19:31:12.674000,-98.0,-259.0,557.0,-611.0,203.0,-131.0,649.0,-310.0,37.0
19:31:12.679000,-116.0,-255.0,557.0,-624.0,195.0,-130.0,651.0,-301.0,30.0
19:31:12.684000,-129.0,-252.0,549.0,-626.0,171.0,-130.0,651.0,-301.0,30.0
19:31:12.688000,-133.0,-245.0,529.0,-620.0,143.0,-131.0,651.0,-301.0,30.0
19:31:12.693000,-128.0,-240.0,503.0,-614.0,125.0,-135.0,654.0,-310.0,22.0
19:31:12.698000,-119.0,-235.0,477.0,-616.0,120.0,-141.0,654.0,-310.0,22.0
19:31:12.703000,-107.0,-228.0,455.0,-627.0,129.0,-146.0,642.0,-319.0,28.0
19:31:12.707000,-98.0,-222.0,432.0,-640.0,148.0,-151.0,642.0,-319.0,28.0
19:31:12.711000,-94.0,-212.0,413.0,-645.0,162.0,-152.0,642.0,-319.0,28.0
19:31:12.717000,-92.0,-200.0,404.0,-643.0,160.0,-151.0,664.0,-309.0,18.0
19:31:12.721000,-89.0,-186.0,408.0,-635.0,152.0,-154.0,664.0,-309.0,18.0
19:31:12.726000,-84.0,-177.0,419.0,-635.0,152.0,-154.0,667.0,-325.0,19.0
19:31:12.731000,-77.0,-170.0,424.0,-633.0,166.0,-163.0,667.0,-325.0,19.0
19:31:12.735000,-72.0,-163.0,420.0,-633.0,166.0,-163.0,667.0,-325.0,19.0
19:31:12.740000,-65.0,-159.0,417.0,-633.0,179.0,-165.0,655.0,-324.0,21.0
19:31:12.744000,-58.0,-159.0,419.0,-644.0,199.0,-170.0,655.0,-324.0,21.0
19:31:12.750000,-58.0,-158.0,417.0,-644.0,199.0,-170.0,649.0,-324.0,9.0
19:31:12.754000,-67.0,-155.0,415.0,-666.0,227.0,-172.0,649.0,-324.0,9.0
19:31:12.758000,-84.0,-151.0,416.0,-684.0,250.0,-172.0,649.0,-324.0,9.0
19:31:12.764000,-105.0,-147.0,415.0,-692.0,263.0,-173.0,646.0,-336.0,12.0
19:31:12.768000,-126.0,-143.0,406.0,-694.0,271.0,-175.0,646.0,-336.0,12.0
19:31:12.773000,-143.0,-140.0,391.0,-694.0,276.0,-180.0,649.0,-334.0,16.0
19:31:12.778000,-154.0,-137.0,375.0,-697.0,273.0,-187.0,649.0,-334.0,16.0
19:31:12.782000,-154.0,-137.0,375.0,-710.0,261.0,-195.0,649.0,-334.0,16.0
19:31:12.787000,-163.0,-135.0,366.0,-732.0,242.0,-204.0,649.0,-339.0,16.0
19:31:12.792000,-166.0,-130.0,362.0,-761.0,224.0,-214.0,649.0,-339.0,16.0
19:31:12.797000,-167.0,-124.0,359.0,-798.0,223.0,-219.0,652.0,-340.0,1.0
19:31:12.801000,-171.0,-117.0,349.0,-832.0,226.0,-223.0,652.0,-340.0,1.0
19:31:12.805000,-176.0,-107.0,335.0,-852.0,222.0,-232.0,652.0,-340.0,1.0
19:31:12.811000,-174.0,-98.0,317.0,-870.0,221.0,-241.0,646.0,-345.0,10.0
19:31:12.815000,-169.0,-88.0,294.0,-894.0,232.0,-248.0,646.0,-345.0,10.0
19:31:12.820000,-165.0,-83.0,270.0,-916.0,247.0,-254.0,654.0,-348.0,12.0
19:31:12.825000,-162.0,-86.0,256.0,-927.0,252.0,-259.0,654.0,-348.0,12.0
19:31:12.829000,-161.0,-88.0,256.0,-931.0,251.0,-260.0,654.0,-348.0,12.0
19:31:12.834000,-158.0,-88.0,263.0,-941.0,247.0,-267.0,648.0,-351.0,7.0
19:31:12.839000,-151.0,-91.0,268.0,-973.0,248.0,-266.0,648.0,-351.0,7.0
19:31:12.844000,-155.0,-91.0,263.0,-973.0,248.0,-266.0,637.0,-357.0,4.0
19:31:12.848000,-160.0,-94.0,270.0,-1016.0,234.0,-256.0,637.0,-357.0,4.0
19:31:12.852000,-154.0,-107.0,305.0,-1024.0,177.0,-250.0,637.0,-357.0,4.0
19:31:12.858000,-144.0,-118.0,324.0,-997.0,132.0,-245.0,645.0,-351.0,6.0
19:31:12.862000,-137.0,-123.0,301.0,-964.0,165.0,-238.0,645.0,-351.0,6.0
19:31:12.867000,-134.0,-122.0,255.0,-922.0,239.0,-230.0,645.0,-354.0,15.0
19:31:12.872000,-134.0,-116.0,203.0,-881.0,288.0,-224.0,645.0,-354.0,15.0
19:31:12.876000,-134.0,-116.0,203.0,-861.0,304.0,-223.0,645.0,-354.0,15.0
19:31:12.881000,-111.0,-113.0,93.0,-860.0,310.0,-226.0,631.0,-349.0,21.0
19:31:12.886000,-88.0,-115.0,36.0,-866.0,334.0,-236.0,631.0,-349.0,21.0
19:31:12.891000,-88.0,-115.0,36.0,-873.0,397.0,-253.0,631.0,-349.0,21.0
19:31:12.895000,-70.0,-113.0,-19.0,-880.0,492.0,-269.0,631.0,-349.0,21.0
19:31:12.899000,-60.0,-113.0,-63.0,-883.0,591.0,-287.0,631.0,-349.0,21.0
19:31:12.905000,-56.0,-116.0,-82.0,-879.0,679.0,-304.0,642.0,-352.0,3.0
19:31:12.909000,-60.0,-121.0,-81.0,-869.0,763.0,-316.0,642.0,-352.0,3.0
19:31:12.914000,-70.0,-126.0,-68.0,-845.0,843.0,-319.0,642.0,-358.0,0.0
19:31:12.919000,-83.0,-130.0,-35.0,-804.0,901.0,-314.0,642.0,-358.0,0.0
19:31:12.923000,-95.0,-135.0,21.0,-757.0,920.0,-305.0,642.0,-358.0,0.0
19:31:12.928000,-99.0,-141.0,102.0,-710.0,896.0,-297.0,625.0,-351.0,0.0
19:31:12.933000,-94.0,-149.0,202.0,-680.0,864.0,-289.0,625.0,-351.0,0.0
19:31:12.938000,-84.0,-155.0,293.0,-671.0,852.0,-279.0,642.0,-355.0,1.0
19:31:12.942000,-73.0,-156.0,371.0,-675.0,844.0,-270.0,642.0,-355.0,1.0
19:31:12.946000,-65.0,-152.0,435.0,-685.0,835.0,-257.0,642.0,-355.0,1.0
19:31:12.952000,-61.0,-140.0,476.0,-685.0,833.0,-257.0,637.0,-357.0,-3.0
19:31:12.956000,-53.0,-126.0,487.0,-698.0,833.0,-238.0,637.0,-357.0,-3.0
19:31:12.961000,-52.0,-101.0,467.0,-712.0,837.0,-224.0,631.0,-354.0,-1.0
19:31:12.966000,-48.0,-79.0,429.0,-730.0,840.0,-215.0,631.0,-354.0,-1.0
19:31:12.973000,-51.0,-56.0,406.0,-717.0,766.0,-190.0,630.0,-366.0,-12.0
19:31:12.975000,-48.0,-39.0,399.0,-717.0,766.0,-190.0,630.0,-366.0,-12.0
19:31:12.979000,-49.0,-31.0,361.0,-720.0,746.0,-191.0,630.0,-366.0,-12.0
19:31:12.985000,-58.0,-26.0,285.0,-746.0,777.0,-203.0,625.0,-370.0,-6.0
19:31:12.989000,-70.0,-21.0,196.0,-782.0,824.0,-226.0,625.0,-370.0,-6.0
19:31:12.994000,-94.0,-5.0,121.0,-841.0,861.0,-262.0,625.0,-373.0,-1.0
19:31:12.999000,-123.0,-3.0,72.0,-940.0,877.0,-290.0,625.0,-373.0,-1.0
19:31:13.003000,-123.0,-3.0,72.0,-983.0,838.0,-305.0,625.0,-373.0,-1.0
19:31:13.008000,-154.0,-23.0,95.0,-979.0,716.0,-285.0,618.0,-376.0,-4.0
19:31:13.013000,-215.0,-60.0,188.0,-1464.0,605.0,-358.0,618.0,-376.0,-4.0
19:31:13.017000,-204.0,-28.0,223.0,-1661.0,519.0,-414.0,636.0,-379.0,-10.0
19:31:13.022000,-149.0,-16.0,291.0,-1053.0,484.0,-353.0,636.0,-379.0,-10.0
19:31:13.026000,-119.0,9.0,368.0,-641.0,615.0,-324.0,636.0,-379.0,-10.0
19:31:13.032000,-105.0,7.0,308.0,-639.0,812.0,-306.0,633.0,-370.0,-6.0
19:31:13.036000,-102.0,8.0,93.0,-809.0,840.0,-282.0,633.0,-370.0,-6.0
19:31:13.041000,-123.0,14.0,-37.0,-1009.0,708.0,-270.0,628.0,-370.0,-7.0
19:31:13.046000,-134.0,28.0,-45.0,-1119.0,578.0,-291.0,628.0,-370.0,-7.0
19:31:13.050000,-116.0,36.0,48.0,-1181.0,496.0,-299.0,628.0,-370.0,-7.0
19:31:13.055000,-124.0,40.0,156.0,-1310.0,470.0,-291.0,625.0,-367.0,3.0
19:31:13.060000,-148.0,60.0,166.0,-1386.0,483.0,-293.0,625.0,-367.0,3.0
19:31:13.064000,-163.0,77.0,82.0,-1330.0,450.0,-292.0,628.0,-382.0,3.0
19:31:13.069000,-186.0,93.0,35.0,-1330.0,450.0,-292.0,628.0,-382.0,3.0
19:31:13.073000,-192.0,98.0,25.0,-1231.0,351.0,-276.0,628.0,-382.0,3.0
19:31:13.079000,-184.0,100.0,-59.0,-1198.0,313.0,-265.0,624.0,-376.0,-3.0
19:31:13.083000,-192.0,100.0,-99.0,-1181.0,302.0,-257.0,624.0,-376.0,-3.0
19:31:13.088000,-196.0,89.0,-59.0,-1115.0,251.0,-242.0,615.0,-384.0,1.0
19:31:13.093000,-199.0,81.0,-32.0,-1070.0,209.0,-239.0,615.0,-384.0,1.0
19:31:13.097000,-199.0,81.0,-32.0,-1110.0,222.0,-238.0,615.0,-384.0,1.0
19:31:13.102000,-231.0,87.0,-123.0,-1130.0,232.0,-231.0,631.0,-379.0,7.0
19:31:13.107000,-213.0,78.0,-90.0,-1113.0,169.0,-230.0,631.0,-379.0,7.0
19:31:13.111000,-213.0,78.0,-90.0,-1129.0,99.0,-230.0,622.0,-387.0,21.0
19:31:13.116000,-189.0,73.0,-37.0,-1140.0,57.0,-226.0,622.0,-387.0,21.0
19:31:13.120000,-167.0,75.0,16.0,-1142.0,50.0,-227.0,622.0,-387.0,21.0
19:31:13.126000,-140.0,78.0,44.0,-1141.0,52.0,-237.0,615.0,-381.0,21.0
19:31:13.130000,-116.0,87.0,56.0,-1143.0,65.0,-243.0,615.0,-381.0,21.0
19:31:13.135000,-107.0,108.0,23.0,-1149.0,97.0,-240.0,630.0,-369.0,10.0
19:31:13.140000,-99.0,125.0,-23.0,-1147.0,114.0,-244.0,630.0,-369.0,10.0
19:31:13.144000,-78.0,132.0,-37.0,-1128.0,103.0,-252.0,630.0,-369.0,10.0
19:31:13.149000,-59.0,142.0,-35.0,-1119.0,106.0,-262.0,621.0,-370.0,-7.0
19:31:13.154000,-25.0,140.0,-67.0,-1127.0,144.0,-272.0,621.0,-370.0,-7.0
19:31:13.158000,-9.0,140.0,-98.0,-1131.0,220.0,-282.0,628.0,-375.0,0.0
19:31:13.163000,3.0,140.0,-151.0,-1138.0,310.0,-294.0,628.0,-375.0,0.0
19:31:13.167000,4.0,145.0,-221.0,-1133.0,352.0,-297.0,628.0,-375.0,0.0
19:31:13.173000,2.0,142.0,-224.0,-1133.0,352.0,-297.0,613.0,-382.0,4.0
19:31:13.177000,2.0,136.0,-163.0,-1129.0,351.0,-300.0,613.0,-382.0,4.0
19:31:13.182000,-18.0,139.0,-128.0,-1159.0,359.0,-302.0,621.0,-379.0,3.0
19:31:13.187000,-27.0,137.0,-101.0,-1202.0,371.0,-297.0,621.0,-379.0,3.0
19:31:13.191000,-41.0,140.0,-53.0,-1214.0,329.0,-289.0,621.0,-379.0,3.0
19:31:13.196000,-37.0,139.0,-38.0,-1214.0,255.0,-279.0,621.0,-382.0,12.0
19:31:13.200000,-9.0,123.0,-47.0,-1222.0,204.0,-272.0,621.0,-382.0,12.0
19:31:13.205000,1.0,122.0,-27.0,-1200.0,164.0,-268.0,604.0,-376.0,15.0
19:31:13.210000,32.0,114.0,-25.0,-1192.0,152.0,-267.0,604.0,-376.0,15.0
19:31:13.215000,59.0,116.0,-28.0,-1230.0,151.0,-268.0,622.0,-370.0,10.0
19:31:13.233000,106.0,160.0,-66.0,-1329.0,120.0,-273.0,607.0,-381.0,25.0
19:31:13.238000,128.0,182.0,-71.0,-1339.0,100.0,-262.0,607.0,-381.0,25.0
19:31:13.243000,137.0,205.0,-91.0,-1326.0,100.0,-255.0,607.0,-381.0,25.0
19:31:13.248000,161.0,216.0,-93.0,-1295.0,93.0,-253.0,618.0,-379.0,18.0
19:31:13.252000,164.0,222.0,-87.0,-1255.0,91.0,-250.0,618.0,-379.0,18.0
19:31:13.257000,177.0,224.0,-97.0,-1171.0,119.0,-266.0,618.0,-379.0,18.0
19:31:13.262000,216.0,216.0,-77.0,-1091.0,179.0,-271.0,624.0,-375.0,16.0
19:31:13.267000,211.0,196.0,-33.0,-1065.0,268.0,-262.0,624.0,-375.0,16.0
19:31:13.271000,170.0,209.0,-69.0,-1065.0,268.0,-262.0,615.0,-381.0,30.0
19:31:13.276000,164.0,221.0,-135.0,-927.0,306.0,-251.0,615.0,-381.0,30.0
19:31:13.280000,151.0,219.0,-154.0,-927.0,545.0,-251.0,615.0,-381.0,30.0
19:31:13.285000,199.0,149.0,-115.0,-622.0,545.0,-192.0,625.0,-384.0,19.0
19:31:13.290000,162.0,95.0,-18.0,-754.0,529.0,-201.0,625.0,-384.0,19.0
19:31:13.295000,112.0,116.0,172.0,-1009.0,98.0,-228.0,621.0,-381.0,28.0
19:31:13.299000,186.0,59.0,272.0,-1056.0,-36.0,-221.0,621.0,-381.0,28.0
19:31:13.304000,93.0,72.0,207.0,-1119.0,154.0,-215.0,621.0,-381.0,28.0
19:31:13.309000,23.0,72.0,109.0,-1044.0,304.0,-195.0,630.0,-382.0,16.0
19:31:13.314000,16.0,77.0,84.0,-1024.0,353.0,-221.0,630.0,-382.0,16.0
19:31:13.318000,102.0,42.0,73.0,-993.0,403.0,-236.0,624.0,-391.0,24.0
19:31:13.323000,40.0,41.0,-16.0,-989.0,398.0,-214.0,624.0,-391.0,24.0
19:31:13.327000,40.0,41.0,-16.0,-979.0,279.0,-214.0,624.0,-391.0,24.0
19:31:13.332000,67.0,37.0,-10.0,-992.0,197.0,-214.0,631.0,-382.0,21.0
19:31:13.337000,38.0,45.0,12.0,-1072.0,150.0,-208.0,631.0,-382.0,21.0
19:31:13.342000,9.0,28.0,2.0,-1100.0,121.0,-226.0,639.0,-388.0,28.0
19:31:13.346000,21.0,23.0,4.0,-1105.0,151.0,-237.0,639.0,-388.0,28.0
19:31:13.351000,31.0,22.0,13.0,-1080.0,175.0,-237.0,639.0,-388.0,28.0
19:31:13.356000,58.0,2.0,10.0,-1080.0,219.0,-239.0,628.0,-391.0,42.0
19:31:13.361000,60.0,-15.0,-45.0,-1049.0,206.0,-246.0,628.0,-391.0,42.0
19:31:13.365000,23.0,-2.0,-82.0,-1008.0,117.0,-258.0,630.0,-387.0,30.0
19:31:13.370000,14.0,4.0,-73.0,-1061.0,62.0,-266.0,630.0,-387.0,30.0
19:31:13.374000,4.0,4.0,9.0,-1131.0,65.0,-280.0,630.0,-387.0,30.0
19:31:13.379000,14.0,3.0,98.0,-1160.0,107.0,-292.0,628.0,-393.0,30.0
19:31:13.384000,-6.0,9.0,111.0,-1181.0,139.0,-294.0,628.0,-393.0,30.0
19:31:13.389000,-20.0,25.0,49.0,-1181.0,139.0,-294.0,625.0,-385.0,22.0
19:31:13.393000,27.0,20.0,-12.0,-1181.0,152.0,-304.0,625.0,-385.0,22.0
19:31:13.398000,-4.0,35.0,-30.0,-1144.0,112.0,-293.0,625.0,-385.0,22.0
19:31:13.403000,22.0,23.0,-60.0,-1096.0,97.0,-285.0,615.0,-390.0,27.0
19:31:13.408000,42.0,18.0,-50.0,-1056.0,112.0,-300.0,615.0,-390.0,27.0
19:31:13.412000,17.0,27.0,-88.0,-1044.0,121.0,-292.0,615.0,-397.0,40.0
19:31:13.416000,14.0,28.0,-189.0,-1057.0,148.0,-286.0,615.0,-397.0,40.0
19:31:13.421000,5.0,29.0,-240.0,-1071.0,105.0,-289.0,615.0,-397.0,40.0
19:31:13.426000,24.0,21.0,-247.0,-1062.0,80.0,-291.0,618.0,-391.0,34.0
19:31:13.431000,21.0,18.0,-254.0,-1060.0,154.0,-294.0,618.0,-391.0,34.0
19:31:13.436000,0.0,16.0,-264.0,-1056.0,195.0,-283.0,621.0,-391.0,33.0
19:31:13.440000,0.0,16.0,-264.0,-1093.0,169.0,-283.0,621.0,-391.0,33.0
19:31:13.445000,24.0,8.0,-282.0,-1112.0,129.0,-285.0,621.0,-391.0,33.0
19:31:13.450000,34.0,12.0,-291.0,-1127.0,125.0,-289.0,624.0,-391.0,21.0
19:31:13.455000,49.0,9.0,-273.0,-1151.0,144.0,-282.0,624.0,-391.0,21.0
19:31:13.459000,25.0,21.0,-277.0,-1124.0,180.0,-274.0,625.0,-390.0,27.0
19:31:13.464000,16.0,29.0,-303.0,-1094.0,275.0,-270.0,625.0,-390.0,27.0
19:31:13.468000,0.0,23.0,-337.0,-1092.0,336.0,-273.0,625.0,-390.0,27.0
19:31:13.473000,-25.0,41.0,-348.0,-1120.0,299.0,-284.0,628.0,-381.0,37.0
19:31:13.478000,-53.0,58.0,-349.0,-1143.0,255.0,-286.0,628.0,-381.0,37.0
19:31:13.483000,-65.0,79.0,-387.0,-1133.0,270.0,-290.0,627.0,-381.0,37.0
19:31:13.487000,-73.0,94.0,-403.0,-1118.0,311.0,-288.0,627.0,-381.0,37.0
19:31:13.492000,-96.0,115.0,-375.0,-1146.0,324.0,-300.0,627.0,-381.0,37.0
19:31:13.497000,-114.0,138.0,-366.0,-1154.0,298.0,-308.0,618.0,-373.0,49.0
19:31:13.502000,-121.0,162.0,-350.0,-1154.0,298.0,-308.0,618.0,-373.0,49.0
19:31:13.506000,-116.0,182.0,-333.0,-1120.0,282.0,-307.0,627.0,-379.0,33.0
19:31:13.511000,-109.0,198.0,-341.0,-1113.0,291.0,-318.0,627.0,-379.0,33.0
19:31:13.515000,-97.0,213.0,-338.0,-1117.0,271.0,-322.0,627.0,-379.0,33.0
19:31:13.520000,-80.0,226.0,-331.0,-1099.0,229.0,-322.0,631.0,-373.0,46.0
19:31:13.525000,-43.0,234.0,-332.0,-1091.0,201.0,-338.0,631.0,-373.0,46.0
19:31:13.530000,-15.0,231.0,-305.0,-1088.0,194.0,-350.0,631.0,-376.0,42.0
19:31:13.534000,7.0,233.0,-282.0,-1065.0,192.0,-344.0,631.0,-376.0,42.0
19:31:13.539000,7.0,233.0,-282.0,-1044.0,198.0,-349.0,631.0,-376.0,42.0
19:31:13.544000,86.0,227.0,-311.0,-1034.0,213.0,-364.0,634.0,-378.0,40.0
19:31:13.549000,86.0,227.0,-311.0,-1019.0,218.0,-367.0,634.0,-378.0,40.0
19:31:13.553000,109.0,219.0,-338.0,-1013.0,205.0,-367.0,625.0,-367.0,54.0
19:31:13.558000,130.0,212.0,-361.0,-997.0,212.0,-372.0,625.0,-367.0,54.0
19:31:13.562000,167.0,195.0,-361.0,-1005.0,247.0,-372.0,625.0,-367.0,54.0
19:31:13.567000,182.0,174.0,-340.0,-1027.0,270.0,-362.0,622.0,-370.0,39.0
19:31:13.572000,171.0,168.0,-331.0,-997.0,281.0,-356.0,622.0,-370.0,39.0
19:31:13.577000,180.0,152.0,-335.0,-949.0,308.0,-353.0,636.0,-367.0,40.0
19:31:13.581000,181.0,137.0,-339.0,-939.0,357.0,-342.0,636.0,-367.0,40.0
19:31:13.589000,138.0,124.0,-354.0,-987.0,370.0,-321.0,637.0,-375.0,60.0
19:31:13.591000,138.0,124.0,-354.0,-987.0,370.0,-321.0,637.0,-375.0,60.0
19:31:13.595000,117.0,118.0,-372.0,-1003.0,380.0,-311.0,637.0,-375.0,60.0
19:31:13.600000,105.0,106.0,-366.0,-1013.0,389.0,-301.0,633.0,-366.0,54.0
19:31:13.605000,84.0,103.0,-366.0,-1021.0,390.0,-286.0,633.0,-366.0,54.0
19:31:13.610000,57.0,107.0,-387.0,-1021.0,390.0,-286.0,637.0,-361.0,60.0
19:31:13.614000,59.0,108.0,-408.0,-1020.0,380.0,-278.0,637.0,-361.0,60.0
19:31:13.618000,85.0,105.0,-424.0,-981.0,355.0,-284.0,637.0,-361.0,60.0
19:31:13.624000,53.0,126.0,-434.0,-1006.0,379.0,-266.0,640.0,-361.0,54.0
19:31:13.628000,36.0,154.0,-439.0,-1084.0,465.0,-245.0,640.0,-361.0,54.0
19:31:13.632000,28.0,175.0,-433.0,-1001.0,461.0,-225.0,637.0,-358.0,52.0
19:31:13.638000,29.0,193.0,-430.0,-1001.0,461.0,-225.0,637.0,-358.0,52.0
19:31:13.642000,38.0,210.0,-464.0,-925.0,421.0,-221.0,637.0,-358.0,52.0
19:31:13.647000,51.0,212.0,-501.0,-828.0,409.0,-234.0,624.0,-351.0,72.0
19:31:13.652000,72.0,198.0,-541.0,-732.0,337.0,-287.0,624.0,-351.0,72.0
19:31:13.657000,61.0,185.0,-606.0,-723.0,242.0,-336.0,634.0,-343.0,63.0
19:31:13.661000,61.0,185.0,-606.0,-804.0,186.0,-385.0,634.0,-343.0,63.0
19:31:13.665000,43.0,191.0,-657.0,-968.0,323.0,-406.0,634.0,-343.0,63.0
19:31:13.671000,13.0,206.0,-687.0,-1095.0,433.0,-411.0,648.0,-339.0,70.0
19:31:13.675000,-42.0,242.0,-744.0,-1161.0,303.0,-449.0,648.0,-339.0,70.0
19:31:13.680000,-49.0,242.0,-718.0,-1228.0,443.0,-403.0,642.0,-342.0,58.0
19:31:13.685000,25.0,203.0,-714.0,-1149.0,526.0,-398.0,642.0,-342.0,58.0
19:31:13.689000,32.0,198.0,-658.0,-1030.0,441.0,-413.0,642.0,-342.0,58.0
19:31:13.694000,106.0,133.0,-541.0,-982.0,396.0,-351.0,648.0,-330.0,70.0
19:31:13.699000,121.0,118.0,-448.0,-960.0,340.0,-335.0,648.0,-330.0,70.0
19:31:13.704000,186.0,94.0,-371.0,-942.0,279.0,-351.0,636.0,-336.0,61.0
19:31:13.708000,226.0,88.0,-291.0,-926.0,225.0,-370.0,636.0,-336.0,61.0
19:31:13.712000,274.0,90.0,-326.0,-933.0,344.0,-379.0,636.0,-336.0,61.0
19:31:13.718000,322.0,90.0,-471.0,-879.0,504.0,-379.0,645.0,-331.0,61.0
19:31:13.722000,329.0,109.0,-569.0,-787.0,648.0,-372.0,645.0,-331.0,61.0
19:31:13.727000,310.0,140.0,-591.0,-787.0,648.0,-372.0,646.0,-324.0,70.0
19:31:13.732000,305.0,161.0,-602.0,-748.0,721.0,-365.0,646.0,-324.0,70.0
19:31:13.736000,263.0,177.0,-612.0,-768.0,744.0,-369.0,646.0,-327.0,70.0
19:31:13.741000,179.0,195.0,-624.0,-811.0,673.0,-379.0,646.0,-327.0,70.0
19:31:13.745000,143.0,205.0,-631.0,-854.0,488.0,-425.0,646.0,-327.0,70.0
19:31:13.751000,162.0,213.0,-660.0,-958.0,421.0,-496.0,648.0,-325.0,82.0
19:31:13.755000,187.0,210.0,-665.0,-1076.0,531.0,-526.0,648.0,-325.0,82.0
19:31:13.760000,134.0,217.0,-660.0,-1093.0,671.0,-513.0,642.0,-327.0,69.0
19:31:13.765000,141.0,191.0,-631.0,-1137.0,778.0,-483.0,642.0,-327.0,69.0
19:31:13.769000,141.0,191.0,-631.0,-1244.0,791.0,-451.0,642.0,-327.0,69.0
19:31:13.774000,109.0,175.0,-511.0,-1298.0,695.0,-405.0,657.0,-309.0,82.0
19:31:13.779000,81.0,161.0,-365.0,-1251.0,536.0,-378.0,657.0,-309.0,82.0
19:31:13.783000,75.0,165.0,-223.0,-1067.0,382.0,-377.0,646.0,-313.0,76.0
19:31:13.788000,114.0,152.0,-115.0,-871.0,288.0,-364.0,646.0,-313.0,76.0
19:31:13.792000,163.0,128.0,-107.0,-775.0,267.0,-362.0,646.0,-313.0,76.0
19:31:13.798000,244.0,96.0,-180.0,-753.0,326.0,-362.0,661.0,-310.0,85.0
19:31:13.802000,316.0,58.0,-266.0,-755.0,438.0,-355.0,661.0,-310.0,85.0
19:31:13.807000,338.0,40.0,-347.0,-761.0,569.0,-355.0,643.0,-313.0,82.0
19:31:13.812000,331.0,39.0,-394.0,-768.0,676.0,-357.0,643.0,-313.0,82.0
19:31:13.819000,235.0,55.0,-345.0,-829.0,624.0,-360.0,637.0,-304.0,99.0
19:31:13.821000,235.0,55.0,-345.0,-829.0,624.0,-360.0,637.0,-304.0,99.0
19:31:13.825000,219.0,60.0,-300.0,-868.0,615.0,-370.0,637.0,-304.0,99.0
19:31:13.830000,201.0,60.0,-282.0,-868.0,615.0,-370.0,652.0,-307.0,85.0
19:31:13.835000,182.0,61.0,-277.0,-911.0,629.0,-370.0,652.0,-307.0,85.0
19:31:13.840000,167.0,58.0,-259.0,-917.0,616.0,-365.0,658.0,-307.0,82.0
19:31:13.845000,167.0,48.0,-253.0,-893.0,595.0,-361.0,658.0,-307.0,82.0
19:31:13.849000,170.0,32.0,-226.0,-862.0,584.0,-354.0,658.0,-307.0,82.0
19:31:13.854000,170.0,14.0,-193.0,-832.0,582.0,-344.0,655.0,-300.0,91.0
19:31:13.859000,164.0,-3.0,-194.0,-818.0,603.0,-333.0,655.0,-300.0,91.0
19:31:13.863000,157.0,-24.0,-175.0,-795.0,614.0,-321.0,649.0,-303.0,88.0
19:31:13.868000,146.0,-44.0,-154.0,-771.0,612.0,-310.0,649.0,-303.0,88.0
19:31:13.872000,146.0,-44.0,-154.0,-752.0,612.0,-302.0,649.0,-303.0,88.0
19:31:13.877000,138.0,-68.0,-142.0,-720.0,605.0,-295.0,645.0,-295.0,97.0
19:31:13.882000,138.0,-93.0,-125.0,-694.0,590.0,-285.0,645.0,-295.0,97.0
19:31:13.887000,130.0,-118.0,-89.0,-672.0,573.0,-277.0,648.0,-300.0,91.0
19:31:13.892000,123.0,-140.0,-72.0,-646.0,567.0,-272.0,648.0,-300.0,91.0
19:31:13.896000,117.0,-160.0,-72.0,-617.0,558.0,-265.0,648.0,-300.0,91.0
19:31:13.901000,103.0,-175.0,-67.0,-595.0,551.0,-260.0,655.0,-297.0,85.0
19:31:13.906000,91.0,-190.0,-50.0,-589.0,552.0,-261.0,655.0,-297.0,85.0
19:31:13.910000,75.0,-200.0,-33.0,-601.0,563.0,-265.0,649.0,-295.0,99.0
19:31:13.915000,64.0,-211.0,-28.0,-621.0,574.0,-273.0,649.0,-295.0,99.0
19:31:13.919000,44.0,-215.0,-25.0,-641.0,594.0,-282.0,649.0,-295.0,99.0
19:31:13.924000,23.0,-219.0,-36.0,-654.0,621.0,-292.0,663.0,-294.0,87.0
19:31:13.929000,1.0,-220.0,-35.0,-658.0,643.0,-297.0,663.0,-294.0,87.0
19:31:13.934000,-27.0,-218.0,-44.0,-658.0,643.0,-297.0,655.0,-288.0,88.0
19:31:13.939000,-58.0,-212.0,-58.0,-663.0,669.0,-301.0,655.0,-288.0,88.0
19:31:13.943000,-95.0,-207.0,-41.0,-654.0,666.0,-302.0,655.0,-288.0,88.0
19:31:13.948000,-122.0,-205.0,-16.0,-638.0,640.0,-301.0,658.0,-297.0,93.0
19:31:13.953000,-149.0,-204.0,12.0,-602.0,591.0,-293.0,658.0,-297.0,93.0
19:31:13.957000,-166.0,-207.0,46.0,-602.0,591.0,-293.0,667.0,-294.0,90.0
19:31:13.962000,-183.0,-211.0,92.0,-577.0,563.0,-287.0,667.0,-294.0,90.0
19:31:13.966000,-195.0,-215.0,151.0,-550.0,531.0,-277.0,667.0,-294.0,90.0
19:31:13.971000,-206.0,-221.0,217.0,-524.0,492.0,-266.0,661.0,-292.0,91.0
19:31:13.976000,-217.0,-228.0,282.0,-496.0,444.0,-250.0,661.0,-292.0,91.0
19:31:13.981000,-221.0,-238.0,342.0,-461.0,391.0,-236.0,667.0,-298.0,85.0
19:31:13.986000,-218.0,-238.0,400.0,-423.0,336.0,-225.0,667.0,-298.0,85.0
19:31:13.990000,-218.0,-249.0,400.0,-400.0,290.0,-215.0,667.0,-298.0,85.0
19:31:13.995000,-214.0,-261.0,445.0,-390.0,259.0,-209.0,669.0,-294.0,90.0
19:31:14.000000,-203.0,-270.0,471.0,-388.0,238.0,-207.0,669.0,-294.0,90.0
19:31:14.004000,-189.0,-278.0,469.0,-394.0,225.0,-206.0,655.0,-310.0,87.0
19:31:14.009000,-175.0,-285.0,450.0,-402.0,219.0,-206.0,655.0,-310.0,87.0
19:31:14.013000,-158.0,-291.0,420.0,-416.0,222.0,-207.0,655.0,-310.0,87.0
19:31:14.018000,-139.0,-296.0,377.0,-437.0,228.0,-207.0,663.0,-300.0,81.0
19:31:14.023000,-122.0,-298.0,329.0,-463.0,234.0,-206.0,663.0,-300.0,81.0
19:31:14.028000,-108.0,-297.0,273.0,-484.0,236.0,-207.0,676.0,-303.0,88.0
19:31:14.033000,-94.0,-297.0,229.0,-502.0,235.0,-207.0,676.0,-303.0,88.0
19:31:14.037000,-85.0,-295.0,193.0,-523.0,244.0,-207.0,676.0,-303.0,88.0
19:31:14.042000,-82.0,-289.0,165.0,-540.0,262.0,-207.0,660.0,-306.0,87.0
19:31:14.047000,-86.0,-280.0,147.0,-548.0,283.0,-209.0,660.0,-306.0,87.0
19:31:14.051000,-97.0,-271.0,143.0,-548.0,283.0,-209.0,669.0,-318.0,75.0
19:31:14.056000,-113.0,-261.0,154.0,-552.0,300.0,-210.0,669.0,-318.0,75.0
19:31:14.060000,-134.0,-250.0,179.0,-557.0,313.0,-210.0,669.0,-318.0,75.0
19:31:14.065000,-161.0,-237.0,213.0,-565.0,315.0,-210.0,664.0,-315.0,73.0
19:31:14.070000,-186.0,-223.0,242.0,-570.0,312.0,-208.0,664.0,-315.0,73.0
19:31:14.075000,-210.0,-210.0,270.0,-569.0,303.0,-206.0,661.0,-309.0,76.0
19:31:14.080000,-228.0,-198.0,297.0,-563.0,285.0,-201.0,661.0,-309.0,76.0
19:31:14.084000,-228.0,-198.0,297.0,-554.0,260.0,-194.0,661.0,-309.0,76.0
19:31:14.089000,-240.0,-181.0,324.0,-538.0,225.0,-187.0,675.0,-315.0,88.0
19:31:14.094000,-233.0,-175.0,328.0,-521.0,183.0,-178.0,675.0,-315.0,88.0
19:31:14.098000,-233.0,-175.0,328.0,-507.0,141.0,-167.0,670.0,-315.0,73.0
19:31:14.103000,-211.0,-175.0,327.0,-498.0,102.0,-157.0,670.0,-315.0,73.0
19:31:14.107000,-182.0,-178.0,322.0,-498.0,75.0,-147.0,670.0,-315.0,73.0
19:31:14.112000,-147.0,-182.0,306.0,-505.0,61.0,-138.0,669.0,-321.0,72.0
19:31:14.117000,-106.0,-188.0,281.0,-515.0,57.0,-129.0,669.0,-321.0,72.0
19:31:14.122000,-67.0,-193.0,255.0,-527.0,58.0,-121.0,673.0,-330.0,79.0
19:31:14.127000,-33.0,-196.0,241.0,-543.0,70.0,-117.0,673.0,-330.0,79.0
19:31:14.131000,-7.0,-200.0,234.0,-566.0,98.0,-115.0,673.0,-330.0,79.0
19:31:14.136000,10.0,-200.0,231.0,-589.0,133.0,-111.0,678.0,-330.0,72.0
19:31:14.141000,17.0,-196.0,231.0,-606.0,166.0,-109.0,678.0,-330.0,72.0
19:31:14.145000,20.0,-193.0,231.0,-606.0,184.0,-108.0,667.0,-327.0,75.0
19:31:14.150000,19.0,-190.0,238.0,-617.0,190.0,-106.0,667.0,-327.0,75.0
19:31:14.154000,17.0,-189.0,249.0,-617.0,192.0,-104.0,667.0,-327.0,75.0
19:31:14.159000,16.0,-187.0,263.0,-617.0,192.0,-104.0,676.0,-334.0,69.0
19:31:14.164000,19.0,-188.0,276.0,-613.0,187.0,-101.0,676.0,-334.0,69.0
19:31:14.169000,21.0,-187.0,294.0,-605.0,178.0,-99.0,664.0,-334.0,67.0
19:31:14.174000,27.0,-189.0,316.0,-597.0,168.0,-98.0,664.0,-334.0,67.0
19:31:14.178000,30.0,-189.0,340.0,-606.0,166.0,-94.0,661.0,-345.0,91.0
19:31:14.183000,30.0,-184.0,356.0,-606.0,166.0,-94.0,661.0,-345.0,91.0
19:31:14.187000,24.0,-176.0,366.0,-617.0,172.0,-89.0,661.0,-345.0,91.0
19:31:14.192000,16.0,-165.0,377.0,-617.0,165.0,-82.0,678.0,-342.0,66.0
19:31:14.197000,13.0,-158.0,387.0,-603.0,139.0,-78.0,678.0,-342.0,66.0
19:31:14.202000,14.0,-149.0,381.0,-586.0,118.0,-80.0,672.0,-339.0,66.0
19:31:14.206000,14.0,-149.0,381.0,-580.0,116.0,-86.0,672.0,-339.0,66.0
19:31:14.211000,17.0,-137.0,357.0,-584.0,128.0,-91.0,672.0,-339.0,66.0
19:31:14.216000,18.0,-126.0,323.0,-591.0,138.0,-95.0,673.0,-352.0,70.0
19:31:14.221000,23.0,-116.0,289.0,-599.0,138.0,-100.0,673.0,-352.0,70.0
19:31:14.225000,32.0,-107.0,255.0,-607.0,133.0,-106.0,664.0,-352.0,58.0
19:31:14.230000,49.0,-100.0,219.0,-612.0,132.0,-111.0,664.0,-352.0,58.0
19:31:14.234000,69.0,-97.0,184.0,-615.0,144.0,-116.0,664.0,-352.0,58.0
19:31:14.239000,85.0,-93.0,155.0,-614.0,165.0,-117.0,669.0,-357.0,60.0
19:31:14.244000,94.0,-88.0,140.0,-610.0,186.0,-114.0,669.0,-357.0,60.0
19:31:14.249000,95.0,-82.0,141.0,-605.0,203.0,-110.0,666.0,-355.0,55.0
19:31:14.253000,91.0,-76.0,149.0,-602.0,218.0,-109.0,666.0,-355.0,55.0
19:31:14.258000,78.0,-65.0,161.0,-604.0,227.0,-109.0,666.0,-355.0,55.0
19:31:14.263000,60.0,-55.0,177.0,-615.0,243.0,-111.0,673.0,-357.0,63.0
19:31:14.268000,43.0,-44.0,178.0,-615.0,243.0,-111.0,673.0,-357.0,63.0
19:31:14.272000,20.0,-33.0,168.0,-630.0,269.0,-112.0,673.0,-370.0,66.0
19:31:14.277000,-3.0,-19.0,170.0,-630.0,269.0,-112.0,673.0,-370.0,66.0
19:31:14.281000,-21.0,-5.0,173.0,-628.0,256.0,-111.0,673.0,-370.0,66.0
19:31:14.286000,-35.0,7.0,163.0,-630.0,249.0,-113.0,675.0,-364.0,58.0
19:31:14.291000,-46.0,18.0,144.0,-633.0,247.0,-120.0,675.0,-364.0,58.0
19:31:14.296000,-53.0,30.0,127.0,-634.0,243.0,-128.0,666.0,-370.0,60.0
19:31:14.300000,-57.0,42.0,109.0,-636.0,238.0,-135.0,666.0,-370.0,60.0
19:31:14.305000,-57.0,42.0,109.0,-636.0,230.0,-142.0,666.0,-370.0,60.0
19:31:14.310000,-54.0,58.0,92.0,-631.0,217.0,-147.0,670.0,-373.0,55.0
19:31:14.315000,-54.0,58.0,92.0,-624.0,202.0,-150.0,670.0,-373.0,55.0
19:31:14.319000,-44.0,62.0,91.0,-616.0,192.0,-152.0,670.0,-369.0,81.0
19:31:14.324000,-32.0,65.0,88.0,-614.0,189.0,-154.0,670.0,-369.0,81.0
19:31:14.328000,-17.0,67.0,87.0,-616.0,188.0,-158.0,670.0,-369.0,81.0
19:31:14.333000,-1.0,66.0,90.0,-625.0,189.0,-167.0,673.0,-375.0,63.0
19:31:14.338000,16.0,66.0,93.0,-644.0,194.0,-175.0,673.0,-375.0,63.0
19:31:14.343000,33.0,67.0,89.0,-668.0,198.0,-181.0,670.0,-384.0,66.0
19:31:14.347000,51.0,70.0,89.0,-688.0,197.0,-185.0,670.0,-384.0,66.0
19:31:14.352000,67.0,73.0,95.0,-701.0,199.0,-189.0,670.0,-384.0,66.0
19:31:14.357000,82.0,74.0,103.0,-710.0,210.0,-192.0,678.0,-364.0,75.0
19:31:14.362000,94.0,76.0,107.0,-715.0,229.0,-194.0,678.0,-364.0,75.0
19:31:14.366000,100.0,81.0,109.0,-715.0,229.0,-194.0,669.0,-381.0,58.0
19:31:14.380000,65.0,99.0,98.0,-743.0,336.0,-195.0,658.0,-381.0,82.0
19:31:14.384000,43.0,106.0,95.0,-748.0,352.0,-194.0,658.0,-381.0,82.0
19:31:14.390000,22.0,109.0,89.0,-749.0,356.0,-195.0,658.0,-381.0,82.0
19:31:14.394000,4.0,110.0,76.0,-744.0,359.0,-199.0,658.0,-381.0,82.0
19:31:14.399000,-11.0,109.0,55.0,-743.0,373.0,-207.0,672.0,-388.0,67.0
19:31:14.404000,-30.0,109.0,32.0,-753.0,396.0,-215.0,672.0,-388.0,67.0
19:31:14.408000,-50.0,108.0,11.0,-768.0,420.0,-222.0,672.0,-388.0,67.0
19:31:14.413000,-76.0,108.0,1.0,-781.0,438.0,-228.0,678.0,-382.0,69.0
19:31:14.418000,-99.0,107.0,0.0,-785.0,443.0,-236.0,678.0,-382.0,69.0
19:31:14.423000,-121.0,103.0,4.0,-781.0,439.0,-244.0,667.0,-400.0,73.0
19:31:14.427000,-121.0,103.0,4.0,-778.0,432.0,-254.0,667.0,-400.0,73.0
19:31:14.431000,-140.0,99.0,11.0,-788.0,425.0,-266.0,667.0,-400.0,73.0
19:31:14.437000,-153.0,96.0,21.0,-810.0,421.0,-279.0,661.0,-390.0,75.0
19:31:14.441000,-163.0,98.0,35.0,-843.0,414.0,-291.0,661.0,-390.0,75.0
19:31:14.446000,-172.0,99.0,54.0,-881.0,398.0,-302.0,675.0,-393.0,75.0
19:31:14.451000,-178.0,100.0,81.0,-915.0,372.0,-311.0,675.0,-393.0,75.0
19:31:14.455000,-179.0,102.0,110.0,-938.0,344.0,-321.0,675.0,-393.0,75.0
