hh:mm:ss.ms,gyroX[mdps],gyroY[mdps],gyroZ[mdps],accX[mg],accY[mg],accZ[mg],magX[mG],magY[mG],magZ[mG]
19:30:36.675000,-81.0,22.0,0.0,-1307.0,-127.0,-266.0,535.0,-331.0,493.0
19:30:36.679000,-53.0,16.0,7.0,-1311.0,-116.0,-261.0,535.0,-331.0,493.0
19:30:36.684000,-25.0,21.0,-7.0,-1289.0,-97.0,-243.0,538.0,-331.0,484.0
19:30:36.689000,11.0,16.0,-32.0,-1218.0,-96.0,-238.0,538.0,-331.0,484.0
19:30:36.693000,38.0,23.0,-63.0,-1164.0,-86.0,-236.0,538.0,-331.0,484.0
19:30:36.698000,67.0,28.0,-102.0,-1180.0,-56.0,-233.0,535.0,-330.0,484.0
19:30:36.703000,65.0,46.0,-105.0,-1219.0,-34.0,-220.0,535.0,-330.0,484.0
19:30:36.708000,81.0,67.0,-109.0,-1222.0,-26.0,-218.0,525.0,-324.0,475.0
19:30:36.712000,81.0,67.0,-109.0,-1199.0,6.0,-208.0,525.0,-324.0,475.0
19:30:36.716000,76.0,65.0,-139.0,-1164.0,3.0,-203.0,525.0,-324.0,475.0
19:30:36.722000,36.0,83.0,-100.0,-1075.0,-49.0,-228.0,535.0,-331.0,483.0
19:30:36.726000,70.0,74.0,-14.0,-1044.0,-4.0,-245.0,535.0,-331.0,483.0
19:30:36.731000,105.0,61.0,35.0,-1144.0,118.0,-242.0,525.0,-325.0,492.0
19:30:36.736000,59.0,86.0,-47.0,-1216.0,166.0,-238.0,525.0,-325.0,492.0
19:30:36.740000,60.0,105.0,-165.0,-1209.0,98.0,-254.0,525.0,-325.0,492.0
19:30:36.745000,76.0,112.0,-189.0,-1167.0,-6.0,-255.0,535.0,-313.0,487.0
19:30:36.750000,86.0,87.0,-107.0,-1118.0,-69.0,-239.0,535.0,-313.0,487.0
19:30:36.755000,45.0,84.0,-25.0,-1078.0,-58.0,-254.0,538.0,-325.0,481.0
19:30:36.759000,42.0,86.0,0.0,-1079.0,28.0,-286.0,538.0,-325.0,481.0
19:30:36.763000,60.0,77.0,-7.0,-1107.0,88.0,-289.0,538.0,-325.0,481.0
19:30:36.769000,44.0,73.0,-19.0,-1122.0,104.0,-282.0,529.0,-316.0,489.0
19:30:36.773000,39.0,78.0,-14.0,-1122.0,104.0,-282.0,529.0,-316.0,489.0
19:30:36.778000,16.0,86.0,0.0,-1117.0,101.0,-279.0,535.0,-316.0,486.0
19:30:36.783000,-20.0,89.0,25.0,-1109.0,59.0,-269.0,535.0,-316.0,486.0
19:30:36.787000,-29.0,80.0,44.0,-1097.0,1.0,-268.0,535.0,-316.0,486.0
19:30:36.792000,-2.0,62.0,-4.0,-1092.0,-5.0,-275.0,535.0,-330.0,483.0
19:30:36.797000,20.0,44.0,-44.0,-1088.0,35.0,-276.0,535.0,-330.0,483.0
19:30:36.802000,4.0,48.0,-59.0,-1061.0,67.0,-269.0,525.0,-327.0,499.0
19:30:36.806000,-6.0,47.0,-84.0,-1049.0,35.0,-269.0,525.0,-327.0,499.0
19:30:36.810000,-6.0,47.0,-84.0,-1060.0,-36.0,-271.0,525.0,-327.0,499.0
19:30:36.816000,8.0,44.0,-84.0,-1097.0,-50.0,-264.0,528.0,-321.0,495.0
19:30:36.820000,8.0,44.0,-84.0,-1123.0,-54.0,-257.0,528.0,-321.0,495.0
19:30:36.825000,0.0,44.0,-112.0,-1109.0,-41.0,-254.0,522.0,-319.0,495.0
19:30:36.830000,17.0,36.0,-114.0,-1082.0,-42.0,-243.0,522.0,-319.0,495.0
19:30:36.834000,-12.0,54.0,-123.0,-1058.0,-49.0,-242.0,522.0,-319.0,495.0
19:30:36.839000,20.0,51.0,-176.0,-1007.0,-53.0,-238.0,531.0,-321.0,484.0
19:30:36.844000,16.0,49.0,-161.0,-965.0,-50.0,-225.0,531.0,-321.0,484.0
19:30:36.848000,21.0,38.0,-130.0,-1002.0,-5.0,-228.0,535.0,-318.0,483.0
19:30:36.853000,18.0,42.0,-171.0,-1057.0,22.0,-230.0,535.0,-318.0,483.0
19:30:36.857000,11.0,53.0,-222.0,-1030.0,19.0,-226.0,535.0,-318.0,483.0
19:30:36.863000,3.0,58.0,-221.0,-974.0,15.0,-219.0,525.0,-319.0,481.0
19:30:36.867000,1.0,58.0,-195.0,-978.0,44.0,-213.0,525.0,-319.0,481.0
19:30:36.872000,-3.0,68.0,-231.0,-978.0,44.0,-213.0,519.0,-315.0,487.0
19:30:36.877000,-4.0,69.0,-254.0,-945.0,6.0,-196.0,519.0,-315.0,487.0
19:30:36.881000,8.0,65.0,-203.0,-945.0,0.0,-201.0,519.0,-315.0,487.0
19:30:36.886000,14.0,64.0,-193.0,-940.0,0.0,-201.0,523.0,-310.0,486.0
19:30:36.891000,27.0,67.0,-266.0,-1000.0,50.0,-200.0,523.0,-310.0,486.0
19:30:36.895000,30.0,77.0,-283.0,-1002.0,66.0,-201.0,520.0,-322.0,492.0
19:30:36.900000,23.0,85.0,-245.0,-976.0,41.0,-204.0,520.0,-322.0,492.0
19:30:36.904000,23.0,86.0,-233.0,-996.0,48.0,-206.0,520.0,-322.0,492.0
19:30:36.910000,28.0,93.0,-251.0,-1044.0,98.0,-208.0,528.0,-315.0,487.0
19:30:36.914000,28.0,109.0,-252.0,-1055.0,127.0,-211.0,528.0,-315.0,487.0
19:30:36.919000,35.0,118.0,-245.0,-1026.0,95.0,-214.0,520.0,-309.0,484.0
19:30:36.924000,41.0,123.0,-253.0,-1024.0,67.0,-216.0,520.0,-309.0,484.0
19:30:36.928000,41.0,123.0,-253.0,-1035.0,60.0,-219.0,520.0,-309.0,484.0
19:30:36.933000,38.0,136.0,-249.0,-1048.0,61.0,-226.0,525.0,-310.0,481.0
19:30:36.938000,49.0,146.0,-246.0,-1056.0,57.0,-231.0,525.0,-310.0,481.0
19:30:36.942000,50.0,158.0,-243.0,-1065.0,47.0,-236.0,517.0,-312.0,499.0
19:30:36.947000,65.0,163.0,-261.0,-1067.0,58.0,-241.0,517.0,-312.0,499.0
19:30:36.951000,81.0,170.0,-294.0,-1033.0,24.0,-242.0,517.0,-312.0,499.0
19:30:36.957000,81.0,183.0,-256.0,-1017.0,-10.0,-247.0,520.0,-310.0,492.0
19:30:36.961000,117.0,178.0,-250.0,-1033.0,10.0,-254.0,520.0,-310.0,492.0
19:30:36.966000,136.0,177.0,-293.0,-1024.0,16.0,-257.0,513.0,-304.0,492.0
19:30:36.971000,156.0,172.0,-299.0,-1005.0,21.0,-259.0,513.0,-304.0,492.0
19:30:36.975000,169.0,164.0,-326.0,-979.0,48.0,-261.0,513.0,-304.0,492.0
19:30:36.980000,183.0,163.0,-376.0,-949.0,72.0,-264.0,519.0,-306.0,498.0
19:30:36.985000,193.0,155.0,-417.0,-944.0,90.0,-265.0,519.0,-306.0,498.0
19:30:36.989000,185.0,156.0,-456.0,-944.0,90.0,-265.0,507.0,-303.0,493.0
19:30:36.994000,192.0,149.0,-467.0,-944.0,113.0,-268.0,507.0,-303.0,493.0
19:30:37.002000,182.0,144.0,-446.0,-954.0,148.0,-261.0,505.0,-300.0,492.0
19:30:37.004000,173.0,143.0,-439.0,-954.0,148.0,-261.0,505.0,-300.0,492.0
19:30:37.008000,156.0,151.0,-460.0,-973.0,188.0,-262.0,505.0,-300.0,492.0
19:30:37.013000,141.0,154.0,-471.0,-974.0,218.0,-259.0,514.0,-289.0,492.0
19:30:37.018000,136.0,150.0,-464.0,-955.0,224.0,-258.0,514.0,-289.0,492.0
19:30:37.022000,123.0,150.0,-462.0,-930.0,223.0,-259.0,504.0,-288.0,492.0
19:30:37.027000,112.0,148.0,-484.0,-925.0,239.0,-258.0,504.0,-288.0,492.0
19:30:37.031000,112.0,148.0,-484.0,-947.0,282.0,-261.0,504.0,-288.0,492.0
19:30:37.036000,88.0,144.0,-502.0,-970.0,292.0,-262.0,499.0,-295.0,499.0
19:30:37.041000,88.0,144.0,-502.0,-977.0,273.0,-262.0,499.0,-295.0,499.0
19:30:37.046000,76.0,147.0,-483.0,-976.0,274.0,-264.0,505.0,-285.0,498.0
19:30:37.051000,57.0,156.0,-469.0,-979.0,277.0,-265.0,505.0,-285.0,498.0
19:30:37.055000,51.0,157.0,-478.0,-993.0,271.0,-269.0,505.0,-285.0,498.0
19:30:37.060000,56.0,158.0,-499.0,-1010.0,270.0,-270.0,495.0,-279.0,492.0
19:30:37.065000,68.0,154.0,-497.0,-1027.0,270.0,-269.0,495.0,-279.0,492.0
19:30:37.069000,65.0,161.0,-489.0,-1050.0,262.0,-271.0,504.0,-276.0,489.0
19:30:37.074000,76.0,161.0,-507.0,-1063.0,245.0,-276.0,504.0,-276.0,489.0
19:30:37.078000,107.0,157.0,-524.0,-1051.0,237.0,-275.0,504.0,-276.0,489.0
19:30:37.083000,116.0,158.0,-522.0,-1030.0,231.0,-272.0,499.0,-285.0,486.0
19:30:37.088000,128.0,153.0,-513.0,-1026.0,232.0,-273.0,499.0,-285.0,486.0
19:30:37.093000,155.0,134.0,-506.0,-1026.0,232.0,-273.0,507.0,-267.0,508.0
19:30:37.098000,156.0,127.0,-488.0,-1004.0,226.0,-263.0,507.0,-267.0,508.0
19:30:37.102000,154.0,114.0,-475.0,-1004.0,226.0,-263.0,507.0,-267.0,508.0
19:30:37.107000,154.0,105.0,-480.0,-981.0,228.0,-259.0,492.0,-271.0,502.0
19:30:37.112000,151.0,99.0,-496.0,-964.0,249.0,-259.0,492.0,-271.0,502.0
19:30:37.116000,135.0,95.0,-517.0,-954.0,272.0,-258.0,496.0,-261.0,498.0
19:30:37.121000,121.0,94.0,-543.0,-964.0,288.0,-265.0,496.0,-261.0,498.0
19:30:37.125000,93.0,95.0,-565.0,-971.0,291.0,-267.0,496.0,-261.0,498.0
19:30:37.130000,75.0,98.0,-586.0,-973.0,297.0,-275.0,493.0,-273.0,498.0
19:30:37.135000,52.0,102.0,-620.0,-984.0,327.0,-289.0,493.0,-273.0,498.0
19:30:37.140000,36.0,109.0,-657.0,-978.0,371.0,-303.0,483.0,-259.0,495.0
19:30:37.145000,10.0,124.0,-688.0,-962.0,408.0,-317.0,483.0,-259.0,495.0
19:30:37.149000,10.0,124.0,-688.0,-945.0,421.0,-328.0,483.0,-259.0,495.0
19:30:37.154000,-10.0,135.0,-714.0,-915.0,412.0,-346.0,492.0,-259.0,496.0
19:30:37.159000,-19.0,143.0,-721.0,-898.0,393.0,-361.0,492.0,-259.0,496.0
19:30:37.163000,-25.0,144.0,-710.0,-908.0,386.0,-377.0,481.0,-250.0,498.0
19:30:37.168000,-23.0,142.0,-690.0,-922.0,391.0,-397.0,481.0,-250.0,498.0
19:30:37.172000,-8.0,137.0,-683.0,-940.0,400.0,-404.0,481.0,-250.0,498.0
19:30:37.177000,7.0,128.0,-686.0,-977.0,372.0,-405.0,477.0,-241.0,510.0
19:30:37.182000,23.0,120.0,-663.0,-1037.0,344.0,-408.0,477.0,-241.0,510.0
19:30:37.187000,53.0,102.0,-644.0,-1081.0,320.0,-403.0,483.0,-241.0,499.0
19:30:37.192000,79.0,82.0,-592.0,-1062.0,277.0,-398.0,483.0,-241.0,499.0
19:30:37.196000,107.0,67.0,-501.0,-1021.0,275.0,-397.0,483.0,-241.0,499.0
19:30:37.201000,141.0,47.0,-454.0,-1029.0,312.0,-386.0,474.0,-244.0,499.0
19:30:37.206000,189.0,14.0,-447.0,-1002.0,339.0,-379.0,474.0,-244.0,499.0
19:30:37.210000,228.0,1.0,-444.0,-1002.0,339.0,-379.0,478.0,-240.0,508.0
19:30:37.215000,254.0,-7.0,-489.0,-901.0,373.0,-372.0,478.0,-240.0,508.0
19:30:37.219000,270.0,-18.0,-502.0,-847.0,422.0,-355.0,478.0,-240.0,508.0
19:30:37.224000,296.0,-43.0,-482.0,-901.0,473.0,-342.0,463.0,-235.0,499.0
19:30:37.229000,281.0,-48.0,-448.0,-981.0,516.0,-328.0,463.0,-235.0,499.0
19:30:37.234000,266.0,-57.0,-417.0,-1041.0,541.0,-314.0,465.0,-223.0,508.0
19:30:37.239000,257.0,-69.0,-433.0,-1080.0,571.0,-305.0,465.0,-223.0,508.0
19:30:37.243000,233.0,-72.0,-434.0,-1047.0,597.0,-294.0,465.0,-223.0,508.0
19:30:37.248000,207.0,-68.0,-404.0,-1005.0,618.0,-282.0,468.0,-226.0,498.0
19:30:37.253000,184.0,-62.0,-382.0,-1020.0,648.0,-273.0,468.0,-226.0,498.0
19:30:37.257000,156.0,-50.0,-378.0,-1059.0,686.0,-270.0,466.0,-222.0,493.0
19:30:37.262000,156.0,-50.0,-378.0,-1092.0,707.0,-268.0,466.0,-222.0,493.0
19:30:37.266000,123.0,-36.0,-364.0,-1123.0,706.0,-266.0,466.0,-222.0,493.0
19:30:37.271000,98.0,-23.0,-349.0,-1157.0,705.0,-266.0,472.0,-217.0,516.0
19:30:37.276000,68.0,-2.0,-352.0,-1174.0,712.0,-260.0,472.0,-217.0,516.0
19:30:37.281000,53.0,0.0,-349.0,-1132.0,699.0,-256.0,469.0,-223.0,498.0
19:30:37.286000,39.0,9.0,-326.0,-1078.0,680.0,-260.0,469.0,-223.0,498.0
19:30:37.290000,35.0,19.0,-310.0,-1064.0,675.0,-263.0,469.0,-223.0,498.0
19:30:37.295000,34.0,28.0,-302.0,-1059.0,674.0,-269.0,466.0,-213.0,502.0
19:30:37.300000,40.0,33.0,-308.0,-1042.0,673.0,-271.0,466.0,-213.0,502.0
19:30:37.304000,39.0,40.0,-290.0,-1027.0,657.0,-279.0,472.0,-210.0,505.0
19:30:37.309000,49.0,39.0,-238.0,-1047.0,660.0,-289.0,472.0,-210.0,505.0
19:30:37.316000,49.0,63.0,-196.0,-1130.0,689.0,-292.0,472.0,-208.0,504.0
19:30:37.318000,49.0,63.0,-196.0,-1130.0,689.0,-292.0,472.0,-208.0,504.0
19:30:37.323000,37.0,81.0,-172.0,-1130.0,689.0,-292.0,472.0,-208.0,504.0
19:30:37.328000,27.0,98.0,-140.0,-1121.0,680.0,-295.0,450.0,-204.0,498.0
19:30:37.333000,12.0,117.0,-128.0,-1090.0,673.0,-302.0,450.0,-204.0,498.0
19:30:37.337000,-3.0,133.0,-130.0,-1062.0,673.0,-306.0,466.0,-208.0,508.0
19:30:37.342000,-21.0,149.0,-148.0,-1041.0,671.0,-313.0,466.0,-208.0,508.0
19:30:37.346000,-44.0,163.0,-173.0,-1034.0,663.0,-320.0,466.0,-208.0,508.0
19:30:37.351000,-59.0,168.0,-188.0,-1038.0,642.0,-323.0,460.0,-207.0,502.0
19:30:37.356000,-67.0,158.0,-191.0,-1033.0,603.0,-322.0,460.0,-207.0,502.0
19:30:37.361000,-67.0,141.0,-203.0,-1014.0,559.0,-319.0,450.0,-205.0,522.0
19:30:37.365000,-65.0,117.0,-230.0,-990.0,532.0,-316.0,450.0,-205.0,522.0
19:30:37.370000,-65.0,117.0,-230.0,-952.0,510.0,-310.0,450.0,-205.0,522.0
19:30:37.375000,-53.0,83.0,-247.0,-905.0,491.0,-300.0,462.0,-211.0,498.0
19:30:37.380000,-43.0,42.0,-252.0,-855.0,475.0,-282.0,462.0,-211.0,498.0
19:30:37.384000,-35.0,-3.0,-233.0,-795.0,446.0,-262.0,465.0,-205.0,502.0
19:30:37.389000,-25.0,-51.0,-184.0,-733.0,409.0,-243.0,465.0,-205.0,502.0
19:30:37.393000,-14.0,-98.0,-124.0,-675.0,380.0,-227.0,465.0,-205.0,502.0
19:30:37.398000,-7.0,-140.0,-74.0,-617.0,364.0,-212.0,469.0,-207.0,513.0
19:30:37.403000,-5.0,-172.0,-27.0,-560.0,356.0,-199.0,469.0,-207.0,513.0
19:30:37.408000,-13.0,-193.0,25.0,-517.0,359.0,-190.0,465.0,-208.0,507.0
19:30:37.412000,-26.0,-207.0,72.0,-498.0,371.0,-187.0,465.0,-208.0,507.0
19:30:37.417000,-48.0,-213.0,108.0,-508.0,382.0,-190.0,465.0,-208.0,507.0
19:30:37.422000,-77.0,-212.0,135.0,-538.0,387.0,-194.0,453.0,-207.0,502.0
19:30:37.427000,-109.0,-205.0,154.0,-577.0,393.0,-199.0,453.0,-207.0,502.0
19:30:37.431000,-133.0,-196.0,143.0,-577.0,393.0,-199.0,459.0,-208.0,508.0
19:30:37.436000,-154.0,-186.0,114.0,-621.0,395.0,-204.0,459.0,-208.0,508.0
19:30:37.440000,-166.0,-175.0,85.0,-648.0,383.0,-208.0,459.0,-208.0,508.0
19:30:37.445000,-172.0,-163.0,62.0,-657.0,368.0,-213.0,475.0,-207.0,502.0
19:30:37.450000,-173.0,-154.0,56.0,-657.0,350.0,-214.0,475.0,-207.0,502.0
19:30:37.455000,-165.0,-148.0,58.0,-649.0,328.0,-211.0,465.0,-202.0,505.0
19:30:37.459000,-155.0,-143.0,69.0,-634.0,303.0,-202.0,465.0,-202.0,505.0
19:30:37.464000,-137.0,-144.0,91.0,-602.0,272.0,-188.0,465.0,-202.0,505.0
19:30:37.469000,-116.0,-151.0,130.0,-552.0,237.0,-176.0,463.0,-208.0,507.0
19:30:37.474000,-91.0,-161.0,189.0,-501.0,202.0,-165.0,463.0,-208.0,507.0
19:30:37.478000,-91.0,-161.0,189.0,-469.0,181.0,-156.0,469.0,-208.0,504.0
19:30:37.483000,-60.0,-171.0,243.0,-457.0,183.0,-148.0,469.0,-208.0,504.0
19:30:37.487000,-36.0,-177.0,284.0,-452.0,187.0,-142.0,469.0,-208.0,504.0
19:30:37.492000,-14.0,-179.0,331.0,-451.0,186.0,-138.0,474.0,-205.0,499.0
19:30:37.497000,0.0,-177.0,373.0,-453.0,189.0,-136.0,474.0,-205.0,499.0
19:30:37.502000,8.0,-169.0,397.0,-457.0,199.0,-136.0,469.0,-222.0,504.0
19:30:37.506000,13.0,-158.0,409.0,-463.0,217.0,-137.0,469.0,-222.0,504.0
19:30:37.511000,15.0,-144.0,398.0,-472.0,233.0,-139.0,469.0,-222.0,504.0
19:30:37.516000,13.0,-126.0,366.0,-479.0,241.0,-141.0,481.0,-219.0,502.0
19:30:37.521000,13.0,-109.0,325.0,-485.0,245.0,-144.0,481.0,-219.0,502.0
19:30:37.525000,13.0,-92.0,275.0,-489.0,245.0,-145.0,484.0,-216.0,502.0
19:30:37.530000,12.0,-76.0,225.0,-487.0,242.0,-145.0,484.0,-216.0,502.0
19:30:37.534000,13.0,-64.0,178.0,-477.0,240.0,-145.0,484.0,-216.0,502.0
19:30:37.539000,8.0,-53.0,140.0,-445.0,243.0,-145.0,484.0,-217.0,501.0
19:30:37.544000,3.0,-42.0,111.0,-464.0,243.0,-145.0,484.0,-217.0,501.0
19:30:37.549000,-6.0,-31.0,83.0,-455.0,253.0,-147.0,486.0,-219.0,493.0
19:30:37.553000,-17.0,-22.0,66.0,-444.0,260.0,-149.0,486.0,-219.0,493.0
19:30:37.558000,-29.0,-16.0,60.0,-431.0,259.0,-150.0,486.0,-219.0,493.0
19:30:37.563000,-37.0,-14.0,58.0,-420.0,251.0,-151.0,490.0,-214.0,499.0
19:30:37.568000,-43.0,-14.0,62.0,-405.0,240.0,-150.0,490.0,-214.0,499.0
19:30:37.572000,-42.0,-21.0,76.0,-386.0,230.0,-147.0,489.0,-223.0,489.0
19:30:37.577000,-36.0,-30.0,94.0,-365.0,219.0,-144.0,489.0,-223.0,489.0
19:30:37.584000,-26.0,-44.0,119.0,-344.0,194.0,-130.0,486.0,-217.0,502.0
19:30:37.586000,-12.0,-58.0,142.0,-344.0,194.0,-130.0,486.0,-217.0,502.0
19:30:37.590000,-12.0,-58.0,142.0,-344.0,184.0,-120.0,486.0,-217.0,502.0
19:30:37.596000,2.0,-73.0,168.0,-345.0,167.0,-108.0,484.0,-222.0,501.0
19:30:37.600000,18.0,-88.0,201.0,-350.0,150.0,-101.0,484.0,-222.0,501.0
19:30:37.605000,36.0,-100.0,229.0,-367.0,148.0,-99.0,490.0,-223.0,504.0
19:30:37.610000,52.0,-109.0,245.0,-396.0,167.0,-99.0,490.0,-223.0,504.0
19:30:37.614000,62.0,-113.0,247.0,-432.0,197.0,-100.0,490.0,-223.0,504.0
19:30:37.619000,64.0,-110.0,243.0,-465.0,223.0,-101.0,490.0,-214.0,498.0
19:30:37.624000,59.0,-104.0,240.0,-491.0,241.0,-102.0,490.0,-214.0,498.0
19:30:37.628000,50.0,-98.0,238.0,-509.0,249.0,-103.0,492.0,-217.0,519.0
19:30:37.633000,40.0,-91.0,236.0,-512.0,248.0,-104.0,492.0,-217.0,519.0
19:30:37.637000,32.0,-88.0,235.0,-502.0,245.0,-104.0,492.0,-217.0,519.0
19:30:37.643000,27.0,-88.0,236.0,-489.0,241.0,-103.0,496.0,-219.0,502.0
19:30:37.647000,24.0,-91.0,241.0,-480.0,233.0,-102.0,496.0,-219.0,502.0
19:30:37.652000,21.0,-97.0,252.0,-480.0,233.0,-102.0,492.0,-222.0,492.0
19:30:37.657000,20.0,-106.0,269.0,-476.0,220.0,-102.0,492.0,-222.0,492.0
19:30:37.661000,18.0,-116.0,290.0,-481.0,207.0,-103.0,492.0,-222.0,492.0
19:30:37.666000,14.0,-126.0,317.0,-490.0,196.0,-105.0,493.0,-225.0,495.0
19:30:37.671000,5.0,-135.0,344.0,-502.0,192.0,-109.0,493.0,-225.0,495.0
19:30:37.675000,-4.0,-142.0,371.0,-521.0,197.0,-117.0,501.0,-214.0,487.0
19:30:37.680000,-20.0,-145.0,396.0,-546.0,204.0,-125.0,501.0,-214.0,487.0
19:30:37.684000,-20.0,-145.0,396.0,-575.0,207.0,-129.0,501.0,-214.0,487.0
19:30:37.690000,-55.0,-146.0,438.0,-599.0,198.0,-131.0,487.0,-219.0,490.0
19:30:37.694000,-66.0,-147.0,455.0,-612.0,172.0,-138.0,487.0,-219.0,490.0
19:30:37.699000,-66.0,-147.0,455.0,-617.0,145.0,-146.0,496.0,-238.0,499.0
19:30:37.704000,-74.0,-149.0,461.0,-621.0,133.0,-152.0,496.0,-238.0,499.0
19:30:37.708000,-81.0,-152.0,460.0,-620.0,134.0,-155.0,496.0,-238.0,499.0
19:30:37.713000,-92.0,-154.0,459.0,-611.0,135.0,-156.0,505.0,-226.0,495.0
19:30:37.718000,-102.0,-158.0,462.0,-595.0,128.0,-160.0,505.0,-226.0,495.0
19:30:37.723000,-108.0,-165.0,459.0,-576.0,117.0,-164.0,507.0,-241.0,510.0
19:30:37.727000,-109.0,-175.0,452.0,-563.0,113.0,-168.0,507.0,-241.0,510.0
19:30:37.731000,-107.0,-185.0,445.0,-561.0,118.0,-171.0,507.0,-241.0,510.0
19:30:37.737000,-105.0,-195.0,441.0,-570.0,128.0,-172.0,510.0,-237.0,489.0
19:30:37.741000,-104.0,-203.0,445.0,-584.0,134.0,-171.0,510.0,-237.0,489.0
19:30:37.746000,-107.0,-208.0,458.0,-584.0,134.0,-171.0,504.0,-240.0,498.0
19:30:37.751000,-113.0,-212.0,485.0,-610.0,115.0,-162.0,504.0,-240.0,498.0
19:30:37.755000,-120.0,-213.0,517.0,-619.0,102.0,-157.0,504.0,-240.0,498.0
19:30:37.760000,-127.0,-212.0,548.0,-619.0,102.0,-157.0,514.0,-246.0,487.0
19:30:37.765000,-136.0,-210.0,578.0,-625.0,82.0,-144.0,514.0,-246.0,487.0
19:30:37.770000,-146.0,-203.0,601.0,-625.0,82.0,-144.0,516.0,-249.0,498.0
19:30:37.774000,-154.0,-199.0,610.0,-623.0,71.0,-136.0,516.0,-249.0,498.0
19:30:37.778000,-161.0,-197.0,607.0,-617.0,63.0,-129.0,516.0,-249.0,498.0
19:30:37.784000,-168.0,-193.0,596.0,-610.0,64.0,-124.0,526.0,-258.0,489.0
19:30:37.788000,-176.0,-188.0,579.0,-607.0,78.0,-120.0,526.0,-258.0,489.0
19:30:37.793000,-183.0,-182.0,560.0,-607.0,101.0,-116.0,520.0,-250.0,489.0
19:30:37.798000,-188.0,-175.0,545.0,-608.0,110.0,-113.0,520.0,-250.0,489.0
19:30:37.802000,-188.0,-175.0,545.0,-608.0,98.0,-110.0,520.0,-250.0,489.0
19:30:37.807000,-187.0,-165.0,538.0,-612.0,70.0,-108.0,534.0,-264.0,490.0
19:30:37.812000,-179.0,-159.0,538.0,-620.0,38.0,-105.0,534.0,-264.0,490.0
19:30:37.817000,-165.0,-153.0,543.0,-632.0,8.0,-102.0,520.0,-261.0,490.0
19:30:37.821000,-142.0,-147.0,550.0,-650.0,-16.0,-96.0,520.0,-261.0,490.0
19:30:37.825000,-117.0,-137.0,554.0,-673.0,-38.0,-87.0,520.0,-261.0,490.0
19:30:37.831000,-90.0,-126.0,558.0,-692.0,-62.0,-81.0,529.0,-268.0,489.0
19:30:37.835000,-56.0,-121.0,564.0,-710.0,-78.0,-79.0,529.0,-268.0,489.0
19:30:37.840000,-22.0,-119.0,562.0,-743.0,-62.0,-79.0,534.0,-268.0,498.0
19:30:37.845000,2.0,-113.0,545.0,-791.0,-17.0,-82.0,534.0,-268.0,498.0
19:30:37.849000,14.0,-102.0,521.0,-838.0,34.0,-84.0,534.0,-268.0,498.0
19:30:37.854000,12.0,-86.0,499.0,-870.0,76.0,-89.0,534.0,-268.0,477.0
19:30:37.859000,-2.0,-70.0,481.0,-876.0,90.0,-96.0,534.0,-268.0,477.0
19:30:37.864000,-21.0,-58.0,472.0,-876.0,90.0,-96.0,529.0,-282.0,490.0
19:30:37.868000,-34.0,-54.0,460.0,-860.0,89.0,-130.0,529.0,-282.0,490.0
19:30:37.872000,-44.0,-55.0,434.0,-847.0,89.0,-130.0,529.0,-282.0,490.0
19:30:37.878000,-59.0,-56.0,399.0,-858.0,126.0,-150.0,531.0,-285.0,484.0
19:30:37.882000,-81.0,-53.0,367.0,-887.0,174.0,-165.0,531.0,-285.0,484.0
19:30:37.887000,-111.0,-47.0,350.0,-916.0,200.0,-177.0,532.0,-279.0,495.0
19:30:37.892000,-141.0,-41.0,345.0,-936.0,191.0,-187.0,532.0,-279.0,495.0
19:30:37.896000,-170.0,-32.0,340.0,-955.0,163.0,-201.0,532.0,-279.0,495.0
19:30:37.901000,-198.0,-22.0,333.0,-978.0,142.0,-215.0,537.0,-285.0,484.0
19:30:37.906000,-224.0,-7.0,322.0,-1004.0,139.0,-228.0,537.0,-285.0,484.0
19:30:37.911000,-249.0,9.0,315.0,-1028.0,146.0,-240.0,522.0,-288.0,481.0
19:30:37.915000,-266.0,24.0,315.0,-1039.0,147.0,-250.0,522.0,-288.0,481.0
19:30:37.919000,-266.0,24.0,315.0,-1039.0,142.0,-259.0,522.0,-288.0,481.0
19:30:37.925000,-275.0,38.0,316.0,-1027.0,140.0,-265.0,531.0,-291.0,486.0
19:30:37.929000,-271.0,45.0,317.0,-1009.0,144.0,-269.0,531.0,-291.0,486.0
19:30:37.934000,-259.0,46.0,317.0,-990.0,156.0,-272.0,531.0,-295.0,490.0
19:30:37.939000,-238.0,41.0,313.0,-977.0,179.0,-283.0,531.0,-295.0,490.0
19:30:37.946000,-188.0,44.0,275.0,-1011.0,284.0,-315.0,543.0,-295.0,486.0
19:30:37.948000,-188.0,44.0,275.0,-1011.0,284.0,-315.0,543.0,-295.0,486.0
19:30:37.952000,-164.0,53.0,254.0,-1041.0,350.0,-347.0,543.0,-295.0,486.0
19:30:37.958000,-144.0,62.0,233.0,-1077.0,449.0,-377.0,540.0,-300.0,490.0
19:30:37.962000,-121.0,70.0,200.0,-1098.0,583.0,-413.0,540.0,-300.0,490.0
19:30:37.967000,-102.0,77.0,148.0,-1098.0,583.0,-413.0,538.0,-298.0,483.0
19:30:37.972000,-83.0,83.0,102.0,-1056.0,792.0,-472.0,538.0,-298.0,483.0
19:30:37.976000,-62.0,88.0,74.0,-1036.0,817.0,-493.0,538.0,-298.0,483.0
19:30:37.981000,-39.0,87.0,67.0,-1036.0,817.0,-493.0,531.0,-300.0,483.0
19:30:37.986000,-16.0,71.0,68.0,-1030.0,813.0,-499.0,531.0,-300.0,483.0
19:30:37.990000,-2.0,55.0,71.0,-978.0,825.0,-465.0,538.0,-301.0,507.0
19:30:37.995000,0.0,18.0,94.0,-978.0,825.0,-465.0,538.0,-301.0,507.0
19:30:37.999000,-13.0,-12.0,145.0,-903.0,807.0,-427.0,538.0,-301.0,507.0
19:30:38.005000,-7.0,-43.0,179.0,-875.0,775.0,-403.0,531.0,-306.0,495.0
19:30:38.009000,3.0,-100.0,188.0,-855.0,771.0,-382.0,531.0,-306.0,495.0
19:30:38.014000,3.0,-147.0,230.0,-713.0,785.0,-357.0,538.0,-297.0,487.0
19:30:38.019000,4.0,-190.0,251.0,-579.0,813.0,-353.0,538.0,-297.0,487.0
19:30:38.023000,4.0,-190.0,251.0,-574.0,884.0,-357.0,538.0,-297.0,487.0
19:30:38.028000,6.0,-237.0,221.0,-605.0,929.0,-354.0,538.0,-307.0,492.0
19:30:38.033000,-4.0,-274.0,207.0,-649.0,918.0,-357.0,538.0,-307.0,492.0
19:30:38.037000,-16.0,-282.0,236.0,-820.0,853.0,-390.0,537.0,-310.0,472.0
19:30:38.042000,21.0,-273.0,241.0,-1240.0,831.0,-316.0,537.0,-310.0,472.0
19:30:38.046000,-23.0,-386.0,-35.0,-2207.0,833.0,-302.0,537.0,-310.0,472.0
19:30:38.052000,-86.0,-343.0,-101.0,-1728.0,633.0,-329.0,526.0,-315.0,489.0
19:30:38.056000,-128.0,-268.0,691.0,-406.0,745.0,-216.0,526.0,-315.0,489.0
19:30:38.061000,-202.0,-242.0,763.0,-404.0,1178.0,-192.0,543.0,-315.0,481.0
19:30:38.066000,-142.0,-238.0,278.0,-518.0,1190.0,-212.0,543.0,-315.0,481.0
19:30:38.070000,-65.0,-237.0,99.0,-489.0,983.0,-192.0,543.0,-315.0,481.0
19:30:38.075000,-30.0,-220.0,24.0,-567.0,817.0,-188.0,537.0,-313.0,474.0
19:30:38.080000,-32.0,-193.0,-105.0,-715.0,689.0,-233.0,537.0,-313.0,474.0
19:30:38.085000,-6.0,-168.0,-238.0,-715.0,689.0,-233.0,526.0,-321.0,501.0
19:30:38.089000,20.0,-154.0,-447.0,-1146.0,642.0,-288.0,526.0,-321.0,501.0
19:30:38.093000,35.0,-184.0,-109.0,-1833.0,458.0,-268.0,526.0,-321.0,501.0
19:30:38.099000,-1.0,-114.0,348.0,-1706.0,281.0,-298.0,546.0,-313.0,481.0
19:30:38.103000,21.0,-111.0,203.0,-1295.0,451.0,-335.0,546.0,-313.0,481.0
19:30:38.108000,23.0,-65.0,-95.0,-1392.0,710.0,-347.0,546.0,-316.0,471.0
19:30:38.113000,-18.0,-30.0,-144.0,-1299.0,708.0,-344.0,546.0,-316.0,471.0
19:30:38.117000,-29.0,7.0,-157.0,-1143.0,614.0,-323.0,546.0,-316.0,471.0
19:30:38.122000,-40.0,36.0,-153.0,-1100.0,579.0,-353.0,538.0,-307.0,493.0
19:30:38.127000,-51.0,53.0,-79.0,-1123.0,500.0,-351.0,538.0,-307.0,493.0
19:30:38.132000,-39.0,71.0,-38.0,-1153.0,451.0,-359.0,543.0,-309.0,475.0
19:30:38.136000,-39.0,71.0,-38.0,-1128.0,474.0,-363.0,543.0,-309.0,475.0
19:30:38.140000,-25.0,84.0,-84.0,-1082.0,454.0,-368.0,543.0,-309.0,475.0
19:30:38.146000,-32.0,100.0,-163.0,-1034.0,384.0,-378.0,543.0,-312.0,469.0
19:30:38.150000,-13.0,104.0,-302.0,-958.0,298.0,-381.0,543.0,-312.0,469.0
19:30:38.155000,13.0,109.0,-393.0,-922.0,217.0,-385.0,541.0,-313.0,480.0
19:30:38.160000,25.0,98.0,-298.0,-1200.0,149.0,-363.0,541.0,-313.0,480.0
19:30:38.164000,15.0,60.0,130.0,-1287.0,216.0,-395.0,541.0,-313.0,480.0
19:30:38.169000,-5.0,72.0,233.0,-1091.0,435.0,-389.0,544.0,-309.0,480.0
19:30:38.174000,-3.0,46.0,-99.0,-975.0,464.0,-340.0,544.0,-309.0,480.0
19:30:38.179000,4.0,25.0,-123.0,-928.0,341.0,-325.0,537.0,-312.0,477.0
19:30:38.183000,-51.0,14.0,31.0,-1036.0,338.0,-304.0,537.0,-312.0,477.0
19:30:38.187000,-69.0,-9.0,111.0,-1092.0,367.0,-283.0,537.0,-312.0,477.0
19:30:38.193000,-111.0,-18.0,135.0,-1027.0,287.0,-255.0,534.0,-306.0,480.0
19:30:38.197000,-162.0,-24.0,214.0,-964.0,180.0,-216.0,534.0,-306.0,480.0
19:30:38.202000,-185.0,-48.0,318.0,-955.0,180.0,-216.0,544.0,-319.0,474.0
19:30:38.207000,-235.0,-49.0,382.0,-934.0,179.0,-176.0,544.0,-319.0,474.0
19:30:38.211000,-292.0,-43.0,397.0,-939.0,222.0,-152.0,544.0,-319.0,474.0
19:30:38.216000,-299.0,-52.0,429.0,-931.0,162.0,-140.0,529.0,-321.0,481.0
19:30:38.221000,-296.0,-58.0,440.0,-923.0,15.0,-139.0,529.0,-321.0,481.0
19:30:38.226000,-274.0,-56.0,395.0,-958.0,-114.0,-140.0,529.0,-313.0,469.0
19:30:38.230000,-225.0,-49.0,291.0,-1038.0,-183.0,-152.0,529.0,-313.0,469.0
19:30:38.234000,-225.0,-49.0,291.0,-1146.0,-203.0,-175.0,529.0,-313.0,469.0
19:30:38.240000,-104.0,-7.0,21.0,-1232.0,-205.0,-200.0,546.0,-321.0,478.0
19:30:38.244000,-42.0,13.0,-58.0,-1291.0,-198.0,-221.0,546.0,-321.0,478.0
19:30:38.249000,-42.0,13.0,-58.0,-1333.0,-156.0,-233.0,541.0,-321.0,483.0
19:30:38.254000,9.0,30.0,-121.0,-1350.0,-78.0,-237.0,541.0,-321.0,483.0
19:30:38.258000,32.0,60.0,-166.0,-1323.0,-9.0,-234.0,541.0,-321.0,483.0
19:30:38.263000,49.0,88.0,-163.0,-1273.0,6.0,-231.0,531.0,-321.0,469.0
19:30:38.268000,56.0,120.0,-142.0,-1217.0,-8.0,-224.0,531.0,-321.0,469.0
19:30:38.273000,88.0,130.0,-110.0,-1167.0,-10.0,-218.0,528.0,-318.0,478.0
19:30:38.277000,135.0,130.0,-51.0,-1146.0,10.0,-215.0,528.0,-318.0,478.0
19:30:38.281000,163.0,134.0,13.0,-1160.0,44.0,-208.0,528.0,-318.0,478.0
19:30:38.287000,172.0,144.0,35.0,-1202.0,75.0,-205.0,535.0,-316.0,486.0
19:30:38.291000,179.0,160.0,-9.0,-1222.0,78.0,-206.0,535.0,-316.0,486.0
19:30:38.296000,203.0,172.0,-57.0,-1222.0,64.0,-199.0,525.0,-312.0,483.0
19:30:38.301000,216.0,183.0,-54.0,-1163.0,61.0,-190.0,525.0,-312.0,483.0
19:30:38.305000,234.0,182.0,-36.0,-1115.0,69.0,-182.0,526.0,-319.0,486.0
19:30:38.310000,241.0,181.0,-50.0,-1115.0,69.0,-182.0,526.0,-319.0,486.0
19:30:38.314000,245.0,189.0,-98.0,-1111.0,67.0,-174.0,526.0,-319.0,486.0
19:30:38.320000,247.0,186.0,-103.0,-1103.0,39.0,-166.0,535.0,-309.0,480.0
19:30:38.324000,231.0,190.0,-95.0,-1085.0,-4.0,-164.0,535.0,-309.0,480.0
19:30:38.328000,249.0,168.0,-100.0,-1093.0,0.0,-170.0,525.0,-319.0,487.0
19:30:38.334000,224.0,168.0,-112.0,-1088.0,43.0,-179.0,525.0,-319.0,487.0
19:30:38.338000,196.0,159.0,-147.0,-1083.0,95.0,-187.0,525.0,-319.0,487.0
19:30:38.343000,133.0,162.0,-172.0,-1067.0,137.0,-199.0,531.0,-309.0,484.0
19:30:38.347000,133.0,162.0,-172.0,-1015.0,152.0,-194.0,531.0,-309.0,484.0
19:30:38.352000,72.0,142.0,-154.0,-957.0,195.0,-188.0,523.0,-313.0,493.0
19:30:38.357000,72.0,142.0,-154.0,-943.0,212.0,-189.0,523.0,-313.0,493.0
19:30:38.362000,47.0,123.0,-137.0,-953.0,126.0,-188.0,519.0,-306.0,477.0
19:30:38.367000,14.0,97.0,-61.0,-945.0,40.0,-210.0,519.0,-306.0,477.0
19:30:38.371000,-9.0,78.0,-44.0,-953.0,74.0,-215.0,519.0,-306.0,477.0
19:30:38.376000,-4.0,62.0,-112.0,-972.0,151.0,-212.0,523.0,-316.0,490.0
19:30:38.381000,-7.0,33.0,-143.0,-968.0,179.0,-204.0,523.0,-316.0,490.0
19:30:38.385000,-32.0,20.0,-128.0,-948.0,176.0,-193.0,520.0,-312.0,493.0
19:30:38.390000,-46.0,11.0,-140.0,-971.0,124.0,-204.0,520.0,-312.0,493.0
19:30:38.394000,-69.0,9.0,-170.0,-994.0,-4.0,-202.0,520.0,-312.0,493.0
19:30:38.399000,-94.0,7.0,-160.0,-990.0,-78.0,-196.0,513.0,-300.0,486.0
19:30:38.404000,-70.0,-20.0,-165.0,-992.0,-18.0,-199.0,513.0,-300.0,486.0
19:30:38.409000,-30.0,-44.0,-158.0,-992.0,-18.0,-199.0,528.0,-307.0,486.0
19:30:38.414000,-7.0,-42.0,-154.0,-1000.0,113.0,-193.0,528.0,-307.0,486.0
19:30:38.418000,8.0,-40.0,-186.0,-1000.0,113.0,-193.0,528.0,-307.0,486.0
19:30:38.423000,-1.0,-30.0,-226.0,-1041.0,124.0,-190.0,522.0,-300.0,490.0
19:30:38.428000,-4.0,-22.0,-227.0,-1055.0,78.0,-184.0,522.0,-300.0,490.0
19:30:38.432000,24.0,-24.0,-193.0,-1037.0,49.0,-180.0,517.0,-306.0,478.0
19:30:38.437000,49.0,-22.0,-158.0,-1011.0,38.0,-171.0,517.0,-306.0,478.0
19:30:38.444000,79.0,-23.0,-188.0,-1036.0,142.0,-137.0,519.0,-304.0,487.0
19:30:38.446000,60.0,2.0,-261.0,-1036.0,142.0,-137.0,519.0,-304.0,487.0
19:30:38.450000,51.0,21.0,-238.0,-1011.0,108.0,-121.0,519.0,-304.0,487.0
19:30:38.456000,57.0,21.0,-214.0,-1052.0,-9.0,-133.0,523.0,-300.0,489.0
19:30:38.460000,82.0,21.0,-291.0,-1154.0,-30.0,-173.0,523.0,-300.0,489.0
19:30:38.465000,82.0,21.0,-291.0,-1180.0,7.0,-184.0,522.0,-297.0,490.0
19:30:38.470000,63.0,42.0,-329.0,-1128.0,27.0,-172.0,522.0,-297.0,490.0
19:30:38.474000,92.0,48.0,-295.0,-1083.0,81.0,-173.0,522.0,-297.0,490.0
19:30:38.479000,87.0,55.0,-273.0,-1055.0,145.0,-172.0,523.0,-309.0,481.0
19:30:38.484000,81.0,67.0,-322.0,-1031.0,160.0,-186.0,523.0,-309.0,481.0
19:30:38.488000,108.0,65.0,-394.0,-1003.0,117.0,-185.0,525.0,-288.0,486.0
19:30:38.493000,137.0,60.0,-399.0,-1021.0,112.0,-185.0,525.0,-288.0,486.0
19:30:38.497000,159.0,53.0,-385.0,-1077.0,140.0,-190.0,525.0,-288.0,486.0
19:30:38.503000,134.0,60.0,-386.0,-1117.0,163.0,-195.0,511.0,-289.0,480.0
19:30:38.507000,122.0,68.0,-393.0,-1118.0,181.0,-205.0,511.0,-289.0,480.0
19:30:38.512000,110.0,79.0,-379.0,-1116.0,182.0,-211.0,523.0,-292.0,483.0
19:30:38.517000,116.0,86.0,-354.0,-1144.0,213.0,-221.0,523.0,-292.0,483.0
19:30:38.521000,130.0,91.0,-352.0,-1149.0,237.0,-221.0,523.0,-292.0,483.0
19:30:38.526000,105.0,105.0,-357.0,-1149.0,250.0,-213.0,522.0,-280.0,490.0
19:30:38.531000,83.0,109.0,-336.0,-1108.0,292.0,-203.0,522.0,-280.0,490.0
19:30:38.536000,49.0,115.0,-350.0,-1108.0,292.0,-203.0,498.0,-277.0,493.0
19:30:38.540000,23.0,136.0,-396.0,-1097.0,290.0,-201.0,498.0,-277.0,493.0
19:30:38.544000,29.0,146.0,-383.0,-1080.0,231.0,-215.0,498.0,-277.0,493.0
19:30:38.550000,35.0,155.0,-378.0,-1093.0,206.0,-223.0,508.0,-279.0,486.0
19:30:38.554000,28.0,176.0,-383.0,-1119.0,209.0,-220.0,508.0,-279.0,486.0
19:30:38.559000,23.0,192.0,-368.0,-1121.0,215.0,-219.0,511.0,-262.0,489.0
19:30:38.564000,-2.0,207.0,-341.0,-1121.0,213.0,-216.0,511.0,-262.0,489.0
19:30:38.568000,-2.0,207.0,-341.0,-1129.0,198.0,-220.0,511.0,-262.0,489.0
19:30:38.573000,-4.0,238.0,-382.0,-1116.0,186.0,-232.0,513.0,-277.0,493.0
19:30:38.578000,-4.0,238.0,-382.0,-1084.0,177.0,-239.0,513.0,-277.0,493.0
19:30:38.583000,13.0,246.0,-389.0,-1059.0,178.0,-242.0,502.0,-274.0,492.0
19:30:38.587000,26.0,259.0,-410.0,-1066.0,177.0,-247.0,502.0,-274.0,492.0
19:30:38.591000,23.0,278.0,-441.0,-1091.0,196.0,-253.0,502.0,-274.0,492.0
19:30:38.597000,47.0,287.0,-433.0,-1102.0,229.0,-255.0,501.0,-273.0,486.0
19:30:38.601000,71.0,287.0,-420.0,-1100.0,241.0,-259.0,501.0,-273.0,486.0
19:30:38.606000,70.0,297.0,-436.0,-1088.0,229.0,-268.0,499.0,-267.0,501.0
19:30:38.611000,81.0,302.0,-407.0,-1088.0,236.0,-275.0,499.0,-267.0,501.0
19:30:38.615000,106.0,297.0,-394.0,-1092.0,243.0,-276.0,499.0,-267.0,501.0
19:30:38.620000,99.0,301.0,-378.0,-1084.0,233.0,-279.0,483.0,-264.0,498.0
19:30:38.625000,117.0,297.0,-354.0,-1077.0,250.0,-282.0,483.0,-264.0,498.0
19:30:38.630000,110.0,301.0,-351.0,-1077.0,250.0,-282.0,496.0,-264.0,496.0
19:30:38.634000,99.0,298.0,-355.0,-1033.0,268.0,-276.0,496.0,-264.0,496.0
19:30:38.638000,109.0,287.0,-346.0,-1033.0,268.0,-276.0,496.0,-264.0,496.0
19:30:38.644000,124.0,273.0,-345.0,-1001.0,252.0,-278.0,493.0,-270.0,499.0
19:30:38.648000,140.0,259.0,-364.0,-979.0,247.0,-281.0,493.0,-270.0,499.0
19:30:38.653000,149.0,243.0,-385.0,-971.0,250.0,-283.0,489.0,-271.0,498.0
19:30:38.658000,158.0,231.0,-410.0,-975.0,264.0,-284.0,489.0,-271.0,498.0
19:30:38.662000,170.0,210.0,-395.0,-968.0,274.0,-281.0,489.0,-271.0,498.0
19:30:38.667000,176.0,190.0,-367.0,-943.0,267.0,-275.0,466.0,-252.0,519.0
19:30:38.672000,156.0,179.0,-376.0,-938.0,277.0,-272.0,466.0,-252.0,519.0
19:30:38.677000,141.0,159.0,-401.0,-932.0,299.0,-270.0,480.0,-261.0,505.0
19:30:38.681000,144.0,136.0,-450.0,-907.0,338.0,-274.0,480.0,-261.0,505.0
19:30:38.685000,144.0,136.0,-450.0,-874.0,379.0,-278.0,480.0,-261.0,505.0
19:30:38.691000,128.0,116.0,-494.0,-834.0,385.0,-275.0,472.0,-250.0,504.0
19:30:38.695000,91.0,98.0,-471.0,-810.0,402.0,-284.0,472.0,-250.0,504.0
19:30:38.700000,86.0,72.0,-441.0,-815.0,445.0,-293.0,469.0,-246.0,499.0
19:30:38.705000,51.0,56.0,-449.0,-828.0,475.0,-297.0,469.0,-246.0,499.0
19:30:38.712000,5.0,22.0,-475.0,-847.0,501.0,-304.0,483.0,-255.0,508.0
19:30:38.714000,5.0,22.0,-475.0,-847.0,501.0,-304.0,483.0,-255.0,508.0
19:30:38.718000,-8.0,10.0,-471.0,-852.0,529.0,-310.0,483.0,-255.0,508.0
19:30:38.724000,-27.0,5.0,-446.0,-861.0,536.0,-309.0,472.0,-246.0,495.0
19:30:38.728000,-64.0,9.0,-401.0,-873.0,528.0,-315.0,472.0,-246.0,495.0
19:30:38.733000,-73.0,14.0,-375.0,-873.0,528.0,-315.0,468.0,-243.0,507.0
19:30:38.738000,-72.0,16.0,-365.0,-879.0,506.0,-329.0,468.0,-243.0,507.0
19:30:38.742000,-75.0,28.0,-347.0,-892.0,484.0,-342.0,468.0,-243.0,507.0
19:30:38.747000,-44.0,37.0,-338.0,-892.0,484.0,-342.0,480.0,-240.0,504.0
19:30:38.752000,-23.0,46.0,-317.0,-937.0,469.0,-345.0,480.0,-240.0,504.0
19:30:38.756000,23.0,62.0,-284.0,-982.0,448.0,-362.0,477.0,-244.0,511.0
19:30:38.761000,74.0,58.0,-219.0,-982.0,448.0,-362.0,477.0,-244.0,511.0
19:30:38.765000,116.0,61.0,-152.0,-1007.0,426.0,-348.0,477.0,-244.0,511.0
19:30:38.771000,112.0,81.0,-134.0,-1020.0,426.0,-336.0,469.0,-243.0,504.0
19:30:38.775000,149.0,88.0,-137.0,-1017.0,457.0,-330.0,469.0,-243.0,504.0
19:30:38.780000,172.0,93.0,-142.0,-1021.0,476.0,-328.0,463.0,-244.0,501.0
19:30:38.785000,188.0,100.0,-139.0,-1022.0,471.0,-316.0,463.0,-244.0,501.0
19:30:38.789000,188.0,100.0,-139.0,-1002.0,471.0,-310.0,463.0,-244.0,501.0
19:30:38.794000,206.0,103.0,-118.0,-965.0,477.0,-303.0,472.0,-238.0,505.0
19:30:38.799000,224.0,101.0,-80.0,-957.0,483.0,-294.0,472.0,-238.0,505.0
19:30:38.804000,246.0,91.0,-42.0,-995.0,488.0,-294.0,456.0,-238.0,507.0
19:30:38.808000,243.0,90.0,-34.0,-1072.0,501.0,-301.0,456.0,-238.0,507.0
19:30:38.812000,239.0,91.0,-95.0,-1080.0,542.0,-324.0,456.0,-238.0,507.0
19:30:38.818000,224.0,119.0,-203.0,-1083.0,591.0,-315.0,472.0,-234.0,504.0
19:30:38.822000,213.0,125.0,-169.0,-1090.0,607.0,-297.0,472.0,-234.0,504.0
19:30:38.827000,192.0,138.0,-56.0,-1048.0,616.0,-300.0,463.0,-226.0,496.0
19:30:38.832000,172.0,145.0,-44.0,-1062.0,644.0,-306.0,463.0,-226.0,496.0
19:30:38.836000,171.0,148.0,-133.0,-1059.0,644.0,-312.0,463.0,-226.0,496.0
19:30:38.841000,153.0,156.0,-202.0,-1017.0,619.0,-313.0,457.0,-229.0,507.0
19:30:38.846000,156.0,142.0,-192.0,-993.0,615.0,-326.0,457.0,-229.0,507.0
19:30:38.851000,150.0,141.0,-156.0,-993.0,615.0,-326.0,457.0,-226.0,522.0
19:30:38.855000,130.0,141.0,-147.0,-1023.0,686.0,-343.0,457.0,-226.0,522.0
19:30:38.859000,119.0,140.0,-130.0,-1056.0,686.0,-343.0,457.0,-226.0,522.0
19:30:38.865000,94.0,145.0,-117.0,-1084.0,722.0,-360.0,453.0,-225.0,498.0
19:30:38.869000,62.0,158.0,-109.0,-1127.0,747.0,-370.0,453.0,-225.0,498.0
19:30:38.874000,32.0,163.0,-88.0,-1154.0,746.0,-380.0,460.0,-217.0,507.0
19:30:38.879000,-4.0,170.0,-43.0,-1153.0,721.0,-381.0,460.0,-217.0,507.0
19:30:38.883000,-29.0,180.0,28.0,-1125.0,690.0,-381.0,460.0,-217.0,507.0
19:30:38.888000,-38.0,193.0,97.0,-1095.0,655.0,-382.0,460.0,-214.0,511.0
19:30:38.893000,-45.0,209.0,122.0,-1086.0,626.0,-378.0,460.0,-214.0,511.0
19:30:38.898000,-52.0,224.0,112.0,-1086.0,601.0,-373.0,453.0,-217.0,507.0
19:30:38.902000,-35.0,229.0,97.0,-1078.0,557.0,-376.0,453.0,-217.0,507.0
19:30:38.906000,-35.0,229.0,97.0,-1067.0,498.0,-385.0,453.0,-217.0,507.0
19:30:38.912000,-21.0,235.0,93.0,-1068.0,468.0,-388.0,451.0,-222.0,508.0
19:30:38.916000,-5.0,232.0,70.0,-1070.0,472.0,-388.0,451.0,-222.0,508.0
19:30:38.921000,14.0,224.0,55.0,-1068.0,474.0,-385.0,456.0,-228.0,504.0
19:30:38.926000,24.0,219.0,64.0,-1093.0,477.0,-382.0,456.0,-228.0,504.0
19:30:38.930000,36.0,210.0,63.0,-1115.0,465.0,-385.0,456.0,-228.0,504.0
19:30:38.935000,51.0,196.0,65.0,-1094.0,433.0,-389.0,445.0,-229.0,520.0
19:30:38.940000,67.0,178.0,84.0,-1042.0,412.0,-387.0,445.0,-229.0,520.0
19:30:38.945000,82.0,156.0,111.0,-975.0,405.0,-386.0,445.0,-229.0,520.0
19:30:38.949000,98.0,130.0,142.0,-895.0,404.0,-387.0,445.0,-229.0,520.0
19:30:38.953000,109.0,106.0,170.0,-808.0,402.0,-387.0,445.0,-229.0,520.0
19:30:38.959000,116.0,86.0,202.0,-738.0,401.0,-394.0,456.0,-222.0,508.0
19:30:38.963000,128.0,63.0,225.0,-684.0,393.0,-400.0,456.0,-222.0,508.0
19:30:38.968000,136.0,46.0,242.0,-684.0,393.0,-400.0,460.0,-220.0,517.0
19:30:38.973000,149.0,27.0,249.0,-647.0,375.0,-400.0,460.0,-220.0,517.0
19:30:38.977000,151.0,14.0,249.0,-641.0,366.0,-393.0,460.0,-220.0,517.0
19:30:38.982000,153.0,0.0,235.0,-655.0,366.0,-377.0,462.0,-217.0,507.0
19:30:38.987000,145.0,-12.0,219.0,-665.0,367.0,-356.0,462.0,-217.0,507.0
19:30:38.992000,137.0,-25.0,212.0,-646.0,350.0,-335.0,448.0,-225.0,504.0
19:30:38.996000,132.0,-40.0,200.0,-628.0,328.0,-317.0,448.0,-225.0,504.0
19:30:39.000000,132.0,-40.0,200.0,-623.0,316.0,-300.0,448.0,-225.0,504.0
19:30:39.006000,110.0,-65.0,178.0,-616.0,309.0,-283.0,453.0,-220.0,508.0
19:30:39.010000,94.0,-75.0,180.0,-611.0,315.0,-265.0,453.0,-220.0,508.0
19:30:39.015000,94.0,-75.0,180.0,-598.0,325.0,-244.0,462.0,-225.0,511.0
19:30:39.020000,74.0,-83.0,185.0,-559.0,320.0,-224.0,462.0,-225.0,511.0
19:30:39.024000,57.0,-93.0,195.0,-510.0,302.0,-208.0,462.0,-225.0,511.0
19:30:39.029000,43.0,-102.0,198.0,-469.0,281.0,-191.0,465.0,-220.0,504.0
19:30:39.034000,30.0,-112.0,197.0,-438.0,258.0,-173.0,465.0,-220.0,504.0
19:30:39.039000,22.0,-120.0,192.0,-406.0,224.0,-156.0,471.0,-232.0,507.0
19:30:39.043000,16.0,-125.0,191.0,-377.0,180.0,-144.0,471.0,-232.0,507.0
19:30:39.047000,19.0,-126.0,189.0,-373.0,152.0,-142.0,471.0,-232.0,507.0
19:30:39.053000,28.0,-126.0,164.0,-400.0,158.0,-148.0,468.0,-223.0,516.0
19:30:39.057000,36.0,-121.0,119.0,-440.0,182.0,-156.0,468.0,-223.0,516.0
19:30:39.062000,37.0,-112.0,70.0,-440.0,213.0,-156.0,472.0,-226.0,504.0
19:30:39.067000,33.0,-103.0,35.0,-505.0,208.0,-168.0,472.0,-226.0,504.0
19:30:39.071000,28.0,-93.0,24.0,-526.0,211.0,-176.0,472.0,-226.0,504.0
19:30:39.076000,20.0,-82.0,21.0,-526.0,211.0,-176.0,466.0,-228.0,507.0
19:30:39.081000,7.0,-67.0,16.0,-540.0,229.0,-183.0,466.0,-228.0,507.0
19:30:39.086000,-13.0,-51.0,19.0,-536.0,253.0,-186.0,463.0,-226.0,504.0
19:30:39.090000,-35.0,-34.0,30.0,-514.0,267.0,-184.0,463.0,-226.0,504.0
19:30:39.094000,-54.0,-18.0,38.0,-477.0,260.0,-183.0,463.0,-226.0,504.0
19:30:39.100000,-63.0,-4.0,30.0,-432.0,237.0,-186.0,475.0,-222.0,513.0
19:30:39.104000,-60.0,0.0,11.0,-392.0,203.0,-194.0,475.0,-222.0,513.0
19:30:39.109000,-44.0,0.0,-18.0,-366.0,175.0,-202.0,472.0,-229.0,507.0
19:30:39.114000,-25.0,-3.0,-53.0,-361.0,168.0,-207.0,472.0,-229.0,507.0
19:30:39.121000,-2.0,-9.0,-84.0,-394.0,181.0,-208.0,468.0,-223.0,511.0
19:30:39.123000,-2.0,-9.0,-84.0,-394.0,181.0,-208.0,468.0,-223.0,511.0
19:30:39.127000,21.0,-19.0,-108.0,-410.0,188.0,-207.0,468.0,-223.0,511.0
19:30:39.133000,44.0,-35.0,-121.0,-417.0,193.0,-198.0,465.0,-219.0,505.0
19:30:39.137000,61.0,-53.0,-110.0,-418.0,206.0,-185.0,465.0,-219.0,505.0
19:30:39.142000,73.0,-67.0,-81.0,-423.0,230.0,-172.0,468.0,-226.0,510.0
19:30:39.147000,73.0,-81.0,-43.0,-428.0,254.0,-159.0,468.0,-226.0,510.0
19:30:39.151000,65.0,-94.0,2.0,-435.0,269.0,-149.0,468.0,-226.0,510.0
19:30:39.156000,53.0,-104.0,60.0,-452.0,273.0,-140.0,471.0,-228.0,505.0
19:30:39.161000,38.0,-112.0,120.0,-477.0,274.0,-133.0,471.0,-228.0,505.0
19:30:39.165000,21.0,-119.0,165.0,-502.0,267.0,-128.0,468.0,-219.0,502.0
19:30:39.170000,2.0,-127.0,202.0,-516.0,242.0,-125.0,468.0,-219.0,502.0
19:30:39.174000,-12.0,-134.0,236.0,-523.0,206.0,-122.0,468.0,-219.0,502.0
19:30:39.180000,-22.0,-142.0,268.0,-531.0,172.0,-119.0,481.0,-220.0,505.0
19:30:39.184000,-25.0,-154.0,284.0,-531.0,147.0,-119.0,481.0,-220.0,505.0
19:30:39.189000,-23.0,-168.0,285.0,-538.0,147.0,-119.0,469.0,-216.0,504.0
19:30:39.194000,-19.0,-184.0,276.0,-543.0,136.0,-122.0,469.0,-216.0,504.0
19:30:39.198000,-19.0,-199.0,268.0,-546.0,136.0,-123.0,469.0,-216.0,504.0
19:30:39.203000,-18.0,-215.0,265.0,-548.0,138.0,-124.0,477.0,-225.0,513.0
19:30:39.208000,-18.0,-231.0,260.0,-548.0,144.0,-127.0,477.0,-225.0,513.0
19:30:39.212000,-23.0,-245.0,259.0,-549.0,152.0,-128.0,469.0,-222.0,507.0
19:30:39.217000,-37.0,-256.0,272.0,-549.0,158.0,-126.0,469.0,-222.0,507.0
19:30:39.221000,-37.0,-256.0,272.0,-548.0,156.0,-120.0,469.0,-222.0,507.0
19:30:39.227000,-79.0,-266.0,323.0,-548.0,139.0,-112.0,475.0,-232.0,501.0
19:30:39.231000,-99.0,-264.0,341.0,-549.0,107.0,-103.0,475.0,-232.0,501.0
19:30:39.236000,-99.0,-264.0,341.0,-553.0,65.0,-99.0,478.0,-229.0,496.0
19:30:39.241000,-112.0,-264.0,347.0,-565.0,24.0,-96.0,478.0,-229.0,496.0
19:30:39.245000,-118.0,-263.0,335.0,-586.0,-2.0,-97.0,478.0,-229.0,496.0
19:30:39.250000,-117.0,-262.0,312.0,-611.0,-14.0,-101.0,490.0,-232.0,498.0
19:30:39.255000,-113.0,-261.0,283.0,-636.0,-8.0,-106.0,490.0,-232.0,498.0
19:30:39.259000,-109.0,-261.0,246.0,-651.0,10.0,-109.0,481.0,-231.0,501.0
19:30:39.264000,-107.0,-259.0,205.0,-640.0,26.0,-108.0,481.0,-231.0,501.0
19:30:39.268000,-105.0,-256.0,168.0,-603.0,29.0,-108.0,481.0,-231.0,501.0
19:30:39.274000,-98.0,-256.0,135.0,-557.0,34.0,-108.0,481.0,-237.0,496.0
19:30:39.278000,-89.0,-255.0,100.0,-522.0,55.0,-110.0,481.0,-237.0,496.0
19:30:39.283000,-85.0,-254.0,70.0,-522.0,55.0,-110.0,490.0,-240.0,499.0
19:30:39.288000,-87.0,-249.0,53.0,-496.0,116.0,-110.0,490.0,-240.0,499.0
19:30:39.292000,-96.0,-241.0,55.0,-505.0,128.0,-105.0,490.0,-240.0,499.0
19:30:39.297000,-105.0,-233.0,64.0,-505.0,128.0,-105.0,499.0,-240.0,493.0
19:30:39.302000,-108.0,-225.0,78.0,-552.0,85.0,-86.0,499.0,-240.0,493.0
19:30:39.306000,-102.0,-219.0,86.0,-552.0,85.0,-86.0,492.0,-238.0,486.0
19:30:39.311000,-91.0,-215.0,88.0,-582.0,59.0,-75.0,492.0,-238.0,486.0
19:30:39.315000,-80.0,-211.0,83.0,-614.0,52.0,-63.0,492.0,-238.0,486.0
19:30:39.321000,-75.0,-201.0,70.0,-646.0,68.0,-53.0,504.0,-234.0,490.0
19:30:39.325000,-75.0,-190.0,55.0,-671.0,89.0,-47.0,504.0,-234.0,490.0
19:30:39.330000,-77.0,-177.0,37.0,-689.0,102.0,-43.0,507.0,-238.0,492.0
19:30:39.335000,-79.0,-161.0,16.0,-703.0,116.0,-42.0,507.0,-238.0,492.0
19:30:39.339000,-79.0,-161.0,16.0,-710.0,130.0,-44.0,507.0,-238.0,492.0
19:30:39.344000,-84.0,-142.0,-7.0,-702.0,135.0,-49.0,493.0,-241.0,499.0
19:30:39.349000,-89.0,-121.0,-25.0,-679.0,124.0,-59.0,493.0,-241.0,499.0
19:30:39.353000,-93.0,-101.0,-37.0,-644.0,105.0,-72.0,496.0,-246.0,504.0
19:30:39.358000,-91.0,-84.0,-41.0,-610.0,91.0,-86.0,496.0,-246.0,504.0
19:30:39.362000,-86.0,-69.0,-44.0,-585.0,86.0,-98.0,496.0,-246.0,504.0
19:30:39.368000,-83.0,-53.0,-49.0,-571.0,83.0,-106.0,498.0,-244.0,496.0
19:30:39.372000,-82.0,-37.0,-52.0,-564.0,74.0,-119.0,498.0,-244.0,496.0
19:30:39.377000,-81.0,-26.0,-53.0,-574.0,67.0,-137.0,498.0,-244.0,501.0
19:30:39.382000,-78.0,-21.0,-58.0,-601.0,80.0,-153.0,498.0,-244.0,501.0
19:30:39.386000,-80.0,-17.0,-72.0,-628.0,106.0,-166.0,498.0,-244.0,501.0
19:30:39.391000,-88.0,-12.0,-81.0,-635.0,118.0,-175.0,495.0,-246.0,499.0
19:30:39.396000,-97.0,-10.0,-74.0,-630.0,115.0,-184.0,495.0,-246.0,499.0
19:30:39.400000,-105.0,-11.0,-61.0,-630.0,115.0,-184.0,480.0,-252.0,499.0
19:30:39.405000,-114.0,-16.0,-46.0,-627.0,119.0,-195.0,480.0,-252.0,499.0
19:30:39.409000,-132.0,-19.0,-29.0,-635.0,142.0,-206.0,480.0,-252.0,499.0
19:30:39.415000,-161.0,-21.0,-5.0,-654.0,173.0,-211.0,496.0,-243.0,495.0
19:30:39.419000,-198.0,-18.0,22.0,-675.0,197.0,-213.0,496.0,-243.0,495.0
19:30:39.424000,-239.0,-16.0,49.0,-691.0,205.0,-215.0,496.0,-250.0,493.0
19:30:39.429000,-277.0,-11.0,74.0,-703.0,197.0,-218.0,496.0,-250.0,493.0
19:30:39.433000,-312.0,-7.0,93.0,-718.0,182.0,-225.0,496.0,-250.0,493.0
19:30:39.438000,-334.0,-2.0,109.0,-742.0,166.0,-235.0,493.0,-238.0,514.0
19:30:39.443000,-347.0,2.0,121.0,-776.0,157.0,-246.0,493.0,-238.0,514.0
19:30:39.447000,-353.0,11.0,130.0,-817.0,154.0,-257.0,481.0,-249.0,514.0
19:30:39.452000,-353.0,11.0,130.0,-853.0,151.0,-266.0,481.0,-249.0,514.0
19:30:39.456000,-349.0,23.0,141.0,-878.0,141.0,-274.0,481.0,-249.0,514.0
19:30:39.462000,-334.0,34.0,156.0,-890.0,128.0,-278.0,493.0,-255.0,487.0
19:30:39.466000,-310.0,42.0,171.0,-892.0,117.0,-278.0,493.0,-255.0,487.0
19:30:39.471000,-280.0,45.0,189.0,-886.0,106.0,-275.0,499.0,-259.0,490.0
19:30:39.476000,-242.0,39.0,219.0,-876.0,97.0,-274.0,499.0,-259.0,490.0
19:30:39.480000,-200.0,26.0,259.0,-867.0,110.0,-274.0,499.0,-259.0,490.0
19:30:39.485000,-162.0,14.0,297.0,-860.0,151.0,-276.0,481.0,-255.0,492.0
19:30:39.490000,-130.0,4.0,329.0,-854.0,210.0,-279.0,481.0,-255.0,492.0
19:30:39.494000,-107.0,-9.0,357.0,-846.0,278.0,-285.0,502.0,-258.0,493.0
19:30:39.499000,-89.0,-23.0,382.0,-846.0,361.0,-294.0,502.0,-258.0,493.0
19:30:39.503000,-81.0,-33.0,399.0,-854.0,458.0,-302.0,502.0,-258.0,493.0
19:30:39.509000,-84.0,-38.0,404.0,-865.0,545.0,-307.0,495.0,-265.0,490.0
19:30:39.513000,-96.0,-37.0,408.0,-865.0,602.0,-313.0,495.0,-265.0,490.0
19:30:39.518000,-110.0,-30.0,413.0,-871.0,602.0,-313.0,502.0,-267.0,495.0
