hh:mm:ss.ms,gyroX[mdps],gyroY[mdps],gyroZ[mdps],accX[mg],accY[mg],accZ[mg],magX[mG],magY[mG],magZ[mG]
19:30:28.140000,-65.0,-28.0,104.0,-1251.0,-180.0,-187.0,622.0,-402.0,-21.0
19:30:28.145000,-18.0,-23.0,19.0,-1284.0,-134.0,-194.0,615.0,-412.0,-18.0
19:30:28.149000,25.0,-13.0,-66.0,-1287.0,-90.0,-206.0,615.0,-412.0,-18.0
19:30:28.153000,25.0,-13.0,-66.0,-1275.0,-67.0,-222.0,615.0,-412.0,-18.0
19:30:28.159000,61.0,-6.0,-110.0,-1266.0,-21.0,-230.0,616.0,-406.0,-19.0
19:30:28.163000,81.0,0.0,-121.0,-1265.0,75.0,-230.0,616.0,-406.0,-19.0
19:30:28.168000,84.0,17.0,-135.0,-1253.0,163.0,-226.0,621.0,-403.0,-19.0
19:30:28.173000,83.0,32.0,-152.0,-1223.0,197.0,-213.0,621.0,-403.0,-19.0
19:30:28.177000,91.0,37.0,-163.0,-1190.0,171.0,-205.0,621.0,-403.0,-19.0
19:30:28.182000,94.0,38.0,-146.0,-1173.0,135.0,-205.0,621.0,-409.0,-24.0
19:30:28.187000,94.0,32.0,-117.0,-1161.0,134.0,-204.0,621.0,-409.0,-24.0
19:30:28.192000,92.0,31.0,-64.0,-1153.0,159.0,-193.0,610.0,-414.0,-28.0
19:30:28.196000,88.0,38.0,1.0,-1175.0,171.0,-181.0,610.0,-414.0,-28.0
19:30:28.200000,51.0,74.0,32.0,-1213.0,138.0,-174.0,610.0,-414.0,-28.0
19:30:28.206000,25.0,99.0,32.0,-1214.0,84.0,-171.0,606.0,-409.0,0.0
19:30:28.210000,14.0,114.0,19.0,-1183.0,25.0,-169.0,606.0,-409.0,0.0
19:30:28.215000,31.0,118.0,21.0,-1183.0,25.0,-169.0,622.0,-405.0,-19.0
19:30:28.220000,21.0,126.0,25.0,-1174.0,-61.0,-170.0,622.0,-405.0,-19.0
19:30:28.224000,42.0,142.0,-47.0,-1217.0,-137.0,-185.0,622.0,-405.0,-19.0
19:30:28.229000,84.0,144.0,-98.0,-1250.0,-140.0,-197.0,609.0,-408.0,-22.0
19:30:28.234000,84.0,157.0,-141.0,-1221.0,-81.0,-191.0,609.0,-408.0,-22.0
19:30:28.239000,106.0,130.0,-144.0,-1147.0,-23.0,-189.0,621.0,-415.0,-12.0
19:30:28.243000,102.0,161.0,-116.0,-1119.0,-19.0,-221.0,621.0,-415.0,-12.0
19:30:28.247000,126.0,145.0,-74.0,-1107.0,-37.0,-222.0,621.0,-415.0,-12.0
19:30:28.253000,135.0,157.0,-95.0,-1086.0,-10.0,-206.0,619.0,-411.0,-22.0
19:30:28.257000,152.0,126.0,-106.0,-1107.0,33.0,-192.0,619.0,-411.0,-22.0
19:30:28.262000,146.0,142.0,-74.0,-1137.0,-5.0,-204.0,621.0,-405.0,-12.0
19:30:28.267000,146.0,142.0,-74.0,-1115.0,-59.0,-212.0,621.0,-405.0,-12.0
19:30:28.271000,165.0,119.0,-14.0,-1065.0,-25.0,-187.0,621.0,-405.0,-12.0
19:30:28.276000,169.0,116.0,18.0,-1058.0,59.0,-185.0,612.0,-409.0,-4.0
19:30:28.281000,132.0,114.0,-19.0,-1025.0,112.0,-190.0,612.0,-409.0,-4.0
19:30:28.285000,144.0,106.0,-98.0,-950.0,100.0,-189.0,627.0,-411.0,-10.0
19:30:28.290000,118.0,93.0,-117.0,-954.0,69.0,-182.0,627.0,-411.0,-10.0
19:30:28.294000,70.0,102.0,-146.0,-1038.0,111.0,-199.0,627.0,-411.0,-10.0
19:30:28.300000,93.0,84.0,-199.0,-1065.0,210.0,-198.0,600.0,-412.0,10.0
19:30:28.304000,82.0,65.0,-210.0,-1018.0,195.0,-189.0,600.0,-412.0,10.0
19:30:28.309000,11.0,86.0,-160.0,-1024.0,137.0,-194.0,625.0,-414.0,-9.0
19:30:28.314000,-9.0,84.0,-182.0,-1061.0,119.0,-189.0,625.0,-414.0,-9.0
19:30:28.318000,-35.0,85.0,-213.0,-1069.0,81.0,-188.0,625.0,-414.0,-9.0
19:30:28.323000,-30.0,74.0,-196.0,-1059.0,53.0,-197.0,627.0,-412.0,-7.0
19:30:28.328000,-47.0,75.0,-153.0,-1059.0,68.0,-197.0,627.0,-412.0,-7.0
19:30:28.332000,-63.0,76.0,-155.0,-1074.0,92.0,-187.0,624.0,-408.0,-4.0
19:30:28.337000,-68.0,83.0,-175.0,-1074.0,92.0,-187.0,624.0,-408.0,-4.0
19:30:28.341000,-86.0,89.0,-186.0,-1063.0,72.0,-198.0,624.0,-408.0,-4.0
19:30:28.347000,-106.0,95.0,-193.0,-1045.0,23.0,-204.0,618.0,-402.0,-4.0
19:30:28.351000,-67.0,78.0,-206.0,-1041.0,0.0,-216.0,618.0,-402.0,-4.0
19:30:28.356000,-24.0,63.0,-214.0,-1030.0,45.0,-220.0,624.0,-406.0,-4.0
19:30:28.361000,-5.0,60.0,-208.0,-1012.0,112.0,-218.0,624.0,-406.0,-4.0
19:30:28.365000,-5.0,60.0,-208.0,-997.0,111.0,-213.0,624.0,-406.0,-4.0
19:30:28.370000,-30.0,72.0,-144.0,-1022.0,67.0,-218.0,624.0,-406.0,-6.0
19:30:28.375000,-20.0,76.0,-193.0,-1079.0,100.0,-226.0,624.0,-406.0,-6.0
19:30:28.379000,-20.0,76.0,-193.0,-1071.0,69.0,-212.0,619.0,-400.0,1.0
19:30:28.384000,-35.0,92.0,-181.0,-1069.0,-4.0,-218.0,619.0,-400.0,1.0
19:30:28.388000,12.0,84.0,-177.0,-1083.0,15.0,-224.0,619.0,-400.0,1.0
19:30:28.394000,9.0,97.0,-191.0,-1058.0,-4.0,-219.0,630.0,-406.0,1.0
19:30:28.398000,-4.0,112.0,-200.0,-1038.0,5.0,-227.0,630.0,-406.0,1.0
19:30:28.403000,32.0,100.0,-238.0,-1018.0,76.0,-234.0,624.0,-403.0,-3.0
19:30:28.408000,35.0,103.0,-268.0,-979.0,94.0,-242.0,624.0,-403.0,-3.0
19:30:28.412000,36.0,103.0,-276.0,-954.0,103.0,-253.0,624.0,-403.0,-3.0
19:30:28.417000,59.0,87.0,-268.0,-958.0,114.0,-255.0,616.0,-399.0,1.0
19:30:28.422000,56.0,79.0,-277.0,-980.0,96.0,-258.0,616.0,-399.0,1.0
19:30:28.426000,67.0,74.0,-312.0,-1000.0,80.0,-268.0,621.0,-412.0,-6.0
19:30:28.431000,86.0,60.0,-322.0,-984.0,76.0,-270.0,621.0,-412.0,-6.0
19:30:28.435000,87.0,60.0,-309.0,-985.0,61.0,-270.0,621.0,-412.0,-6.0
19:30:28.441000,79.0,59.0,-310.0,-985.0,61.0,-270.0,606.0,-393.0,9.0
19:30:28.445000,95.0,58.0,-336.0,-1029.0,52.0,-270.0,606.0,-393.0,9.0
19:30:28.450000,110.0,54.0,-361.0,-1062.0,96.0,-275.0,627.0,-397.0,0.0
19:30:28.455000,86.0,66.0,-358.0,-1064.0,128.0,-272.0,627.0,-397.0,0.0
19:30:28.459000,94.0,61.0,-368.0,-1055.0,143.0,-269.0,627.0,-397.0,0.0
19:30:28.464000,81.0,68.0,-379.0,-1043.0,175.0,-267.0,624.0,-393.0,7.0
19:30:28.469000,75.0,72.0,-389.0,-1051.0,186.0,-261.0,624.0,-393.0,7.0
19:30:28.473000,75.0,72.0,-389.0,-1085.0,188.0,-260.0,627.0,-391.0,4.0
19:30:28.478000,83.0,86.0,-410.0,-1104.0,233.0,-254.0,627.0,-391.0,4.0
19:30:28.483000,45.0,111.0,-397.0,-1105.0,235.0,-242.0,621.0,-393.0,3.0
19:30:28.488000,45.0,111.0,-397.0,-1118.0,186.0,-246.0,621.0,-393.0,3.0
19:30:28.492000,49.0,119.0,-409.0,-1103.0,156.0,-248.0,621.0,-393.0,3.0
19:30:28.497000,46.0,131.0,-395.0,-1084.0,147.0,-249.0,627.0,-391.0,6.0
19:30:28.502000,72.0,133.0,-384.0,-1087.0,172.0,-254.0,627.0,-391.0,6.0
19:30:28.507000,81.0,142.0,-392.0,-1083.0,175.0,-256.0,630.0,-382.0,12.0
19:30:28.511000,95.0,146.0,-406.0,-1084.0,173.0,-263.0,630.0,-382.0,12.0
19:30:28.515000,102.0,149.0,-425.0,-1087.0,186.0,-269.0,630.0,-382.0,12.0
19:30:28.521000,109.0,156.0,-431.0,-1094.0,240.0,-277.0,621.0,-381.0,22.0
19:30:28.525000,128.0,158.0,-425.0,-1095.0,276.0,-284.0,621.0,-381.0,22.0
19:30:28.530000,121.0,172.0,-404.0,-1106.0,274.0,-290.0,625.0,-385.0,16.0
19:30:28.535000,124.0,177.0,-414.0,-1123.0,302.0,-298.0,625.0,-385.0,16.0
19:30:28.539000,135.0,178.0,-413.0,-1113.0,323.0,-302.0,625.0,-385.0,16.0
19:30:28.544000,139.0,189.0,-403.0,-1105.0,341.0,-301.0,633.0,-390.0,15.0
19:30:28.549000,144.0,192.0,-396.0,-1105.0,341.0,-301.0,633.0,-390.0,15.0
19:30:28.554000,133.0,207.0,-389.0,-1113.0,337.0,-302.0,627.0,-381.0,21.0
19:30:28.558000,135.0,214.0,-386.0,-1116.0,321.0,-302.0,627.0,-381.0,21.0
19:30:28.562000,135.0,224.0,-382.0,-1112.0,326.0,-303.0,627.0,-381.0,21.0
19:30:28.568000,139.0,231.0,-392.0,-1104.0,333.0,-302.0,637.0,-381.0,19.0
19:30:28.572000,142.0,237.0,-393.0,-1083.0,321.0,-297.0,637.0,-381.0,19.0
19:30:28.577000,155.0,231.0,-408.0,-1066.0,299.0,-295.0,618.0,-387.0,27.0
19:30:28.582000,164.0,228.0,-431.0,-1062.0,286.0,-299.0,618.0,-387.0,27.0
19:30:28.586000,164.0,228.0,-431.0,-1068.0,276.0,-300.0,618.0,-387.0,27.0
19:30:28.591000,171.0,213.0,-409.0,-1069.0,269.0,-298.0,642.0,-375.0,25.0
19:30:28.596000,171.0,213.0,-409.0,-1065.0,266.0,-296.0,642.0,-375.0,25.0
19:30:28.601000,181.0,202.0,-420.0,-1055.0,297.0,-302.0,640.0,-373.0,24.0
19:30:28.605000,193.0,186.0,-456.0,-1021.0,339.0,-303.0,640.0,-373.0,24.0
19:30:28.609000,200.0,170.0,-496.0,-1009.0,376.0,-304.0,640.0,-373.0,24.0
19:30:28.615000,219.0,145.0,-533.0,-1006.0,391.0,-303.0,636.0,-369.0,39.0
19:30:28.619000,219.0,130.0,-550.0,-1019.0,428.0,-307.0,636.0,-369.0,39.0
19:30:28.624000,243.0,105.0,-569.0,-1058.0,470.0,-316.0,636.0,-358.0,34.0
19:30:28.629000,203.0,109.0,-590.0,-1094.0,493.0,-326.0,636.0,-358.0,34.0
19:30:28.633000,212.0,99.0,-601.0,-1124.0,537.0,-326.0,636.0,-358.0,34.0
19:30:28.638000,188.0,114.0,-615.0,-1147.0,564.0,-332.0,636.0,-364.0,37.0
19:30:28.643000,172.0,127.0,-622.0,-1180.0,571.0,-350.0,636.0,-364.0,37.0
19:30:28.648000,177.0,135.0,-591.0,-1180.0,571.0,-350.0,651.0,-355.0,31.0
19:30:28.652000,155.0,150.0,-549.0,-1220.0,570.0,-344.0,651.0,-355.0,31.0
19:30:28.660000,130.0,172.0,-520.0,-1227.0,564.0,-359.0,634.0,-358.0,31.0
19:30:28.662000,128.0,185.0,-512.0,-1227.0,564.0,-359.0,634.0,-358.0,31.0
19:30:28.666000,142.0,201.0,-498.0,-1213.0,555.0,-375.0,634.0,-358.0,31.0
19:30:28.671000,156.0,210.0,-474.0,-1180.0,535.0,-385.0,634.0,-349.0,34.0
19:30:28.676000,177.0,209.0,-469.0,-1159.0,519.0,-391.0,634.0,-349.0,34.0
19:30:28.680000,184.0,217.0,-480.0,-1161.0,523.0,-399.0,649.0,-351.0,42.0
19:30:28.685000,203.0,215.0,-480.0,-1159.0,534.0,-405.0,649.0,-351.0,42.0
19:30:28.689000,207.0,220.0,-499.0,-1142.0,553.0,-410.0,649.0,-351.0,42.0
19:30:28.695000,231.0,204.0,-521.0,-1128.0,579.0,-417.0,639.0,-345.0,46.0
19:30:28.699000,267.0,171.0,-543.0,-1140.0,593.0,-421.0,639.0,-345.0,46.0
19:30:28.704000,297.0,128.0,-525.0,-1136.0,573.0,-419.0,640.0,-340.0,61.0
19:30:28.709000,297.0,128.0,-525.0,-1086.0,535.0,-406.0,640.0,-340.0,61.0
19:30:28.713000,277.0,108.0,-489.0,-1080.0,568.0,-407.0,640.0,-340.0,61.0
19:30:28.718000,315.0,75.0,-531.0,-1144.0,623.0,-406.0,645.0,-337.0,42.0
19:30:28.723000,289.0,63.0,-528.0,-1230.0,613.0,-381.0,645.0,-337.0,42.0
19:30:28.727000,298.0,19.0,-431.0,-1311.0,631.0,-371.0,654.0,-343.0,37.0
19:30:28.732000,292.0,0.0,-389.0,-1310.0,684.0,-364.0,654.0,-343.0,37.0
19:30:28.736000,270.0,-9.0,-385.0,-1218.0,730.0,-349.0,654.0,-343.0,37.0
19:30:28.742000,263.0,-23.0,-353.0,-1143.0,773.0,-336.0,654.0,-331.0,43.0
19:30:28.746000,247.0,-21.0,-309.0,-1145.0,786.0,-315.0,654.0,-331.0,43.0
19:30:28.751000,261.0,-30.0,-270.0,-1197.0,790.0,-284.0,646.0,-334.0,49.0
19:30:28.756000,254.0,-32.0,-342.0,-1219.0,792.0,-264.0,646.0,-334.0,49.0
19:30:28.760000,221.0,-16.0,-472.0,-1180.0,722.0,-249.0,646.0,-334.0,49.0
19:30:28.765000,208.0,-14.0,-481.0,-1114.0,575.0,-221.0,661.0,-334.0,46.0
19:30:28.770000,165.0,-15.0,-375.0,-1114.0,575.0,-221.0,661.0,-334.0,46.0
19:30:28.774000,165.0,-16.0,-241.0,-1076.0,466.0,-214.0,648.0,-322.0,60.0
19:30:28.779000,150.0,-16.0,-186.0,-1100.0,445.0,-217.0,648.0,-322.0,60.0
19:30:28.783000,145.0,-28.0,-210.0,-1134.0,445.0,-211.0,648.0,-322.0,60.0
19:30:28.789000,167.0,-35.0,-270.0,-1143.0,456.0,-222.0,658.0,-324.0,49.0
19:30:28.793000,155.0,-17.0,-305.0,-1136.0,473.0,-233.0,658.0,-324.0,49.0
19:30:28.798000,158.0,-7.0,-287.0,-1121.0,459.0,-227.0,639.0,-327.0,52.0
19:30:28.803000,150.0,6.0,-258.0,-1103.0,437.0,-218.0,639.0,-327.0,52.0
19:30:28.807000,150.0,6.0,-258.0,-1050.0,370.0,-211.0,639.0,-327.0,52.0
19:30:28.812000,158.0,45.0,-158.0,-976.0,294.0,-216.0,652.0,-324.0,57.0
19:30:28.817000,158.0,45.0,-158.0,-914.0,257.0,-224.0,652.0,-324.0,57.0
19:30:28.821000,175.0,57.0,-154.0,-846.0,219.0,-226.0,657.0,-324.0,60.0
19:30:28.826000,196.0,63.0,-121.0,-784.0,200.0,-227.0,657.0,-324.0,60.0
19:30:28.830000,204.0,77.0,-59.0,-747.0,218.0,-229.0,657.0,-324.0,60.0
19:30:28.835000,224.0,84.0,-14.0,-716.0,252.0,-228.0,654.0,-316.0,52.0
19:30:28.840000,225.0,98.0,2.0,-672.0,263.0,-227.0,654.0,-316.0,52.0
19:30:28.845000,226.0,114.0,9.0,-640.0,259.0,-228.0,654.0,-324.0,51.0
19:30:28.850000,236.0,121.0,12.0,-616.0,251.0,-225.0,654.0,-324.0,51.0
19:30:28.854000,234.0,133.0,21.0,-583.0,245.0,-221.0,654.0,-324.0,51.0
19:30:28.859000,227.0,142.0,41.0,-541.0,242.0,-214.0,655.0,-327.0,52.0
19:30:28.864000,216.0,146.0,65.0,-492.0,247.0,-205.0,655.0,-327.0,52.0
19:30:28.868000,201.0,147.0,71.0,-492.0,247.0,-205.0,666.0,-339.0,58.0
19:30:28.873000,191.0,146.0,91.0,-356.0,270.0,-195.0,666.0,-339.0,58.0
19:30:28.877000,172.0,142.0,138.0,-356.0,270.0,-195.0,666.0,-339.0,58.0
19:30:28.882000,151.0,140.0,193.0,-298.0,298.0,-196.0,672.0,-330.0,73.0
19:30:28.887000,140.0,129.0,231.0,-298.0,298.0,-196.0,672.0,-330.0,73.0
19:30:28.892000,119.0,122.0,247.0,-296.0,323.0,-195.0,663.0,-337.0,63.0
19:30:28.897000,88.0,114.0,282.0,-292.0,341.0,-188.0,663.0,-337.0,63.0
19:30:28.901000,65.0,100.0,324.0,-286.0,351.0,-181.0,663.0,-337.0,63.0
19:30:28.906000,35.0,90.0,361.0,-276.0,347.0,-179.0,678.0,-328.0,69.0
19:30:28.911000,17.0,70.0,401.0,-270.0,335.0,-173.0,678.0,-328.0,69.0
19:30:28.915000,-8.0,51.0,441.0,-266.0,329.0,-166.0,666.0,-336.0,73.0
19:30:28.920000,-30.0,28.0,481.0,-263.0,328.0,-161.0,666.0,-336.0,73.0
19:30:28.924000,-30.0,28.0,481.0,-260.0,319.0,-152.0,666.0,-336.0,73.0
19:30:28.929000,-48.0,5.0,521.0,-260.0,293.0,-143.0,672.0,-333.0,67.0
19:30:28.934000,-67.0,-14.0,561.0,-268.0,263.0,-137.0,672.0,-333.0,67.0
19:30:28.939000,-76.0,-38.0,589.0,-277.0,233.0,-132.0,661.0,-339.0,76.0
19:30:28.944000,-82.0,-60.0,606.0,-283.0,204.0,-131.0,661.0,-339.0,76.0
19:30:28.948000,-81.0,-81.0,611.0,-296.0,184.0,-130.0,661.0,-339.0,76.0
19:30:28.953000,-72.0,-104.0,604.0,-319.0,175.0,-129.0,684.0,-342.0,61.0
19:30:28.958000,-63.0,-126.0,588.0,-342.0,170.0,-126.0,684.0,-342.0,61.0
19:30:28.962000,-51.0,-149.0,565.0,-362.0,167.0,-124.0,678.0,-352.0,70.0
19:30:28.967000,-37.0,-169.0,541.0,-382.0,167.0,-121.0,678.0,-352.0,70.0
19:30:28.971000,-25.0,-187.0,517.0,-398.0,174.0,-117.0,678.0,-352.0,70.0
19:30:28.976000,-21.0,-200.0,498.0,-411.0,184.0,-113.0,675.0,-355.0,70.0
19:30:28.981000,-23.0,-210.0,496.0,-421.0,195.0,-109.0,675.0,-355.0,70.0
19:30:28.986000,-34.0,-214.0,501.0,-421.0,195.0,-109.0,681.0,-364.0,72.0
19:30:28.991000,-49.0,-216.0,506.0,-429.0,207.0,-106.0,681.0,-364.0,72.0
19:30:28.995000,-69.0,-214.0,516.0,-427.0,212.0,-106.0,681.0,-364.0,72.0
19:30:29.000000,-92.0,-210.0,536.0,-414.0,208.0,-109.0,667.0,-369.0,63.0
19:30:29.005000,-114.0,-203.0,557.0,-406.0,206.0,-113.0,667.0,-369.0,63.0
19:30:29.009000,-135.0,-194.0,568.0,-409.0,214.0,-118.0,691.0,-367.0,69.0
19:30:29.014000,-156.0,-186.0,566.0,-418.0,222.0,-124.0,691.0,-367.0,69.0
19:30:29.018000,-175.0,-181.0,562.0,-428.0,222.0,-127.0,691.0,-367.0,69.0
19:30:29.023000,-191.0,-175.0,560.0,-434.0,209.0,-130.0,672.0,-376.0,76.0
19:30:29.028000,-207.0,-169.0,559.0,-439.0,187.0,-132.0,672.0,-376.0,76.0
19:30:29.033000,-221.0,-164.0,560.0,-442.0,163.0,-130.0,679.0,-384.0,58.0
19:30:29.038000,-221.0,-164.0,560.0,-441.0,144.0,-124.0,679.0,-384.0,58.0
19:30:29.042000,-233.0,-159.0,560.0,-436.0,126.0,-116.0,679.0,-384.0,58.0
19:30:29.047000,-242.0,-157.0,553.0,-422.0,97.0,-109.0,678.0,-385.0,64.0
19:30:29.052000,-245.0,-157.0,543.0,-400.0,58.0,-105.0,678.0,-385.0,64.0
19:30:29.056000,-240.0,-161.0,531.0,-386.0,26.0,-104.0,673.0,-391.0,64.0
19:30:29.061000,-230.0,-168.0,517.0,-389.0,12.0,-104.0,673.0,-391.0,64.0
19:30:29.065000,-216.0,-175.0,494.0,-406.0,24.0,-105.0,673.0,-391.0,64.0
19:30:29.070000,-205.0,-179.0,464.0,-431.0,50.0,-104.0,679.0,-400.0,64.0
19:30:29.075000,-201.0,-182.0,429.0,-450.0,74.0,-104.0,679.0,-400.0,64.0
19:30:29.080000,-202.0,-182.0,394.0,-451.0,78.0,-107.0,679.0,-399.0,63.0
19:30:29.085000,-201.0,-185.0,366.0,-441.0,69.0,-110.0,679.0,-399.0,63.0
19:30:29.089000,-196.0,-191.0,341.0,-427.0,68.0,-111.0,679.0,-399.0,63.0
19:30:29.094000,-190.0,-200.0,318.0,-416.0,84.0,-110.0,679.0,-400.0,60.0
19:30:29.099000,-187.0,-210.0,301.0,-416.0,84.0,-110.0,679.0,-400.0,60.0
19:30:29.103000,-187.0,-217.0,296.0,-407.0,106.0,-108.0,679.0,-408.0,58.0
19:30:29.108000,-186.0,-225.0,301.0,-399.0,116.0,-105.0,679.0,-408.0,58.0
19:30:29.115000,-181.0,-237.0,310.0,-385.0,82.0,-95.0,679.0,-405.0,70.0
19:30:29.117000,-170.0,-250.0,315.0,-385.0,82.0,-95.0,679.0,-405.0,70.0
19:30:29.122000,-155.0,-262.0,316.0,-384.0,57.0,-86.0,679.0,-405.0,70.0
19:30:29.127000,-140.0,-275.0,314.0,-393.0,42.0,-76.0,681.0,-409.0,60.0
19:30:29.132000,-126.0,-286.0,315.0,-410.0,35.0,-69.0,681.0,-409.0,60.0
19:30:29.136000,-115.0,-292.0,310.0,-438.0,40.0,-63.0,675.0,-420.0,55.0
19:30:29.141000,-114.0,-291.0,301.0,-475.0,57.0,-57.0,675.0,-420.0,55.0
19:30:29.145000,-114.0,-291.0,301.0,-510.0,79.0,-53.0,675.0,-420.0,55.0
19:30:29.150000,-121.0,-282.0,290.0,-537.0,96.0,-49.0,691.0,-414.0,49.0
19:30:29.155000,-133.0,-270.0,276.0,-557.0,109.0,-48.0,691.0,-414.0,49.0
19:30:29.159000,-150.0,-254.0,258.0,-572.0,122.0,-47.0,669.0,-424.0,54.0
19:30:29.164000,-172.0,-234.0,235.0,-583.0,132.0,-47.0,669.0,-424.0,54.0
19:30:29.169000,-195.0,-213.0,210.0,-585.0,130.0,-47.0,669.0,-424.0,54.0
19:30:29.174000,-213.0,-193.0,187.0,-578.0,114.0,-46.0,658.0,-423.0,46.0
19:30:29.179000,-226.0,-177.0,165.0,-564.0,84.0,-45.0,658.0,-423.0,46.0
19:30:29.183000,-232.0,-163.0,145.0,-547.0,52.0,-44.0,679.0,-424.0,40.0
19:30:29.188000,-231.0,-149.0,122.0,-533.0,24.0,-44.0,679.0,-424.0,40.0
19:30:29.192000,-226.0,-140.0,98.0,-526.0,6.0,-47.0,679.0,-424.0,40.0
19:30:29.197000,-217.0,-135.0,72.0,-528.0,-1.0,-49.0,669.0,-423.0,40.0
19:30:29.201000,-209.0,-129.0,49.0,-539.0,-1.0,-50.0,669.0,-423.0,40.0
19:30:29.207000,-200.0,-126.0,29.0,-539.0,-1.0,-50.0,666.0,-432.0,60.0
19:30:29.211000,-191.0,-122.0,11.0,-554.0,-1.0,-50.0,666.0,-432.0,60.0
19:30:29.216000,-182.0,-121.0,-5.0,-566.0,0.0,-53.0,666.0,-432.0,60.0
19:30:29.221000,-175.0,-121.0,-21.0,-582.0,9.0,-59.0,672.0,-430.0,42.0
19:30:29.226000,-177.0,-118.0,-36.0,-601.0,30.0,-63.0,672.0,-430.0,42.0
19:30:29.230000,-186.0,-111.0,-39.0,-620.0,44.0,-63.0,681.0,-426.0,40.0
19:30:29.235000,-200.0,-102.0,-32.0,-630.0,36.0,-63.0,681.0,-426.0,40.0
19:30:29.239000,-200.0,-102.0,-32.0,-635.0,18.0,-65.0,681.0,-426.0,40.0
19:30:29.244000,-232.0,-86.0,-34.0,-641.0,8.0,-68.0,663.0,-436.0,43.0
19:30:29.249000,-246.0,-79.0,-51.0,-649.0,10.0,-81.0,663.0,-436.0,43.0
19:30:29.254000,-246.0,-79.0,-51.0,-665.0,18.0,-101.0,660.0,-435.0,43.0
19:30:29.258000,-254.0,-72.0,-75.0,-692.0,32.0,-122.0,660.0,-435.0,43.0
19:30:29.263000,-263.0,-63.0,-104.0,-726.0,43.0,-138.0,660.0,-435.0,43.0
19:30:29.268000,-270.0,-55.0,-130.0,-754.0,40.0,-153.0,676.0,-432.0,43.0
19:30:29.273000,-275.0,-49.0,-149.0,-775.0,33.0,-169.0,676.0,-432.0,43.0
19:30:29.277000,-275.0,-48.0,-163.0,-800.0,47.0,-185.0,655.0,-435.0,34.0
19:30:29.282000,-277.0,-49.0,-175.0,-827.0,80.0,-196.0,655.0,-435.0,34.0
19:30:29.286000,-287.0,-51.0,-174.0,-845.0,106.0,-201.0,655.0,-435.0,34.0
19:30:29.291000,-303.0,-52.0,-149.0,-847.0,110.0,-204.0,661.0,-429.0,36.0
19:30:29.296000,-318.0,-54.0,-102.0,-841.0,97.0,-209.0,661.0,-429.0,36.0
19:30:29.301000,-326.0,-62.0,-49.0,-841.0,92.0,-220.0,670.0,-442.0,33.0
19:30:29.305000,-324.0,-73.0,-10.0,-856.0,116.0,-234.0,670.0,-442.0,33.0
19:30:29.310000,-321.0,-83.0,12.0,-891.0,167.0,-247.0,670.0,-442.0,33.0
19:30:29.315000,-328.0,-88.0,25.0,-891.0,219.0,-257.0,651.0,-433.0,37.0
19:30:29.320000,-345.0,-90.0,49.0,-930.0,219.0,-257.0,651.0,-433.0,37.0
19:30:29.324000,-367.0,-86.0,85.0,-965.0,239.0,-265.0,661.0,-435.0,33.0
19:30:29.329000,-388.0,-82.0,125.0,-992.0,220.0,-269.0,661.0,-435.0,33.0
19:30:29.333000,-402.0,-79.0,159.0,-1009.0,181.0,-271.0,661.0,-435.0,33.0
19:30:29.338000,-408.0,-79.0,180.0,-1020.0,146.0,-274.0,663.0,-436.0,37.0
19:30:29.343000,-412.0,-81.0,184.0,-1034.0,139.0,-280.0,663.0,-436.0,37.0
19:30:29.348000,-419.0,-84.0,179.0,-1054.0,156.0,-284.0,658.0,-439.0,46.0
19:30:29.352000,-426.0,-88.0,175.0,-1077.0,180.0,-285.0,658.0,-439.0,46.0
19:30:29.357000,-426.0,-88.0,175.0,-1098.0,194.0,-283.0,658.0,-439.0,46.0
19:30:29.362000,-438.0,-102.0,186.0,-1113.0,190.0,-274.0,655.0,-436.0,34.0
19:30:29.367000,-438.0,-102.0,186.0,-1117.0,174.0,-261.0,655.0,-436.0,34.0
19:30:29.371000,-441.0,-112.0,202.0,-1107.0,163.0,-252.0,660.0,-433.0,25.0
19:30:29.376000,-442.0,-124.0,218.0,-1084.0,169.0,-246.0,660.0,-433.0,25.0
19:30:29.380000,-438.0,-133.0,224.0,-1050.0,193.0,-244.0,660.0,-433.0,25.0
19:30:29.385000,-431.0,-137.0,221.0,-1011.0,219.0,-247.0,648.0,-439.0,37.0
19:30:29.390000,-422.0,-133.0,217.0,-977.0,229.0,-254.0,648.0,-439.0,37.0
19:30:29.395000,-405.0,-123.0,218.0,-956.0,226.0,-267.0,646.0,-444.0,24.0
19:30:29.399000,-380.0,-112.0,219.0,-958.0,227.0,-275.0,646.0,-444.0,24.0
19:30:29.404000,-355.0,-91.0,216.0,-965.0,227.0,-283.0,646.0,-444.0,24.0
19:30:29.409000,-329.0,-67.0,210.0,-967.0,216.0,-290.0,646.0,-448.0,28.0
19:30:29.414000,-307.0,-36.0,198.0,-957.0,205.0,-292.0,646.0,-448.0,28.0
19:30:29.418000,-287.0,0.0,172.0,-957.0,205.0,-292.0,646.0,-451.0,27.0
19:30:29.423000,-256.0,28.0,129.0,-864.0,240.0,-296.0,646.0,-451.0,27.0
19:30:29.427000,-213.0,46.0,46.0,-864.0,240.0,-296.0,646.0,-451.0,27.0
19:30:29.432000,-166.0,46.0,-70.0,-802.0,367.0,-281.0,649.0,-450.0,27.0
19:30:29.437000,-110.0,23.0,-183.0,-726.0,367.0,-255.0,649.0,-450.0,27.0
19:30:29.442000,-45.0,-14.0,-265.0,-635.0,395.0,-236.0,627.0,-445.0,37.0
19:30:29.446000,20.0,-48.0,-336.0,-575.0,450.0,-238.0,627.0,-445.0,37.0
19:30:29.451000,60.0,-79.0,-413.0,-602.0,597.0,-240.0,627.0,-445.0,37.0
19:30:29.456000,73.0,-97.0,-464.0,-668.0,780.0,-237.0,642.0,-448.0,16.0
19:30:29.461000,75.0,-104.0,-482.0,-711.0,931.0,-248.0,642.0,-448.0,16.0
19:30:29.465000,55.0,-99.0,-486.0,-742.0,1055.0,-248.0,643.0,-448.0,25.0
19:30:29.470000,33.0,-95.0,-456.0,-762.0,1123.0,-235.0,643.0,-448.0,25.0
19:30:29.474000,33.0,-95.0,-456.0,-756.0,1103.0,-228.0,643.0,-448.0,25.0
19:30:29.479000,15.0,-88.0,-369.0,-731.0,1025.0,-228.0,637.0,-438.0,27.0
19:30:29.484000,3.0,-81.0,-247.0,-739.0,970.0,-245.0,637.0,-438.0,27.0
19:30:29.489000,-6.0,-55.0,-144.0,-801.0,962.0,-254.0,633.0,-442.0,30.0
19:30:29.493000,8.0,-68.0,-48.0,-844.0,974.0,-263.0,633.0,-442.0,30.0
19:30:29.498000,-22.0,-55.0,106.0,-968.0,973.0,-256.0,633.0,-442.0,30.0
19:30:29.503000,-46.0,-65.0,358.0,-1391.0,1017.0,-271.0,630.0,-442.0,21.0
19:30:29.508000,-157.0,-30.0,116.0,-1931.0,1059.0,-297.0,630.0,-442.0,21.0
19:30:29.512000,-226.0,51.0,-315.0,-1231.0,879.0,-285.0,642.0,-451.0,24.0
19:30:29.517000,-168.0,95.0,118.0,-223.0,884.0,-262.0,642.0,-451.0,24.0
19:30:29.521000,-221.0,137.0,368.0,-304.0,1155.0,-249.0,642.0,-451.0,24.0
19:30:29.526000,-301.0,167.0,159.0,-591.0,1151.0,-276.0,639.0,-450.0,13.0
19:30:29.531000,-304.0,178.0,-112.0,-804.0,868.0,-312.0,639.0,-450.0,13.0
19:30:29.536000,-298.0,196.0,-98.0,-804.0,868.0,-312.0,621.0,-450.0,30.0
19:30:29.540000,-258.0,196.0,-11.0,-810.0,649.0,-347.0,621.0,-450.0,30.0
19:30:29.545000,-259.0,200.0,13.0,-1031.0,620.0,-359.0,621.0,-450.0,30.0
19:30:29.550000,-194.0,193.0,-2.0,-1203.0,633.0,-402.0,637.0,-447.0,21.0
19:30:29.555000,-177.0,204.0,50.0,-1071.0,593.0,-437.0,637.0,-447.0,21.0
19:30:29.559000,-122.0,193.0,91.0,-1034.0,530.0,-426.0,633.0,-459.0,24.0
19:30:29.564000,-100.0,196.0,-18.0,-1049.0,544.0,-426.0,633.0,-459.0,24.0
19:30:29.568000,-86.0,190.0,-95.0,-1119.0,631.0,-415.0,633.0,-463.0,25.0
19:30:29.573000,-74.0,174.0,-65.0,-1021.0,699.0,-410.0,633.0,-463.0,25.0
19:30:29.577000,-74.0,174.0,-65.0,-876.0,692.0,-408.0,633.0,-463.0,25.0
19:30:29.583000,-81.0,161.0,37.0,-899.0,651.0,-385.0,642.0,-456.0,28.0
19:30:29.587000,-105.0,133.0,124.0,-959.0,681.0,-383.0,642.0,-456.0,28.0
19:30:29.592000,-104.0,103.0,51.0,-983.0,697.0,-391.0,639.0,-468.0,33.0
19:30:29.597000,-161.0,112.0,-69.0,-994.0,601.0,-356.0,639.0,-468.0,33.0
19:30:29.601000,-198.0,82.0,-60.0,-958.0,523.0,-333.0,639.0,-468.0,33.0
19:30:29.606000,-219.0,50.0,23.0,-923.0,491.0,-324.0,627.0,-474.0,33.0
19:30:29.611000,-252.0,35.0,105.0,-963.0,460.0,-307.0,627.0,-474.0,33.0
19:30:29.615000,-261.0,16.0,97.0,-1009.0,416.0,-296.0,636.0,-469.0,52.0
19:30:29.620000,-273.0,7.0,35.0,-1027.0,366.0,-285.0,636.0,-469.0,52.0
19:30:29.624000,-273.0,-4.0,-32.0,-1040.0,326.0,-274.0,636.0,-469.0,52.0
19:30:29.630000,-287.0,-7.0,-52.0,-1068.0,266.0,-255.0,633.0,-471.0,27.0
19:30:29.634000,-294.0,-13.0,-15.0,-1113.0,198.0,-233.0,633.0,-471.0,27.0
19:30:29.639000,-291.0,-25.0,2.0,-1113.0,198.0,-233.0,625.0,-478.0,25.0
19:30:29.644000,-270.0,-39.0,-12.0,-1147.0,87.0,-217.0,625.0,-478.0,25.0
19:30:29.648000,-249.0,-53.0,-11.0,-1149.0,87.0,-217.0,625.0,-478.0,25.0
19:30:29.653000,-215.0,-70.0,4.0,-1159.0,55.0,-219.0,628.0,-474.0,28.0
19:30:29.658000,-195.0,-71.0,17.0,-1296.0,90.0,-230.0,628.0,-474.0,28.0
19:30:29.663000,-178.0,-64.0,-2.0,-1296.0,90.0,-230.0,625.0,-492.0,33.0
19:30:29.667000,-163.0,-55.0,-9.0,-1360.0,86.0,-228.0,625.0,-492.0,33.0
19:30:29.671000,-139.0,-53.0,37.0,-1371.0,11.0,-222.0,625.0,-492.0,33.0
19:30:29.677000,-107.0,-52.0,72.0,-1369.0,-60.0,-217.0,630.0,-484.0,22.0
19:30:29.681000,-81.0,-46.0,56.0,-1398.0,-66.0,-217.0,630.0,-484.0,22.0
19:30:29.686000,-62.0,-40.0,31.0,-1438.0,-34.0,-221.0,627.0,-499.0,22.0
19:30:29.691000,-44.0,-34.0,32.0,-1454.0,-11.0,-230.0,627.0,-499.0,22.0
19:30:29.695000,-44.0,-34.0,32.0,-1472.0,5.0,-237.0,627.0,-499.0,22.0
19:30:29.700000,-35.0,-19.0,18.0,-1520.0,51.0,-244.0,619.0,-501.0,25.0
19:30:29.705000,-34.0,-4.0,-40.0,-1572.0,113.0,-257.0,619.0,-501.0,25.0
19:30:29.710000,-39.0,16.0,-129.0,-1610.0,158.0,-269.0,618.0,-507.0,33.0
19:30:29.714000,-44.0,39.0,-219.0,-1646.0,170.0,-272.0,618.0,-507.0,33.0
19:30:29.718000,-55.0,58.0,-306.0,-1667.0,156.0,-282.0,618.0,-507.0,33.0
19:30:29.724000,-52.0,79.0,-397.0,-1649.0,109.0,-290.0,619.0,-502.0,30.0
19:30:29.728000,-66.0,118.0,-471.0,-1626.0,49.0,-281.0,619.0,-502.0,30.0
19:30:29.733000,-41.0,120.0,-535.0,-1559.0,7.0,-264.0,624.0,-496.0,31.0
19:30:29.738000,-18.0,141.0,-564.0,-1465.0,30.0,-257.0,624.0,-496.0,31.0
19:30:29.742000,1.0,182.0,-580.0,-1416.0,109.0,-248.0,624.0,-496.0,31.0
19:30:29.747000,-2.0,214.0,-541.0,-1238.0,275.0,-220.0,612.0,-504.0,24.0
19:30:29.752000,28.0,227.0,-426.0,-999.0,608.0,-191.0,612.0,-504.0,24.0
19:30:29.757000,87.0,210.0,-404.0,-999.0,608.0,-191.0,618.0,-493.0,28.0
19:30:29.761000,29.0,200.0,-420.0,-1261.0,667.0,-225.0,618.0,-493.0,28.0
19:30:29.765000,-121.0,285.0,-212.0,-1621.0,168.0,-262.0,618.0,-493.0,28.0
19:30:29.771000,-46.0,281.0,30.0,-1624.0,-253.0,-286.0,634.0,-492.0,24.0
19:30:29.775000,2.0,273.0,-73.0,-1594.0,-91.0,-312.0,634.0,-492.0,24.0
19:30:29.780000,32.0,276.0,-399.0,-1494.0,364.0,-275.0,619.0,-504.0,24.0
19:30:29.785000,63.0,268.0,-513.0,-1299.0,576.0,-251.0,619.0,-504.0,24.0
19:30:29.789000,63.0,268.0,-513.0,-1100.0,529.0,-219.0,619.0,-504.0,24.0
19:30:29.794000,123.0,235.0,-424.0,-1032.0,521.0,-195.0,630.0,-501.0,28.0
19:30:29.799000,90.0,220.0,-363.0,-1140.0,434.0,-179.0,630.0,-501.0,28.0
19:30:29.804000,90.0,220.0,-363.0,-1287.0,249.0,-166.0,639.0,-505.0,33.0
19:30:29.808000,5.0,228.0,-261.0,-1418.0,135.0,-187.0,639.0,-505.0,33.0
19:30:29.812000,-18.0,197.0,-180.0,-1510.0,148.0,-193.0,639.0,-505.0,33.0
19:30:29.818000,-32.0,148.0,-189.0,-1519.0,327.0,-195.0,639.0,-502.0,27.0
19:30:29.822000,-45.0,122.0,-282.0,-1397.0,445.0,-197.0,639.0,-502.0,27.0
19:30:29.827000,-132.0,124.0,-280.0,-1221.0,371.0,-178.0,640.0,-501.0,36.0
19:30:29.832000,-255.0,137.0,-233.0,-1166.0,249.0,-173.0,640.0,-501.0,36.0
19:30:29.836000,-285.0,122.0,-155.0,-1221.0,224.0,-202.0,640.0,-501.0,36.0
19:30:29.841000,-269.0,119.0,-142.0,-1278.0,285.0,-211.0,642.0,-510.0,36.0
19:30:29.846000,-278.0,112.0,-226.0,-1226.0,215.0,-170.0,642.0,-510.0,36.0
19:30:29.851000,-352.0,118.0,-252.0,-1226.0,215.0,-170.0,652.0,-504.0,27.0
19:30:29.855000,-364.0,88.0,-182.0,-1021.0,-47.0,-88.0,652.0,-504.0,27.0
19:30:29.859000,-366.0,17.0,-127.0,-1056.0,-124.0,-88.0,652.0,-504.0,27.0
19:30:29.865000,-324.0,-70.0,-123.0,-1056.0,-124.0,-88.0,642.0,-504.0,40.0
19:30:29.869000,-277.0,-131.0,-187.0,-1122.0,-187.0,-159.0,642.0,-504.0,40.0
19:30:29.874000,-320.0,-148.0,-169.0,-1222.0,-140.0,-222.0,649.0,-510.0,34.0
19:30:29.879000,-437.0,-105.0,-104.0,-1375.0,4.0,-256.0,649.0,-510.0,34.0
19:30:29.883000,-541.0,-41.0,-144.0,-1547.0,223.0,-264.0,649.0,-510.0,34.0
19:30:29.888000,-662.0,32.0,-245.0,-1633.0,363.0,-229.0,651.0,-504.0,45.0
19:30:29.893000,-725.0,91.0,-322.0,-1589.0,299.0,-188.0,651.0,-504.0,45.0
19:30:29.898000,-735.0,130.0,-345.0,-1469.0,76.0,-172.0,654.0,-508.0,25.0
19:30:29.902000,-686.0,144.0,-285.0,-1368.0,-168.0,-169.0,654.0,-508.0,25.0
19:30:29.906000,-686.0,144.0,-285.0,-1357.0,-314.0,-183.0,654.0,-508.0,25.0
19:30:29.912000,-577.0,140.0,-253.0,-1397.0,-393.0,-194.0,664.0,-510.0,25.0
19:30:29.916000,-501.0,145.0,-268.0,-1420.0,-412.0,-186.0,664.0,-510.0,25.0
19:30:29.921000,-447.0,128.0,-303.0,-1448.0,-382.0,-161.0,664.0,-507.0,30.0
19:30:29.926000,-461.0,118.0,-302.0,-1471.0,-307.0,-150.0,664.0,-507.0,30.0
19:30:29.930000,-444.0,114.0,-298.0,-1436.0,-171.0,-159.0,664.0,-507.0,30.0
19:30:29.935000,-434.0,123.0,-314.0,-1352.0,-39.0,-158.0,672.0,-499.0,22.0
19:30:29.940000,-450.0,148.0,-294.0,-1266.0,60.0,-133.0,672.0,-499.0,22.0
19:30:29.945000,-491.0,172.0,-262.0,-1228.0,165.0,-115.0,658.0,-504.0,25.0
19:30:29.949000,-541.0,216.0,-280.0,-1208.0,266.0,-103.0,658.0,-504.0,25.0
19:30:29.953000,-630.0,257.0,-318.0,-1159.0,310.0,-82.0,658.0,-504.0,25.0
19:30:29.959000,-700.0,295.0,-321.0,-1127.0,321.0,-70.0,669.0,-501.0,34.0
19:30:29.963000,-765.0,331.0,-313.0,-1146.0,300.0,-54.0,669.0,-501.0,34.0
19:30:29.968000,-839.0,354.0,-301.0,-1146.0,300.0,-54.0,678.0,-495.0,33.0
19:30:29.973000,-903.0,378.0,-275.0,-1157.0,229.0,-35.0,678.0,-495.0,33.0
19:30:29.977000,-938.0,383.0,-244.0,-1157.0,229.0,-35.0,678.0,-495.0,33.0
19:30:29.982000,-991.0,391.0,-215.0,-1141.0,272.0,-24.0,688.0,-495.0,30.0
19:30:29.987000,-1055.0,398.0,-205.0,-1132.0,334.0,-10.0,688.0,-495.0,30.0
19:30:29.992000,-1143.0,403.0,-178.0,-1108.0,379.0,19.0,687.0,-489.0,31.0
19:30:29.996000,-1243.0,409.0,-160.0,-1080.0,376.0,59.0,687.0,-489.0,31.0
19:30:30.000000,-1330.0,425.0,-173.0,-1082.0,363.0,87.0,687.0,-489.0,31.0
19:30:30.006000,-1390.0,437.0,-199.0,-1090.0,347.0,114.0,700.0,-475.0,40.0
19:30:30.010000,-1425.0,450.0,-204.0,-1071.0,312.0,145.0,700.0,-475.0,40.0
19:30:30.015000,-1493.0,473.0,-173.0,-1067.0,240.0,186.0,702.0,-480.0,36.0
19:30:30.020000,-1574.0,483.0,-148.0,-1126.0,163.0,238.0,702.0,-480.0,36.0
19:30:30.024000,-1574.0,483.0,-148.0,-1199.0,141.0,277.0,702.0,-480.0,36.0
19:30:30.029000,-1650.0,482.0,-124.0,-1244.0,169.0,318.0,693.0,-472.0,39.0
19:30:30.034000,-1752.0,476.0,-34.0,-1253.0,265.0,338.0,693.0,-472.0,39.0
19:30:30.039000,-1827.0,525.0,32.0,-1150.0,384.0,312.0,711.0,-463.0,46.0
19:30:30.043000,-1870.0,576.0,35.0,-1047.0,409.0,374.0,711.0,-463.0,46.0
19:30:30.047000,-2031.0,596.0,-51.0,-1053.0,383.0,435.0,711.0,-463.0,46.0
19:30:30.053000,-2159.0,648.0,-222.0,-1116.0,358.0,443.0,714.0,-460.0,46.0
19:30:30.057000,-2326.0,711.0,-368.0,-1225.0,328.0,461.0,714.0,-460.0,46.0
19:30:30.062000,-2375.0,736.0,-406.0,-1214.0,304.0,452.0,721.0,-451.0,58.0
19:30:30.067000,-2450.0,819.0,-324.0,-1108.0,305.0,489.0,721.0,-451.0,58.0
19:30:30.071000,-2522.0,835.0,-210.0,-1075.0,295.0,543.0,721.0,-451.0,58.0
19:30:30.076000,-2587.0,877.0,-116.0,-1073.0,220.0,561.0,727.0,-439.0,61.0
19:30:30.081000,-2580.0,917.0,-24.0,-1051.0,115.0,574.0,727.0,-439.0,61.0
19:30:30.086000,-2641.0,978.0,12.0,-1051.0,115.0,574.0,736.0,-429.0,63.0
19:30:30.090000,-2591.0,1005.0,14.0,-1000.0,54.0,571.0,736.0,-429.0,63.0
19:30:30.094000,-2560.0,1027.0,-14.0,-931.0,84.0,567.0,736.0,-429.0,63.0
19:30:30.100000,-2640.0,1059.0,3.0,-917.0,93.0,613.0,730.0,-432.0,66.0
19:30:30.104000,-2648.0,1094.0,11.0,-991.0,55.0,628.0,730.0,-432.0,66.0
19:30:30.109000,-2648.0,1116.0,-4.0,-1121.0,43.0,617.0,739.0,-417.0,91.0
19:30:30.114000,-2690.0,1140.0,33.0,-1198.0,-3.0,641.0,739.0,-417.0,91.0
19:30:30.118000,-2690.0,1140.0,33.0,-1184.0,-6.0,651.0,739.0,-417.0,91.0
19:30:30.123000,-2779.0,1165.0,52.0,-1124.0,49.0,645.0,744.0,-408.0,94.0
19:30:30.128000,-2826.0,1176.0,59.0,-1046.0,86.0,638.0,744.0,-408.0,94.0
19:30:30.133000,-2826.0,1176.0,59.0,-1004.0,88.0,634.0,744.0,-409.0,108.0
19:30:30.137000,-2891.0,1183.0,53.0,-1022.0,37.0,625.0,744.0,-409.0,108.0
19:30:30.141000,-2921.0,1183.0,18.0,-1045.0,-18.0,617.0,744.0,-409.0,108.0
19:30:30.147000,-2951.0,1183.0,-6.0,-1034.0,-68.0,619.0,745.0,-402.0,120.0
19:30:30.151000,-2997.0,1173.0,-23.0,-991.0,-103.0,585.0,745.0,-402.0,120.0
19:30:30.156000,-3022.0,1154.0,-14.0,-941.0,-117.0,549.0,753.0,-406.0,127.0
19:30:30.161000,-3052.0,1134.0,-22.0,-905.0,-133.0,535.0,753.0,-406.0,127.0
19:30:30.166000,-3085.0,1098.0,-31.0,-861.0,-173.0,514.0,759.0,-403.0,145.0
19:30:30.170000,-3129.0,1055.0,-46.0,-770.0,-209.0,478.0,759.0,-403.0,145.0
19:30:30.174000,-3167.0,1013.0,-16.0,-655.0,-260.0,452.0,759.0,-403.0,145.0
19:30:30.180000,-3212.0,963.0,22.0,-568.0,-364.0,423.0,750.0,-405.0,156.0
19:30:30.184000,-3234.0,905.0,73.0,-526.0,-475.0,346.0,750.0,-405.0,156.0
19:30:30.189000,-3245.0,828.0,95.0,-526.0,-475.0,346.0,753.0,-385.0,181.0
19:30:30.194000,-3270.0,765.0,103.0,-390.0,-579.0,218.0,753.0,-385.0,181.0
19:30:30.198000,-3265.0,707.0,144.0,-390.0,-579.0,218.0,753.0,-385.0,181.0
19:30:30.203000,-3264.0,652.0,192.0,-330.0,-618.0,204.0,756.0,-387.0,184.0
19:30:30.208000,-3276.0,608.0,199.0,-347.0,-625.0,195.0,756.0,-387.0,184.0
19:30:30.213000,-3287.0,561.0,171.0,-422.0,-592.0,170.0,741.0,-382.0,192.0
19:30:30.217000,-3329.0,522.0,166.0,-506.0,-590.0,169.0,741.0,-382.0,192.0
19:30:30.221000,-3353.0,483.0,166.0,-559.0,-624.0,179.0,741.0,-382.0,192.0
19:30:30.227000,-3366.0,449.0,171.0,-564.0,-680.0,194.0,741.0,-382.0,196.0
19:30:30.231000,-3371.0,439.0,142.0,-527.0,-736.0,198.0,741.0,-382.0,196.0
19:30:30.236000,-3362.0,439.0,74.0,-510.0,-746.0,184.0,744.0,-379.0,198.0
19:30:30.241000,-3362.0,439.0,74.0,-546.0,-731.0,181.0,744.0,-379.0,198.0
19:30:30.245000,-3366.0,444.0,-14.0,-599.0,-731.0,162.0,744.0,-379.0,198.0
19:30:30.250000,-3378.0,452.0,-88.0,-631.0,-748.0,127.0,735.0,-390.0,210.0
19:30:30.255000,-3374.0,445.0,-144.0,-595.0,-769.0,107.0,735.0,-390.0,210.0
19:30:30.260000,-3362.0,442.0,-168.0,-493.0,-800.0,96.0,738.0,-384.0,219.0
19:30:30.264000,-3350.0,441.0,-158.0,-418.0,-819.0,96.0,738.0,-384.0,219.0
19:30:30.268000,-3322.0,442.0,-184.0,-381.0,-841.0,71.0,738.0,-384.0,219.0
19:30:30.274000,-3248.0,442.0,-228.0,-351.0,-899.0,60.0,730.0,-387.0,229.0
19:30:30.278000,-3185.0,449.0,-235.0,-381.0,-914.0,70.0,730.0,-387.0,229.0
19:30:30.282000,-3152.0,468.0,-225.0,-498.0,-860.0,44.0,724.0,-385.0,223.0
19:30:30.288000,-3139.0,504.0,-219.0,-637.0,-821.0,11.0,724.0,-385.0,223.0
19:30:30.292000,-3120.0,534.0,-205.0,-698.0,-845.0,0.0,724.0,-385.0,223.0
19:30:30.297000,-3087.0,564.0,-174.0,-650.0,-912.0,-11.0,712.0,-399.0,234.0
19:30:30.302000,-3017.0,580.0,-137.0,-650.0,-970.0,-30.0,712.0,-399.0,234.0
19:30:30.307000,-2937.0,599.0,-135.0,-564.0,-970.0,-30.0,726.0,-382.0,243.0
19:30:30.311000,-2853.0,601.0,-142.0,-509.0,-1008.0,-54.0,726.0,-382.0,243.0
19:30:30.315000,-2779.0,600.0,-140.0,-478.0,-1016.0,-83.0,726.0,-382.0,243.0
19:30:30.321000,-2724.0,603.0,-167.0,-485.0,-980.0,-96.0,714.0,-388.0,237.0
19:30:30.325000,-2692.0,602.0,-163.0,-499.0,-954.0,-88.0,714.0,-388.0,237.0
19:30:30.330000,-2647.0,604.0,-124.0,-458.0,-951.0,-76.0,712.0,-387.0,250.0
19:30:30.335000,-2590.0,609.0,-137.0,-436.0,-916.0,-72.0,712.0,-387.0,250.0
19:30:30.339000,-2550.0,625.0,-187.0,-438.0,-869.0,-67.0,700.0,-390.0,259.0
19:30:30.344000,-2543.0,659.0,-247.0,-419.0,-830.0,-61.0,700.0,-390.0,259.0
19:30:30.348000,-2543.0,659.0,-247.0,-405.0,-812.0,-67.0,700.0,-390.0,259.0
19:30:30.354000,-2534.0,690.0,-261.0,-397.0,-839.0,-84.0,691.0,-405.0,270.0
19:30:30.358000,-2503.0,698.0,-209.0,-388.0,-891.0,-103.0,691.0,-405.0,270.0
19:30:30.363000,-2454.0,691.0,-159.0,-384.0,-931.0,-114.0,687.0,-402.0,277.0
19:30:30.368000,-2410.0,682.0,-164.0,-377.0,-963.0,-120.0,687.0,-402.0,277.0
19:30:30.372000,-2359.0,662.0,-173.0,-358.0,-974.0,-125.0,687.0,-402.0,277.0
19:30:30.377000,-2311.0,639.0,-143.0,-329.0,-937.0,-128.0,679.0,-403.0,297.0
19:30:30.382000,-2272.0,616.0,-88.0,-290.0,-886.0,-128.0,679.0,-403.0,297.0
19:30:30.386000,-2251.0,600.0,-42.0,-260.0,-845.0,-131.0,685.0,-400.0,294.0
19:30:30.391000,-2238.0,599.0,-37.0,-219.0,-873.0,-130.0,685.0,-400.0,294.0
19:30:30.395000,-2224.0,592.0,-29.0,-195.0,-937.0,-130.0,685.0,-400.0,294.0
19:30:30.401000,-2187.0,571.0,-51.0,-187.0,-1011.0,-120.0,672.0,-412.0,286.0
19:30:30.405000,-2144.0,539.0,-35.0,-176.0,-1064.0,-117.0,672.0,-412.0,286.0
19:30:30.409000,-2076.0,508.0,-19.0,-184.0,-1053.0,-126.0,669.0,-415.0,312.0
19:30:30.415000,-2011.0,470.0,-21.0,-184.0,-1053.0,-126.0,669.0,-415.0,312.0
19:30:30.419000,-1987.0,436.0,-14.0,-167.0,-1067.0,-104.0,669.0,-415.0,312.0
19:30:30.424000,-1916.0,405.0,-14.0,-160.0,-1060.0,-118.0,670.0,-418.0,307.0
19:30:30.429000,-1873.0,376.0,-51.0,-197.0,-991.0,-134.0,670.0,-418.0,307.0
19:30:30.433000,-1840.0,347.0,-82.0,-247.0,-947.0,-120.0,655.0,-427.0,303.0
19:30:30.438000,-1829.0,319.0,-67.0,-285.0,-965.0,-110.0,655.0,-427.0,303.0
19:30:30.442000,-1809.0,290.0,-48.0,-312.0,-1015.0,-113.0,655.0,-427.0,303.0
19:30:30.447000,-1787.0,259.0,-95.0,-339.0,-1034.0,-125.0,670.0,-424.0,309.0
19:30:30.452000,-1786.0,242.0,-146.0,-336.0,-1025.0,-130.0,670.0,-424.0,309.0
19:30:30.457000,-1764.0,223.0,-191.0,-316.0,-1028.0,-143.0,664.0,-429.0,306.0
19:30:30.462000,-1764.0,223.0,-191.0,-326.0,-1002.0,-161.0,664.0,-429.0,306.0
19:30:30.466000,-1735.0,206.0,-261.0,-328.0,-1062.0,-157.0,664.0,-429.0,306.0
19:30:30.471000,-1695.0,167.0,-312.0,-325.0,-1148.0,-152.0,646.0,-433.0,312.0
19:30:30.476000,-1642.0,142.0,-378.0,-329.0,-1151.0,-163.0,646.0,-433.0,312.0
19:30:30.480000,-1575.0,111.0,-438.0,-330.0,-1137.0,-156.0,646.0,-448.0,312.0
19:30:30.485000,-1514.0,81.0,-499.0,-336.0,-1156.0,-145.0,646.0,-448.0,312.0
19:30:30.489000,-1484.0,62.0,-522.0,-363.0,-1179.0,-136.0,646.0,-448.0,312.0
19:30:30.494000,-1403.0,7.0,-553.0,-397.0,-1154.0,-153.0,645.0,-439.0,310.0
19:30:30.499000,-1329.0,-17.0,-620.0,-377.0,-1153.0,-127.0,645.0,-439.0,310.0
19:30:30.504000,-1314.0,-49.0,-681.0,-345.0,-1177.0,-100.0,639.0,-441.0,313.0
19:30:30.509000,-1239.0,-100.0,-745.0,-364.0,-1165.0,-117.0,639.0,-441.0,313.0
19:30:30.513000,-1171.0,-142.0,-781.0,-392.0,-1171.0,-119.0,639.0,-441.0,313.0
19:30:30.518000,-1110.0,-176.0,-737.0,-363.0,-1198.0,-95.0,646.0,-439.0,307.0
19:30:30.523000,-1073.0,-215.0,-697.0,-363.0,-1198.0,-95.0,646.0,-439.0,307.0
19:30:30.527000,-1018.0,-247.0,-734.0,-331.0,-1164.0,-90.0,649.0,-435.0,310.0
19:30:30.532000,-977.0,-297.0,-751.0,-341.0,-1130.0,-93.0,649.0,-435.0,310.0
19:30:30.536000,-909.0,-357.0,-861.0,-574.0,-1035.0,-5.0,649.0,-435.0,310.0
19:30:30.541000,-934.0,-380.0,-858.0,-574.0,-1035.0,-5.0,631.0,-441.0,301.0
19:30:30.546000,-998.0,-340.0,-672.0,-538.0,-1161.0,-28.0,631.0,-441.0,301.0
19:30:30.551000,-922.0,-404.0,-648.0,-491.0,-1107.0,-18.0,640.0,-426.0,301.0
19:30:30.556000,-856.0,-469.0,-681.0,-573.0,-915.0,74.0,640.0,-426.0,301.0
19:30:30.560000,-856.0,-469.0,-681.0,-606.0,-834.0,55.0,640.0,-426.0,301.0
19:30:30.565000,-774.0,-366.0,-831.0,-623.0,-569.0,44.0,648.0,-426.0,301.0
19:30:30.570000,-774.0,-366.0,-831.0,-391.0,-333.0,59.0,648.0,-426.0,301.0
19:30:30.574000,-796.0,-262.0,-818.0,-67.0,-418.0,143.0,642.0,-420.0,297.0
19:30:30.579000,-1059.0,-226.0,-907.0,-69.0,-804.0,267.0,642.0,-420.0,297.0
19:30:30.583000,-1283.0,-200.0,-921.0,-340.0,-1061.0,235.0,642.0,-420.0,297.0
19:30:30.588000,-1207.0,-223.0,-910.0,-647.0,-1018.0,210.0,633.0,-418.0,310.0
19:30:30.593000,-1293.0,-230.0,-892.0,-790.0,-1023.0,245.0,633.0,-418.0,310.0
19:30:30.598000,-1401.0,-251.0,-821.0,-869.0,-1069.0,237.0,645.0,-412.0,288.0
19:30:30.603000,-1368.0,-272.0,-739.0,-852.0,-1134.0,208.0,645.0,-412.0,288.0
19:30:30.607000,-1285.0,-272.0,-648.0,-799.0,-1205.0,206.0,645.0,-412.0,288.0
19:30:30.612000,-1238.0,-263.0,-656.0,-786.0,-1120.0,205.0,643.0,-420.0,295.0
19:30:30.617000,-1126.0,-252.0,-832.0,-669.0,-986.0,214.0,643.0,-420.0,295.0
19:30:30.621000,-1078.0,-216.0,-952.0,-495.0,-1011.0,255.0,640.0,-400.0,301.0
19:30:30.626000,-1092.0,-169.0,-922.0,-473.0,-1060.0,268.0,640.0,-400.0,301.0
19:30:30.631000,-1113.0,-131.0,-921.0,-473.0,-1060.0,268.0,645.0,-399.0,286.0
19:30:30.635000,-1136.0,-71.0,-1014.0,-541.0,-1043.0,253.0,645.0,-399.0,286.0
19:30:30.640000,-1092.0,-53.0,-1094.0,-638.0,-1061.0,237.0,645.0,-399.0,286.0
19:30:30.645000,-1059.0,-11.0,-1089.0,-701.0,-1070.0,233.0,636.0,-402.0,285.0
19:30:30.650000,-1099.0,42.0,-1038.0,-686.0,-1040.0,256.0,636.0,-402.0,285.0
19:30:30.654000,-1056.0,73.0,-973.0,-679.0,-1059.0,262.0,634.0,-390.0,289.0
19:30:30.659000,-1003.0,96.0,-987.0,-736.0,-1084.0,240.0,634.0,-390.0,289.0
19:30:30.663000,-977.0,122.0,-1052.0,-827.0,-1103.0,235.0,634.0,-390.0,289.0
19:30:30.668000,-938.0,154.0,-1141.0,-864.0,-1109.0,217.0,639.0,-391.0,289.0
19:30:30.673000,-884.0,170.0,-1159.0,-859.0,-1086.0,203.0,639.0,-391.0,289.0
19:30:30.678000,-826.0,182.0,-1135.0,-846.0,-1027.0,203.0,637.0,-381.0,303.0
19:30:30.682000,-826.0,182.0,-1135.0,-849.0,-924.0,204.0,637.0,-381.0,303.0
19:30:30.687000,-782.0,191.0,-1160.0,-837.0,-873.0,206.0,637.0,-381.0,303.0
19:30:30.692000,-743.0,206.0,-1163.0,-809.0,-899.0,204.0,640.0,-393.0,298.0
19:30:30.697000,-703.0,212.0,-1140.0,-794.0,-939.0,211.0,640.0,-393.0,298.0
19:30:30.701000,-655.0,208.0,-1087.0,-783.0,-950.0,209.0,627.0,-387.0,303.0
19:30:30.706000,-621.0,207.0,-1013.0,-807.0,-924.0,210.0,627.0,-387.0,303.0
19:30:30.710000,-613.0,210.0,-933.0,-850.0,-879.0,212.0,627.0,-387.0,303.0
19:30:30.715000,-615.0,227.0,-904.0,-839.0,-822.0,200.0,631.0,-360.0,312.0
19:30:30.720000,-611.0,234.0,-894.0,-839.0,-764.0,207.0,631.0,-360.0,312.0
19:30:30.725000,-626.0,242.0,-902.0,-812.0,-705.0,210.0,631.0,-372.0,309.0
19:30:30.729000,-652.0,264.0,-914.0,-777.0,-655.0,179.0,631.0,-372.0,309.0
19:30:30.734000,-660.0,280.0,-884.0,-753.0,-666.0,213.0,631.0,-372.0,309.0
19:30:30.739000,-732.0,290.0,-818.0,-754.0,-685.0,214.0,631.0,-357.0,307.0
19:30:30.744000,-728.0,295.0,-774.0,-754.0,-685.0,214.0,631.0,-357.0,307.0
19:30:30.748000,-728.0,292.0,-750.0,-852.0,-668.0,174.0,628.0,-358.0,309.0
19:30:30.753000,-730.0,295.0,-762.0,-852.0,-668.0,174.0,628.0,-358.0,309.0
19:30:30.757000,-715.0,299.0,-775.0,-888.0,-663.0,162.0,628.0,-358.0,309.0
19:30:30.762000,-697.0,305.0,-752.0,-903.0,-680.0,162.0,607.0,-357.0,315.0
19:30:30.767000,-653.0,301.0,-699.0,-903.0,-698.0,140.0,607.0,-357.0,315.0
19:30:30.772000,-616.0,299.0,-652.0,-923.0,-717.0,121.0,627.0,-349.0,322.0
19:30:30.776000,-560.0,287.0,-623.0,-956.0,-731.0,118.0,627.0,-349.0,322.0
19:30:30.781000,-560.0,287.0,-623.0,-974.0,-728.0,102.0,627.0,-349.0,322.0
19:30:30.786000,-448.0,263.0,-588.0,-973.0,-725.0,95.0,613.0,-351.0,328.0
19:30:30.791000,-448.0,263.0,-588.0,-948.0,-719.0,91.0,613.0,-351.0,328.0
19:30:30.795000,-369.0,237.0,-543.0,-925.0,-697.0,86.0,603.0,-352.0,324.0
19:30:30.800000,-320.0,227.0,-510.0,-912.0,-655.0,83.0,603.0,-352.0,324.0
19:30:30.804000,-262.0,210.0,-514.0,-892.0,-613.0,84.0,603.0,-352.0,324.0
19:30:30.809000,-214.0,187.0,-525.0,-871.0,-591.0,85.0,621.0,-345.0,319.0
19:30:30.814000,-167.0,157.0,-497.0,-861.0,-588.0,89.0,621.0,-345.0,319.0
19:30:30.819000,-135.0,135.0,-434.0,-877.0,-574.0,83.0,610.0,-345.0,321.0
19:30:30.823000,-92.0,118.0,-399.0,-898.0,-538.0,76.0,610.0,-345.0,321.0
19:30:30.828000,-71.0,104.0,-389.0,-899.0,-512.0,81.0,610.0,-345.0,321.0
19:30:30.833000,-53.0,91.0,-356.0,-914.0,-488.0,83.0,603.0,-346.0,327.0
19:30:30.837000,-21.0,73.0,-330.0,-942.0,-477.0,91.0,603.0,-346.0,327.0
19:30:30.842000,-4.0,60.0,-301.0,-968.0,-503.0,96.0,607.0,-336.0,325.0
19:30:30.847000,22.0,46.0,-270.0,-994.0,-528.0,98.0,607.0,-336.0,325.0
19:30:30.852000,58.0,32.0,-256.0,-994.0,-528.0,98.0,609.0,-328.0,325.0
19:30:30.856000,95.0,18.0,-235.0,-994.0,-532.0,101.0,609.0,-328.0,325.0
19:30:30.860000,123.0,-4.0,-195.0,-971.0,-520.0,109.0,609.0,-328.0,325.0
19:30:30.866000,130.0,-22.0,-147.0,-950.0,-496.0,124.0,618.0,-330.0,328.0
19:30:30.870000,133.0,-39.0,-104.0,-935.0,-481.0,132.0,618.0,-330.0,328.0
19:30:30.875000,130.0,-54.0,-67.0,-929.0,-468.0,134.0,607.0,-330.0,327.0
19:30:30.880000,121.0,-67.0,-28.0,-927.0,-446.0,136.0,607.0,-330.0,327.0
19:30:30.884000,121.0,-67.0,-28.0,-928.0,-420.0,135.0,607.0,-330.0,327.0
19:30:30.889000,79.0,-68.0,14.0,-945.0,-391.0,133.0,610.0,-330.0,331.0
19:30:30.894000,55.0,-55.0,28.0,-975.0,-369.0,131.0,610.0,-330.0,331.0
19:30:30.899000,55.0,-55.0,28.0,-1008.0,-378.0,129.0,600.0,-334.0,322.0
19:30:30.903000,36.0,-37.0,58.0,-1043.0,-415.0,128.0,600.0,-334.0,322.0
19:30:30.907000,26.0,-17.0,85.0,-1072.0,-450.0,124.0,600.0,-334.0,322.0
19:30:30.913000,23.0,6.0,107.0,-1096.0,-479.0,125.0,612.0,-336.0,331.0
19:30:30.917000,16.0,32.0,121.0,-1118.0,-505.0,125.0,612.0,-336.0,331.0
19:30:30.922000,14.0,56.0,122.0,-1129.0,-519.0,121.0,606.0,-331.0,327.0
19:30:30.927000,10.0,77.0,138.0,-1127.0,-520.0,120.0,606.0,-331.0,327.0
19:30:30.934000,-30.0,118.0,172.0,-1130.0,-471.0,106.0,594.0,-342.0,357.0
19:30:30.936000,-30.0,118.0,172.0,-1130.0,-471.0,106.0,594.0,-342.0,357.0
19:30:30.940000,-60.0,145.0,161.0,-1106.0,-488.0,94.0,594.0,-342.0,357.0
19:30:30.946000,-76.0,165.0,137.0,-1070.0,-521.0,81.0,610.0,-345.0,339.0
19:30:30.950000,-83.0,182.0,84.0,-1027.0,-551.0,65.0,610.0,-345.0,339.0
19:30:30.955000,-74.0,193.0,16.0,-1027.0,-551.0,65.0,607.0,-339.0,333.0
19:30:30.960000,-60.0,197.0,-45.0,-982.0,-593.0,39.0,607.0,-339.0,333.0
19:30:30.964000,-58.0,207.0,-88.0,-938.0,-593.0,39.0,607.0,-339.0,333.0
19:30:30.969000,-58.0,216.0,-141.0,-908.0,-594.0,30.0,610.0,-342.0,331.0
19:30:30.974000,-65.0,228.0,-210.0,-883.0,-576.0,21.0,610.0,-342.0,331.0
19:30:30.978000,-71.0,238.0,-270.0,-836.0,-545.0,0.0,604.0,-343.0,336.0
19:30:30.983000,-63.0,242.0,-323.0,-836.0,-545.0,0.0,604.0,-343.0,336.0
