hh:mm:ss.ms,gyroX[mdps],gyroY[mdps],gyroZ[mdps],accX[mg],accY[mg],accZ[mg],magX[mG],magY[mG],magZ[mG]
19:30:33.365000,-44.0,127.0,-177.0,-1432.0,-16.0,-244.0,526.0,-334.0,472.0
19:30:33.371000,-33.0,151.0,-187.0,-1418.0,-14.0,-256.0,543.0,-336.0,478.0
19:30:33.375000,-28.0,169.0,-142.0,-1418.0,-14.0,-256.0,543.0,-336.0,478.0
19:30:33.380000,-25.0,176.0,-75.0,-1403.0,-25.0,-267.0,529.0,-330.0,471.0
19:30:33.385000,-30.0,189.0,-18.0,-1392.0,-43.0,-280.0,529.0,-330.0,471.0
19:30:33.389000,-37.0,198.0,10.0,-1378.0,-54.0,-291.0,529.0,-330.0,471.0
19:30:33.394000,-39.0,200.0,29.0,-1360.0,-71.0,-295.0,526.0,-330.0,471.0
19:30:33.399000,-32.0,202.0,-1.0,-1359.0,-67.0,-300.0,526.0,-330.0,471.0
19:30:33.404000,-35.0,211.0,-101.0,-1377.0,-47.0,-304.0,520.0,-331.0,472.0
19:30:33.408000,-30.0,223.0,-179.0,-1369.0,-75.0,-298.0,520.0,-331.0,472.0
19:30:33.412000,-30.0,223.0,-179.0,-1342.0,-146.0,-288.0,520.0,-331.0,472.0
19:30:33.418000,-27.0,228.0,-182.0,-1322.0,-199.0,-283.0,519.0,-328.0,486.0
19:30:33.422000,-27.0,228.0,-182.0,-1315.0,-200.0,-276.0,519.0,-328.0,486.0
19:30:33.427000,-37.0,236.0,-189.0,-1293.0,-161.0,-268.0,519.0,-331.0,481.0
19:30:33.432000,-19.0,229.0,-205.0,-1214.0,-133.0,-271.0,519.0,-331.0,481.0
19:30:33.436000,24.0,206.0,-191.0,-1154.0,-96.0,-283.0,519.0,-331.0,481.0
19:30:33.441000,38.0,203.0,-204.0,-1167.0,-32.0,-278.0,526.0,-333.0,486.0
19:30:33.446000,48.0,186.0,-226.0,-1157.0,12.0,-270.0,526.0,-333.0,486.0
19:30:33.451000,84.0,164.0,-217.0,-1151.0,35.0,-264.0,529.0,-331.0,480.0
19:30:33.455000,88.0,163.0,-219.0,-1206.0,-16.0,-257.0,529.0,-331.0,480.0
19:30:33.459000,82.0,186.0,-183.0,-1245.0,-111.0,-243.0,529.0,-331.0,480.0
19:30:33.465000,87.0,177.0,-118.0,-1233.0,-96.0,-223.0,516.0,-327.0,484.0
19:30:33.469000,88.0,151.0,-160.0,-1149.0,-14.0,-229.0,516.0,-327.0,484.0
19:30:33.474000,93.0,130.0,-144.0,-1149.0,-14.0,-229.0,520.0,-324.0,486.0
19:30:33.479000,56.0,121.0,-86.0,-1024.0,54.0,-211.0,520.0,-324.0,486.0
19:30:33.483000,23.0,109.0,-63.0,-1024.0,54.0,-211.0,520.0,-324.0,486.0
19:30:33.488000,-3.0,104.0,-108.0,-1017.0,86.0,-196.0,519.0,-328.0,469.0
19:30:33.493000,-33.0,128.0,-165.0,-943.0,129.0,-209.0,519.0,-328.0,469.0
19:30:33.498000,-9.0,144.0,-254.0,-923.0,236.0,-205.0,507.0,-322.0,483.0
19:30:33.502000,-36.0,146.0,-287.0,-1169.0,163.0,-200.0,507.0,-322.0,483.0
19:30:33.506000,-31.0,167.0,-111.0,-1090.0,-290.0,-238.0,520.0,-322.0,499.0
19:30:33.512000,4.0,149.0,-2.0,-1090.0,-290.0,-238.0,520.0,-322.0,499.0
19:30:33.516000,32.0,149.0,3.0,-1083.0,-166.0,-214.0,520.0,-322.0,499.0
19:30:33.521000,17.0,142.0,-35.0,-992.0,-33.0,-208.0,522.0,-319.0,489.0
19:30:33.526000,14.0,154.0,-10.0,-903.0,74.0,-234.0,522.0,-319.0,489.0
19:30:33.531000,14.0,154.0,-10.0,-902.0,155.0,-256.0,520.0,-321.0,487.0
19:30:33.535000,5.0,155.0,6.0,-984.0,119.0,-266.0,520.0,-321.0,487.0
19:30:33.539000,-17.0,170.0,-133.0,-1037.0,30.0,-278.0,520.0,-321.0,487.0
19:30:33.545000,-31.0,182.0,-246.0,-1011.0,-21.0,-277.0,511.0,-327.0,487.0
19:30:33.549000,-11.0,165.0,-185.0,-971.0,-91.0,-265.0,511.0,-327.0,487.0
19:30:33.554000,2.0,156.0,-64.0,-981.0,-132.0,-265.0,514.0,-331.0,484.0
19:30:33.559000,25.0,145.0,-27.0,-1030.0,-65.0,-270.0,514.0,-331.0,484.0
19:30:33.563000,50.0,142.0,-60.0,-1003.0,2.0,-260.0,514.0,-331.0,484.0
19:30:33.568000,50.0,136.0,-96.0,-927.0,-3.0,-248.0,507.0,-322.0,486.0
19:30:33.573000,58.0,132.0,-113.0,-891.0,-19.0,-238.0,507.0,-322.0,486.0
19:30:33.578000,55.0,120.0,-168.0,-877.0,-25.0,-221.0,505.0,-315.0,490.0
19:30:33.582000,61.0,98.0,-231.0,-874.0,-68.0,-221.0,505.0,-315.0,490.0
19:30:33.586000,98.0,65.0,-225.0,-888.0,-73.0,-220.0,505.0,-315.0,490.0
19:30:33.592000,121.0,32.0,-233.0,-888.0,-43.0,-207.0,519.0,-315.0,492.0
19:30:33.596000,121.0,11.0,-217.0,-926.0,-16.0,-201.0,519.0,-315.0,492.0
19:30:33.601000,121.0,-9.0,-224.0,-926.0,-16.0,-201.0,498.0,-310.0,508.0
19:30:33.606000,108.0,-24.0,-228.0,-962.0,25.0,-196.0,498.0,-310.0,508.0
19:30:33.610000,79.0,-20.0,-238.0,-971.0,59.0,-190.0,498.0,-310.0,508.0
19:30:33.615000,63.0,-28.0,-259.0,-972.0,91.0,-189.0,510.0,-318.0,483.0
19:30:33.620000,42.0,-27.0,-252.0,-965.0,83.0,-191.0,510.0,-318.0,483.0
19:30:33.625000,36.0,-31.0,-284.0,-989.0,65.0,-188.0,501.0,-319.0,487.0
19:30:33.629000,15.0,-33.0,-303.0,-1018.0,47.0,-178.0,501.0,-319.0,487.0
19:30:33.633000,15.0,-33.0,-303.0,-1030.0,43.0,-173.0,501.0,-319.0,487.0
19:30:33.639000,-26.0,-25.0,-332.0,-1036.0,55.0,-180.0,501.0,-312.0,481.0
19:30:33.643000,-26.0,-25.0,-332.0,-1020.0,70.0,-193.0,501.0,-312.0,481.0
19:30:33.648000,-11.0,-26.0,-367.0,-1019.0,92.0,-202.0,496.0,-310.0,487.0
19:30:33.653000,-1.0,-32.0,-420.0,-1018.0,70.0,-208.0,496.0,-310.0,487.0
19:30:33.657000,7.0,-30.0,-414.0,-1001.0,65.0,-212.0,496.0,-310.0,487.0
19:30:33.662000,15.0,-33.0,-373.0,-1012.0,84.0,-218.0,504.0,-315.0,486.0
19:30:33.667000,9.0,-20.0,-344.0,-1047.0,79.0,-225.0,504.0,-315.0,486.0
19:30:33.671000,10.0,-5.0,-332.0,-1057.0,82.0,-232.0,505.0,-301.0,486.0
19:30:33.676000,19.0,10.0,-318.0,-1036.0,122.0,-236.0,505.0,-301.0,486.0
19:30:33.680000,35.0,24.0,-328.0,-1088.0,166.0,-236.0,505.0,-301.0,486.0
19:30:33.686000,40.0,37.0,-357.0,-1054.0,123.0,-234.0,505.0,-304.0,489.0
19:30:33.690000,42.0,53.0,-317.0,-959.0,97.0,-238.0,505.0,-304.0,489.0
19:30:33.695000,49.0,58.0,-283.0,-959.0,97.0,-238.0,504.0,-303.0,487.0
19:30:33.700000,53.0,65.0,-331.0,-981.0,119.0,-245.0,504.0,-303.0,487.0
19:30:33.704000,71.0,65.0,-339.0,-981.0,119.0,-245.0,504.0,-303.0,487.0
19:30:33.709000,76.0,68.0,-324.0,-964.0,117.0,-254.0,502.0,-301.0,484.0
19:30:33.714000,82.0,77.0,-303.0,-960.0,149.0,-263.0,502.0,-301.0,484.0
19:30:33.718000,79.0,84.0,-289.0,-997.0,222.0,-265.0,498.0,-295.0,489.0
19:30:33.723000,39.0,104.0,-324.0,-1016.0,226.0,-258.0,498.0,-295.0,489.0
19:30:33.727000,18.0,115.0,-345.0,-1000.0,184.0,-259.0,498.0,-295.0,489.0
19:30:33.733000,24.0,118.0,-334.0,-999.0,176.0,-269.0,504.0,-297.0,486.0
19:30:33.737000,34.0,123.0,-319.0,-992.0,159.0,-272.0,504.0,-297.0,486.0
19:30:33.742000,35.0,133.0,-342.0,-996.0,157.0,-272.0,501.0,-303.0,489.0
19:30:33.747000,27.0,140.0,-350.0,-1007.0,155.0,-271.0,501.0,-303.0,489.0
19:30:33.751000,27.0,140.0,-350.0,-1004.0,140.0,-271.0,501.0,-303.0,489.0
19:30:33.756000,25.0,149.0,-319.0,-1019.0,142.0,-273.0,493.0,-292.0,493.0
19:30:33.761000,37.0,153.0,-311.0,-1040.0,127.0,-281.0,493.0,-292.0,493.0
19:30:33.765000,58.0,160.0,-353.0,-1034.0,90.0,-287.0,492.0,-300.0,489.0
19:30:33.770000,82.0,165.0,-380.0,-1020.0,98.0,-284.0,492.0,-300.0,489.0
19:30:33.774000,92.0,173.0,-356.0,-1006.0,118.0,-282.0,492.0,-300.0,489.0
19:30:33.780000,91.0,180.0,-330.0,-992.0,128.0,-285.0,493.0,-295.0,498.0
19:30:33.784000,95.0,186.0,-351.0,-978.0,126.0,-293.0,493.0,-295.0,498.0
19:30:33.789000,107.0,184.0,-370.0,-959.0,121.0,-300.0,495.0,-279.0,496.0
19:30:33.794000,116.0,183.0,-385.0,-936.0,149.0,-304.0,495.0,-279.0,496.0
19:30:33.798000,119.0,181.0,-396.0,-919.0,160.0,-310.0,495.0,-279.0,496.0
19:30:33.803000,136.0,176.0,-384.0,-903.0,134.0,-315.0,490.0,-292.0,496.0
19:30:33.808000,158.0,167.0,-377.0,-902.0,115.0,-310.0,490.0,-292.0,496.0
19:30:33.812000,158.0,163.0,-380.0,-902.0,115.0,-310.0,501.0,-285.0,493.0
19:30:33.817000,170.0,159.0,-381.0,-928.0,151.0,-309.0,501.0,-285.0,493.0
19:30:33.821000,164.0,163.0,-368.0,-951.0,201.0,-320.0,501.0,-285.0,493.0
19:30:33.827000,172.0,154.0,-387.0,-951.0,201.0,-320.0,487.0,-273.0,493.0
19:30:33.831000,186.0,154.0,-424.0,-945.0,219.0,-332.0,487.0,-273.0,493.0
19:30:33.836000,203.0,142.0,-424.0,-916.0,218.0,-335.0,493.0,-271.0,495.0
19:30:33.841000,198.0,133.0,-429.0,-899.0,226.0,-330.0,493.0,-271.0,495.0
19:30:33.845000,191.0,125.0,-469.0,-915.0,244.0,-330.0,493.0,-271.0,495.0
19:30:33.850000,194.0,113.0,-489.0,-938.0,247.0,-333.0,480.0,-277.0,499.0
19:30:33.855000,184.0,107.0,-476.0,-944.0,263.0,-330.0,480.0,-277.0,499.0
19:30:33.859000,184.0,107.0,-476.0,-953.0,306.0,-331.0,475.0,-265.0,501.0
19:30:33.864000,170.0,109.0,-445.0,-968.0,334.0,-331.0,475.0,-265.0,501.0
19:30:33.868000,149.0,107.0,-433.0,-981.0,350.0,-325.0,478.0,-259.0,505.0
19:30:33.874000,124.0,112.0,-443.0,-987.0,350.0,-325.0,478.0,-259.0,505.0
19:30:33.878000,107.0,114.0,-466.0,-989.0,320.0,-321.0,478.0,-259.0,505.0
19:30:33.883000,93.0,113.0,-453.0,-990.0,282.0,-314.0,483.0,-262.0,493.0
19:30:33.888000,81.0,109.0,-409.0,-997.0,256.0,-312.0,483.0,-262.0,493.0
19:30:33.892000,63.0,119.0,-386.0,-1013.0,274.0,-314.0,477.0,-262.0,492.0
19:30:33.897000,70.0,121.0,-421.0,-1011.0,275.0,-311.0,477.0,-262.0,492.0
19:30:33.901000,65.0,128.0,-441.0,-988.0,241.0,-309.0,477.0,-262.0,492.0
19:30:33.906000,73.0,130.0,-443.0,-976.0,229.0,-316.0,477.0,-255.0,496.0
19:30:33.911000,93.0,133.0,-464.0,-976.0,231.0,-325.0,477.0,-255.0,496.0
19:30:33.915000,109.0,144.0,-494.0,-990.0,248.0,-333.0,478.0,-258.0,498.0
19:30:33.921000,128.0,156.0,-527.0,-990.0,268.0,-341.0,478.0,-258.0,498.0
19:30:33.925000,140.0,170.0,-552.0,-1012.0,268.0,-341.0,478.0,-258.0,498.0
19:30:33.930000,169.0,177.0,-582.0,-1025.0,276.0,-354.0,456.0,-252.0,505.0
19:30:33.935000,212.0,165.0,-606.0,-1021.0,273.0,-369.0,456.0,-252.0,505.0
19:30:33.939000,249.0,147.0,-589.0,-1007.0,275.0,-385.0,463.0,-255.0,505.0
19:30:33.944000,245.0,140.0,-576.0,-1009.0,291.0,-386.0,463.0,-255.0,505.0
19:30:33.948000,254.0,128.0,-583.0,-1023.0,334.0,-387.0,463.0,-255.0,505.0
19:30:33.953000,256.0,117.0,-604.0,-1025.0,394.0,-404.0,472.0,-241.0,504.0
19:30:33.958000,254.0,114.0,-607.0,-995.0,425.0,-428.0,472.0,-241.0,504.0
19:30:33.963000,250.0,102.0,-571.0,-969.0,425.0,-434.0,454.0,-241.0,513.0
19:30:33.968000,259.0,91.0,-529.0,-974.0,429.0,-432.0,454.0,-241.0,513.0
19:30:33.972000,259.0,91.0,-529.0,-995.0,479.0,-444.0,454.0,-241.0,513.0
19:30:33.977000,265.0,73.0,-522.0,-1016.0,523.0,-445.0,462.0,-235.0,496.0
19:30:33.982000,256.0,60.0,-514.0,-1020.0,524.0,-444.0,462.0,-235.0,496.0
19:30:33.986000,260.0,42.0,-510.0,-1023.0,532.0,-447.0,459.0,-235.0,496.0
19:30:33.991000,263.0,23.0,-511.0,-1017.0,554.0,-441.0,459.0,-235.0,496.0
19:30:33.995000,250.0,18.0,-516.0,-998.0,582.0,-439.0,459.0,-235.0,496.0
19:30:34.000000,246.0,14.0,-529.0,-978.0,600.0,-435.0,448.0,-238.0,510.0
19:30:34.005000,238.0,-3.0,-555.0,-959.0,601.0,-423.0,448.0,-238.0,510.0
19:30:34.010000,247.0,-28.0,-576.0,-934.0,597.0,-425.0,463.0,-228.0,507.0
19:30:34.015000,266.0,-53.0,-571.0,-924.0,575.0,-423.0,463.0,-228.0,507.0
19:30:34.019000,249.0,-61.0,-545.0,-943.0,594.0,-414.0,463.0,-228.0,507.0
19:30:34.024000,247.0,-74.0,-529.0,-961.0,633.0,-416.0,450.0,-228.0,499.0
19:30:34.029000,253.0,-86.0,-528.0,-970.0,661.0,-422.0,450.0,-228.0,499.0
19:30:34.033000,281.0,-109.0,-525.0,-970.0,661.0,-422.0,451.0,-223.0,486.0
19:30:34.038000,293.0,-128.0,-488.0,-982.0,674.0,-408.0,451.0,-223.0,486.0
19:30:34.042000,287.0,-119.0,-436.0,-1011.0,660.0,-394.0,451.0,-223.0,486.0
19:30:34.047000,263.0,-115.0,-410.0,-1087.0,672.0,-383.0,454.0,-217.0,502.0
19:30:34.052000,233.0,-98.0,-392.0,-1169.0,696.0,-372.0,454.0,-217.0,502.0
19:30:34.057000,206.0,-82.0,-387.0,-1199.0,725.0,-371.0,448.0,-211.0,499.0
19:30:34.062000,182.0,-66.0,-346.0,-1180.0,737.0,-378.0,448.0,-211.0,499.0
19:30:34.066000,182.0,-66.0,-346.0,-1149.0,720.0,-388.0,448.0,-211.0,499.0
19:30:34.071000,165.0,-32.0,-268.0,-1149.0,705.0,-390.0,454.0,-205.0,498.0
19:30:34.076000,179.0,-28.0,-282.0,-1199.0,713.0,-381.0,454.0,-205.0,498.0
19:30:34.080000,179.0,-28.0,-282.0,-1223.0,716.0,-372.0,459.0,-214.0,492.0
19:30:34.085000,186.0,-23.0,-260.0,-1180.0,677.0,-357.0,459.0,-214.0,492.0
19:30:34.089000,191.0,-23.0,-229.0,-1105.0,624.0,-336.0,459.0,-214.0,492.0
19:30:34.094000,219.0,-51.0,-181.0,-1026.0,589.0,-323.0,448.0,-207.0,516.0
19:30:34.099000,233.0,-72.0,-138.0,-991.0,590.0,-311.0,448.0,-207.0,516.0
19:30:34.104000,256.0,-96.0,-124.0,-978.0,610.0,-285.0,448.0,-195.0,489.0
19:30:34.109000,252.0,-132.0,-126.0,-921.0,615.0,-267.0,448.0,-195.0,489.0
19:30:34.113000,256.0,-160.0,-109.0,-878.0,622.0,-257.0,448.0,-195.0,489.0
19:30:34.118000,247.0,-175.0,-104.0,-864.0,620.0,-232.0,457.0,-201.0,483.0
19:30:34.123000,217.0,-184.0,-58.0,-818.0,601.0,-228.0,457.0,-201.0,483.0
19:30:34.127000,197.0,-180.0,0.0,-810.0,596.0,-217.0,451.0,-195.0,496.0
19:30:34.132000,151.0,-163.0,38.0,-850.0,575.0,-194.0,451.0,-195.0,496.0
19:30:34.139000,95.0,-148.0,98.0,-873.0,526.0,-199.0,453.0,-198.0,490.0
19:30:34.141000,95.0,-148.0,98.0,-873.0,526.0,-199.0,453.0,-198.0,490.0
19:30:34.146000,67.0,-128.0,100.0,-890.0,473.0,-204.0,453.0,-198.0,490.0
19:30:34.151000,39.0,-109.0,97.0,-913.0,430.0,-201.0,447.0,-199.0,489.0
19:30:34.156000,16.0,-88.0,98.0,-910.0,379.0,-202.0,447.0,-199.0,489.0
19:30:34.160000,9.0,-82.0,89.0,-887.0,330.0,-210.0,459.0,-198.0,490.0
19:30:34.165000,9.0,-79.0,74.0,-852.0,310.0,-223.0,459.0,-198.0,490.0
19:30:34.169000,9.0,-76.0,52.0,-810.0,323.0,-237.0,459.0,-198.0,490.0
19:30:34.174000,13.0,-81.0,30.0,-770.0,351.0,-244.0,456.0,-201.0,481.0
19:30:34.179000,19.0,-91.0,11.0,-725.0,371.0,-246.0,456.0,-201.0,481.0
19:30:34.183000,19.0,-91.0,11.0,-672.0,386.0,-243.0,463.0,-198.0,489.0
19:30:34.188000,25.0,-101.0,-7.0,-620.0,390.0,-237.0,463.0,-198.0,489.0
19:30:34.193000,35.0,-112.0,-7.0,-574.0,378.0,-233.0,463.0,-198.0,489.0
19:30:34.198000,49.0,-124.0,7.0,-537.0,355.0,-234.0,468.0,-199.0,480.0
19:30:34.203000,67.0,-137.0,25.0,-522.0,334.0,-232.0,468.0,-199.0,480.0
19:30:34.207000,85.0,-151.0,41.0,-534.0,328.0,-228.0,469.0,-198.0,493.0
19:30:34.212000,96.0,-160.0,45.0,-563.0,319.0,-221.0,469.0,-198.0,493.0
19:30:34.216000,100.0,-162.0,58.0,-589.0,287.0,-210.0,469.0,-198.0,493.0
19:30:34.221000,103.0,-163.0,87.0,-617.0,251.0,-195.0,466.0,-184.0,489.0
19:30:34.225000,105.0,-162.0,107.0,-638.0,226.0,-180.0,466.0,-184.0,489.0
19:30:34.231000,111.0,-165.0,114.0,-633.0,195.0,-167.0,457.0,-193.0,484.0
19:30:34.235000,116.0,-172.0,137.0,-619.0,169.0,-154.0,457.0,-193.0,484.0
19:30:34.240000,121.0,-182.0,166.0,-615.0,178.0,-145.0,457.0,-193.0,484.0
19:30:34.245000,121.0,-189.0,196.0,-616.0,208.0,-139.0,469.0,-198.0,489.0
19:30:34.250000,112.0,-188.0,223.0,-616.0,243.0,-132.0,469.0,-198.0,489.0
19:30:34.254000,93.0,-179.0,239.0,-625.0,243.0,-132.0,481.0,-190.0,481.0
19:30:34.259000,65.0,-166.0,240.0,-639.0,269.0,-123.0,481.0,-190.0,481.0
19:30:34.263000,32.0,-152.0,228.0,-655.0,284.0,-114.0,481.0,-190.0,481.0
19:30:34.268000,-1.0,-137.0,207.0,-672.0,288.0,-108.0,484.0,-181.0,486.0
19:30:34.273000,-35.0,-119.0,175.0,-689.0,283.0,-108.0,484.0,-181.0,486.0
19:30:34.278000,-67.0,-98.0,138.0,-706.0,271.0,-111.0,486.0,-195.0,483.0
19:30:34.282000,-92.0,-78.0,95.0,-727.0,256.0,-117.0,486.0,-195.0,483.0
19:30:34.287000,-92.0,-78.0,95.0,-749.0,242.0,-126.0,486.0,-195.0,483.0
19:30:34.292000,-133.0,-32.0,2.0,-768.0,229.0,-134.0,478.0,-195.0,489.0
19:30:34.297000,-149.0,-9.0,-35.0,-774.0,212.0,-141.0,478.0,-195.0,489.0
19:30:34.301000,-149.0,-9.0,-35.0,-763.0,194.0,-147.0,483.0,-199.0,478.0
19:30:34.306000,-155.0,8.0,-68.0,-741.0,179.0,-151.0,483.0,-199.0,478.0
19:30:34.310000,-151.0,24.0,-101.0,-709.0,165.0,-152.0,483.0,-199.0,478.0
19:30:34.315000,-142.0,35.0,-121.0,-669.0,153.0,-148.0,480.0,-198.0,478.0
19:30:34.320000,-126.0,38.0,-124.0,-630.0,148.0,-138.0,480.0,-198.0,478.0
19:30:34.325000,-105.0,33.0,-121.0,-595.0,140.0,-129.0,474.0,-186.0,501.0
19:30:34.329000,-83.0,25.0,-108.0,-562.0,127.0,-121.0,474.0,-186.0,501.0
19:30:34.334000,-61.0,14.0,-78.0,-533.0,117.0,-112.0,474.0,-186.0,501.0
19:30:34.339000,-39.0,0.0,-37.0,-508.0,113.0,-104.0,475.0,-198.0,486.0
19:30:34.344000,-21.0,-16.0,8.0,-499.0,116.0,-100.0,475.0,-198.0,486.0
19:30:34.348000,-8.0,-30.0,49.0,-499.0,116.0,-100.0,474.0,-198.0,481.0
19:30:34.353000,0.0,-40.0,85.0,-496.0,145.0,-93.0,474.0,-198.0,481.0
19:30:34.357000,3.0,-48.0,117.0,-502.0,156.0,-90.0,474.0,-198.0,481.0
19:30:34.362000,4.0,-53.0,140.0,-502.0,156.0,-90.0,478.0,-193.0,487.0
19:30:34.367000,4.0,-55.0,151.0,-515.0,166.0,-92.0,478.0,-193.0,487.0
19:30:34.372000,2.0,-52.0,154.0,-515.0,166.0,-92.0,475.0,-195.0,489.0
19:30:34.376000,0.0,-46.0,149.0,-535.0,167.0,-97.0,475.0,-195.0,489.0
19:30:34.381000,-9.0,-35.0,135.0,-559.0,173.0,-103.0,475.0,-195.0,489.0
19:30:34.386000,-23.0,-18.0,123.0,-575.0,181.0,-110.0,487.0,-195.0,483.0
19:30:34.391000,-39.0,-2.0,112.0,-581.0,184.0,-116.0,487.0,-195.0,483.0
19:30:34.395000,-55.0,14.0,101.0,-577.0,184.0,-122.0,481.0,-199.0,484.0
19:30:34.400000,-66.0,29.0,91.0,-562.0,179.0,-125.0,481.0,-199.0,484.0
19:30:34.404000,-66.0,29.0,91.0,-547.0,175.0,-128.0,481.0,-199.0,484.0
19:30:34.409000,-72.0,41.0,79.0,-531.0,172.0,-131.0,489.0,-192.0,483.0
19:30:34.414000,-72.0,50.0,66.0,-514.0,162.0,-133.0,489.0,-192.0,483.0
19:30:34.419000,-67.0,54.0,63.0,-500.0,150.0,-134.0,490.0,-198.0,481.0
19:30:34.423000,-56.0,54.0,66.0,-491.0,144.0,-136.0,490.0,-198.0,481.0
19:30:34.428000,-44.0,49.0,73.0,-484.0,142.0,-136.0,490.0,-198.0,481.0
19:30:34.433000,-30.0,44.0,88.0,-479.0,147.0,-134.0,484.0,-199.0,486.0
19:30:34.438000,-19.0,37.0,109.0,-478.0,161.0,-130.0,484.0,-199.0,486.0
19:30:34.442000,-11.0,31.0,130.0,-474.0,171.0,-122.0,481.0,-193.0,484.0
19:30:34.447000,-3.0,24.0,151.0,-460.0,158.0,-113.0,481.0,-193.0,484.0
19:30:34.451000,9.0,15.0,171.0,-444.0,131.0,-106.0,481.0,-193.0,484.0
19:30:34.456000,30.0,4.0,185.0,-438.0,115.0,-103.0,481.0,-210.0,486.0
19:30:34.461000,53.0,-7.0,185.0,-444.0,119.0,-100.0,481.0,-210.0,486.0
19:30:34.466000,73.0,-17.0,177.0,-444.0,119.0,-100.0,490.0,-201.0,498.0
19:30:34.470000,84.0,-23.0,167.0,-455.0,143.0,-98.0,490.0,-201.0,498.0
19:30:34.475000,86.0,-26.0,159.0,-469.0,169.0,-96.0,490.0,-201.0,498.0
19:30:34.480000,82.0,-30.0,158.0,-481.0,186.0,-96.0,481.0,-207.0,474.0
19:30:34.485000,77.0,-34.0,155.0,-488.0,202.0,-98.0,481.0,-207.0,474.0
19:30:34.489000,68.0,-39.0,146.0,-501.0,229.0,-100.0,490.0,-199.0,484.0
19:30:34.494000,54.0,-44.0,141.0,-512.0,256.0,-99.0,490.0,-199.0,484.0
19:30:34.498000,39.0,-51.0,153.0,-515.0,265.0,-93.0,490.0,-199.0,484.0
19:30:34.503000,28.0,-58.0,174.0,-510.0,252.0,-85.0,481.0,-199.0,483.0
19:30:34.508000,22.0,-67.0,193.0,-508.0,230.0,-80.0,481.0,-199.0,483.0
19:30:34.513000,17.0,-74.0,205.0,-518.0,214.0,-76.0,484.0,-208.0,487.0
19:30:34.517000,17.0,-74.0,205.0,-536.0,212.0,-71.0,484.0,-208.0,487.0
19:30:34.522000,13.0,-82.0,212.0,-563.0,219.0,-66.0,484.0,-208.0,487.0
19:30:34.527000,2.0,-87.0,221.0,-590.0,224.0,-59.0,498.0,-207.0,478.0
19:30:34.532000,-12.0,-88.0,230.0,-607.0,218.0,-54.0,498.0,-207.0,478.0
19:30:34.536000,-28.0,-88.0,240.0,-612.0,198.0,-51.0,493.0,-204.0,481.0
19:30:34.541000,-40.0,-86.0,249.0,-611.0,176.0,-54.0,493.0,-204.0,481.0
19:30:34.545000,-47.0,-83.0,252.0,-615.0,172.0,-61.0,493.0,-204.0,481.0
19:30:34.550000,-53.0,-76.0,239.0,-623.0,190.0,-71.0,495.0,-201.0,486.0
19:30:34.555000,-61.0,-67.0,214.0,-625.0,211.0,-80.0,495.0,-201.0,486.0
19:30:34.560000,-73.0,-58.0,191.0,-615.0,213.0,-87.0,489.0,-210.0,489.0
19:30:34.564000,-84.0,-45.0,179.0,-595.0,189.0,-98.0,489.0,-210.0,489.0
19:30:34.569000,-92.0,-34.0,175.0,-573.0,155.0,-110.0,489.0,-210.0,489.0
19:30:34.574000,-92.0,-26.0,172.0,-556.0,126.0,-120.0,501.0,-211.0,483.0
19:30:34.579000,-84.0,-18.0,171.0,-556.0,115.0,-127.0,501.0,-211.0,483.0
19:30:34.583000,-71.0,-10.0,163.0,-550.0,115.0,-127.0,495.0,-216.0,490.0
19:30:34.588000,-57.0,-2.0,150.0,-555.0,118.0,-131.0,495.0,-216.0,490.0
19:30:34.592000,-39.0,4.0,142.0,-568.0,117.0,-133.0,495.0,-216.0,490.0
19:30:34.597000,-12.0,4.0,141.0,-584.0,101.0,-139.0,496.0,-219.0,481.0
19:30:34.602000,20.0,0.0,141.0,-608.0,83.0,-148.0,496.0,-219.0,481.0
19:30:34.607000,47.0,-3.0,137.0,-648.0,90.0,-153.0,496.0,-208.0,481.0
19:30:34.611000,58.0,-9.0,140.0,-686.0,119.0,-152.0,496.0,-208.0,481.0
19:30:34.616000,58.0,-9.0,140.0,-699.0,144.0,-150.0,496.0,-208.0,481.0
19:30:34.621000,44.0,-31.0,172.0,-689.0,167.0,-148.0,492.0,-216.0,486.0
19:30:34.626000,18.0,-40.0,173.0,-673.0,207.0,-145.0,492.0,-216.0,486.0
19:30:34.630000,18.0,-40.0,173.0,-659.0,255.0,-144.0,495.0,-216.0,486.0
19:30:34.635000,-18.0,-48.0,167.0,-640.0,287.0,-147.0,495.0,-216.0,486.0
19:30:34.639000,-56.0,-55.0,163.0,-632.0,304.0,-156.0,495.0,-216.0,486.0
19:30:34.644000,-91.0,-60.0,157.0,-643.0,312.0,-169.0,501.0,-211.0,490.0
19:30:34.649000,-118.0,-63.0,149.0,-667.0,314.0,-185.0,501.0,-211.0,490.0
19:30:34.654000,-135.0,-67.0,147.0,-694.0,313.0,-202.0,499.0,-222.0,475.0
19:30:34.658000,-143.0,-70.0,151.0,-715.0,315.0,-219.0,499.0,-222.0,475.0
19:30:34.663000,-145.0,-72.0,167.0,-728.0,320.0,-232.0,499.0,-222.0,475.0
19:30:34.668000,-146.0,-74.0,193.0,-730.0,325.0,-242.0,492.0,-226.0,478.0
19:30:34.673000,-146.0,-74.0,231.0,-715.0,330.0,-248.0,492.0,-226.0,478.0
19:30:34.677000,-148.0,-76.0,284.0,-715.0,330.0,-248.0,493.0,-217.0,483.0
19:30:34.682000,-150.0,-77.0,347.0,-664.0,338.0,-250.0,493.0,-217.0,483.0
19:30:34.686000,-150.0,-82.0,412.0,-651.0,342.0,-243.0,493.0,-217.0,483.0
19:30:34.691000,-150.0,-91.0,472.0,-650.0,350.0,-229.0,486.0,-217.0,481.0
19:30:34.696000,-152.0,-102.0,525.0,-650.0,350.0,-229.0,486.0,-217.0,481.0
19:30:34.701000,-154.0,-116.0,571.0,-657.0,356.0,-213.0,487.0,-229.0,492.0
19:30:34.705000,-155.0,-130.0,614.0,-669.0,360.0,-199.0,487.0,-229.0,492.0
19:30:34.710000,-159.0,-144.0,643.0,-689.0,379.0,-188.0,487.0,-229.0,492.0
19:30:34.715000,-172.0,-153.0,658.0,-716.0,420.0,-181.0,502.0,-235.0,478.0
19:30:34.720000,-196.0,-154.0,663.0,-744.0,477.0,-180.0,502.0,-235.0,478.0
19:30:34.724000,-228.0,-147.0,662.0,-774.0,545.0,-188.0,505.0,-234.0,484.0
19:30:34.729000,-267.0,-132.0,661.0,-804.0,615.0,-202.0,505.0,-234.0,484.0
19:30:34.733000,-267.0,-132.0,661.0,-830.0,680.0,-230.0,505.0,-234.0,484.0
19:30:34.738000,-304.0,-110.0,662.0,-863.0,749.0,-270.0,501.0,-234.0,490.0
19:30:34.743000,-331.0,-81.0,659.0,-911.0,837.0,-322.0,501.0,-234.0,490.0
19:30:34.748000,-350.0,-48.0,642.0,-979.0,939.0,-377.0,510.0,-238.0,481.0
19:30:34.752000,-358.0,-11.0,611.0,-1063.0,1041.0,-425.0,510.0,-238.0,481.0
19:30:34.757000,-357.0,25.0,576.0,-1134.0,1121.0,-461.0,510.0,-238.0,481.0
19:30:34.762000,-348.0,53.0,555.0,-1164.0,1166.0,-480.0,502.0,-253.0,487.0
19:30:34.767000,-331.0,73.0,562.0,-1142.0,1175.0,-477.0,502.0,-253.0,487.0
19:30:34.771000,-310.0,83.0,598.0,-1064.0,1144.0,-447.0,508.0,-258.0,480.0
19:30:34.776000,-296.0,86.0,660.0,-925.0,1051.0,-410.0,508.0,-258.0,480.0
19:30:34.780000,-280.0,79.0,753.0,-755.0,910.0,-393.0,508.0,-258.0,480.0
19:30:34.785000,-256.0,60.0,858.0,-624.0,802.0,-397.0,513.0,-258.0,474.0
19:30:34.790000,-232.0,42.0,920.0,-583.0,796.0,-398.0,513.0,-258.0,474.0
19:30:34.795000,-216.0,26.0,902.0,-583.0,796.0,-398.0,507.0,-264.0,484.0
19:30:34.799000,-211.0,12.0,828.0,-617.0,844.0,-386.0,507.0,-264.0,484.0
19:30:34.804000,-198.0,-1.0,758.0,-658.0,843.0,-380.0,507.0,-264.0,484.0
19:30:34.809000,-165.0,-7.0,701.0,-682.0,769.0,-386.0,516.0,-265.0,492.0
19:30:34.814000,-120.0,-16.0,628.0,-722.0,683.0,-385.0,516.0,-265.0,492.0
19:30:34.818000,-61.0,-34.0,564.0,-772.0,595.0,-374.0,522.0,-273.0,490.0
19:30:34.823000,14.0,-60.0,509.0,-807.0,508.0,-359.0,522.0,-273.0,490.0
19:30:34.827000,87.0,-91.0,458.0,-824.0,484.0,-338.0,522.0,-273.0,490.0
19:30:34.832000,138.0,-116.0,406.0,-828.0,548.0,-312.0,522.0,-270.0,498.0
19:30:34.837000,163.0,-126.0,336.0,-864.0,676.0,-293.0,522.0,-270.0,498.0
19:30:34.842000,164.0,-141.0,262.0,-941.0,812.0,-272.0,514.0,-289.0,489.0
19:30:34.846000,164.0,-141.0,262.0,-986.0,897.0,-247.0,514.0,-289.0,489.0
19:30:34.851000,138.0,-140.0,247.0,-996.0,950.0,-234.0,514.0,-289.0,489.0
19:30:34.856000,107.0,-151.0,271.0,-983.0,1017.0,-249.0,519.0,-282.0,483.0
19:30:34.861000,55.0,-162.0,308.0,-904.0,1006.0,-244.0,519.0,-282.0,483.0
19:30:34.865000,14.0,-188.0,451.0,-1016.0,870.0,-264.0,525.0,-289.0,481.0
19:30:34.870000,-42.0,-182.0,696.0,-1692.0,958.0,-267.0,525.0,-289.0,481.0
19:30:34.874000,-86.0,-256.0,315.0,-1900.0,994.0,-226.0,525.0,-289.0,481.0
19:30:34.879000,-193.0,-259.0,236.0,-749.0,844.0,-229.0,520.0,-289.0,474.0
19:30:34.884000,-280.0,-203.0,625.0,124.0,909.0,-243.0,520.0,-289.0,474.0
19:30:34.889000,-252.0,-203.0,667.0,-285.0,1031.0,-247.0,535.0,-283.0,487.0
19:30:34.893000,-235.0,-219.0,265.0,-984.0,1009.0,-223.0,535.0,-283.0,487.0
19:30:34.898000,-267.0,-204.0,-183.0,-1344.0,718.0,-194.0,535.0,-283.0,487.0
19:30:34.903000,-268.0,-206.0,-212.0,-1127.0,300.0,-118.0,514.0,-300.0,480.0
19:30:34.908000,-387.0,-214.0,251.0,-1127.0,189.0,-190.0,514.0,-300.0,480.0
19:30:34.912000,-341.0,-129.0,626.0,-895.0,414.0,-294.0,522.0,-294.0,478.0
19:30:34.917000,-271.0,-100.0,505.0,-895.0,414.0,-294.0,522.0,-294.0,478.0
19:30:34.921000,-214.0,-41.0,325.0,-1103.0,499.0,-290.0,522.0,-294.0,478.0
19:30:34.926000,-168.0,-16.0,173.0,-1153.0,330.0,-300.0,519.0,-303.0,495.0
19:30:34.931000,-156.0,0.0,-11.0,-1259.0,151.0,-274.0,519.0,-303.0,495.0
19:30:34.936000,-118.0,18.0,-56.0,-1279.0,66.0,-309.0,535.0,-295.0,480.0
19:30:34.940000,-109.0,23.0,156.0,-1289.0,-6.0,-348.0,535.0,-295.0,480.0
19:30:34.945000,-109.0,23.0,156.0,-1309.0,-78.0,-332.0,535.0,-295.0,480.0
19:30:34.950000,-105.0,85.0,344.0,-1167.0,-39.0,-319.0,525.0,-297.0,483.0
19:30:34.954000,-105.0,85.0,344.0,-1180.0,42.0,-264.0,525.0,-297.0,483.0
19:30:34.959000,-118.0,115.0,244.0,-1215.0,113.0,-218.0,535.0,-306.0,489.0
19:30:34.964000,-58.0,64.0,291.0,-913.0,108.0,-224.0,535.0,-306.0,489.0
19:30:34.969000,-2.0,17.0,373.0,-691.0,-15.0,-235.0,531.0,-304.0,489.0
19:30:34.973000,25.0,-7.0,370.0,-710.0,-53.0,-232.0,531.0,-304.0,489.0
19:30:34.977000,77.0,-46.0,284.0,-889.0,7.0,-211.0,531.0,-304.0,489.0
19:30:34.983000,98.0,-77.0,204.0,-1042.0,88.0,-215.0,519.0,-313.0,480.0
19:30:34.987000,107.0,-88.0,122.0,-1095.0,103.0,-208.0,519.0,-313.0,480.0
19:30:34.992000,79.0,-92.0,140.0,-1159.0,42.0,-177.0,531.0,-310.0,478.0
19:30:34.997000,63.0,-110.0,210.0,-1196.0,6.0,-175.0,531.0,-310.0,478.0
19:30:35.001000,64.0,-121.0,302.0,-1205.0,20.0,-179.0,531.0,-310.0,478.0
19:30:35.006000,65.0,-133.0,323.0,-1250.0,93.0,-172.0,525.0,-304.0,484.0
19:30:35.011000,51.0,-130.0,243.0,-1270.0,139.0,-174.0,525.0,-304.0,484.0
19:30:35.016000,32.0,-119.0,172.0,-1270.0,139.0,-174.0,526.0,-313.0,478.0
19:30:35.020000,12.0,-105.0,129.0,-1276.0,128.0,-175.0,526.0,-313.0,478.0
19:30:35.024000,-1.0,-91.0,104.0,-1297.0,112.0,-174.0,526.0,-313.0,478.0
19:30:35.030000,-14.0,-70.0,88.0,-1297.0,101.0,-180.0,540.0,-319.0,475.0
19:30:35.034000,-24.0,-47.0,58.0,-1274.0,85.0,-178.0,540.0,-319.0,475.0
19:30:35.039000,-46.0,-27.0,38.0,-1261.0,58.0,-163.0,534.0,-310.0,477.0
19:30:35.044000,-55.0,-15.0,43.0,-1235.0,4.0,-151.0,534.0,-310.0,477.0
19:30:35.051000,-46.0,-7.0,28.0,-1190.0,-58.0,-144.0,535.0,-318.0,477.0
19:30:35.053000,-33.0,0.0,-8.0,-1190.0,-58.0,-144.0,535.0,-318.0,477.0
19:30:35.057000,-33.0,0.0,-8.0,-1176.0,-16.0,-145.0,535.0,-318.0,477.0
19:30:35.063000,-38.0,33.0,-41.0,-1150.0,14.0,-150.0,532.0,-319.0,474.0
19:30:35.067000,-38.0,33.0,-41.0,-1143.0,-7.0,-151.0,532.0,-319.0,474.0
19:30:35.072000,-47.0,51.0,-43.0,-1153.0,-45.0,-161.0,528.0,-312.0,474.0
19:30:35.077000,-32.0,55.0,-49.0,-1160.0,-61.0,-176.0,528.0,-312.0,474.0
19:30:35.081000,-27.0,58.0,-59.0,-1169.0,-35.0,-195.0,528.0,-312.0,474.0
19:30:35.086000,-30.0,66.0,-79.0,-1197.0,33.0,-222.0,531.0,-330.0,475.0
19:30:35.091000,-23.0,67.0,-118.0,-1220.0,84.0,-241.0,531.0,-330.0,475.0
19:30:35.096000,-23.0,71.0,-130.0,-1213.0,103.0,-251.0,529.0,-319.0,487.0
19:30:35.100000,-32.0,77.0,-109.0,-1194.0,105.0,-259.0,529.0,-319.0,487.0
19:30:35.104000,-41.0,80.0,-71.0,-1183.0,96.0,-265.0,529.0,-319.0,487.0
19:30:35.110000,-54.0,86.0,-50.0,-1173.0,80.0,-270.0,529.0,-321.0,490.0
19:30:35.114000,-57.0,87.0,-41.0,-1149.0,54.0,-273.0,529.0,-321.0,490.0
19:30:35.119000,-58.0,85.0,-30.0,-1149.0,54.0,-273.0,522.0,-316.0,474.0
19:30:35.124000,-59.0,84.0,-15.0,-1084.0,23.0,-274.0,522.0,-316.0,474.0
19:30:35.128000,-58.0,84.0,-2.0,-1084.0,23.0,-274.0,522.0,-316.0,474.0
19:30:35.133000,-60.0,86.0,-9.0,-1089.0,14.0,-274.0,525.0,-309.0,474.0
19:30:35.138000,-63.0,93.0,0.0,-1112.0,11.0,-272.0,525.0,-309.0,474.0
19:30:35.143000,-65.0,99.0,13.0,-1112.0,11.0,-272.0,532.0,-319.0,478.0
19:30:35.147000,-67.0,103.0,23.0,-1103.0,-1.0,-267.0,532.0,-319.0,478.0
19:30:35.151000,-60.0,106.0,18.0,-1093.0,-20.0,-265.0,532.0,-319.0,478.0
19:30:35.157000,-59.0,118.0,6.0,-1085.0,-20.0,-266.0,525.0,-318.0,478.0
19:30:35.161000,-54.0,129.0,11.0,-1069.0,3.0,-260.0,525.0,-318.0,478.0
19:30:35.166000,-63.0,140.0,0.0,-1067.0,20.0,-255.0,526.0,-315.0,492.0
19:30:35.171000,-76.0,160.0,-56.0,-1065.0,22.0,-251.0,526.0,-315.0,492.0
19:30:35.175000,-76.0,160.0,-56.0,-1057.0,19.0,-245.0,526.0,-315.0,492.0
19:30:35.180000,-79.0,182.0,-116.0,-1042.0,2.0,-247.0,526.0,-318.0,475.0
19:30:35.185000,-67.0,186.0,-112.0,-1017.0,-18.0,-248.0,526.0,-318.0,475.0
19:30:35.190000,-64.0,202.0,-91.0,-1026.0,-23.0,-252.0,520.0,-316.0,498.0
19:30:35.194000,-51.0,206.0,-88.0,-1047.0,-42.0,-265.0,520.0,-316.0,498.0
19:30:35.198000,-39.0,209.0,-78.0,-1040.0,-63.0,-276.0,520.0,-316.0,498.0
19:30:35.204000,-20.0,208.0,-60.0,-1025.0,-52.0,-288.0,522.0,-321.0,487.0
19:30:35.208000,3.0,203.0,-40.0,-1010.0,-15.0,-292.0,522.0,-321.0,487.0
19:30:35.213000,8.0,206.0,-37.0,-990.0,19.0,-289.0,522.0,-319.0,481.0
19:30:35.218000,9.0,205.0,-27.0,-940.0,38.0,-287.0,522.0,-319.0,481.0
19:30:35.222000,21.0,184.0,24.0,-903.0,73.0,-289.0,522.0,-319.0,481.0
19:30:35.227000,27.0,176.0,32.0,-904.0,101.0,-290.0,520.0,-316.0,495.0
19:30:35.232000,21.0,173.0,14.0,-894.0,101.0,-284.0,520.0,-316.0,495.0
19:30:35.236000,15.0,177.0,-3.0,-894.0,101.0,-284.0,508.0,-318.0,489.0
19:30:35.241000,23.0,165.0,-23.0,-915.0,112.0,-285.0,508.0,-318.0,489.0
19:30:35.245000,19.0,144.0,12.0,-931.0,76.0,-279.0,508.0,-318.0,489.0
19:30:35.251000,9.0,133.0,41.0,-918.0,-15.0,-272.0,511.0,-321.0,489.0
19:30:35.255000,11.0,128.0,9.0,-925.0,-70.0,-269.0,511.0,-321.0,489.0
19:30:35.260000,23.0,113.0,-61.0,-918.0,-52.0,-260.0,513.0,-321.0,492.0
19:30:35.265000,44.0,87.0,-115.0,-897.0,4.0,-256.0,513.0,-321.0,492.0
19:30:35.269000,83.0,74.0,-90.0,-858.0,37.0,-243.0,513.0,-321.0,492.0
19:30:35.274000,108.0,51.0,-57.0,-849.0,-3.0,-222.0,502.0,-316.0,498.0
19:30:35.279000,123.0,36.0,-92.0,-928.0,-97.0,-219.0,502.0,-316.0,498.0
19:30:35.283000,158.0,16.0,-121.0,-1018.0,-151.0,-237.0,513.0,-319.0,486.0
19:30:35.288000,158.0,16.0,-121.0,-1049.0,-115.0,-233.0,513.0,-319.0,486.0
19:30:35.292000,158.0,5.0,-139.0,-1038.0,-5.0,-218.0,513.0,-319.0,486.0
19:30:35.298000,157.0,-3.0,-196.0,-974.0,81.0,-217.0,516.0,-312.0,493.0
19:30:35.302000,175.0,-19.0,-183.0,-914.0,107.0,-208.0,516.0,-312.0,493.0
19:30:35.307000,185.0,-28.0,-163.0,-931.0,104.0,-204.0,520.0,-304.0,489.0
19:30:35.312000,186.0,-32.0,-177.0,-979.0,74.0,-201.0,520.0,-304.0,489.0
19:30:35.316000,198.0,-43.0,-178.0,-1023.0,46.0,-197.0,520.0,-304.0,489.0
19:30:35.321000,189.0,-48.0,-182.0,-1068.0,14.0,-200.0,508.0,-313.0,489.0
19:30:35.325000,171.0,-44.0,-210.0,-1104.0,18.0,-197.0,508.0,-313.0,489.0
19:30:35.330000,179.0,-45.0,-217.0,-1136.0,72.0,-202.0,516.0,-312.0,510.0
19:30:35.335000,167.0,-28.0,-232.0,-1167.0,146.0,-218.0,516.0,-312.0,510.0
19:30:35.339000,170.0,-14.0,-260.0,-1156.0,165.0,-227.0,516.0,-312.0,510.0
19:30:35.345000,163.0,7.0,-284.0,-1137.0,130.0,-220.0,511.0,-309.0,486.0
19:30:35.349000,147.0,22.0,-271.0,-1137.0,130.0,-220.0,511.0,-309.0,486.0
19:30:35.354000,140.0,37.0,-247.0,-1140.0,86.0,-214.0,513.0,-303.0,484.0
19:30:35.359000,147.0,49.0,-315.0,-1120.0,20.0,-214.0,513.0,-303.0,484.0
19:30:35.363000,186.0,39.0,-340.0,-1110.0,-2.0,-225.0,513.0,-303.0,484.0
19:30:35.368000,193.0,53.0,-329.0,-1112.0,35.0,-236.0,516.0,-303.0,492.0
19:30:35.373000,202.0,61.0,-322.0,-1127.0,37.0,-234.0,516.0,-303.0,492.0
19:30:35.377000,226.0,72.0,-303.0,-1181.0,63.0,-234.0,508.0,-288.0,484.0
19:30:35.382000,197.0,102.0,-335.0,-1195.0,95.0,-230.0,508.0,-288.0,484.0
19:30:35.386000,197.0,102.0,-335.0,-1146.0,68.0,-235.0,508.0,-288.0,484.0
19:30:35.392000,248.0,119.0,-500.0,-1088.0,120.0,-234.0,516.0,-309.0,492.0
19:30:35.396000,248.0,119.0,-500.0,-1046.0,163.0,-233.0,516.0,-309.0,492.0
19:30:35.401000,266.0,107.0,-475.0,-1050.0,134.0,-225.0,502.0,-285.0,489.0
19:30:35.406000,235.0,117.0,-480.0,-1110.0,146.0,-223.0,502.0,-285.0,489.0
19:30:35.410000,210.0,120.0,-473.0,-1133.0,169.0,-231.0,502.0,-285.0,489.0
19:30:35.415000,191.0,126.0,-473.0,-1125.0,210.0,-233.0,508.0,-285.0,492.0
19:30:35.420000,199.0,129.0,-557.0,-1094.0,273.0,-242.0,508.0,-285.0,492.0
19:30:35.424000,213.0,124.0,-608.0,-997.0,315.0,-230.0,493.0,-288.0,495.0
19:30:35.429000,181.0,128.0,-539.0,-980.0,351.0,-217.0,493.0,-288.0,495.0
19:30:35.433000,142.0,131.0,-493.0,-1048.0,333.0,-217.0,493.0,-288.0,495.0
19:30:35.439000,102.0,147.0,-513.0,-1098.0,272.0,-222.0,511.0,-276.0,496.0
19:30:35.443000,70.0,160.0,-528.0,-1131.0,244.0,-239.0,511.0,-276.0,496.0
19:30:35.448000,44.0,184.0,-522.0,-1131.0,244.0,-239.0,501.0,-277.0,487.0
19:30:35.453000,20.0,196.0,-536.0,-1187.0,294.0,-252.0,501.0,-277.0,487.0
19:30:35.457000,-5.0,214.0,-562.0,-1176.0,282.0,-261.0,501.0,-277.0,487.0
19:30:35.462000,-17.0,233.0,-575.0,-1176.0,282.0,-261.0,504.0,-273.0,501.0
19:30:35.467000,4.0,238.0,-559.0,-1144.0,264.0,-271.0,504.0,-273.0,501.0
19:30:35.471000,2.0,247.0,-548.0,-1099.0,237.0,-274.0,498.0,-268.0,492.0
19:30:35.476000,12.0,249.0,-557.0,-1081.0,203.0,-276.0,498.0,-268.0,492.0
19:30:35.480000,45.0,246.0,-561.0,-1082.0,181.0,-286.0,498.0,-268.0,492.0
19:30:35.486000,78.0,249.0,-546.0,-1089.0,195.0,-297.0,495.0,-264.0,492.0
19:30:35.490000,91.0,253.0,-536.0,-1097.0,217.0,-299.0,495.0,-264.0,492.0
19:30:35.495000,96.0,256.0,-546.0,-1084.0,205.0,-294.0,499.0,-270.0,493.0
19:30:35.500000,140.0,252.0,-557.0,-1068.0,176.0,-304.0,499.0,-270.0,493.0
19:30:35.507000,164.0,244.0,-557.0,-1086.0,260.0,-309.0,489.0,-262.0,493.0
19:30:35.509000,164.0,244.0,-557.0,-1086.0,260.0,-309.0,489.0,-262.0,493.0
19:30:35.513000,162.0,246.0,-568.0,-1088.0,316.0,-311.0,489.0,-262.0,493.0
19:30:35.518000,153.0,248.0,-559.0,-1085.0,307.0,-312.0,468.0,-265.0,496.0
19:30:35.523000,142.0,246.0,-536.0,-1073.0,282.0,-314.0,468.0,-265.0,496.0
19:30:35.528000,126.0,245.0,-536.0,-1051.0,302.0,-317.0,489.0,-250.0,504.0
19:30:35.533000,113.0,236.0,-546.0,-1029.0,361.0,-307.0,489.0,-250.0,504.0
19:30:35.537000,86.0,233.0,-536.0,-1016.0,389.0,-299.0,489.0,-250.0,504.0
19:30:35.542000,42.0,240.0,-525.0,-1015.0,377.0,-306.0,475.0,-241.0,502.0
19:30:35.547000,35.0,233.0,-529.0,-1016.0,362.0,-299.0,475.0,-241.0,502.0
19:30:35.551000,17.0,226.0,-550.0,-1010.0,364.0,-295.0,466.0,-244.0,517.0
19:30:35.556000,-3.0,227.0,-583.0,-1001.0,391.0,-296.0,466.0,-244.0,517.0
19:30:35.560000,-28.0,227.0,-616.0,-985.0,415.0,-307.0,466.0,-244.0,517.0
19:30:35.565000,-17.0,217.0,-625.0,-985.0,387.0,-312.0,466.0,-243.0,499.0
19:30:35.570000,-34.0,221.0,-622.0,-972.0,387.0,-312.0,466.0,-243.0,499.0
19:30:35.575000,-38.0,225.0,-635.0,-971.0,341.0,-309.0,480.0,-235.0,495.0
19:30:35.580000,-25.0,220.0,-656.0,-978.0,336.0,-318.0,480.0,-235.0,495.0
19:30:35.584000,-7.0,220.0,-662.0,-980.0,332.0,-324.0,480.0,-235.0,495.0
19:30:35.589000,18.0,209.0,-641.0,-977.0,306.0,-330.0,462.0,-237.0,508.0
19:30:35.594000,59.0,186.0,-610.0,-972.0,282.0,-337.0,462.0,-237.0,508.0
19:30:35.598000,91.0,175.0,-613.0,-951.0,276.0,-351.0,466.0,-241.0,510.0
19:30:35.603000,130.0,166.0,-643.0,-921.0,311.0,-367.0,466.0,-241.0,510.0
19:30:35.607000,130.0,166.0,-643.0,-909.0,379.0,-378.0,466.0,-241.0,510.0
19:30:35.612000,200.0,137.0,-632.0,-912.0,443.0,-380.0,460.0,-231.0,508.0
19:30:35.617000,200.0,137.0,-632.0,-915.0,485.0,-379.0,460.0,-231.0,508.0
19:30:35.622000,221.0,119.0,-626.0,-920.0,505.0,-381.0,453.0,-228.0,501.0
19:30:35.627000,247.0,92.0,-619.0,-928.0,517.0,-388.0,453.0,-228.0,501.0
19:30:35.631000,262.0,77.0,-607.0,-951.0,544.0,-381.0,453.0,-228.0,501.0
19:30:35.636000,284.0,42.0,-602.0,-989.0,585.0,-375.0,453.0,-231.0,498.0
19:30:35.641000,274.0,28.0,-606.0,-1042.0,620.0,-375.0,453.0,-231.0,498.0
19:30:35.645000,259.0,14.0,-604.0,-1082.0,641.0,-369.0,441.0,-226.0,508.0
19:30:35.650000,235.0,6.0,-557.0,-1081.0,650.0,-366.0,441.0,-226.0,508.0
19:30:35.654000,205.0,5.0,-484.0,-1085.0,678.0,-363.0,441.0,-226.0,508.0
19:30:35.659000,173.0,9.0,-447.0,-1114.0,714.0,-363.0,451.0,-217.0,501.0
19:30:35.664000,142.0,19.0,-462.0,-1087.0,721.0,-369.0,451.0,-217.0,501.0
19:30:35.669000,123.0,37.0,-493.0,-1087.0,721.0,-369.0,442.0,-216.0,501.0
19:30:35.674000,105.0,52.0,-483.0,-892.0,680.0,-369.0,442.0,-216.0,501.0
19:30:35.678000,95.0,63.0,-499.0,-892.0,680.0,-369.0,442.0,-216.0,501.0
19:30:35.683000,86.0,77.0,-536.0,-955.0,723.0,-367.0,450.0,-217.0,502.0
19:30:35.688000,86.0,88.0,-558.0,-955.0,723.0,-367.0,450.0,-217.0,502.0
19:30:35.692000,79.0,84.0,-505.0,-958.0,690.0,-350.0,441.0,-210.0,496.0
19:30:35.697000,66.0,81.0,-453.0,-955.0,650.0,-361.0,441.0,-210.0,496.0
19:30:35.701000,59.0,90.0,-439.0,-1000.0,664.0,-383.0,441.0,-210.0,496.0
19:30:35.706000,65.0,91.0,-414.0,-1027.0,675.0,-394.0,445.0,-210.0,505.0
19:30:35.711000,84.0,81.0,-382.0,-1010.0,655.0,-411.0,445.0,-210.0,505.0
19:30:35.716000,102.0,70.0,-356.0,-989.0,634.0,-420.0,442.0,-211.0,502.0
19:30:35.721000,111.0,61.0,-327.0,-974.0,625.0,-415.0,442.0,-211.0,502.0
19:30:35.725000,111.0,61.0,-327.0,-932.0,619.0,-407.0,442.0,-211.0,502.0
19:30:35.730000,128.0,42.0,-280.0,-849.0,602.0,-406.0,436.0,-198.0,504.0
19:30:35.735000,166.0,21.0,-201.0,-786.0,601.0,-396.0,436.0,-198.0,504.0
19:30:35.739000,196.0,1.0,-146.0,-770.0,624.0,-377.0,438.0,-205.0,501.0
19:30:35.744000,214.0,-15.0,-130.0,-775.0,641.0,-355.0,438.0,-205.0,501.0
19:30:35.748000,228.0,-39.0,-104.0,-756.0,647.0,-337.0,438.0,-205.0,501.0
19:30:35.753000,245.0,-66.0,-49.0,-719.0,651.0,-328.0,432.0,-201.0,505.0
19:30:35.758000,267.0,-93.0,4.0,-707.0,662.0,-317.0,432.0,-201.0,505.0
19:30:35.763000,281.0,-121.0,57.0,-723.0,677.0,-304.0,441.0,-207.0,501.0
19:30:35.768000,280.0,-144.0,108.0,-754.0,699.0,-292.0,441.0,-207.0,501.0
19:30:35.775000,268.0,-186.0,205.0,-779.0,698.0,-271.0,439.0,-193.0,490.0
19:30:35.777000,268.0,-186.0,205.0,-779.0,698.0,-271.0,439.0,-193.0,490.0
19:30:35.781000,259.0,-203.0,257.0,-783.0,683.0,-256.0,439.0,-193.0,490.0
19:30:35.786000,246.0,-214.0,303.0,-783.0,683.0,-256.0,438.0,-198.0,498.0
19:30:35.791000,233.0,-225.0,344.0,-783.0,662.0,-238.0,438.0,-198.0,498.0
19:30:35.796000,210.0,-225.0,380.0,-772.0,634.0,-218.0,447.0,-189.0,498.0
19:30:35.800000,184.0,-224.0,407.0,-755.0,601.0,-198.0,447.0,-189.0,498.0
19:30:35.805000,170.0,-223.0,422.0,-736.0,565.0,-181.0,447.0,-189.0,498.0
19:30:35.810000,158.0,-215.0,418.0,-713.0,521.0,-171.0,441.0,-196.0,502.0
19:30:35.815000,149.0,-204.0,399.0,-706.0,482.0,-163.0,441.0,-196.0,502.0
19:30:35.819000,138.0,-186.0,363.0,-715.0,450.0,-158.0,451.0,-189.0,492.0
19:30:35.824000,131.0,-165.0,322.0,-727.0,420.0,-160.0,451.0,-189.0,492.0
19:30:35.828000,131.0,-165.0,322.0,-738.0,384.0,-164.0,451.0,-189.0,492.0
19:30:35.833000,128.0,-146.0,287.0,-744.0,351.0,-169.0,460.0,-189.0,499.0
19:30:35.838000,129.0,-129.0,259.0,-750.0,341.0,-176.0,460.0,-189.0,499.0
19:30:35.843000,132.0,-112.0,224.0,-753.0,356.0,-182.0,453.0,-198.0,496.0
19:30:35.847000,130.0,-99.0,186.0,-732.0,375.0,-185.0,453.0,-198.0,496.0
19:30:35.852000,124.0,-89.0,158.0,-687.0,385.0,-187.0,453.0,-198.0,496.0
19:30:35.857000,118.0,-81.0,144.0,-637.0,389.0,-190.0,463.0,-192.0,490.0
19:30:35.862000,113.0,-77.0,144.0,-592.0,389.0,-193.0,463.0,-192.0,490.0
19:30:35.866000,109.0,-74.0,149.0,-554.0,390.0,-194.0,471.0,-198.0,499.0
19:30:35.871000,105.0,-73.0,151.0,-516.0,381.0,-191.0,471.0,-198.0,499.0
19:30:35.875000,101.0,-74.0,162.0,-473.0,357.0,-188.0,471.0,-198.0,499.0
19:30:35.880000,96.0,-79.0,189.0,-435.0,333.0,-185.0,463.0,-202.0,489.0
19:30:35.885000,91.0,-86.0,222.0,-412.0,326.0,-186.0,463.0,-202.0,489.0
19:30:35.890000,79.0,-93.0,250.0,-412.0,326.0,-186.0,466.0,-198.0,492.0
19:30:35.894000,53.0,-99.0,273.0,-403.0,367.0,-183.0,466.0,-198.0,492.0
19:30:35.899000,11.0,-100.0,289.0,-406.0,367.0,-183.0,466.0,-198.0,492.0
19:30:35.904000,-37.0,-96.0,297.0,-411.0,393.0,-182.0,472.0,-189.0,487.0
19:30:35.909000,-93.0,-91.0,304.0,-420.0,387.0,-174.0,472.0,-189.0,487.0
19:30:35.913000,-151.0,-89.0,308.0,-420.0,387.0,-174.0,471.0,-196.0,504.0
19:30:35.918000,-203.0,-86.0,298.0,-422.0,366.0,-175.0,471.0,-196.0,504.0
19:30:35.922000,-246.0,-82.0,275.0,-421.0,341.0,-178.0,471.0,-196.0,504.0
19:30:35.927000,-280.0,-77.0,241.0,-420.0,311.0,-182.0,472.0,-198.0,484.0
19:30:35.932000,-308.0,-71.0,195.0,-419.0,280.0,-189.0,472.0,-198.0,484.0
19:30:35.937000,-323.0,-70.0,139.0,-418.0,256.0,-200.0,472.0,-202.0,486.0
19:30:35.941000,-325.0,-70.0,79.0,-416.0,236.0,-212.0,472.0,-202.0,486.0
19:30:35.946000,-325.0,-70.0,79.0,-413.0,215.0,-220.0,472.0,-202.0,486.0
19:30:35.951000,-312.0,-77.0,21.0,-410.0,193.0,-223.0,474.0,-204.0,504.0
19:30:35.956000,-284.0,-88.0,-23.0,-405.0,163.0,-219.0,474.0,-204.0,504.0
19:30:35.960000,-247.0,-103.0,-31.0,-411.0,133.0,-212.0,489.0,-199.0,501.0
19:30:35.965000,-198.0,-121.0,-14.0,-431.0,111.0,-205.0,489.0,-199.0,501.0
19:30:35.969000,-147.0,-137.0,24.0,-458.0,92.0,-196.0,489.0,-199.0,501.0
19:30:35.974000,-95.0,-151.0,84.0,-491.0,80.0,-184.0,492.0,-202.0,495.0
19:30:35.979000,-46.0,-162.0,151.0,-523.0,70.0,-169.0,492.0,-202.0,495.0
19:30:35.984000,0.0,-167.0,217.0,-545.0,62.0,-154.0,483.0,-202.0,490.0
19:30:35.988000,42.0,-168.0,279.0,-555.0,53.0,-140.0,483.0,-202.0,490.0
19:30:35.993000,80.0,-168.0,334.0,-561.0,52.0,-126.0,483.0,-202.0,490.0
19:30:35.998000,114.0,-164.0,376.0,-575.0,64.0,-113.0,475.0,-207.0,484.0
19:30:36.003000,142.0,-157.0,401.0,-593.0,81.0,-99.0,475.0,-207.0,484.0
19:30:36.007000,161.0,-147.0,414.0,-593.0,81.0,-99.0,466.0,-210.0,495.0
19:30:36.012000,175.0,-137.0,420.0,-613.0,96.0,-88.0,466.0,-210.0,495.0
19:30:36.016000,182.0,-126.0,417.0,-632.0,110.0,-80.0,466.0,-210.0,495.0
19:30:36.021000,182.0,-116.0,409.0,-649.0,127.0,-72.0,481.0,-207.0,486.0
19:30:36.026000,170.0,-107.0,394.0,-659.0,150.0,-65.0,481.0,-207.0,486.0
19:30:36.031000,154.0,-102.0,374.0,-659.0,181.0,-56.0,496.0,-202.0,483.0
19:30:36.035000,130.0,-99.0,371.0,-642.0,201.0,-45.0,496.0,-202.0,483.0
19:30:36.040000,130.0,-99.0,371.0,-614.0,200.0,-36.0,496.0,-202.0,483.0
19:30:36.045000,82.0,-104.0,389.0,-591.0,188.0,-31.0,493.0,-213.0,478.0
19:30:36.050000,57.0,-109.0,387.0,-577.0,182.0,-29.0,493.0,-213.0,478.0
19:30:36.054000,57.0,-109.0,387.0,-572.0,188.0,-29.0,493.0,-207.0,480.0
19:30:36.059000,32.0,-118.0,375.0,-574.0,194.0,-32.0,493.0,-207.0,480.0
19:30:36.063000,5.0,-125.0,362.0,-578.0,188.0,-38.0,493.0,-207.0,480.0
19:30:36.068000,-21.0,-130.0,357.0,-585.0,172.0,-49.0,501.0,-219.0,480.0
19:30:36.073000,-43.0,-134.0,353.0,-600.0,163.0,-64.0,501.0,-219.0,480.0
19:30:36.078000,-61.0,-137.0,346.0,-620.0,163.0,-78.0,499.0,-213.0,484.0
19:30:36.082000,-80.0,-138.0,334.0,-634.0,167.0,-90.0,499.0,-213.0,484.0
19:30:36.087000,-100.0,-137.0,324.0,-632.0,162.0,-99.0,499.0,-213.0,484.0
19:30:36.092000,-116.0,-138.0,317.0,-617.0,146.0,-106.0,489.0,-217.0,489.0
19:30:36.097000,-127.0,-140.0,314.0,-600.0,126.0,-111.0,489.0,-217.0,489.0
19:30:36.101000,-130.0,-144.0,309.0,-587.0,110.0,-114.0,504.0,-214.0,483.0
19:30:36.106000,-130.0,-147.0,302.0,-582.0,99.0,-114.0,504.0,-214.0,483.0
19:30:36.110000,-130.0,-151.0,294.0,-579.0,84.0,-112.0,504.0,-214.0,483.0
19:30:36.115000,-126.0,-155.0,285.0,-579.0,84.0,-112.0,510.0,-217.0,486.0
19:30:36.120000,-121.0,-163.0,285.0,-572.0,58.0,-110.0,510.0,-217.0,486.0
19:30:36.125000,-111.0,-174.0,286.0,-568.0,33.0,-109.0,496.0,-213.0,481.0
19:30:36.129000,-99.0,-185.0,277.0,-569.0,25.0,-109.0,496.0,-213.0,481.0
19:30:36.137000,-91.0,-196.0,264.0,-570.0,60.0,-102.0,499.0,-219.0,480.0
19:30:36.139000,-86.0,-203.0,254.0,-570.0,60.0,-102.0,499.0,-219.0,480.0
19:30:36.143000,-87.0,-208.0,247.0,-569.0,88.0,-96.0,499.0,-219.0,480.0
19:30:36.148000,-93.0,-211.0,243.0,-568.0,117.0,-91.0,508.0,-223.0,481.0
19:30:36.153000,-100.0,-210.0,242.0,-566.0,145.0,-91.0,508.0,-223.0,481.0
19:30:36.158000,-116.0,-202.0,246.0,-569.0,171.0,-93.0,511.0,-226.0,484.0
19:30:36.162000,-116.0,-202.0,246.0,-577.0,193.0,-95.0,511.0,-226.0,484.0
19:30:36.166000,-135.0,-191.0,259.0,-585.0,199.0,-97.0,511.0,-226.0,484.0
19:30:36.172000,-154.0,-176.0,284.0,-591.0,191.0,-99.0,511.0,-228.0,483.0
19:30:36.176000,-171.0,-160.0,315.0,-597.0,174.0,-103.0,511.0,-228.0,483.0
19:30:36.181000,-185.0,-140.0,351.0,-604.0,155.0,-104.0,525.0,-234.0,492.0
19:30:36.186000,-191.0,-121.0,385.0,-615.0,132.0,-103.0,525.0,-234.0,492.0
19:30:36.190000,-193.0,-100.0,414.0,-623.0,103.0,-103.0,525.0,-234.0,492.0
19:30:36.195000,-187.0,-84.0,442.0,-629.0,68.0,-104.0,517.0,-241.0,484.0
19:30:36.200000,-175.0,-72.0,469.0,-635.0,36.0,-103.0,517.0,-241.0,484.0
19:30:36.205000,-155.0,-66.0,497.0,-644.0,12.0,-102.0,517.0,-247.0,481.0
19:30:36.209000,-130.0,-67.0,520.0,-660.0,8.0,-102.0,517.0,-247.0,481.0
