hh:mm:ss.ms,gyroX[mdps],gyroY[mdps],gyroZ[mdps],accX[mg],accY[mg],accZ[mg],magX[mG],magY[mG],magZ[mG]
19:31:02.128000,-116.0,-158.0,106.0,-1157.0,-54.0,-129.0,630.0,-366.0,-22.0
19:31:02.133000,-90.0,-169.0,86.0,-1181.0,-66.0,-134.0,627.0,-375.0,-27.0
19:31:02.138000,-74.0,-166.0,95.0,-1189.0,-91.0,-137.0,627.0,-375.0,-27.0
19:31:02.142000,-60.0,-164.0,105.0,-1232.0,-51.0,-149.0,622.0,-376.0,-39.0
19:31:02.147000,-49.0,-156.0,85.0,-1254.0,16.0,-168.0,622.0,-376.0,-39.0
19:31:02.151000,-49.0,-156.0,85.0,-1281.0,80.0,-191.0,622.0,-376.0,-39.0
19:31:02.156000,-44.0,-127.0,-11.0,-1326.0,112.0,-208.0,622.0,-376.0,-30.0
19:31:02.161000,-44.0,-95.0,-91.0,-1351.0,90.0,-216.0,622.0,-376.0,-30.0
19:31:02.166000,-29.0,-75.0,-112.0,-1375.0,51.0,-222.0,610.0,-375.0,-30.0
19:31:02.171000,-16.0,-51.0,-94.0,-1407.0,31.0,-229.0,610.0,-375.0,-30.0
19:31:02.175000,-16.0,-21.0,-58.0,-1422.0,22.0,-234.0,610.0,-375.0,-30.0
19:31:02.180000,-12.0,2.0,2.0,-1399.0,-6.0,-243.0,624.0,-369.0,-24.0
19:31:02.185000,-16.0,36.0,57.0,-1396.0,-40.0,-254.0,624.0,-369.0,-24.0
19:31:02.189000,-19.0,75.0,51.0,-1436.0,-59.0,-263.0,621.0,-372.0,-28.0
19:31:02.194000,-8.0,109.0,-4.0,-1440.0,-90.0,-271.0,621.0,-372.0,-28.0
19:31:02.198000,13.0,128.0,-70.0,-1423.0,-112.0,-275.0,621.0,-372.0,-28.0
19:31:02.203000,14.0,158.0,-148.0,-1383.0,-132.0,-282.0,613.0,-369.0,-25.0
19:31:02.208000,52.0,161.0,-155.0,-1297.0,-153.0,-286.0,613.0,-369.0,-25.0
19:31:02.213000,53.0,182.0,-118.0,-1297.0,-153.0,-286.0,621.0,-375.0,-21.0
19:31:02.218000,49.0,182.0,-113.0,-1235.0,-143.0,-282.0,621.0,-375.0,-21.0
19:31:02.222000,155.0,116.0,-22.0,-1174.0,-96.0,-296.0,621.0,-375.0,-21.0
19:31:02.227000,156.0,101.0,41.0,-1146.0,-30.0,-309.0,615.0,-379.0,-24.0
19:31:02.232000,148.0,100.0,-36.0,-1246.0,31.0,-312.0,615.0,-379.0,-24.0
19:31:02.236000,146.0,85.0,-147.0,-1347.0,61.0,-316.0,627.0,-367.0,-25.0
19:31:02.241000,126.0,82.0,-217.0,-1347.0,72.0,-316.0,627.0,-367.0,-25.0
19:31:02.245000,126.0,82.0,-217.0,-1270.0,80.0,-327.0,627.0,-367.0,-25.0
19:31:02.250000,78.0,43.0,-221.0,-1151.0,103.0,-320.0,625.0,-372.0,-15.0
19:31:02.255000,37.0,12.0,-188.0,-1063.0,116.0,-304.0,625.0,-372.0,-15.0
19:31:02.260000,37.0,12.0,-188.0,-1048.0,99.0,-298.0,618.0,-366.0,-28.0
19:31:02.265000,18.0,-6.0,-198.0,-1060.0,75.0,-279.0,618.0,-366.0,-28.0
19:31:02.269000,24.0,-43.0,-202.0,-1060.0,50.0,-285.0,618.0,-366.0,-28.0
19:31:02.274000,53.0,-65.0,-190.0,-1108.0,88.0,-279.0,627.0,-363.0,-21.0
19:31:02.279000,50.0,-77.0,-222.0,-1136.0,104.0,-249.0,627.0,-363.0,-21.0
19:31:02.283000,30.0,-86.0,-239.0,-1048.0,86.0,-233.0,615.0,-366.0,-28.0
19:31:02.288000,26.0,-98.0,-219.0,-1047.0,105.0,-201.0,615.0,-366.0,-28.0
19:31:02.292000,0.0,-120.0,-221.0,-1080.0,13.0,-194.0,615.0,-366.0,-28.0
19:31:02.297000,-29.0,-128.0,-175.0,-973.0,-61.0,-199.0,622.0,-370.0,-43.0
19:31:02.302000,-4.0,-149.0,-94.0,-927.0,78.0,-176.0,622.0,-370.0,-43.0
19:31:02.307000,20.0,-173.0,-92.0,-975.0,84.0,-162.0,618.0,-364.0,-31.0
19:31:02.312000,-29.0,-174.0,-100.0,-942.0,-51.0,-150.0,618.0,-364.0,-31.0
19:31:02.316000,-8.0,-191.0,-73.0,-913.0,-5.0,-146.0,618.0,-364.0,-31.0
19:31:02.321000,33.0,-196.0,-70.0,-913.0,-5.0,-146.0,634.0,-364.0,-33.0
19:31:02.326000,44.0,-194.0,-158.0,-984.0,111.0,-138.0,634.0,-364.0,-33.0
19:31:02.330000,48.0,-179.0,-189.0,-1048.0,95.0,-134.0,624.0,-366.0,-40.0
19:31:02.335000,72.0,-170.0,-123.0,-1073.0,42.0,-130.0,624.0,-366.0,-40.0
19:31:02.342000,65.0,-153.0,-80.0,-1163.0,20.0,-136.0,613.0,-364.0,-22.0
19:31:02.344000,74.0,-135.0,-84.0,-1163.0,20.0,-136.0,613.0,-364.0,-22.0
19:31:02.348000,79.0,-116.0,-69.0,-1157.0,112.0,-138.0,613.0,-364.0,-22.0
19:31:02.354000,63.0,-92.0,-60.0,-1122.0,171.0,-138.0,627.0,-369.0,-36.0
19:31:02.359000,46.0,-74.0,-78.0,-1121.0,174.0,-132.0,627.0,-369.0,-36.0
19:31:02.363000,41.0,-59.0,-98.0,-1111.0,118.0,-130.0,619.0,-363.0,-40.0
19:31:02.368000,41.0,-59.0,-98.0,-1115.0,61.0,-124.0,619.0,-363.0,-40.0
19:31:02.372000,21.0,-44.0,-122.0,-1168.0,35.0,-131.0,619.0,-363.0,-40.0
19:31:02.377000,25.0,-29.0,-125.0,-1179.0,35.0,-144.0,618.0,-370.0,-46.0
19:31:02.382000,35.0,-18.0,-48.0,-1139.0,20.0,-140.0,618.0,-370.0,-46.0
19:31:02.387000,18.0,0.0,39.0,-1149.0,5.0,-146.0,612.0,-360.0,-42.0
19:31:02.391000,25.0,14.0,46.0,-1156.0,30.0,-152.0,612.0,-360.0,-42.0
19:31:02.395000,24.0,35.0,-7.0,-1129.0,42.0,-149.0,612.0,-360.0,-42.0
19:31:02.401000,26.0,58.0,-74.0,-1090.0,20.0,-145.0,621.0,-360.0,-31.0
19:31:02.406000,33.0,71.0,-86.0,-1064.0,-18.0,-147.0,621.0,-360.0,-31.0
19:31:02.410000,39.0,77.0,-81.0,-1091.0,-31.0,-155.0,622.0,-360.0,-40.0
19:31:02.415000,35.0,89.0,-84.0,-1146.0,8.0,-163.0,622.0,-360.0,-40.0
19:31:02.419000,45.0,102.0,-105.0,-1166.0,16.0,-162.0,622.0,-360.0,-40.0
19:31:02.424000,39.0,116.0,-132.0,-1134.0,-49.0,-162.0,622.0,-364.0,-34.0
19:31:02.429000,60.0,120.0,-153.0,-1134.0,-49.0,-162.0,622.0,-364.0,-34.0
19:31:02.434000,114.0,119.0,-144.0,-1081.0,55.0,-168.0,631.0,-355.0,-31.0
19:31:02.438000,87.0,132.0,-142.0,-1081.0,55.0,-168.0,631.0,-355.0,-31.0
19:31:02.442000,84.0,144.0,-209.0,-1069.0,33.0,-160.0,631.0,-355.0,-31.0
19:31:02.448000,84.0,154.0,-262.0,-1088.0,27.0,-172.0,627.0,-367.0,-34.0
19:31:02.453000,105.0,152.0,-281.0,-1095.0,58.0,-173.0,627.0,-367.0,-34.0
19:31:02.457000,100.0,157.0,-305.0,-1088.0,100.0,-171.0,628.0,-366.0,-36.0
19:31:02.462000,91.0,173.0,-311.0,-1080.0,77.0,-170.0,628.0,-366.0,-36.0
19:31:02.466000,91.0,173.0,-311.0,-1064.0,0.0,-180.0,628.0,-366.0,-36.0
19:31:02.471000,120.0,191.0,-310.0,-1070.0,-19.0,-193.0,619.0,-355.0,-30.0
19:31:02.476000,123.0,191.0,-304.0,-1093.0,16.0,-200.0,619.0,-355.0,-30.0
19:31:02.481000,123.0,201.0,-304.0,-1098.0,36.0,-203.0,630.0,-364.0,-34.0
19:31:02.485000,121.0,214.0,-302.0,-1101.0,41.0,-211.0,630.0,-364.0,-34.0
19:31:02.489000,121.0,225.0,-311.0,-1103.0,46.0,-216.0,630.0,-364.0,-34.0
19:31:02.495000,112.0,238.0,-354.0,-1087.0,64.0,-219.0,625.0,-354.0,-34.0
19:31:02.500000,108.0,252.0,-413.0,-1053.0,82.0,-221.0,625.0,-354.0,-34.0
19:31:02.504000,111.0,259.0,-435.0,-1028.0,80.0,-224.0,627.0,-352.0,-31.0
19:31:02.509000,112.0,260.0,-438.0,-1035.0,71.0,-230.0,627.0,-352.0,-31.0
19:31:02.513000,107.0,263.0,-439.0,-1054.0,71.0,-237.0,627.0,-352.0,-31.0
19:31:02.518000,95.0,270.0,-457.0,-1059.0,92.0,-245.0,637.0,-352.0,-21.0
19:31:02.523000,88.0,273.0,-488.0,-1020.0,109.0,-253.0,637.0,-352.0,-21.0
19:31:02.528000,89.0,268.0,-493.0,-1020.0,109.0,-253.0,625.0,-345.0,-18.0
19:31:02.532000,90.0,266.0,-476.0,-970.0,109.0,-263.0,625.0,-345.0,-18.0
19:31:02.536000,95.0,267.0,-483.0,-997.0,141.0,-267.0,625.0,-345.0,-18.0
19:31:02.542000,94.0,273.0,-518.0,-997.0,141.0,-267.0,637.0,-343.0,-16.0
19:31:02.546000,85.0,279.0,-547.0,-1019.0,171.0,-271.0,637.0,-343.0,-16.0
19:31:02.551000,71.0,289.0,-565.0,-1010.0,188.0,-280.0,630.0,-348.0,-21.0
19:31:02.556000,71.0,297.0,-586.0,-989.0,197.0,-282.0,630.0,-348.0,-21.0
19:31:02.560000,57.0,303.0,-589.0,-983.0,192.0,-278.0,630.0,-348.0,-21.0
19:31:02.565000,49.0,314.0,-609.0,-999.0,174.0,-279.0,642.0,-339.0,-25.0
19:31:02.570000,61.0,320.0,-618.0,-998.0,160.0,-284.0,642.0,-339.0,-25.0
19:31:02.575000,74.0,317.0,-616.0,-979.0,152.0,-290.0,643.0,-330.0,-21.0
19:31:02.579000,81.0,317.0,-630.0,-966.0,172.0,-298.0,643.0,-330.0,-21.0
19:31:02.583000,81.0,317.0,-630.0,-952.0,204.0,-305.0,643.0,-330.0,-21.0
19:31:02.589000,99.0,315.0,-636.0,-948.0,218.0,-310.0,642.0,-330.0,-16.0
19:31:02.593000,116.0,310.0,-621.0,-966.0,227.0,-316.0,642.0,-330.0,-16.0
19:31:02.598000,138.0,301.0,-608.0,-994.0,227.0,-323.0,640.0,-315.0,-13.0
19:31:02.603000,150.0,302.0,-611.0,-1005.0,228.0,-330.0,640.0,-315.0,-13.0
19:31:02.607000,170.0,294.0,-618.0,-998.0,246.0,-333.0,640.0,-315.0,-13.0
19:31:02.612000,193.0,280.0,-624.0,-990.0,280.0,-334.0,642.0,-312.0,9.0
19:31:02.617000,212.0,270.0,-618.0,-985.0,308.0,-333.0,642.0,-312.0,9.0
19:31:02.622000,224.0,263.0,-601.0,-988.0,324.0,-328.0,642.0,-310.0,-13.0
19:31:02.626000,235.0,254.0,-595.0,-999.0,336.0,-321.0,642.0,-310.0,-13.0
19:31:02.630000,237.0,252.0,-593.0,-1003.0,344.0,-309.0,642.0,-310.0,-13.0
19:31:02.636000,226.0,250.0,-587.0,-997.0,368.0,-298.0,640.0,-312.0,-4.0
19:31:02.640000,217.0,248.0,-585.0,-984.0,406.0,-290.0,640.0,-312.0,-4.0
19:31:02.645000,198.0,250.0,-585.0,-984.0,406.0,-290.0,643.0,-300.0,-10.0
19:31:02.650000,174.0,254.0,-582.0,-970.0,427.0,-281.0,643.0,-300.0,-10.0
19:31:02.654000,158.0,253.0,-572.0,-937.0,396.0,-264.0,643.0,-300.0,-10.0
19:31:02.659000,153.0,252.0,-544.0,-937.0,396.0,-264.0,648.0,-292.0,1.0
19:31:02.664000,143.0,255.0,-534.0,-925.0,406.0,-259.0,648.0,-292.0,1.0
19:31:02.669000,142.0,259.0,-566.0,-950.0,426.0,-256.0,649.0,-297.0,-12.0
19:31:02.673000,140.0,259.0,-604.0,-971.0,411.0,-255.0,649.0,-297.0,-12.0
19:31:02.677000,147.0,259.0,-620.0,-961.0,382.0,-255.0,649.0,-297.0,-12.0
19:31:02.683000,158.0,257.0,-640.0,-939.0,388.0,-256.0,643.0,-285.0,6.0
19:31:02.687000,162.0,251.0,-669.0,-937.0,422.0,-257.0,643.0,-285.0,6.0
19:31:02.692000,157.0,247.0,-693.0,-948.0,441.0,-262.0,651.0,-291.0,-4.0
19:31:02.697000,157.0,247.0,-693.0,-953.0,449.0,-269.0,651.0,-291.0,-4.0
19:31:02.704000,163.0,234.0,-649.0,-997.0,489.0,-281.0,640.0,-277.0,24.0
19:31:02.706000,163.0,234.0,-649.0,-997.0,489.0,-281.0,640.0,-277.0,24.0
19:31:02.710000,149.0,229.0,-604.0,-1057.0,517.0,-285.0,640.0,-277.0,24.0
19:31:02.716000,139.0,231.0,-608.0,-1093.0,554.0,-297.0,652.0,-274.0,6.0
19:31:02.720000,144.0,223.0,-617.0,-1080.0,548.0,-297.0,652.0,-274.0,6.0
19:31:02.725000,123.0,217.0,-588.0,-1043.0,493.0,-299.0,654.0,-280.0,1.0
19:31:02.730000,105.0,214.0,-499.0,-1015.0,462.0,-316.0,654.0,-280.0,1.0
19:31:02.734000,98.0,210.0,-386.0,-1038.0,482.0,-344.0,654.0,-280.0,1.0
19:31:02.739000,104.0,198.0,-323.0,-1031.0,520.0,-376.0,651.0,-273.0,3.0
19:31:02.744000,93.0,222.0,-432.0,-972.0,645.0,-378.0,651.0,-273.0,3.0
19:31:02.748000,76.0,233.0,-585.0,-913.0,730.0,-371.0,643.0,-271.0,9.0
19:31:02.753000,65.0,228.0,-588.0,-825.0,685.0,-376.0,643.0,-271.0,9.0
19:31:02.757000,61.0,218.0,-522.0,-825.0,685.0,-376.0,643.0,-271.0,9.0
19:31:02.763000,82.0,195.0,-469.0,-788.0,602.0,-401.0,640.0,-258.0,16.0
19:31:02.767000,88.0,192.0,-524.0,-831.0,516.0,-456.0,640.0,-258.0,16.0
19:31:02.772000,77.0,188.0,-574.0,-868.0,531.0,-482.0,649.0,-262.0,16.0
19:31:02.777000,62.0,177.0,-487.0,-885.0,582.0,-464.0,649.0,-262.0,16.0
19:31:02.781000,95.0,148.0,-369.0,-931.0,573.0,-463.0,649.0,-262.0,16.0
19:31:02.786000,113.0,129.0,-331.0,-944.0,528.0,-477.0,645.0,-249.0,6.0
19:31:02.791000,134.0,112.0,-333.0,-901.0,508.0,-487.0,645.0,-249.0,6.0
19:31:02.795000,134.0,112.0,-333.0,-855.0,550.0,-489.0,660.0,-244.0,12.0
19:31:02.800000,191.0,65.0,-313.0,-831.0,583.0,-475.0,660.0,-244.0,12.0
19:31:02.804000,191.0,65.0,-313.0,-819.0,582.0,-474.0,660.0,-244.0,12.0
19:31:02.810000,199.0,51.0,-261.0,-836.0,608.0,-481.0,652.0,-247.0,12.0
19:31:02.814000,202.0,39.0,-224.0,-889.0,653.0,-482.0,652.0,-247.0,12.0
19:31:02.819000,210.0,28.0,-216.0,-926.0,665.0,-475.0,646.0,-240.0,22.0
19:31:02.824000,200.0,16.0,-188.0,-939.0,662.0,-461.0,646.0,-240.0,22.0
19:31:02.828000,191.0,9.0,-149.0,-940.0,673.0,-454.0,646.0,-240.0,22.0
19:31:02.833000,173.0,9.0,-108.0,-927.0,673.0,-439.0,661.0,-246.0,15.0
19:31:02.838000,162.0,1.0,-58.0,-914.0,662.0,-422.0,661.0,-246.0,15.0
19:31:02.843000,154.0,-9.0,-18.0,-902.0,642.0,-404.0,651.0,-244.0,16.0
19:31:02.847000,151.0,-18.0,20.0,-894.0,617.0,-386.0,651.0,-244.0,16.0
19:31:02.851000,148.0,-25.0,57.0,-901.0,595.0,-366.0,651.0,-244.0,16.0
19:31:02.857000,151.0,-38.0,90.0,-911.0,581.0,-343.0,651.0,-253.0,19.0
19:31:02.861000,157.0,-54.0,130.0,-910.0,568.0,-320.0,651.0,-253.0,19.0
19:31:02.866000,168.0,-72.0,176.0,-910.0,568.0,-320.0,652.0,-252.0,15.0
19:31:02.871000,177.0,-88.0,221.0,-901.0,550.0,-299.0,652.0,-252.0,15.0
19:31:02.875000,187.0,-103.0,271.0,-889.0,525.0,-279.0,652.0,-252.0,15.0
19:31:02.880000,200.0,-123.0,308.0,-890.0,504.0,-259.0,655.0,-249.0,21.0
19:31:02.894000,219.0,-178.0,394.0,-787.0,426.0,-187.0,651.0,-258.0,37.0
19:31:02.899000,230.0,-197.0,385.0,-732.0,398.0,-175.0,651.0,-258.0,37.0
19:31:02.904000,238.0,-209.0,345.0,-693.0,385.0,-168.0,651.0,-258.0,37.0
19:31:02.908000,238.0,-209.0,345.0,-681.0,388.0,-162.0,651.0,-258.0,37.0
19:31:02.913000,235.0,-220.0,242.0,-691.0,396.0,-156.0,658.0,-264.0,10.0
19:31:02.918000,235.0,-220.0,242.0,-703.0,404.0,-154.0,658.0,-264.0,10.0
19:31:02.922000,223.0,-216.0,196.0,-710.0,409.0,-157.0,652.0,-252.0,7.0
19:31:02.927000,206.0,-208.0,151.0,-717.0,416.0,-164.0,652.0,-252.0,7.0
19:31:02.931000,185.0,-198.0,104.0,-723.0,434.0,-171.0,652.0,-252.0,7.0
19:31:02.937000,162.0,-189.0,44.0,-723.0,464.0,-174.0,664.0,-259.0,7.0
19:31:02.941000,137.0,-182.0,-18.0,-706.0,490.0,-175.0,664.0,-259.0,7.0
19:31:02.946000,107.0,-175.0,-69.0,-676.0,507.0,-172.0,639.0,-258.0,19.0
19:31:02.951000,74.0,-169.0,-101.0,-644.0,510.0,-165.0,639.0,-258.0,19.0
19:31:02.955000,39.0,-164.0,-115.0,-607.0,497.0,-159.0,639.0,-258.0,19.0
19:31:02.960000,5.0,-162.0,-111.0,-568.0,475.0,-156.0,652.0,-265.0,-1.0
19:31:02.965000,-26.0,-163.0,-91.0,-534.0,457.0,-157.0,652.0,-265.0,-1.0
19:31:02.969000,-59.0,-164.0,-56.0,-534.0,457.0,-157.0,664.0,-247.0,9.0
19:31:02.974000,-96.0,-168.0,-13.0,-503.0,456.0,-157.0,664.0,-247.0,9.0
19:31:02.978000,-137.0,-168.0,40.0,-503.0,456.0,-157.0,664.0,-247.0,9.0
19:31:02.984000,-178.0,-168.0,107.0,-498.0,449.0,-154.0,660.0,-264.0,-1.0
19:31:02.988000,-218.0,-167.0,177.0,-489.0,371.0,-142.0,660.0,-264.0,-1.0
19:31:02.993000,-252.0,-168.0,240.0,-489.0,371.0,-142.0,663.0,-247.0,0.0
19:31:02.998000,-277.0,-169.0,285.0,-478.0,317.0,-134.0,663.0,-247.0,0.0
19:31:03.002000,-288.0,-170.0,308.0,-457.0,262.0,-128.0,663.0,-247.0,0.0
19:31:03.007000,-287.0,-168.0,305.0,-437.0,214.0,-129.0,655.0,-259.0,13.0
19:31:03.012000,-281.0,-162.0,272.0,-433.0,186.0,-133.0,655.0,-259.0,13.0
19:31:03.016000,-269.0,-154.0,217.0,-448.0,176.0,-139.0,660.0,-253.0,10.0
19:31:03.021000,-256.0,-144.0,151.0,-474.0,176.0,-147.0,660.0,-253.0,10.0
19:31:03.025000,-256.0,-144.0,151.0,-502.0,177.0,-152.0,660.0,-253.0,10.0
19:31:03.031000,-243.0,-130.0,81.0,-525.0,178.0,-157.0,655.0,-262.0,1.0
19:31:03.035000,-228.0,-115.0,15.0,-538.0,177.0,-162.0,655.0,-262.0,1.0
19:31:03.040000,-214.0,-102.0,-42.0,-542.0,178.0,-165.0,664.0,-258.0,-1.0
19:31:03.045000,-200.0,-90.0,-84.0,-539.0,184.0,-168.0,664.0,-258.0,-1.0
19:31:03.049000,-188.0,-80.0,-110.0,-531.0,194.0,-168.0,664.0,-258.0,-1.0
19:31:03.054000,-183.0,-70.0,-118.0,-518.0,212.0,-166.0,669.0,-255.0,6.0
19:31:03.059000,-182.0,-64.0,-116.0,-497.0,228.0,-165.0,669.0,-255.0,6.0
19:31:03.063000,-183.0,-58.0,-100.0,-476.0,237.0,-169.0,661.0,-258.0,1.0
19:31:03.068000,-187.0,-53.0,-72.0,-469.0,250.0,-172.0,661.0,-258.0,1.0
19:31:03.072000,-199.0,-46.0,-35.0,-473.0,262.0,-177.0,661.0,-258.0,1.0
19:31:03.078000,-216.0,-38.0,9.0,-482.0,263.0,-183.0,655.0,-253.0,1.0
19:31:03.082000,-232.0,-27.0,54.0,-494.0,254.0,-189.0,655.0,-253.0,1.0
19:31:03.087000,-243.0,-14.0,87.0,-494.0,254.0,-189.0,666.0,-252.0,6.0
19:31:03.092000,-246.0,-3.0,113.0,-499.0,234.0,-196.0,666.0,-252.0,6.0
19:31:03.096000,-241.0,3.0,131.0,-495.0,203.0,-204.0,666.0,-252.0,6.0
19:31:03.101000,-225.0,6.0,142.0,-486.0,169.0,-212.0,657.0,-252.0,10.0
19:31:03.106000,-202.0,6.0,149.0,-475.0,142.0,-223.0,657.0,-252.0,10.0
19:31:03.110000,-176.0,3.0,154.0,-471.0,130.0,-232.0,663.0,-253.0,4.0
19:31:03.115000,-150.0,-2.0,161.0,-475.0,132.0,-235.0,663.0,-253.0,4.0
19:31:03.119000,-122.0,-11.0,173.0,-481.0,132.0,-234.0,663.0,-253.0,4.0
19:31:03.125000,-93.0,-23.0,186.0,-490.0,126.0,-229.0,654.0,-246.0,27.0
19:31:03.129000,-60.0,-38.0,212.0,-488.0,103.0,-222.0,654.0,-246.0,27.0
19:31:03.134000,-60.0,-38.0,212.0,-472.0,65.0,-212.0,654.0,-246.0,27.0
19:31:03.139000,-24.0,-56.0,247.0,-458.0,38.0,-202.0,654.0,-246.0,27.0
19:31:03.143000,14.0,-75.0,284.0,-454.0,29.0,-195.0,654.0,-246.0,27.0
19:31:03.148000,51.0,-94.0,313.0,-460.0,36.0,-187.0,658.0,-256.0,7.0
19:31:03.153000,84.0,-109.0,331.0,-472.0,48.0,-179.0,658.0,-256.0,7.0
19:31:03.157000,112.0,-121.0,343.0,-486.0,55.0,-171.0,664.0,-252.0,7.0
19:31:03.162000,134.0,-132.0,356.0,-505.0,57.0,-164.0,664.0,-252.0,7.0
19:31:03.166000,150.0,-140.0,365.0,-531.0,65.0,-158.0,664.0,-252.0,7.0
19:31:03.172000,160.0,-144.0,367.0,-560.0,79.0,-151.0,661.0,-256.0,6.0
19:31:03.176000,161.0,-149.0,364.0,-585.0,93.0,-143.0,661.0,-256.0,6.0
19:31:03.181000,158.0,-152.0,361.0,-602.0,103.0,-133.0,655.0,-264.0,6.0
19:31:03.186000,150.0,-156.0,360.0,-611.0,108.0,-122.0,655.0,-264.0,6.0
19:31:03.190000,140.0,-162.0,358.0,-612.0,109.0,-114.0,655.0,-264.0,6.0
19:31:03.195000,130.0,-168.0,357.0,-608.0,113.0,-107.0,667.0,-268.0,3.0
19:31:03.200000,116.0,-174.0,354.0,-608.0,113.0,-107.0,667.0,-268.0,3.0
19:31:03.204000,102.0,-178.0,350.0,-604.0,120.0,-101.0,661.0,-274.0,0.0
19:31:03.209000,86.0,-180.0,343.0,-602.0,126.0,-97.0,661.0,-274.0,0.0
19:31:03.213000,70.0,-184.0,333.0,-600.0,125.0,-94.0,661.0,-274.0,0.0
19:31:03.219000,57.0,-187.0,319.0,-595.0,118.0,-91.0,658.0,-285.0,-3.0
19:31:03.223000,48.0,-193.0,304.0,-585.0,114.0,-90.0,658.0,-285.0,-3.0
19:31:03.228000,41.0,-197.0,287.0,-577.0,115.0,-92.0,678.0,-286.0,-1.0
19:31:03.233000,34.0,-200.0,270.0,-571.0,122.0,-95.0,678.0,-286.0,-1.0
19:31:03.237000,34.0,-200.0,270.0,-565.0,134.0,-98.0,678.0,-286.0,-1.0
19:31:03.242000,15.0,-203.0,246.0,-556.0,142.0,-98.0,664.0,-279.0,1.0
19:31:03.247000,15.0,-203.0,246.0,-543.0,142.0,-101.0,664.0,-279.0,1.0
19:31:03.251000,8.0,-203.0,240.0,-531.0,138.0,-103.0,664.0,-289.0,-3.0
19:31:03.256000,2.0,-203.0,239.0,-527.0,137.0,-101.0,664.0,-289.0,-3.0
19:31:03.260000,-2.0,-202.0,240.0,-528.0,137.0,-100.0,664.0,-289.0,-3.0
19:31:03.266000,-3.0,-199.0,243.0,-536.0,137.0,-99.0,660.0,-289.0,9.0
19:31:03.270000,-2.0,-196.0,244.0,-551.0,136.0,-99.0,660.0,-289.0,9.0
19:31:03.275000,0.0,-192.0,242.0,-570.0,132.0,-97.0,660.0,-289.0,9.0
19:31:03.280000,5.0,-190.0,239.0,-589.0,133.0,-92.0,660.0,-289.0,9.0
19:31:03.284000,9.0,-190.0,238.0,-602.0,138.0,-89.0,660.0,-289.0,9.0
19:31:03.289000,12.0,-190.0,244.0,-609.0,151.0,-86.0,663.0,-288.0,-16.0
19:31:03.294000,11.0,-190.0,254.0,-614.0,173.0,-78.0,663.0,-288.0,-16.0
19:31:03.298000,4.0,-189.0,269.0,-614.0,173.0,-78.0,655.0,-304.0,-15.0
19:31:03.303000,-6.0,-189.0,291.0,-597.0,195.0,-64.0,655.0,-304.0,-15.0
19:31:03.307000,-15.0,-187.0,322.0,-597.0,195.0,-64.0,655.0,-304.0,-15.0
19:31:03.313000,-22.0,-186.0,350.0,-581.0,193.0,-61.0,663.0,-295.0,-19.0
19:31:03.317000,-25.0,-185.0,377.0,-574.0,190.0,-63.0,663.0,-295.0,-19.0
19:31:03.322000,-23.0,-183.0,407.0,-577.0,185.0,-69.0,645.0,-306.0,-19.0
19:31:03.327000,-17.0,-179.0,438.0,-589.0,179.0,-73.0,645.0,-306.0,-19.0
19:31:03.331000,-11.0,-172.0,469.0,-608.0,177.0,-73.0,645.0,-306.0,-19.0
19:31:03.336000,-8.0,-159.0,501.0,-627.0,175.0,-71.0,669.0,-303.0,-27.0
19:31:03.341000,-4.0,-147.0,535.0,-639.0,162.0,-68.0,669.0,-303.0,-27.0
19:31:03.345000,4.0,-135.0,563.0,-645.0,138.0,-65.0,661.0,-312.0,-33.0
19:31:03.350000,14.0,-124.0,578.0,-652.0,120.0,-63.0,661.0,-312.0,-33.0
19:31:03.354000,14.0,-124.0,578.0,-668.0,124.0,-61.0,661.0,-312.0,-33.0
19:31:03.360000,17.0,-112.0,581.0,-691.0,145.0,-64.0,657.0,-313.0,-27.0
19:31:03.364000,11.0,-99.0,581.0,-715.0,170.0,-75.0,657.0,-313.0,-27.0
19:31:03.369000,-3.0,-86.0,581.0,-741.0,202.0,-88.0,670.0,-313.0,-27.0
19:31:03.374000,-30.0,-74.0,576.0,-764.0,235.0,-98.0,670.0,-313.0,-27.0
19:31:03.378000,-68.0,-60.0,569.0,-772.0,255.0,-107.0,670.0,-313.0,-27.0
19:31:03.383000,-113.0,-46.0,564.0,-768.0,257.0,-116.0,660.0,-325.0,-30.0
19:31:03.388000,-157.0,-29.0,553.0,-766.0,251.0,-131.0,660.0,-325.0,-30.0
19:31:03.392000,-197.0,-12.0,539.0,-775.0,239.0,-154.0,654.0,-324.0,-31.0
19:31:03.397000,-234.0,4.0,526.0,-804.0,221.0,-183.0,654.0,-324.0,-31.0
19:31:03.401000,-259.0,23.0,503.0,-851.0,193.0,-210.0,654.0,-324.0,-31.0
19:31:03.407000,-275.0,42.0,473.0,-895.0,138.0,-232.0,651.0,-322.0,-16.0
19:31:03.411000,-274.0,58.0,453.0,-929.0,65.0,-256.0,651.0,-322.0,-16.0
19:31:03.416000,-252.0,68.0,444.0,-929.0,65.0,-256.0,651.0,-322.0,-16.0
19:31:03.421000,-221.0,77.0,432.0,-963.0,10.0,-277.0,651.0,-322.0,-16.0
19:31:03.425000,-188.0,84.0,422.0,-994.0,-8.0,-295.0,651.0,-322.0,-16.0
19:31:03.430000,-156.0,88.0,417.0,-1016.0,-1.0,-311.0,658.0,-330.0,-42.0
19:31:03.435000,-128.0,91.0,415.0,-1030.0,20.0,-325.0,658.0,-330.0,-42.0
19:31:03.439000,-107.0,95.0,414.0,-1039.0,56.0,-335.0,658.0,-336.0,-30.0
19:31:03.444000,-91.0,98.0,422.0,-1038.0,90.0,-338.0,658.0,-336.0,-30.0
19:31:03.448000,-80.0,93.0,436.0,-1022.0,111.0,-335.0,658.0,-336.0,-30.0
19:31:03.454000,-71.0,79.0,457.0,-989.0,125.0,-323.0,678.0,-337.0,-37.0
19:31:03.458000,-64.0,58.0,486.0,-939.0,140.0,-307.0,678.0,-337.0,-37.0
19:31:03.463000,-64.0,58.0,486.0,-887.0,172.0,-290.0,660.0,-346.0,-36.0
19:31:03.468000,-65.0,32.0,511.0,-846.0,230.0,-276.0,660.0,-346.0,-36.0
19:31:03.472000,-77.0,14.0,518.0,-824.0,300.0,-264.0,660.0,-346.0,-36.0
19:31:03.477000,-102.0,-3.0,511.0,-818.0,361.0,-256.0,660.0,-345.0,-30.0
19:31:03.482000,-137.0,-16.0,490.0,-826.0,410.0,-256.0,660.0,-345.0,-30.0
19:31:03.486000,-171.0,-18.0,448.0,-850.0,449.0,-261.0,651.0,-354.0,-45.0
19:31:03.491000,-200.0,-15.0,392.0,-889.0,473.0,-276.0,651.0,-354.0,-45.0
19:31:03.495000,-220.0,-10.0,324.0,-942.0,487.0,-297.0,651.0,-354.0,-45.0
19:31:03.501000,-223.0,-10.0,252.0,-981.0,495.0,-324.0,648.0,-357.0,-18.0
19:31:03.505000,-212.0,-7.0,192.0,-1009.0,529.0,-357.0,648.0,-357.0,-18.0
19:31:03.510000,-193.0,-1.0,129.0,-1036.0,605.0,-387.0,654.0,-358.0,-43.0
19:31:03.515000,-179.0,-2.0,70.0,-1046.0,682.0,-416.0,654.0,-358.0,-43.0
19:31:03.519000,-158.0,-3.0,35.0,-1033.0,741.0,-440.0,654.0,-358.0,-43.0
19:31:03.524000,-133.0,-4.0,19.0,-992.0,786.0,-458.0,649.0,-355.0,-36.0
19:31:03.529000,-106.0,-6.0,25.0,-992.0,786.0,-458.0,649.0,-355.0,-36.0
19:31:03.533000,-79.0,-10.0,49.0,-930.0,815.0,-473.0,655.0,-351.0,-34.0
19:31:03.538000,-56.0,-21.0,76.0,-873.0,848.0,-480.0,655.0,-351.0,-34.0
19:31:03.545000,-44.0,-37.0,111.0,-786.0,924.0,-458.0,664.0,-351.0,-36.0
19:31:03.548000,-40.0,-60.0,154.0,-786.0,924.0,-458.0,664.0,-351.0,-36.0
19:31:03.552000,-51.0,-79.0,205.0,-745.0,951.0,-432.0,664.0,-351.0,-36.0
19:31:03.557000,-71.0,-92.0,255.0,-697.0,972.0,-398.0,658.0,-358.0,-51.0
19:31:03.562000,-96.0,-104.0,300.0,-666.0,986.0,-360.0,658.0,-358.0,-51.0
19:31:03.566000,-120.0,-117.0,335.0,-653.0,987.0,-325.0,645.0,-360.0,-43.0
19:31:03.571000,-121.0,-132.0,355.0,-642.0,962.0,-311.0,645.0,-360.0,-43.0
19:31:03.575000,-121.0,-132.0,355.0,-652.0,910.0,-309.0,645.0,-360.0,-43.0
19:31:03.580000,-109.0,-147.0,344.0,-699.0,867.0,-291.0,652.0,-357.0,-42.0
19:31:03.585000,-92.0,-180.0,304.0,-729.0,848.0,-280.0,652.0,-357.0,-42.0
19:31:03.590000,-98.0,-189.0,304.0,-1001.0,843.0,-261.0,640.0,-358.0,-33.0
19:31:03.595000,-151.0,-200.0,259.0,-1342.0,806.0,-286.0,640.0,-358.0,-33.0
19:31:03.599000,-138.0,-198.0,295.0,-1130.0,738.0,-325.0,640.0,-358.0,-33.0
19:31:03.604000,-150.0,-163.0,492.0,-874.0,760.0,-300.0,642.0,-363.0,-51.0
19:31:03.609000,-181.0,-145.0,667.0,-893.0,896.0,-306.0,642.0,-363.0,-51.0
19:31:03.613000,-170.0,-128.0,494.0,-953.0,946.0,-308.0,645.0,-372.0,-49.0
19:31:03.618000,-182.0,-117.0,305.0,-1021.0,818.0,-296.0,645.0,-372.0,-49.0
19:31:03.622000,-177.0,-105.0,325.0,-1108.0,640.0,-296.0,645.0,-372.0,-49.0
19:31:03.627000,-172.0,-108.0,362.0,-1238.0,553.0,-302.0,648.0,-367.0,-52.0
19:31:03.632000,-149.0,-95.0,303.0,-1291.0,543.0,-302.0,648.0,-367.0,-52.0
19:31:03.637000,-147.0,-98.0,256.0,-1291.0,543.0,-302.0,646.0,-366.0,-57.0
19:31:03.642000,-135.0,-102.0,225.0,-1299.0,506.0,-305.0,646.0,-366.0,-57.0
19:31:03.646000,-126.0,-107.0,175.0,-1325.0,475.0,-316.0,646.0,-366.0,-57.0
19:31:03.651000,-127.0,-96.0,131.0,-1361.0,488.0,-314.0,642.0,-370.0,-57.0
19:31:03.656000,-154.0,-94.0,130.0,-1355.0,468.0,-295.0,642.0,-370.0,-57.0
19:31:03.660000,-130.0,-109.0,106.0,-1340.0,413.0,-289.0,639.0,-369.0,-52.0
19:31:03.665000,-99.0,-115.0,38.0,-1362.0,419.0,-299.0,639.0,-369.0,-52.0
19:31:03.669000,-99.0,-115.0,38.0,-1342.0,425.0,-289.0,639.0,-369.0,-52.0
19:31:03.674000,-115.0,-81.0,-54.0,-1267.0,357.0,-275.0,645.0,-367.0,-55.0
19:31:03.679000,-82.0,-84.0,-9.0,-1233.0,268.0,-272.0,645.0,-367.0,-55.0
19:31:03.684000,-82.0,-84.0,-9.0,-1274.0,267.0,-278.0,631.0,-373.0,-55.0
19:31:03.689000,-45.0,-84.0,-8.0,-1342.0,316.0,-269.0,631.0,-373.0,-55.0
19:31:03.693000,-45.0,-60.0,-78.0,-1366.0,264.0,-254.0,631.0,-373.0,-55.0
19:31:03.698000,-50.0,-37.0,-105.0,-1367.0,151.0,-242.0,645.0,-367.0,-58.0
19:31:03.703000,-32.0,-37.0,-47.0,-1371.0,64.0,-234.0,645.0,-367.0,-58.0
19:31:03.707000,-18.0,-30.0,49.0,-1366.0,44.0,-228.0,627.0,-369.0,-52.0
19:31:03.712000,-24.0,-16.0,114.0,-1365.0,61.0,-218.0,627.0,-369.0,-52.0
19:31:03.716000,-32.0,-9.0,121.0,-1320.0,35.0,-206.0,627.0,-369.0,-52.0
19:31:03.721000,-39.0,-12.0,121.0,-1205.0,-33.0,-188.0,645.0,-372.0,-57.0
19:31:03.726000,-35.0,-23.0,174.0,-1149.0,-67.0,-168.0,645.0,-372.0,-57.0
19:31:03.731000,-26.0,-42.0,186.0,-1149.0,-67.0,-168.0,643.0,-372.0,-63.0
19:31:03.736000,-19.0,-63.0,166.0,-1058.0,-76.0,-164.0,643.0,-372.0,-63.0
19:31:03.740000,3.0,-97.0,123.0,-1052.0,-50.0,-156.0,643.0,-372.0,-63.0
19:31:03.745000,-6.0,-114.0,65.0,-1052.0,-50.0,-156.0,636.0,-375.0,-66.0
19:31:03.750000,-11.0,-141.0,32.0,-1044.0,-13.0,-151.0,636.0,-375.0,-66.0
19:31:03.754000,-16.0,-168.0,-11.0,-1044.0,20.0,-147.0,640.0,-376.0,-64.0
19:31:03.759000,-32.0,-186.0,-74.0,-1050.0,55.0,-145.0,640.0,-376.0,-64.0
19:31:03.763000,-49.0,-199.0,-142.0,-1111.0,152.0,-149.0,640.0,-376.0,-64.0
19:31:03.768000,-65.0,-210.0,-213.0,-1111.0,152.0,-149.0,628.0,-366.0,-64.0
19:31:03.773000,-86.0,-218.0,-257.0,-1150.0,189.0,-152.0,628.0,-366.0,-64.0
19:31:03.778000,-109.0,-214.0,-291.0,-1153.0,210.0,-153.0,631.0,-367.0,-64.0
19:31:03.783000,-167.0,-186.0,-345.0,-1150.0,249.0,-145.0,631.0,-367.0,-64.0
19:31:03.787000,-167.0,-186.0,-345.0,-1169.0,298.0,-139.0,631.0,-367.0,-64.0
19:31:03.792000,-205.0,-163.0,-430.0,-1164.0,294.0,-144.0,640.0,-360.0,-69.0
19:31:03.797000,-212.0,-146.0,-441.0,-1149.0,246.0,-154.0,640.0,-360.0,-69.0
19:31:03.801000,-217.0,-116.0,-418.0,-1180.0,233.0,-155.0,628.0,-361.0,-72.0
19:31:03.806000,-233.0,-89.0,-403.0,-1193.0,236.0,-152.0,628.0,-361.0,-72.0
19:31:03.810000,-260.0,-49.0,-363.0,-1162.0,195.0,-162.0,628.0,-361.0,-72.0
19:31:03.815000,-265.0,-6.0,-277.0,-1132.0,133.0,-172.0,624.0,-354.0,-73.0
19:31:03.820000,-248.0,27.0,-178.0,-1142.0,97.0,-187.0,624.0,-354.0,-73.0
19:31:03.825000,-221.0,58.0,-121.0,-1192.0,52.0,-210.0,628.0,-355.0,-67.0
19:31:03.830000,-191.0,105.0,-144.0,-1240.0,-3.0,-208.0,628.0,-355.0,-67.0
19:31:03.834000,-178.0,141.0,-163.0,-1227.0,-19.0,-220.0,628.0,-355.0,-67.0
19:31:03.839000,-136.0,177.0,-155.0,-1171.0,-12.0,-246.0,637.0,-360.0,-67.0
19:31:03.844000,-96.0,208.0,-157.0,-1126.0,16.0,-247.0,637.0,-360.0,-67.0
19:31:03.848000,-24.0,221.0,-151.0,-1114.0,49.0,-254.0,633.0,-352.0,-43.0
19:31:03.853000,11.0,224.0,-95.0,-1114.0,64.0,-261.0,633.0,-352.0,-43.0
19:31:03.857000,29.0,233.0,-42.0,-1128.0,64.0,-261.0,633.0,-352.0,-43.0
19:31:03.862000,47.0,251.0,-67.0,-1171.0,94.0,-272.0,639.0,-360.0,-69.0
19:31:03.867000,58.0,254.0,-90.0,-1199.0,99.0,-281.0,639.0,-360.0,-69.0
19:31:03.872000,51.0,253.0,-89.0,-1183.0,87.0,-285.0,639.0,-355.0,-60.0
19:31:03.877000,20.0,244.0,-53.0,-1141.0,86.0,-294.0,639.0,-355.0,-60.0
19:31:03.881000,-4.0,223.0,39.0,-1055.0,102.0,-300.0,639.0,-355.0,-60.0
19:31:03.886000,-30.0,201.0,105.0,-991.0,130.0,-309.0,643.0,-348.0,-66.0
19:31:03.891000,-44.0,182.0,69.0,-997.0,149.0,-303.0,643.0,-348.0,-66.0
19:31:03.895000,-44.0,182.0,69.0,-980.0,144.0,-291.0,637.0,-343.0,-66.0
19:31:03.900000,-37.0,110.0,0.0,-929.0,140.0,-289.0,637.0,-343.0,-66.0
19:31:03.904000,-37.0,110.0,0.0,-908.0,111.0,-284.0,637.0,-343.0,-66.0
19:31:03.909000,-36.0,71.0,25.0,-922.0,79.0,-290.0,628.0,-348.0,-63.0
19:31:03.914000,-21.0,39.0,23.0,-948.0,96.0,-289.0,628.0,-348.0,-63.0
19:31:03.919000,-37.0,19.0,-11.0,-942.0,106.0,-272.0,651.0,-346.0,-64.0
19:31:03.924000,-49.0,-7.0,-30.0,-876.0,80.0,-248.0,651.0,-346.0,-64.0
19:31:03.928000,-60.0,-30.0,-15.0,-842.0,98.0,-231.0,651.0,-346.0,-64.0
19:31:03.933000,-32.0,-73.0,11.0,-855.0,126.0,-229.0,634.0,-345.0,-58.0
19:31:03.938000,-29.0,-93.0,-6.0,-895.0,76.0,-223.0,634.0,-345.0,-58.0
19:31:03.942000,-18.0,-110.0,-35.0,-954.0,-7.0,-223.0,636.0,-352.0,-61.0
19:31:03.947000,-2.0,-119.0,-44.0,-1023.0,0.0,-225.0,636.0,-352.0,-61.0
19:31:03.951000,33.0,-138.0,-100.0,-1056.0,87.0,-215.0,636.0,-352.0,-61.0
19:31:03.956000,57.0,-151.0,-85.0,-1012.0,87.0,-202.0,643.0,-337.0,-52.0
19:31:03.961000,56.0,-142.0,-30.0,-1008.0,49.0,-197.0,643.0,-337.0,-52.0
19:31:03.966000,58.0,-127.0,-19.0,-1008.0,49.0,-197.0,631.0,-354.0,-63.0
19:31:03.971000,90.0,-119.0,-60.0,-1069.0,73.0,-191.0,631.0,-354.0,-63.0
19:31:03.975000,100.0,-112.0,-63.0,-1117.0,101.0,-183.0,631.0,-354.0,-63.0
19:31:03.980000,98.0,-95.0,-12.0,-1123.0,84.0,-173.0,639.0,-346.0,-61.0
19:31:03.985000,99.0,-63.0,11.0,-1142.0,98.0,-168.0,639.0,-346.0,-61.0
19:31:03.989000,79.0,-37.0,2.0,-1148.0,106.0,-159.0,633.0,-355.0,-42.0
19:31:03.994000,78.0,-23.0,21.0,-1148.0,106.0,-159.0,633.0,-355.0,-42.0
19:31:03.999000,70.0,-3.0,42.0,-1123.0,112.0,-164.0,633.0,-355.0,-42.0
19:31:04.003000,65.0,16.0,25.0,-1120.0,107.0,-167.0,633.0,-355.0,-42.0
19:31:04.007000,65.0,16.0,25.0,-1133.0,86.0,-163.0,633.0,-355.0,-42.0
19:31:04.013000,62.0,28.0,2.0,-1096.0,61.0,-163.0,648.0,-342.0,-64.0
19:31:04.018000,74.0,30.0,-27.0,-1021.0,67.0,-169.0,648.0,-342.0,-64.0
19:31:04.022000,81.0,31.0,-26.0,-982.0,65.0,-175.0,645.0,-348.0,-60.0
19:31:04.027000,93.0,25.0,-2.0,-1001.0,100.0,-180.0,645.0,-348.0,-60.0
19:31:04.031000,90.0,28.0,2.0,-1044.0,219.0,-185.0,645.0,-348.0,-60.0
19:31:04.036000,77.0,36.0,-7.0,-1054.0,217.0,-180.0,642.0,-354.0,-67.0
19:31:04.041000,33.0,55.0,-33.0,-1044.0,157.0,-175.0,642.0,-354.0,-67.0
19:31:04.046000,60.0,53.0,-51.0,-1028.0,184.0,-171.0,645.0,-354.0,-63.0
19:31:04.050000,42.0,64.0,-71.0,-986.0,179.0,-154.0,645.0,-354.0,-63.0
19:31:04.054000,37.0,63.0,-100.0,-956.0,141.0,-146.0,645.0,-354.0,-63.0
19:31:04.060000,32.0,60.0,-71.0,-962.0,112.0,-144.0,648.0,-352.0,-63.0
19:31:04.065000,27.0,58.0,-65.0,-999.0,125.0,-143.0,648.0,-352.0,-63.0
19:31:04.069000,32.0,58.0,-94.0,-999.0,125.0,-143.0,642.0,-343.0,-64.0
19:31:04.074000,27.0,58.0,-95.0,-1033.0,147.0,-143.0,642.0,-343.0,-64.0
19:31:04.078000,28.0,63.0,-111.0,-1047.0,132.0,-144.0,642.0,-343.0,-64.0
19:31:04.083000,28.0,70.0,-151.0,-1047.0,123.0,-146.0,642.0,-349.0,-60.0
19:31:04.088000,11.0,76.0,-178.0,-1042.0,137.0,-145.0,642.0,-349.0,-60.0
19:31:04.093000,9.0,84.0,-184.0,-1023.0,142.0,-147.0,646.0,-346.0,-61.0
19:31:04.097000,20.0,81.0,-178.0,-1030.0,168.0,-153.0,646.0,-346.0,-61.0
19:31:04.101000,27.0,87.0,-173.0,-1048.0,243.0,-153.0,646.0,-346.0,-61.0
19:31:04.107000,0.0,96.0,-183.0,-1033.0,199.0,-144.0,634.0,-340.0,-61.0
19:31:04.111000,35.0,91.0,-204.0,-1031.0,107.0,-152.0,634.0,-340.0,-61.0
19:31:04.116000,42.0,86.0,-201.0,-1040.0,145.0,-156.0,649.0,-348.0,-51.0
19:31:04.121000,42.0,86.0,-201.0,-1047.0,185.0,-147.0,649.0,-348.0,-51.0
19:31:04.125000,30.0,93.0,-185.0,-1050.0,184.0,-156.0,649.0,-348.0,-51.0
19:31:04.130000,39.0,100.0,-172.0,-1063.0,188.0,-165.0,637.0,-336.0,-36.0
19:31:04.135000,41.0,107.0,-163.0,-1087.0,204.0,-163.0,637.0,-336.0,-36.0
19:31:04.140000,28.0,119.0,-178.0,-1092.0,213.0,-165.0,637.0,-336.0,-36.0
19:31:04.144000,30.0,130.0,-198.0,-1072.0,199.0,-165.0,637.0,-336.0,-36.0
19:31:04.148000,33.0,131.0,-205.0,-1046.0,171.0,-167.0,637.0,-336.0,-36.0
19:31:04.154000,53.0,136.0,-214.0,-1077.0,161.0,-173.0,645.0,-337.0,-54.0
19:31:04.158000,49.0,150.0,-232.0,-1137.0,164.0,-182.0,645.0,-337.0,-54.0
19:31:04.163000,63.0,167.0,-228.0,-1137.0,122.0,-189.0,649.0,-343.0,-49.0
19:31:04.168000,75.0,178.0,-220.0,-1127.0,77.0,-190.0,649.0,-343.0,-49.0
19:31:04.172000,105.0,186.0,-237.0,-1158.0,78.0,-197.0,649.0,-343.0,-49.0
19:31:04.177000,129.0,195.0,-265.0,-1185.0,72.0,-206.0,652.0,-337.0,-40.0
19:31:04.182000,147.0,212.0,-284.0,-1185.0,63.0,-214.0,652.0,-337.0,-40.0
19:31:04.187000,179.0,218.0,-301.0,-1183.0,63.0,-214.0,645.0,-340.0,-51.0
19:31:04.191000,207.0,222.0,-321.0,-1159.0,46.0,-219.0,645.0,-340.0,-51.0
19:31:04.195000,237.0,229.0,-366.0,-1142.0,57.0,-226.0,645.0,-340.0,-51.0
19:31:04.201000,250.0,237.0,-413.0,-1132.0,123.0,-233.0,654.0,-331.0,-51.0
19:31:04.205000,254.0,242.0,-446.0,-1114.0,177.0,-237.0,654.0,-331.0,-51.0
19:31:04.210000,258.0,247.0,-468.0,-1100.0,195.0,-242.0,646.0,-333.0,-52.0
19:31:04.215000,267.0,254.0,-488.0,-1093.0,205.0,-253.0,646.0,-333.0,-52.0
19:31:04.222000,266.0,263.0,-508.0,-1101.0,260.0,-269.0,655.0,-328.0,-45.0
19:31:04.224000,263.0,273.0,-531.0,-1101.0,260.0,-269.0,655.0,-328.0,-45.0
19:31:04.228000,263.0,273.0,-531.0,-1096.0,276.0,-268.0,655.0,-328.0,-45.0
19:31:04.234000,249.0,278.0,-544.0,-1102.0,279.0,-268.0,667.0,-321.0,-42.0
19:31:04.238000,233.0,280.0,-555.0,-1103.0,297.0,-271.0,667.0,-321.0,-42.0
19:31:04.243000,207.0,287.0,-555.0,-1086.0,309.0,-273.0,661.0,-325.0,-46.0
19:31:04.248000,184.0,295.0,-557.0,-1074.0,325.0,-277.0,661.0,-325.0,-46.0
19:31:04.252000,163.0,303.0,-569.0,-1057.0,320.0,-278.0,661.0,-325.0,-46.0
19:31:04.257000,138.0,311.0,-585.0,-1045.0,311.0,-285.0,658.0,-316.0,-31.0
19:31:04.262000,144.0,308.0,-582.0,-1039.0,311.0,-285.0,658.0,-316.0,-31.0
19:31:04.266000,134.0,316.0,-564.0,-1047.0,305.0,-283.0,663.0,-318.0,-27.0
19:31:04.271000,141.0,317.0,-557.0,-1060.0,288.0,-285.0,663.0,-318.0,-27.0
19:31:04.275000,123.0,323.0,-567.0,-1059.0,293.0,-286.0,663.0,-318.0,-27.0
19:31:04.281000,128.0,317.0,-600.0,-1035.0,315.0,-289.0,660.0,-312.0,-30.0
19:31:04.285000,130.0,310.0,-638.0,-998.0,317.0,-288.0,660.0,-312.0,-30.0
19:31:04.290000,131.0,303.0,-663.0,-998.0,317.0,-288.0,660.0,-313.0,-33.0
19:31:04.295000,137.0,299.0,-690.0,-971.0,320.0,-294.0,660.0,-313.0,-33.0
19:31:04.299000,147.0,292.0,-714.0,-964.0,317.0,-298.0,660.0,-313.0,-33.0
19:31:04.304000,153.0,286.0,-729.0,-969.0,317.0,-302.0,658.0,-295.0,-24.0
19:31:04.309000,155.0,281.0,-725.0,-976.0,346.0,-307.0,658.0,-295.0,-24.0
19:31:04.314000,148.0,270.0,-698.0,-971.0,388.0,-307.0,664.0,-294.0,-16.0
19:31:04.318000,126.0,266.0,-662.0,-966.0,403.0,-310.0,664.0,-294.0,-16.0
19:31:04.322000,119.0,258.0,-660.0,-974.0,421.0,-320.0,664.0,-294.0,-16.0
19:31:04.328000,113.0,252.0,-684.0,-981.0,462.0,-330.0,669.0,-289.0,-27.0
19:31:04.332000,98.0,251.0,-677.0,-965.0,477.0,-338.0,669.0,-289.0,-27.0
19:31:04.337000,95.0,244.0,-648.0,-950.0,496.0,-344.0,666.0,-283.0,-22.0
19:31:04.342000,95.0,244.0,-648.0,-959.0,549.0,-347.0,666.0,-283.0,-22.0
19:31:04.346000,81.0,239.0,-637.0,-981.0,568.0,-344.0,666.0,-283.0,-22.0
19:31:04.351000,39.0,247.0,-622.0,-1006.0,546.0,-348.0,654.0,-270.0,-1.0
19:31:04.356000,21.0,253.0,-615.0,-1008.0,559.0,-359.0,654.0,-270.0,-1.0
19:31:04.361000,34.0,251.0,-599.0,-982.0,591.0,-360.0,654.0,-270.0,-1.0
19:31:04.365000,9.0,256.0,-590.0,-967.0,585.0,-363.0,654.0,-270.0,-1.0
19:31:04.369000,6.0,252.0,-588.0,-986.0,544.0,-380.0,654.0,-270.0,-1.0
19:31:04.375000,18.0,248.0,-599.0,-1028.0,501.0,-399.0,661.0,-276.0,-12.0
19:31:04.379000,9.0,261.0,-588.0,-1108.0,553.0,-397.0,661.0,-276.0,-12.0
19:31:04.384000,-4.0,274.0,-563.0,-1148.0,604.0,-399.0,660.0,-261.0,-9.0
19:31:04.389000,8.0,271.0,-495.0,-1105.0,536.0,-423.0,660.0,-261.0,-9.0
19:31:04.393000,19.0,282.0,-453.0,-1077.0,542.0,-430.0,660.0,-261.0,-9.0
19:31:04.398000,37.0,291.0,-454.0,-1024.0,575.0,-461.0,666.0,-264.0,-9.0
19:31:04.403000,80.0,280.0,-466.0,-1024.0,575.0,-461.0,666.0,-264.0,-9.0
19:31:04.408000,91.0,284.0,-536.0,-966.0,579.0,-472.0,664.0,-261.0,-1.0
19:31:04.412000,113.0,281.0,-562.0,-987.0,642.0,-463.0,664.0,-261.0,-1.0
19:31:04.416000,126.0,256.0,-499.0,-1040.0,683.0,-459.0,664.0,-261.0,-1.0
19:31:04.422000,147.0,233.0,-334.0,-1051.0,607.0,-441.0,679.0,-247.0,-4.0
19:31:04.426000,165.0,214.0,-207.0,-1055.0,512.0,-436.0,679.0,-247.0,-4.0
19:31:04.431000,212.0,191.0,-191.0,-1099.0,545.0,-433.0,672.0,-244.0,4.0
19:31:04.436000,222.0,169.0,-201.0,-1103.0,622.0,-425.0,672.0,-244.0,4.0
19:31:04.443000,232.0,155.0,-174.0,-898.0,652.0,-408.0,673.0,-244.0,13.0
19:31:04.445000,238.0,131.0,-144.0,-898.0,652.0,-408.0,673.0,-244.0,13.0
19:31:04.449000,238.0,131.0,-144.0,-865.0,687.0,-387.0,673.0,-244.0,13.0
19:31:04.455000,217.0,113.0,-99.0,-889.0,708.0,-370.0,672.0,-241.0,7.0
19:31:04.459000,182.0,105.0,-35.0,-931.0,706.0,-352.0,672.0,-241.0,7.0
19:31:04.464000,153.0,96.0,-3.0,-915.0,681.0,-331.0,670.0,-235.0,13.0
19:31:04.469000,110.0,95.0,12.0,-851.0,631.0,-306.0,670.0,-235.0,13.0
19:31:04.473000,53.0,94.0,48.0,-827.0,624.0,-283.0,670.0,-235.0,13.0
19:31:04.478000,17.0,88.0,47.0,-853.0,658.0,-260.0,673.0,-246.0,7.0
19:31:04.483000,-46.0,97.0,2.0,-882.0,645.0,-235.0,673.0,-246.0,7.0
19:31:04.487000,-96.0,106.0,-24.0,-900.0,611.0,-215.0,670.0,-232.0,10.0
19:31:04.492000,-133.0,111.0,-58.0,-902.0,565.0,-194.0,670.0,-232.0,10.0
19:31:04.496000,-174.0,121.0,-72.0,-895.0,503.0,-177.0,670.0,-232.0,10.0
19:31:04.502000,-196.0,130.0,-74.0,-877.0,442.0,-167.0,682.0,-243.0,16.0
19:31:04.506000,-209.0,136.0,-68.0,-838.0,374.0,-163.0,682.0,-243.0,16.0
19:31:04.511000,-197.0,136.0,-68.0,-838.0,374.0,-163.0,682.0,-231.0,22.0
19:31:04.516000,-165.0,131.0,-63.0,-780.0,317.0,-170.0,682.0,-231.0,22.0
19:31:04.520000,-121.0,123.0,-59.0,-715.0,281.0,-185.0,682.0,-231.0,22.0
19:31:04.525000,-61.0,111.0,-63.0,-675.0,277.0,-205.0,669.0,-246.0,21.0
19:31:04.530000,-4.0,100.0,-52.0,-660.0,299.0,-226.0,669.0,-246.0,21.0
19:31:04.534000,39.0,91.0,-24.0,-659.0,330.0,-241.0,676.0,-235.0,25.0
19:31:04.539000,71.0,88.0,15.0,-666.0,353.0,-255.0,676.0,-235.0,25.0
19:31:04.543000,91.0,88.0,49.0,-694.0,381.0,-265.0,676.0,-235.0,25.0
19:31:04.549000,99.0,92.0,105.0,-705.0,385.0,-268.0,679.0,-249.0,16.0
19:31:04.553000,103.0,93.0,164.0,-677.0,356.0,-267.0,679.0,-249.0,16.0
19:31:04.558000,98.0,96.0,212.0,-640.0,331.0,-267.0,685.0,-238.0,22.0
19:31:04.563000,98.0,96.0,212.0,-594.0,305.0,-270.0,685.0,-238.0,22.0
19:31:04.567000,93.0,96.0,254.0,-557.0,288.0,-274.0,685.0,-238.0,22.0
19:31:04.572000,91.0,91.0,275.0,-529.0,283.0,-277.0,684.0,-247.0,25.0
19:31:04.577000,84.0,88.0,277.0,-510.0,281.0,-284.0,684.0,-247.0,25.0
19:31:04.581000,82.0,82.0,266.0,-501.0,281.0,-293.0,685.0,-241.0,25.0
19:31:04.586000,82.0,78.0,240.0,-493.0,273.0,-299.0,685.0,-241.0,25.0
19:31:04.590000,84.0,69.0,214.0,-486.0,254.0,-307.0,685.0,-241.0,25.0
19:31:04.596000,91.0,58.0,191.0,-482.0,232.0,-312.0,693.0,-246.0,30.0
19:31:04.600000,99.0,45.0,169.0,-476.0,212.0,-311.0,693.0,-246.0,30.0
19:31:04.605000,111.0,30.0,148.0,-465.0,204.0,-306.0,691.0,-250.0,28.0
19:31:04.610000,126.0,11.0,119.0,-445.0,206.0,-301.0,691.0,-250.0,28.0
19:31:04.614000,140.0,-10.0,91.0,-418.0,213.0,-294.0,691.0,-250.0,28.0
19:31:04.619000,156.0,-35.0,68.0,-403.0,229.0,-285.0,691.0,-247.0,24.0
19:31:04.624000,166.0,-58.0,52.0,-403.0,229.0,-285.0,691.0,-247.0,24.0
19:31:04.628000,169.0,-75.0,49.0,-416.0,267.0,-266.0,690.0,-243.0,37.0
19:31:04.633000,165.0,-88.0,46.0,-416.0,267.0,-266.0,690.0,-243.0,37.0
19:31:04.637000,154.0,-95.0,46.0,-432.0,276.0,-256.0,690.0,-243.0,37.0
19:31:04.643000,144.0,-99.0,44.0,-440.0,276.0,-248.0,681.0,-244.0,25.0
19:31:04.647000,133.0,-100.0,32.0,-445.0,279.0,-240.0,681.0,-244.0,25.0
19:31:04.652000,123.0,-100.0,21.0,-452.0,281.0,-230.0,697.0,-247.0,25.0
19:31:04.657000,116.0,-100.0,15.0,-456.0,274.0,-223.0,697.0,-247.0,25.0
19:31:04.661000,116.0,-100.0,15.0,-463.0,266.0,-219.0,697.0,-247.0,25.0
19:31:04.666000,107.0,-99.0,9.0,-481.0,264.0,-213.0,693.0,-256.0,21.0
19:31:04.671000,107.0,-99.0,9.0,-499.0,268.0,-205.0,693.0,-256.0,21.0
19:31:04.675000,101.0,-98.0,13.0,-508.0,274.0,-200.0,687.0,-249.0,24.0
19:31:04.680000,94.0,-95.0,23.0,-514.0,278.0,-195.0,687.0,-249.0,24.0
19:31:04.684000,85.0,-91.0,37.0,-515.0,279.0,-188.0,687.0,-249.0,24.0
19:31:04.690000,74.0,-89.0,58.0,-514.0,276.0,-182.0,691.0,-249.0,33.0
19:31:04.694000,63.0,-89.0,77.0,-516.0,270.0,-176.0,691.0,-249.0,33.0
19:31:04.699000,49.0,-88.0,98.0,-519.0,260.0,-173.0,696.0,-259.0,28.0
19:31:04.704000,37.0,-90.0,119.0,-524.0,252.0,-171.0,696.0,-259.0,28.0
19:31:04.708000,23.0,-89.0,136.0,-531.0,242.0,-170.0,696.0,-259.0,28.0
19:31:04.713000,5.0,-84.0,152.0,-537.0,228.0,-170.0,679.0,-249.0,24.0
19:31:04.718000,-7.0,-78.0,158.0,-537.0,208.0,-169.0,679.0,-249.0,24.0
19:31:04.722000,-16.0,-70.0,156.0,-537.0,208.0,-169.0,688.0,-253.0,24.0
19:31:04.727000,-19.0,-63.0,149.0,-528.0,147.0,-165.0,688.0,-253.0,24.0
19:31:04.731000,-17.0,-56.0,142.0,-528.0,147.0,-165.0,688.0,-253.0,24.0
19:31:04.737000,-10.0,-50.0,131.0,-523.0,120.0,-165.0,690.0,-252.0,24.0
19:31:04.741000,-1.0,-46.0,119.0,-525.0,103.0,-167.0,690.0,-252.0,24.0
19:31:04.746000,8.0,-42.0,103.0,-530.0,97.0,-169.0,693.0,-247.0,34.0
19:31:04.751000,12.0,-38.0,92.0,-535.0,98.0,-170.0,693.0,-247.0,34.0
19:31:04.755000,14.0,-36.0,89.0,-531.0,98.0,-168.0,693.0,-247.0,34.0
19:31:04.760000,11.0,-34.0,90.0,-520.0,93.0,-164.0,688.0,-253.0,22.0
19:31:04.765000,9.0,-35.0,89.0,-501.0,79.0,-160.0,688.0,-253.0,22.0
19:31:04.769000,14.0,-42.0,83.0,-485.0,65.0,-158.0,702.0,-258.0,25.0
19:31:04.774000,23.0,-49.0,67.0,-484.0,57.0,-156.0,702.0,-258.0,25.0
19:31:04.778000,23.0,-49.0,67.0,-496.0,61.0,-157.0,702.0,-258.0,25.0
19:31:04.784000,30.0,-56.0,43.0,-515.0,72.0,-161.0,687.0,-258.0,48.0
19:31:04.788000,40.0,-63.0,27.0,-541.0,80.0,-165.0,687.0,-258.0,48.0
19:31:04.793000,51.0,-74.0,17.0,-565.0,92.0,-170.0,691.0,-256.0,22.0
19:31:04.798000,57.0,-84.0,11.0,-584.0,111.0,-174.0,691.0,-256.0,22.0
19:31:04.802000,56.0,-93.0,15.0,-593.0,140.0,-177.0,691.0,-256.0,22.0
19:31:04.807000,48.0,-103.0,28.0,-593.0,174.0,-177.0,690.0,-255.0,27.0
19:31:04.812000,32.0,-114.0,48.0,-583.0,200.0,-175.0,690.0,-255.0,27.0
19:31:04.816000,9.0,-125.0,76.0,-569.0,208.0,-173.0,684.0,-258.0,19.0
19:31:04.821000,-12.0,-140.0,112.0,-554.0,203.0,-172.0,684.0,-258.0,19.0
19:31:04.825000,-32.0,-159.0,148.0,-544.0,192.0,-173.0,684.0,-258.0,19.0
19:31:04.831000,-50.0,-179.0,178.0,-543.0,183.0,-178.0,690.0,-262.0,15.0
19:31:04.835000,-65.0,-199.0,200.0,-546.0,178.0,-183.0,690.0,-262.0,15.0
19:31:04.840000,-79.0,-219.0,214.0,-546.0,178.0,-183.0,691.0,-261.0,25.0
19:31:04.845000,-85.0,-239.0,222.0,-551.0,171.0,-189.0,691.0,-261.0,25.0
19:31:04.849000,-87.0,-257.0,224.0,-553.0,157.0,-195.0,691.0,-261.0,25.0
19:31:04.854000,-83.0,-275.0,226.0,-551.0,137.0,-200.0,697.0,-270.0,13.0
19:31:04.859000,-70.0,-294.0,228.0,-548.0,111.0,-204.0,697.0,-270.0,13.0
19:31:04.863000,-53.0,-310.0,231.0,-550.0,92.0,-209.0,676.0,-268.0,12.0
19:31:04.868000,-37.0,-321.0,232.0,-558.0,90.0,-209.0,676.0,-268.0,12.0
19:31:04.872000,-23.0,-326.0,233.0,-566.0,103.0,-206.0,676.0,-268.0,12.0
19:31:04.878000,-11.0,-324.0,238.0,-574.0,117.0,-200.0,685.0,-270.0,15.0
19:31:04.882000,-1.0,-319.0,252.0,-581.0,122.0,-192.0,685.0,-270.0,15.0
19:31:04.887000,7.0,-310.0,270.0,-594.0,120.0,-186.0,693.0,-262.0,6.0
19:31:04.892000,7.0,-310.0,270.0,-615.0,125.0,-182.0,693.0,-262.0,6.0
19:31:04.896000,13.0,-297.0,283.0,-643.0,142.0,-178.0,693.0,-262.0,6.0
19:31:04.901000,12.0,-279.0,294.0,-670.0,169.0,-177.0,684.0,-270.0,-4.0
19:31:04.906000,2.0,-259.0,302.0,-687.0,192.0,-176.0,684.0,-270.0,-4.0
19:31:04.910000,-13.0,-240.0,311.0,-693.0,203.0,-174.0,694.0,-265.0,0.0
19:31:04.915000,-28.0,-228.0,322.0,-686.0,207.0,-171.0,694.0,-265.0,0.0
19:31:04.919000,-45.0,-220.0,336.0,-672.0,214.0,-165.0,694.0,-265.0,0.0
19:31:04.925000,-62.0,-214.0,347.0,-657.0,224.0,-159.0,685.0,-277.0,22.0
19:31:04.929000,-77.0,-214.0,360.0,-643.0,235.0,-152.0,685.0,-277.0,22.0
19:31:04.934000,-95.0,-214.0,369.0,-633.0,247.0,-147.0,691.0,-273.0,-6.0
19:31:04.939000,-121.0,-215.0,375.0,-625.0,251.0,-145.0,691.0,-273.0,-6.0
19:31:04.943000,-147.0,-213.0,386.0,-620.0,242.0,-149.0,691.0,-273.0,-6.0
19:31:04.948000,-171.0,-211.0,396.0,-621.0,228.0,-157.0,688.0,-285.0,3.0
19:31:04.953000,-188.0,-211.0,402.0,-621.0,228.0,-157.0,688.0,-285.0,3.0
19:31:04.957000,-198.0,-211.0,403.0,-630.0,194.0,-173.0,684.0,-285.0,-1.0
19:31:04.962000,-201.0,-212.0,401.0,-630.0,194.0,-173.0,684.0,-285.0,-1.0
19:31:04.966000,-199.0,-213.0,399.0,-634.0,178.0,-180.0,684.0,-285.0,-1.0
19:31:04.972000,-199.0,-215.0,396.0,-635.0,163.0,-185.0,687.0,-292.0,-9.0
19:31:04.976000,-201.0,-217.0,392.0,-628.0,153.0,-192.0,687.0,-292.0,-9.0
19:31:04.981000,-202.0,-220.0,384.0,-617.0,155.0,-201.0,688.0,-286.0,-6.0
