hh:mm:ss.ms,gyroX[mdps],gyroY[mdps],gyroZ[mdps],accX[mg],accY[mg],accZ[mg],magX[mG],magY[mG],magZ[mG]
19:30:42.939000,-181.0,-210.0,652.0,-1158.0,-42.0,-198.0,531.0,-330.0,448.0
19:30:42.944000,-177.0,-196.0,626.0,-1242.0,-92.0,-199.0,531.0,-328.0,448.0
19:30:42.949000,-175.0,-169.0,618.0,-1325.0,-141.0,-204.0,531.0,-328.0,448.0
19:30:42.953000,-175.0,-169.0,618.0,-1416.0,-153.0,-213.0,531.0,-328.0,448.0
19:30:42.958000,-131.0,-109.0,521.0,-1508.0,-167.0,-228.0,528.0,-339.0,463.0
19:30:42.963000,-131.0,-109.0,521.0,-1576.0,-161.0,-253.0,528.0,-339.0,463.0
19:30:42.968000,-86.0,-74.0,378.0,-1590.0,-132.0,-278.0,528.0,-339.0,463.0
19:30:42.972000,-30.0,-46.0,249.0,-1555.0,-93.0,-293.0,528.0,-339.0,463.0
19:30:42.976000,23.0,-26.0,182.0,-1512.0,-52.0,-303.0,528.0,-339.0,463.0
19:30:42.982000,56.0,0.0,166.0,-1499.0,-8.0,-317.0,532.0,-346.0,442.0
19:30:42.986000,96.0,20.0,178.0,-1495.0,37.0,-329.0,532.0,-346.0,442.0
19:30:42.991000,130.0,43.0,176.0,-1488.0,86.0,-331.0,526.0,-339.0,439.0
19:30:42.996000,156.0,63.0,156.0,-1475.0,125.0,-328.0,526.0,-339.0,439.0
19:30:43.000000,179.0,78.0,105.0,-1435.0,133.0,-316.0,526.0,-339.0,439.0
19:30:43.005000,192.0,89.0,65.0,-1363.0,134.0,-304.0,543.0,-348.0,447.0
19:30:43.010000,214.0,88.0,58.0,-1303.0,136.0,-294.0,543.0,-348.0,447.0
19:30:43.015000,208.0,102.0,51.0,-1303.0,136.0,-294.0,537.0,-343.0,438.0
19:30:43.019000,218.0,100.0,46.0,-1288.0,169.0,-265.0,537.0,-343.0,438.0
19:30:43.023000,191.0,103.0,92.0,-1288.0,169.0,-265.0,537.0,-343.0,438.0
19:30:43.029000,165.0,105.0,124.0,-1278.0,177.0,-246.0,546.0,-342.0,442.0
19:30:43.033000,135.0,116.0,114.0,-1297.0,181.0,-238.0,546.0,-342.0,442.0
19:30:43.038000,124.0,121.0,70.0,-1318.0,136.0,-228.0,537.0,-351.0,433.0
19:30:43.043000,127.0,121.0,24.0,-1353.0,93.0,-228.0,537.0,-351.0,433.0
19:30:43.050000,121.0,112.0,0.0,-1346.0,43.0,-227.0,526.0,-348.0,463.0
19:30:43.052000,134.0,98.0,-7.0,-1346.0,43.0,-227.0,526.0,-348.0,463.0
19:30:43.056000,134.0,98.0,-7.0,-1279.0,35.0,-233.0,526.0,-348.0,463.0
19:30:43.062000,124.0,103.0,-172.0,-1261.0,71.0,-243.0,534.0,-339.0,447.0
19:30:43.066000,123.0,87.0,-221.0,-1260.0,85.0,-251.0,534.0,-339.0,447.0
19:30:43.071000,123.0,87.0,-221.0,-1183.0,56.0,-254.0,534.0,-340.0,436.0
19:30:43.076000,119.0,81.0,-134.0,-1135.0,70.0,-259.0,534.0,-340.0,436.0
19:30:43.080000,111.0,81.0,-59.0,-1181.0,114.0,-267.0,534.0,-340.0,436.0
19:30:43.085000,102.0,80.0,-76.0,-1196.0,150.0,-271.0,535.0,-348.0,447.0
19:30:43.090000,97.0,60.0,-69.0,-1139.0,158.0,-275.0,535.0,-348.0,447.0
19:30:43.094000,65.0,62.0,-11.0,-1108.0,151.0,-290.0,537.0,-334.0,457.0
19:30:43.099000,54.0,53.0,46.0,-1102.0,204.0,-295.0,537.0,-334.0,457.0
19:30:43.103000,17.0,51.0,70.0,-947.0,348.0,-271.0,537.0,-334.0,457.0
19:30:43.109000,-23.0,56.0,63.0,-727.0,583.0,-274.0,531.0,-333.0,441.0
19:30:43.113000,29.0,28.0,9.0,-1024.0,367.0,-288.0,531.0,-333.0,441.0
19:30:43.118000,-93.0,17.0,123.0,-1163.0,-272.0,-278.0,535.0,-343.0,454.0
19:30:43.123000,-147.0,56.0,406.0,-1105.0,-523.0,-306.0,535.0,-343.0,454.0
19:30:43.127000,-120.0,30.0,333.0,-1105.0,-211.0,-292.0,535.0,-343.0,454.0
19:30:43.132000,-73.0,-2.0,100.0,-1105.0,205.0,-273.0,534.0,-343.0,444.0
19:30:43.137000,-85.0,-7.0,-154.0,-973.0,321.0,-291.0,534.0,-343.0,444.0
19:30:43.141000,-141.0,-13.0,-216.0,-973.0,321.0,-291.0,523.0,-346.0,441.0
19:30:43.146000,-163.0,-70.0,-177.0,-829.0,260.0,-281.0,523.0,-346.0,441.0
19:30:43.150000,-226.0,-107.0,-69.0,-799.0,147.0,-251.0,523.0,-346.0,441.0
19:30:43.156000,-219.0,-149.0,-25.0,-813.0,55.0,-265.0,528.0,-336.0,442.0
19:30:43.160000,-263.0,-172.0,-62.0,-910.0,76.0,-281.0,528.0,-336.0,442.0
19:30:43.165000,-280.0,-212.0,-120.0,-981.0,136.0,-276.0,535.0,-349.0,439.0
19:30:43.170000,-354.0,-239.0,-167.0,-1002.0,126.0,-272.0,535.0,-349.0,439.0
19:30:43.174000,-354.0,-239.0,-167.0,-982.0,97.0,-250.0,535.0,-349.0,439.0
19:30:43.179000,-388.0,-333.0,-152.0,-928.0,96.0,-244.0,541.0,-343.0,438.0
19:30:43.184000,-388.0,-333.0,-152.0,-907.0,81.0,-225.0,541.0,-343.0,438.0
19:30:43.188000,-386.0,-406.0,-163.0,-917.0,71.0,-208.0,544.0,-352.0,447.0
19:30:43.193000,-392.0,-468.0,-244.0,-916.0,56.0,-201.0,544.0,-352.0,447.0
19:30:43.197000,-417.0,-519.0,-291.0,-925.0,24.0,-148.0,544.0,-352.0,447.0
19:30:43.203000,-501.0,-552.0,-329.0,-948.0,31.0,-168.0,546.0,-348.0,435.0
19:30:43.207000,-473.0,-609.0,-407.0,-991.0,82.0,-204.0,546.0,-348.0,435.0
19:30:43.212000,-462.0,-645.0,-479.0,-1021.0,132.0,-161.0,562.0,-345.0,435.0
19:30:43.217000,-464.0,-677.0,-520.0,-1042.0,170.0,-136.0,562.0,-345.0,435.0
19:30:43.221000,-494.0,-714.0,-578.0,-1052.0,127.0,-113.0,562.0,-345.0,435.0
19:30:43.226000,-541.0,-732.0,-586.0,-1089.0,82.0,-109.0,549.0,-343.0,433.0
19:30:43.231000,-510.0,-764.0,-611.0,-1156.0,130.0,-103.0,549.0,-343.0,433.0
19:30:43.235000,-524.0,-774.0,-681.0,-1156.0,130.0,-103.0,552.0,-343.0,435.0
19:30:43.240000,-550.0,-775.0,-701.0,-1164.0,148.0,-85.0,552.0,-343.0,435.0
19:30:43.244000,-560.0,-777.0,-693.0,-1164.0,148.0,-85.0,552.0,-343.0,435.0
19:30:43.250000,-568.0,-779.0,-701.0,-1124.0,172.0,-68.0,555.0,-355.0,426.0
19:30:43.254000,-590.0,-763.0,-728.0,-1081.0,183.0,-64.0,555.0,-355.0,426.0
19:30:43.259000,-597.0,-750.0,-762.0,-1068.0,181.0,-64.0,553.0,-345.0,418.0
19:30:43.264000,-576.0,-741.0,-770.0,-1086.0,167.0,-71.0,553.0,-345.0,418.0
19:30:43.268000,-567.0,-728.0,-788.0,-1099.0,252.0,-61.0,553.0,-345.0,418.0
19:30:43.273000,-580.0,-689.0,-807.0,-1099.0,252.0,-61.0,559.0,-334.0,429.0
19:30:43.278000,-566.0,-659.0,-807.0,-1063.0,225.0,-61.0,559.0,-334.0,429.0
19:30:43.282000,-549.0,-630.0,-774.0,-1051.0,190.0,-59.0,573.0,-342.0,412.0
19:30:43.287000,-513.0,-595.0,-751.0,-1067.0,187.0,-63.0,573.0,-342.0,412.0
19:30:43.291000,-513.0,-595.0,-751.0,-1084.0,198.0,-65.0,573.0,-342.0,412.0
19:30:43.296000,-510.0,-554.0,-751.0,-1068.0,198.0,-69.0,565.0,-337.0,412.0
19:30:43.301000,-472.0,-519.0,-739.0,-1046.0,219.0,-74.0,565.0,-337.0,412.0
19:30:43.306000,-432.0,-491.0,-706.0,-1037.0,250.0,-77.0,571.0,-328.0,406.0
19:30:43.311000,-397.0,-451.0,-683.0,-1040.0,272.0,-82.0,571.0,-328.0,406.0
19:30:43.315000,-386.0,-410.0,-660.0,-1052.0,285.0,-88.0,571.0,-328.0,406.0
19:30:43.320000,-366.0,-378.0,-640.0,-1058.0,351.0,-92.0,580.0,-333.0,421.0
19:30:43.325000,-319.0,-363.0,-619.0,-1037.0,390.0,-82.0,580.0,-333.0,421.0
19:30:43.329000,-350.0,-326.0,-582.0,-1021.0,329.0,-91.0,583.0,-333.0,409.0
19:30:43.334000,-334.0,-294.0,-546.0,-1056.0,314.0,-121.0,583.0,-333.0,409.0
19:30:43.338000,-284.0,-276.0,-508.0,-1085.0,303.0,-113.0,583.0,-333.0,409.0
19:30:43.343000,-291.0,-245.0,-435.0,-1089.0,284.0,-102.0,579.0,-331.0,403.0
19:30:43.348000,-274.0,-219.0,-350.0,-1094.0,309.0,-112.0,579.0,-331.0,403.0
19:30:43.352000,-244.0,-190.0,-318.0,-1078.0,303.0,-110.0,576.0,-324.0,397.0
19:30:43.358000,-212.0,-172.0,-296.0,-1078.0,303.0,-110.0,576.0,-324.0,397.0
19:30:43.362000,-174.0,-154.0,-284.0,-1040.0,244.0,-108.0,576.0,-324.0,397.0
19:30:43.367000,-138.0,-131.0,-254.0,-998.0,185.0,-106.0,586.0,-322.0,391.0
19:30:43.372000,-112.0,-112.0,-194.0,-972.0,170.0,-99.0,586.0,-322.0,391.0
19:30:43.376000,-86.0,-91.0,-182.0,-974.0,212.0,-93.0,585.0,-319.0,394.0
19:30:43.381000,-52.0,-70.0,-211.0,-977.0,286.0,-98.0,585.0,-319.0,394.0
19:30:43.385000,-52.0,-70.0,-211.0,-961.0,251.0,-94.0,585.0,-319.0,394.0
19:30:43.390000,11.0,-37.0,-267.0,-952.0,183.0,-98.0,583.0,-316.0,399.0
19:30:43.395000,11.0,-37.0,-267.0,-954.0,177.0,-101.0,583.0,-316.0,399.0
19:30:43.400000,16.0,-23.0,-277.0,-948.0,199.0,-90.0,588.0,-316.0,391.0
19:30:43.405000,32.0,-18.0,-294.0,-935.0,275.0,-93.0,588.0,-316.0,391.0
19:30:43.409000,46.0,-14.0,-329.0,-917.0,340.0,-97.0,571.0,-327.0,394.0
19:30:43.414000,53.0,-5.0,-382.0,-895.0,307.0,-97.0,571.0,-327.0,394.0
19:30:43.418000,49.0,7.0,-385.0,-909.0,261.0,-103.0,571.0,-327.0,394.0
19:30:43.423000,91.0,6.0,-359.0,-950.0,303.0,-107.0,591.0,-310.0,396.0
19:30:43.428000,100.0,20.0,-319.0,-985.0,378.0,-101.0,591.0,-310.0,396.0
19:30:43.433000,100.0,35.0,-324.0,-1000.0,424.0,-100.0,583.0,-313.0,399.0
19:30:43.437000,101.0,50.0,-358.0,-978.0,397.0,-96.0,583.0,-313.0,399.0
19:30:43.442000,104.0,65.0,-370.0,-967.0,371.0,-97.0,583.0,-313.0,399.0
19:30:43.447000,122.0,79.0,-372.0,-984.0,364.0,-100.0,574.0,-313.0,408.0
19:30:43.452000,135.0,97.0,-352.0,-1010.0,365.0,-93.0,574.0,-313.0,408.0
19:30:43.456000,142.0,120.0,-340.0,-1010.0,365.0,-93.0,585.0,-313.0,403.0
19:30:43.461000,144.0,144.0,-366.0,-1057.0,391.0,-84.0,585.0,-313.0,403.0
19:30:43.465000,148.0,174.0,-396.0,-1082.0,391.0,-84.0,585.0,-313.0,403.0
19:30:43.470000,163.0,205.0,-410.0,-1076.0,375.0,-85.0,573.0,-307.0,394.0
19:30:43.475000,168.0,238.0,-414.0,-1078.0,361.0,-89.0,573.0,-307.0,394.0
19:30:43.480000,175.0,274.0,-405.0,-1070.0,349.0,-87.0,586.0,-307.0,400.0
19:30:43.484000,189.0,305.0,-401.0,-1077.0,361.0,-102.0,586.0,-307.0,400.0
19:30:43.492000,189.0,343.0,-399.0,-1102.0,427.0,-122.0,579.0,-298.0,405.0
19:30:43.494000,197.0,375.0,-414.0,-1102.0,427.0,-122.0,579.0,-298.0,405.0
19:30:43.498000,197.0,375.0,-414.0,-1113.0,463.0,-131.0,579.0,-298.0,405.0
19:30:43.503000,219.0,427.0,-478.0,-1108.0,478.0,-135.0,570.0,-291.0,411.0
19:30:43.508000,224.0,452.0,-486.0,-1101.0,478.0,-138.0,570.0,-291.0,411.0
19:30:43.513000,224.0,452.0,-486.0,-1070.0,492.0,-140.0,568.0,-289.0,405.0
19:30:43.517000,233.0,476.0,-485.0,-1063.0,542.0,-147.0,568.0,-289.0,405.0
19:30:43.521000,257.0,485.0,-503.0,-1044.0,569.0,-145.0,568.0,-289.0,405.0
19:30:43.527000,232.0,522.0,-506.0,-1040.0,567.0,-150.0,577.0,-285.0,406.0
19:30:43.531000,235.0,534.0,-505.0,-1029.0,557.0,-162.0,577.0,-285.0,406.0
19:30:43.536000,235.0,550.0,-491.0,-1016.0,552.0,-186.0,571.0,-277.0,427.0
19:30:43.541000,254.0,562.0,-468.0,-1053.0,593.0,-202.0,571.0,-277.0,427.0
19:30:43.545000,254.0,581.0,-497.0,-1090.0,631.0,-209.0,571.0,-277.0,427.0
19:30:43.550000,250.0,595.0,-543.0,-1085.0,615.0,-217.0,556.0,-274.0,408.0
19:30:43.555000,249.0,607.0,-486.0,-1076.0,604.0,-222.0,556.0,-274.0,408.0
19:30:43.560000,247.0,623.0,-406.0,-1076.0,604.0,-222.0,558.0,-265.0,409.0
19:30:43.564000,270.0,637.0,-411.0,-1171.0,708.0,-222.0,558.0,-265.0,409.0
19:30:43.568000,273.0,647.0,-466.0,-1193.0,670.0,-232.0,558.0,-265.0,409.0
19:30:43.574000,294.0,679.0,-485.0,-1216.0,648.0,-236.0,549.0,-261.0,427.0
19:30:43.578000,294.0,688.0,-462.0,-1216.0,648.0,-236.0,549.0,-261.0,427.0
19:30:43.583000,276.0,716.0,-429.0,-1246.0,601.0,-223.0,547.0,-267.0,430.0
19:30:43.588000,338.0,735.0,-374.0,-1259.0,571.0,-241.0,547.0,-267.0,430.0
19:30:43.592000,366.0,759.0,-284.0,-1196.0,628.0,-251.0,547.0,-267.0,430.0
19:30:43.597000,375.0,791.0,-240.0,-1183.0,686.0,-247.0,546.0,-249.0,424.0
19:30:43.602000,392.0,809.0,-283.0,-1219.0,709.0,-233.0,546.0,-249.0,424.0
19:30:43.607000,413.0,834.0,-341.0,-1154.0,709.0,-233.0,538.0,-255.0,432.0
19:30:43.611000,413.0,853.0,-304.0,-1095.0,669.0,-235.0,538.0,-255.0,432.0
19:30:43.615000,413.0,853.0,-304.0,-1095.0,626.0,-228.0,538.0,-255.0,432.0
19:30:43.621000,431.0,868.0,-284.0,-1094.0,634.0,-220.0,528.0,-247.0,432.0
19:30:43.625000,428.0,882.0,-277.0,-1095.0,673.0,-215.0,528.0,-247.0,432.0
19:30:43.630000,462.0,879.0,-256.0,-1095.0,700.0,-207.0,523.0,-249.0,444.0
19:30:43.635000,476.0,874.0,-252.0,-1014.0,673.0,-208.0,523.0,-249.0,444.0
19:30:43.639000,494.0,867.0,-221.0,-930.0,676.0,-207.0,523.0,-249.0,444.0
19:30:43.644000,502.0,860.0,-223.0,-929.0,738.0,-196.0,526.0,-232.0,448.0
19:30:43.649000,518.0,847.0,-254.0,-966.0,753.0,-195.0,526.0,-232.0,448.0
19:30:43.654000,534.0,830.0,-270.0,-974.0,734.0,-190.0,516.0,-234.0,447.0
19:30:43.658000,545.0,798.0,-268.0,-952.0,720.0,-183.0,516.0,-234.0,447.0
19:30:43.662000,539.0,767.0,-252.0,-966.0,737.0,-180.0,516.0,-234.0,447.0
19:30:43.668000,563.0,723.0,-258.0,-976.0,777.0,-181.0,517.0,-232.0,463.0
19:30:43.672000,549.0,683.0,-260.0,-944.0,761.0,-171.0,517.0,-232.0,463.0
19:30:43.677000,521.0,640.0,-186.0,-944.0,761.0,-171.0,511.0,-231.0,445.0
19:30:43.682000,511.0,597.0,-149.0,-909.0,743.0,-169.0,511.0,-231.0,445.0
19:30:43.686000,481.0,556.0,-122.0,-868.0,743.0,-163.0,511.0,-231.0,445.0
19:30:43.691000,457.0,518.0,-78.0,-809.0,704.0,-148.0,510.0,-216.0,448.0
19:30:43.696000,434.0,486.0,-2.0,-742.0,644.0,-141.0,510.0,-216.0,448.0
19:30:43.701000,394.0,459.0,85.0,-681.0,586.0,-134.0,510.0,-220.0,445.0
19:30:43.705000,371.0,436.0,135.0,-650.0,543.0,-139.0,510.0,-220.0,445.0
19:30:43.713000,345.0,417.0,175.0,-628.0,473.0,-176.0,508.0,-223.0,450.0
19:30:43.715000,317.0,405.0,174.0,-628.0,473.0,-176.0,508.0,-223.0,450.0
19:30:43.719000,317.0,405.0,174.0,-634.0,470.0,-197.0,508.0,-223.0,450.0
19:30:43.724000,236.0,401.0,189.0,-638.0,472.0,-220.0,484.0,-216.0,459.0
19:30:43.729000,236.0,401.0,189.0,-669.0,500.0,-247.0,484.0,-216.0,459.0
19:30:43.734000,198.0,403.0,168.0,-712.0,535.0,-269.0,504.0,-217.0,447.0
19:30:43.738000,156.0,410.0,128.0,-732.0,538.0,-285.0,504.0,-217.0,447.0
19:30:43.742000,120.0,415.0,111.0,-741.0,518.0,-296.0,504.0,-217.0,447.0
19:30:43.748000,98.0,413.0,108.0,-746.0,493.0,-301.0,511.0,-208.0,453.0
19:30:43.752000,84.0,403.0,95.0,-721.0,456.0,-300.0,511.0,-208.0,453.0
19:30:43.757000,77.0,388.0,85.0,-663.0,411.0,-293.0,492.0,-210.0,481.0
19:30:43.762000,83.0,366.0,88.0,-590.0,361.0,-280.0,492.0,-210.0,481.0
19:30:43.766000,98.0,333.0,121.0,-514.0,294.0,-262.0,492.0,-210.0,481.0
19:30:43.771000,120.0,299.0,176.0,-448.0,218.0,-248.0,487.0,-219.0,465.0
19:30:43.776000,156.0,256.0,233.0,-404.0,162.0,-238.0,487.0,-219.0,465.0
19:30:43.781000,203.0,207.0,267.0,-404.0,162.0,-238.0,492.0,-217.0,460.0
19:30:43.785000,249.0,161.0,294.0,-369.0,135.0,-225.0,492.0,-217.0,460.0
19:30:43.789000,299.0,113.0,309.0,-369.0,168.0,-223.0,492.0,-217.0,460.0
19:30:43.795000,342.0,71.0,301.0,-390.0,168.0,-223.0,495.0,-213.0,463.0
19:30:43.799000,373.0,35.0,273.0,-486.0,278.0,-224.0,495.0,-213.0,463.0
19:30:43.804000,392.0,5.0,238.0,-486.0,278.0,-224.0,486.0,-207.0,472.0
19:30:43.809000,394.0,-16.0,210.0,-541.0,331.0,-226.0,486.0,-207.0,472.0
19:30:43.813000,382.0,-34.0,189.0,-590.0,375.0,-227.0,486.0,-207.0,472.0
19:30:43.818000,357.0,-46.0,179.0,-625.0,414.0,-225.0,501.0,-214.0,460.0
19:30:43.823000,319.0,-55.0,189.0,-643.0,439.0,-220.0,501.0,-214.0,460.0
19:30:43.828000,275.0,-60.0,216.0,-644.0,448.0,-216.0,505.0,-205.0,450.0
19:30:43.832000,228.0,-64.0,252.0,-629.0,449.0,-214.0,505.0,-205.0,450.0
19:30:43.836000,228.0,-64.0,252.0,-605.0,449.0,-214.0,505.0,-205.0,450.0
19:30:43.842000,177.0,-63.0,293.0,-583.0,444.0,-213.0,496.0,-216.0,466.0
19:30:43.846000,123.0,-61.0,335.0,-564.0,435.0,-211.0,496.0,-216.0,466.0
19:30:43.851000,70.0,-57.0,374.0,-549.0,417.0,-207.0,507.0,-204.0,453.0
19:30:43.856000,20.0,-53.0,410.0,-533.0,383.0,-202.0,507.0,-204.0,453.0
19:30:43.860000,-22.0,-52.0,441.0,-513.0,340.0,-195.0,507.0,-204.0,453.0
19:30:43.865000,-53.0,-56.0,464.0,-491.0,295.0,-188.0,502.0,-214.0,459.0
19:30:43.870000,-71.0,-63.0,478.0,-472.0,256.0,-183.0,502.0,-214.0,459.0
19:30:43.875000,-81.0,-72.0,475.0,-457.0,225.0,-178.0,502.0,-207.0,465.0
19:30:43.879000,-75.0,-86.0,457.0,-451.0,202.0,-176.0,502.0,-207.0,465.0
19:30:43.883000,-61.0,-102.0,429.0,-458.0,188.0,-171.0,502.0,-207.0,465.0
19:30:43.889000,-43.0,-116.0,396.0,-474.0,185.0,-165.0,508.0,-217.0,457.0
19:30:43.893000,-21.0,-133.0,371.0,-494.0,181.0,-157.0,508.0,-217.0,457.0
19:30:43.898000,-3.0,-149.0,357.0,-494.0,181.0,-157.0,516.0,-219.0,475.0
19:30:43.903000,16.0,-166.0,352.0,-513.0,171.0,-147.0,516.0,-219.0,475.0
19:30:43.907000,33.0,-182.0,356.0,-523.0,162.0,-138.0,516.0,-219.0,475.0
19:30:43.912000,47.0,-197.0,373.0,-521.0,158.0,-128.0,514.0,-217.0,451.0
19:30:43.917000,55.0,-208.0,398.0,-516.0,163.0,-117.0,514.0,-217.0,451.0
19:30:43.922000,57.0,-216.0,418.0,-513.0,175.0,-108.0,511.0,-213.0,453.0
19:30:43.926000,54.0,-220.0,431.0,-507.0,190.0,-101.0,511.0,-213.0,453.0
19:30:43.930000,46.0,-221.0,442.0,-498.0,200.0,-95.0,511.0,-213.0,453.0
19:30:43.936000,37.0,-221.0,451.0,-488.0,204.0,-91.0,519.0,-217.0,465.0
19:30:43.940000,25.0,-218.0,463.0,-479.0,203.0,-90.0,519.0,-217.0,465.0
19:30:43.945000,14.0,-212.0,471.0,-474.0,200.0,-92.0,522.0,-222.0,453.0
19:30:43.950000,14.0,-212.0,471.0,-472.0,200.0,-95.0,522.0,-222.0,453.0
19:30:43.954000,2.0,-207.0,480.0,-472.0,197.0,-100.0,522.0,-222.0,453.0
19:30:43.959000,-4.0,-201.0,487.0,-478.0,188.0,-105.0,526.0,-222.0,450.0
19:30:43.964000,-5.0,-196.0,492.0,-489.0,173.0,-110.0,526.0,-222.0,450.0
19:30:43.969000,-4.0,-191.0,493.0,-500.0,157.0,-112.0,535.0,-222.0,442.0
19:30:43.973000,-2.0,-186.0,492.0,-503.0,138.0,-110.0,535.0,-222.0,442.0
19:30:43.977000,0.0,-186.0,495.0,-500.0,118.0,-107.0,535.0,-222.0,442.0
19:30:43.983000,0.0,-184.0,501.0,-494.0,104.0,-104.0,528.0,-222.0,448.0
19:30:43.987000,0.0,-181.0,503.0,-488.0,100.0,-102.0,528.0,-222.0,448.0
19:30:43.992000,-4.0,-178.0,494.0,-483.0,102.0,-100.0,528.0,-232.0,463.0
19:30:43.997000,-8.0,-174.0,473.0,-482.0,105.0,-99.0,528.0,-232.0,463.0
19:30:44.001000,-15.0,-170.0,447.0,-487.0,108.0,-99.0,528.0,-232.0,463.0
19:30:44.006000,-21.0,-166.0,417.0,-491.0,109.0,-101.0,550.0,-237.0,454.0
19:30:44.011000,-26.0,-161.0,385.0,-491.0,109.0,-101.0,550.0,-237.0,454.0
19:30:44.016000,-30.0,-154.0,358.0,-493.0,103.0,-103.0,550.0,-234.0,436.0
19:30:44.020000,-32.0,-150.0,331.0,-492.0,101.0,-104.0,550.0,-234.0,436.0
19:30:44.024000,-37.0,-146.0,305.0,-489.0,110.0,-102.0,550.0,-234.0,436.0
19:30:44.030000,-40.0,-142.0,282.0,-478.0,126.0,-100.0,553.0,-232.0,453.0
19:30:44.034000,-45.0,-140.0,264.0,-461.0,144.0,-99.0,553.0,-232.0,453.0
19:30:44.039000,-52.0,-142.0,256.0,-443.0,160.0,-97.0,540.0,-243.0,450.0
19:30:44.044000,-60.0,-147.0,267.0,-426.0,169.0,-94.0,540.0,-243.0,450.0
19:30:44.048000,-60.0,-147.0,267.0,-415.0,170.0,-91.0,540.0,-243.0,450.0
19:30:44.053000,-77.0,-161.0,312.0,-411.0,168.0,-88.0,558.0,-240.0,444.0
19:30:44.058000,-77.0,-161.0,312.0,-409.0,166.0,-85.0,558.0,-240.0,444.0
19:30:44.063000,-88.0,-170.0,346.0,-410.0,159.0,-81.0,543.0,-238.0,442.0
19:30:44.067000,-99.0,-179.0,386.0,-419.0,149.0,-77.0,543.0,-238.0,442.0
19:30:44.104000,-165.0,-158.0,424.0,-613.0,111.0,-73.0,549.0,-249.0,456.0
19:30:44.110000,-164.0,-150.0,400.0,-604.0,111.0,-74.0,549.0,-249.0,456.0
19:30:44.114000,-163.0,-148.0,374.0,-604.0,111.0,-74.0,549.0,-249.0,456.0
19:30:44.119000,-164.0,-146.0,350.0,-594.0,130.0,-67.0,549.0,-249.0,456.0
19:30:44.123000,-169.0,-146.0,333.0,-585.0,130.0,-67.0,549.0,-249.0,456.0
19:30:44.128000,-179.0,-147.0,321.0,-577.0,144.0,-63.0,562.0,-268.0,439.0
19:30:44.133000,-196.0,-147.0,312.0,-571.0,155.0,-59.0,562.0,-268.0,439.0
19:30:44.138000,-216.0,-144.0,311.0,-567.0,157.0,-55.0,570.0,-259.0,448.0
19:30:44.142000,-235.0,-140.0,312.0,-569.0,146.0,-53.0,570.0,-259.0,448.0
19:30:44.147000,-254.0,-136.0,308.0,-585.0,124.0,-52.0,570.0,-259.0,448.0
19:30:44.152000,-266.0,-129.0,300.0,-609.0,93.0,-53.0,571.0,-259.0,436.0
19:30:44.157000,-272.0,-125.0,287.0,-634.0,57.0,-54.0,571.0,-259.0,436.0
19:30:44.161000,-270.0,-123.0,265.0,-658.0,33.0,-61.0,558.0,-274.0,433.0
19:30:44.166000,-266.0,-120.0,231.0,-681.0,32.0,-72.0,558.0,-274.0,433.0
19:30:44.170000,-266.0,-120.0,231.0,-703.0,46.0,-82.0,558.0,-274.0,433.0
19:30:44.175000,-263.0,-114.0,195.0,-716.0,56.0,-93.0,565.0,-277.0,436.0
19:30:44.180000,-262.0,-106.0,170.0,-713.0,52.0,-104.0,565.0,-277.0,436.0
19:30:44.185000,-258.0,-101.0,160.0,-704.0,48.0,-116.0,567.0,-270.0,438.0
19:30:44.189000,-253.0,-98.0,151.0,-698.0,61.0,-126.0,567.0,-270.0,438.0
19:30:44.194000,-248.0,-93.0,137.0,-692.0,79.0,-133.0,567.0,-270.0,438.0
19:30:44.199000,-246.0,-91.0,126.0,-683.0,94.0,-140.0,559.0,-280.0,454.0
19:30:44.204000,-246.0,-90.0,114.0,-683.0,107.0,-147.0,559.0,-280.0,454.0
19:30:44.208000,-247.0,-92.0,95.0,-697.0,122.0,-155.0,576.0,-279.0,438.0
19:30:44.213000,-250.0,-95.0,70.0,-718.0,135.0,-162.0,576.0,-279.0,438.0
19:30:44.217000,-256.0,-102.0,51.0,-741.0,146.0,-169.0,576.0,-279.0,438.0
19:30:44.222000,-264.0,-111.0,36.0,-765.0,156.0,-176.0,571.0,-282.0,438.0
19:30:44.227000,-274.0,-121.0,18.0,-785.0,170.0,-183.0,571.0,-282.0,438.0
19:30:44.232000,-282.0,-130.0,1.0,-785.0,170.0,-183.0,582.0,-282.0,438.0
19:30:44.236000,-291.0,-140.0,-11.0,-808.0,187.0,-191.0,582.0,-282.0,438.0
19:30:44.244000,-302.0,-149.0,-15.0,-863.0,215.0,-205.0,580.0,-274.0,436.0
19:30:44.246000,-314.0,-159.0,-7.0,-863.0,215.0,-205.0,580.0,-274.0,436.0
19:30:44.250000,-329.0,-170.0,7.0,-893.0,219.0,-209.0,580.0,-274.0,436.0
19:30:44.255000,-340.0,-179.0,31.0,-917.0,214.0,-209.0,580.0,-285.0,427.0
19:30:44.260000,-345.0,-188.0,58.0,-930.0,195.0,-204.0,580.0,-285.0,427.0
19:30:44.265000,-343.0,-196.0,83.0,-937.0,170.0,-197.0,570.0,-298.0,432.0
19:30:44.269000,-335.0,-205.0,102.0,-942.0,157.0,-193.0,570.0,-298.0,432.0
19:30:44.273000,-335.0,-205.0,102.0,-955.0,160.0,-193.0,570.0,-298.0,432.0
19:30:44.279000,-324.0,-209.0,120.0,-978.0,180.0,-195.0,567.0,-294.0,430.0
19:30:44.283000,-316.0,-207.0,136.0,-1012.0,214.0,-196.0,567.0,-294.0,430.0
19:30:44.288000,-311.0,-199.0,147.0,-1042.0,241.0,-187.0,565.0,-297.0,436.0
19:30:44.293000,-309.0,-195.0,158.0,-1036.0,241.0,-174.0,565.0,-297.0,436.0
19:30:44.297000,-297.0,-195.0,178.0,-999.0,242.0,-164.0,565.0,-297.0,436.0
19:30:44.302000,-281.0,-200.0,191.0,-957.0,280.0,-155.0,577.0,-300.0,426.0
19:30:44.307000,-263.0,-207.0,183.0,-917.0,354.0,-154.0,577.0,-300.0,426.0
19:30:44.312000,-247.0,-217.0,160.0,-895.0,463.0,-163.0,579.0,-295.0,423.0
19:30:44.316000,-242.0,-224.0,121.0,-900.0,598.0,-182.0,579.0,-295.0,423.0
19:30:44.320000,-246.0,-225.0,73.0,-920.0,736.0,-206.0,579.0,-295.0,423.0
19:30:44.326000,-256.0,-220.0,28.0,-943.0,856.0,-233.0,592.0,-300.0,430.0
19:30:44.330000,-268.0,-216.0,-8.0,-958.0,953.0,-262.0,592.0,-300.0,430.0
19:30:44.335000,-277.0,-216.0,-29.0,-958.0,953.0,-262.0,580.0,-306.0,427.0
19:30:44.340000,-284.0,-215.0,-23.0,-952.0,1036.0,-290.0,580.0,-306.0,427.0
19:30:44.344000,-308.0,-216.0,3.0,-922.0,1139.0,-310.0,580.0,-306.0,427.0
19:30:44.349000,-347.0,-208.0,46.0,-877.0,1269.0,-319.0,591.0,-304.0,423.0
19:30:44.354000,-399.0,-200.0,98.0,-826.0,1379.0,-315.0,591.0,-304.0,423.0
19:30:44.359000,-455.0,-191.0,156.0,-772.0,1420.0,-300.0,583.0,-304.0,418.0
19:30:44.363000,-501.0,-175.0,235.0,-714.0,1338.0,-284.0,583.0,-304.0,418.0
19:30:44.367000,-515.0,-197.0,339.0,-654.0,1148.0,-258.0,583.0,-304.0,418.0
19:30:44.373000,-511.0,-211.0,449.0,-550.0,947.0,-254.0,586.0,-301.0,412.0
19:30:44.377000,-499.0,-230.0,497.0,-481.0,859.0,-258.0,586.0,-301.0,412.0
19:30:44.382000,-462.0,-248.0,453.0,-525.0,873.0,-275.0,577.0,-316.0,418.0
19:30:44.387000,-462.0,-248.0,453.0,-630.0,897.0,-311.0,577.0,-316.0,418.0
19:30:44.391000,-446.0,-238.0,359.0,-775.0,894.0,-313.0,577.0,-316.0,418.0
19:30:44.396000,-454.0,-248.0,408.0,-1238.0,734.0,-302.0,592.0,-319.0,421.0
19:30:44.401000,-479.0,-328.0,844.0,-2342.0,802.0,-336.0,592.0,-319.0,421.0
19:30:44.406000,-503.0,-348.0,366.0,-2161.0,898.0,-426.0,591.0,-316.0,415.0
19:30:44.410000,-474.0,-220.0,-121.0,-445.0,667.0,-379.0,591.0,-316.0,415.0
19:30:44.414000,-464.0,-204.0,172.0,526.0,720.0,-286.0,591.0,-316.0,415.0
19:30:44.420000,-394.0,-261.0,376.0,543.0,984.0,-288.0,588.0,-328.0,420.0
19:30:44.424000,-317.0,-336.0,283.0,84.0,1050.0,-295.0,588.0,-328.0,420.0
19:30:44.429000,-233.0,-399.0,124.0,-477.0,927.0,-304.0,598.0,-334.0,411.0
19:30:44.434000,-204.0,-394.0,56.0,-859.0,712.0,-329.0,598.0,-334.0,411.0
19:30:44.438000,-161.0,-399.0,126.0,-1104.0,525.0,-373.0,598.0,-334.0,411.0
19:30:44.443000,-114.0,-401.0,188.0,-1342.0,494.0,-398.0,600.0,-325.0,412.0
19:30:44.448000,-70.0,-387.0,112.0,-1342.0,616.0,-417.0,600.0,-325.0,412.0
19:30:44.453000,-44.0,-371.0,42.0,-1556.0,616.0,-417.0,604.0,-337.0,409.0
19:30:44.457000,-23.0,-390.0,189.0,-1463.0,690.0,-389.0,604.0,-337.0,409.0
19:30:44.465000,-15.0,-402.0,416.0,-1298.0,620.0,-388.0,601.0,-330.0,411.0
19:30:44.467000,-28.0,-389.0,457.0,-1298.0,620.0,-388.0,601.0,-330.0,411.0
19:30:44.471000,-21.0,-380.0,229.0,-1286.0,691.0,-334.0,601.0,-330.0,411.0
19:30:44.476000,21.0,-402.0,60.0,-1250.0,728.0,-277.0,604.0,-339.0,402.0
19:30:44.481000,0.0,-396.0,2.0,-1110.0,661.0,-237.0,604.0,-339.0,402.0
19:30:44.486000,0.0,-409.0,3.0,-1017.0,594.0,-187.0,606.0,-334.0,400.0
19:30:44.490000,-32.0,-404.0,53.0,-985.0,536.0,-152.0,606.0,-334.0,400.0
19:30:44.494000,-32.0,-404.0,53.0,-1010.0,472.0,-128.0,606.0,-334.0,400.0
19:30:44.500000,-42.0,-408.0,109.0,-1091.0,428.0,-117.0,612.0,-336.0,396.0
19:30:44.504000,-55.0,-396.0,120.0,-1178.0,402.0,-104.0,612.0,-336.0,396.0
19:30:44.509000,-81.0,-374.0,80.0,-1227.0,366.0,-94.0,607.0,-340.0,402.0
19:30:44.514000,-84.0,-354.0,32.0,-1227.0,325.0,-90.0,607.0,-340.0,402.0
19:30:44.518000,-67.0,-338.0,2.0,-1209.0,281.0,-79.0,607.0,-340.0,402.0
19:30:44.523000,-56.0,-323.0,12.0,-1195.0,225.0,-63.0,607.0,-333.0,394.0
19:30:44.528000,-42.0,-310.0,65.0,-1207.0,190.0,-43.0,607.0,-333.0,394.0
19:30:44.533000,-23.0,-302.0,99.0,-1228.0,157.0,-18.0,624.0,-334.0,390.0
19:30:44.537000,-16.0,-294.0,127.0,-1248.0,105.0,-1.0,624.0,-334.0,390.0
19:30:44.541000,6.0,-284.0,151.0,-1258.0,57.0,21.0,624.0,-334.0,390.0
19:30:44.547000,29.0,-286.0,170.0,-1259.0,13.0,42.0,613.0,-333.0,382.0
19:30:44.551000,49.0,-284.0,177.0,-1272.0,-12.0,35.0,613.0,-333.0,382.0
19:30:44.556000,84.0,-280.0,167.0,-1272.0,-12.0,35.0,621.0,-342.0,381.0
19:30:44.561000,99.0,-274.0,146.0,-1298.0,-24.0,32.0,621.0,-342.0,381.0
19:30:44.565000,111.0,-256.0,111.0,-1339.0,-18.0,24.0,621.0,-342.0,381.0
19:30:44.570000,106.0,-233.0,28.0,-1400.0,13.0,8.0,630.0,-336.0,381.0
19:30:44.575000,101.0,-210.0,-44.0,-1450.0,37.0,-6.0,630.0,-336.0,381.0
19:30:44.580000,100.0,-193.0,-105.0,-1474.0,52.0,-25.0,627.0,-337.0,375.0
19:30:44.584000,84.0,-179.0,-171.0,-1492.0,86.0,-39.0,627.0,-337.0,375.0
19:30:44.588000,67.0,-167.0,-226.0,-1494.0,126.0,-49.0,627.0,-337.0,375.0
19:30:44.594000,52.0,-149.0,-282.0,-1473.0,143.0,-62.0,628.0,-334.0,376.0
19:30:44.598000,60.0,-135.0,-361.0,-1446.0,160.0,-69.0,628.0,-334.0,376.0
19:30:44.603000,40.0,-111.0,-441.0,-1430.0,200.0,-67.0,630.0,-336.0,388.0
19:30:44.608000,40.0,-111.0,-441.0,-1423.0,237.0,-70.0,630.0,-336.0,388.0
19:30:44.612000,34.0,-91.0,-467.0,-1433.0,228.0,-75.0,630.0,-336.0,388.0
19:30:44.617000,23.0,-68.0,-454.0,-1420.0,167.0,-64.0,634.0,-331.0,363.0
19:30:44.622000,39.0,-65.0,-413.0,-1373.0,113.0,-46.0,634.0,-331.0,363.0
19:30:44.627000,46.0,-50.0,-396.0,-1362.0,124.0,-46.0,631.0,-325.0,369.0
19:30:44.631000,63.0,-37.0,-433.0,-1389.0,201.0,-49.0,631.0,-325.0,369.0
19:30:44.635000,60.0,-28.0,-454.0,-1398.0,257.0,-25.0,631.0,-325.0,369.0
19:30:44.641000,11.0,10.0,-443.0,-1370.0,263.0,-13.0,624.0,-316.0,382.0
19:30:44.645000,-4.0,37.0,-438.0,-1365.0,278.0,-34.0,624.0,-316.0,382.0
19:30:44.650000,-25.0,56.0,-473.0,-1381.0,288.0,-31.0,625.0,-315.0,378.0
19:30:44.655000,-58.0,72.0,-514.0,-1349.0,241.0,-40.0,625.0,-315.0,378.0
19:30:44.659000,-75.0,100.0,-460.0,-1264.0,185.0,-27.0,625.0,-315.0,378.0
19:30:44.664000,-119.0,127.0,-361.0,-1137.0,226.0,-16.0,634.0,-307.0,375.0
19:30:44.669000,-103.0,123.0,-246.0,-1137.0,226.0,-16.0,634.0,-307.0,375.0
19:30:44.674000,-87.0,97.0,-220.0,-1026.0,385.0,-26.0,631.0,-315.0,372.0
19:30:44.678000,-133.0,126.0,-315.0,-1031.0,531.0,0.0,631.0,-315.0,372.0
19:30:44.682000,-163.0,142.0,-411.0,-1086.0,535.0,8.0,631.0,-315.0,372.0
19:30:44.688000,-151.0,146.0,-471.0,-1108.0,453.0,4.0,613.0,-295.0,385.0
19:30:44.692000,-121.0,140.0,-329.0,-1040.0,334.0,2.0,613.0,-295.0,385.0
19:30:44.697000,-172.0,148.0,-198.0,-944.0,198.0,5.0,613.0,-295.0,385.0
19:30:44.702000,-166.0,164.0,-249.0,-1019.0,171.0,-26.0,613.0,-295.0,385.0
19:30:44.706000,-166.0,164.0,-249.0,-1133.0,201.0,-49.0,613.0,-295.0,385.0
19:30:44.711000,-209.0,216.0,-124.0,-1160.0,237.0,-56.0,633.0,-307.0,381.0
19:30:44.716000,-209.0,216.0,-124.0,-1180.0,289.0,-85.0,633.0,-307.0,381.0
19:30:44.721000,-215.0,231.0,-119.0,-1156.0,267.0,-108.0,622.0,-304.0,378.0
19:30:44.725000,-210.0,249.0,-126.0,-1090.0,264.0,-126.0,622.0,-304.0,378.0
19:30:44.729000,-140.0,234.0,-128.0,-1069.0,277.0,-119.0,622.0,-304.0,378.0
19:30:44.735000,-140.0,237.0,-116.0,-1073.0,210.0,-122.0,627.0,-300.0,385.0
19:30:44.739000,-148.0,238.0,-81.0,-1098.0,173.0,-151.0,627.0,-300.0,385.0
19:30:44.744000,-119.0,221.0,-30.0,-1115.0,191.0,-163.0,618.0,-298.0,393.0
19:30:44.749000,-127.0,229.0,33.0,-1144.0,233.0,-167.0,618.0,-298.0,393.0
19:30:44.753000,-84.0,220.0,30.0,-1152.0,238.0,-148.0,618.0,-298.0,393.0
19:30:44.758000,-98.0,211.0,5.0,-1087.0,191.0,-138.0,627.0,-303.0,385.0
19:30:44.763000,-81.0,201.0,-40.0,-1034.0,153.0,-148.0,627.0,-303.0,385.0
19:30:44.768000,-40.0,189.0,2.0,-1034.0,153.0,-148.0,619.0,-298.0,384.0
19:30:44.772000,-3.0,175.0,100.0,-1098.0,150.0,-117.0,619.0,-298.0,384.0
19:30:44.780000,-7.0,182.0,114.0,-1154.0,144.0,-110.0,616.0,-304.0,394.0
19:30:44.782000,18.0,180.0,118.0,-1154.0,144.0,-110.0,616.0,-304.0,394.0
19:30:44.786000,63.0,170.0,142.0,-1144.0,172.0,-94.0,616.0,-304.0,394.0
19:30:44.791000,35.0,189.0,88.0,-1099.0,190.0,-62.0,619.0,-294.0,396.0
19:30:44.796000,51.0,191.0,48.0,-1058.0,126.0,-47.0,619.0,-294.0,396.0
19:30:44.800000,63.0,193.0,29.0,-1053.0,79.0,-49.0,615.0,-307.0,397.0
19:30:44.805000,58.0,202.0,-30.0,-1088.0,101.0,-37.0,615.0,-307.0,397.0
19:30:44.809000,49.0,203.0,-70.0,-1057.0,110.0,-24.0,615.0,-307.0,397.0
19:30:44.815000,56.0,202.0,-95.0,-988.0,102.0,-22.0,618.0,-312.0,396.0
19:30:44.819000,60.0,207.0,-125.0,-950.0,150.0,-24.0,618.0,-312.0,396.0
19:30:44.823000,60.0,207.0,-125.0,-948.0,191.0,-20.0,612.0,-301.0,388.0
19:30:44.829000,51.0,218.0,-142.0,-979.0,217.0,-20.0,612.0,-301.0,388.0
19:30:44.833000,64.0,219.0,-147.0,-997.0,245.0,-20.0,612.0,-301.0,388.0
19:30:44.838000,44.0,233.0,-190.0,-998.0,223.0,-20.0,615.0,-301.0,397.0
19:30:44.843000,46.0,234.0,-229.0,-986.0,167.0,-24.0,615.0,-301.0,397.0
19:30:44.847000,40.0,232.0,-207.0,-978.0,160.0,-34.0,618.0,-297.0,400.0
19:30:44.852000,55.0,233.0,-167.0,-984.0,218.0,-47.0,618.0,-297.0,400.0
19:30:44.856000,68.0,241.0,-149.0,-995.0,268.0,-57.0,618.0,-297.0,400.0
19:30:44.861000,73.0,262.0,-151.0,-987.0,255.0,-66.0,621.0,-294.0,396.0
19:30:44.866000,88.0,276.0,-164.0,-959.0,225.0,-80.0,621.0,-294.0,396.0
19:30:44.871000,124.0,280.0,-154.0,-944.0,213.0,-88.0,600.0,-292.0,411.0
19:30:44.876000,125.0,291.0,-116.0,-958.0,222.0,-96.0,600.0,-292.0,411.0
19:30:44.880000,139.0,312.0,-99.0,-958.0,222.0,-96.0,598.0,-286.0,408.0
19:30:44.885000,153.0,331.0,-93.0,-979.0,192.0,-120.0,598.0,-286.0,408.0
19:30:44.889000,189.0,352.0,-75.0,-979.0,192.0,-120.0,598.0,-286.0,408.0
19:30:44.894000,221.0,373.0,-75.0,-1006.0,173.0,-135.0,606.0,-288.0,406.0
19:30:44.899000,263.0,398.0,-77.0,-1054.0,165.0,-151.0,606.0,-288.0,406.0
19:30:44.904000,300.0,424.0,-49.0,-1081.0,171.0,-161.0,612.0,-286.0,403.0
19:30:44.908000,322.0,450.0,-11.0,-1087.0,184.0,-165.0,612.0,-286.0,403.0
19:30:44.913000,342.0,473.0,-10.0,-1093.0,223.0,-166.0,612.0,-286.0,403.0
19:30:44.918000,360.0,497.0,-42.0,-1089.0,258.0,-166.0,604.0,-292.0,412.0
19:30:44.923000,375.0,513.0,-40.0,-1079.0,241.0,-164.0,604.0,-292.0,412.0
19:30:44.927000,387.0,526.0,-35.0,-1076.0,211.0,-155.0,612.0,-286.0,403.0
19:30:44.932000,399.0,534.0,-34.0,-1086.0,210.0,-150.0,612.0,-286.0,403.0
19:30:44.936000,399.0,534.0,-34.0,-1071.0,211.0,-154.0,612.0,-286.0,403.0
19:30:44.941000,410.0,534.0,-14.0,-1013.0,201.0,-149.0,601.0,-274.0,411.0
19:30:44.946000,422.0,532.0,0.0,-957.0,215.0,-139.0,601.0,-274.0,411.0
19:30:44.951000,424.0,534.0,-2.0,-955.0,260.0,-147.0,600.0,-277.0,420.0
19:30:44.955000,415.0,539.0,-28.0,-987.0,296.0,-163.0,600.0,-277.0,420.0
19:30:44.963000,373.0,573.0,-85.0,-999.0,291.0,-155.0,603.0,-273.0,438.0
19:30:44.965000,373.0,573.0,-85.0,-999.0,291.0,-155.0,603.0,-273.0,438.0
19:30:44.969000,362.0,586.0,-117.0,-1031.0,290.0,-147.0,603.0,-273.0,438.0
19:30:44.974000,346.0,597.0,-170.0,-1062.0,284.0,-150.0,591.0,-267.0,421.0
19:30:44.979000,325.0,605.0,-224.0,-1062.0,280.0,-155.0,591.0,-267.0,421.0
19:30:44.984000,311.0,611.0,-254.0,-1062.0,280.0,-155.0,588.0,-267.0,424.0
19:30:44.988000,296.0,620.0,-281.0,-1028.0,295.0,-155.0,588.0,-267.0,424.0
19:30:44.992000,282.0,629.0,-300.0,-1026.0,296.0,-162.0,588.0,-267.0,424.0
19:30:44.998000,275.0,639.0,-308.0,-1026.0,296.0,-162.0,580.0,-271.0,424.0
19:30:45.002000,270.0,644.0,-322.0,-1025.0,265.0,-175.0,580.0,-271.0,424.0
19:30:45.007000,278.0,647.0,-360.0,-1025.0,265.0,-175.0,586.0,-255.0,441.0
19:30:45.012000,277.0,650.0,-374.0,-1017.0,255.0,-183.0,586.0,-255.0,441.0
19:30:45.016000,295.0,646.0,-367.0,-1013.0,243.0,-195.0,586.0,-255.0,441.0
19:30:45.021000,326.0,635.0,-375.0,-1010.0,260.0,-214.0,579.0,-262.0,430.0
19:30:45.026000,338.0,625.0,-389.0,-996.0,284.0,-223.0,579.0,-262.0,430.0
19:30:45.031000,361.0,618.0,-405.0,-995.0,273.0,-231.0,577.0,-250.0,435.0
19:30:45.035000,398.0,602.0,-431.0,-1006.0,270.0,-244.0,577.0,-250.0,435.0
19:30:45.039000,398.0,602.0,-431.0,-1016.0,302.0,-248.0,577.0,-250.0,435.0
19:30:45.045000,413.0,590.0,-461.0,-1013.0,352.0,-249.0,558.0,-246.0,445.0
19:30:45.049000,436.0,576.0,-472.0,-996.0,372.0,-250.0,558.0,-246.0,445.0
19:30:45.054000,441.0,566.0,-462.0,-985.0,363.0,-254.0,558.0,-234.0,441.0
19:30:45.059000,453.0,553.0,-458.0,-988.0,365.0,-258.0,558.0,-234.0,441.0
19:30:45.063000,457.0,543.0,-454.0,-1002.0,387.0,-261.0,558.0,-234.0,441.0
19:30:45.068000,459.0,538.0,-465.0,-1013.0,410.0,-266.0,564.0,-231.0,436.0
19:30:45.073000,456.0,531.0,-497.0,-1007.0,423.0,-264.0,564.0,-231.0,436.0
19:30:45.078000,448.0,522.0,-527.0,-984.0,453.0,-264.0,556.0,-229.0,456.0
19:30:45.082000,438.0,519.0,-577.0,-952.0,481.0,-268.0,556.0,-229.0,456.0
19:30:45.086000,429.0,514.0,-630.0,-915.0,486.0,-271.0,556.0,-229.0,456.0
19:30:45.092000,423.0,504.0,-660.0,-881.0,470.0,-272.0,546.0,-220.0,466.0
19:30:45.096000,401.0,504.0,-656.0,-868.0,449.0,-273.0,546.0,-220.0,466.0
19:30:45.101000,377.0,501.0,-622.0,-868.0,449.0,-273.0,541.0,-219.0,457.0
19:30:45.106000,358.0,501.0,-604.0,-886.0,465.0,-284.0,541.0,-219.0,457.0
19:30:45.110000,336.0,504.0,-606.0,-920.0,465.0,-284.0,541.0,-219.0,457.0
19:30:45.115000,321.0,512.0,-632.0,-948.0,478.0,-289.0,538.0,-208.0,453.0
19:30:45.120000,333.0,505.0,-671.0,-951.0,488.0,-295.0,538.0,-208.0,453.0
19:30:45.125000,335.0,501.0,-678.0,-916.0,477.0,-291.0,525.0,-204.0,453.0
19:30:45.129000,337.0,496.0,-701.0,-872.0,462.0,-289.0,525.0,-204.0,453.0
19:30:45.133000,343.0,480.0,-721.0,-840.0,458.0,-289.0,525.0,-204.0,453.0
19:30:45.139000,346.0,469.0,-727.0,-804.0,444.0,-288.0,522.0,-208.0,460.0
19:30:45.143000,349.0,452.0,-732.0,-773.0,455.0,-291.0,522.0,-208.0,460.0
19:30:45.148000,343.0,434.0,-753.0,-760.0,504.0,-289.0,528.0,-205.0,460.0
19:30:45.153000,344.0,414.0,-760.0,-758.0,554.0,-296.0,528.0,-205.0,460.0
19:30:45.157000,344.0,414.0,-760.0,-763.0,573.0,-305.0,528.0,-205.0,460.0
19:30:45.162000,342.0,396.0,-742.0,-798.0,585.0,-305.0,522.0,-195.0,447.0
19:30:45.167000,326.0,378.0,-749.0,-831.0,608.0,-308.0,522.0,-195.0,447.0
19:30:45.172000,308.0,362.0,-749.0,-844.0,636.0,-316.0,511.0,-178.0,459.0
19:30:45.176000,297.0,345.0,-728.0,-830.0,663.0,-325.0,511.0,-178.0,459.0
19:30:45.184000,244.0,325.0,-616.0,-802.0,723.0,-340.0,505.0,-180.0,469.0
19:30:45.186000,244.0,325.0,-616.0,-802.0,723.0,-340.0,505.0,-180.0,469.0
19:30:45.190000,224.0,313.0,-576.0,-821.0,768.0,-356.0,505.0,-180.0,469.0
19:30:45.195000,213.0,303.0,-557.0,-835.0,785.0,-371.0,499.0,-172.0,457.0
19:30:45.200000,175.0,312.0,-534.0,-846.0,768.0,-383.0,499.0,-172.0,457.0
19:30:45.205000,154.0,315.0,-487.0,-846.0,768.0,-383.0,493.0,-177.0,459.0
19:30:45.209000,139.0,309.0,-445.0,-741.0,742.0,-403.0,493.0,-177.0,459.0
19:30:45.213000,132.0,319.0,-367.0,-754.0,743.0,-426.0,493.0,-177.0,459.0
19:30:45.219000,131.0,331.0,-295.0,-754.0,743.0,-426.0,495.0,-172.0,465.0
19:30:45.223000,123.0,333.0,-309.0,-883.0,781.0,-437.0,495.0,-172.0,465.0
19:30:45.228000,139.0,331.0,-310.0,-883.0,781.0,-437.0,481.0,-171.0,463.0
19:30:45.233000,140.0,326.0,-249.0,-854.0,743.0,-446.0,481.0,-171.0,463.0
19:30:45.237000,157.0,308.0,-197.0,-822.0,702.0,-449.0,481.0,-171.0,463.0
19:30:45.242000,172.0,286.0,-188.0,-814.0,713.0,-455.0,477.0,-162.0,459.0
19:30:45.247000,195.0,258.0,-191.0,-795.0,745.0,-455.0,477.0,-162.0,459.0
19:30:45.252000,204.0,224.0,-177.0,-760.0,771.0,-449.0,493.0,-160.0,459.0
19:30:45.256000,210.0,188.0,-158.0,-728.0,785.0,-442.0,493.0,-160.0,459.0
19:30:45.260000,210.0,188.0,-158.0,-714.0,790.0,-435.0,493.0,-160.0,459.0
19:30:45.266000,214.0,149.0,-142.0,-711.0,785.0,-434.0,484.0,-156.0,457.0
19:30:45.270000,224.0,112.0,-102.0,-719.0,799.0,-437.0,484.0,-156.0,457.0
19:30:45.275000,227.0,76.0,-93.0,-730.0,827.0,-435.0,460.0,-153.0,484.0
19:30:45.280000,215.0,54.0,-92.0,-748.0,827.0,-433.0,460.0,-153.0,484.0
19:30:45.284000,214.0,25.0,-46.0,-785.0,815.0,-423.0,460.0,-153.0,484.0
19:30:45.289000,211.0,-3.0,-10.0,-821.0,807.0,-408.0,478.0,-157.0,457.0
19:30:45.294000,196.0,-23.0,2.0,-819.0,782.0,-392.0,478.0,-157.0,457.0
19:30:45.299000,187.0,-48.0,37.0,-772.0,725.0,-379.0,478.0,-154.0,474.0
19:30:45.303000,185.0,-70.0,105.0,-722.0,683.0,-367.0,478.0,-154.0,474.0
19:30:45.307000,175.0,-88.0,151.0,-694.0,673.0,-351.0,478.0,-154.0,474.0
19:30:45.313000,163.0,-105.0,176.0,-664.0,657.0,-338.0,481.0,-150.0,472.0
19:30:45.317000,151.0,-121.0,205.0,-626.0,618.0,-325.0,481.0,-150.0,472.0
19:30:45.322000,143.0,-141.0,248.0,-626.0,618.0,-325.0,484.0,-153.0,465.0
19:30:45.327000,137.0,-162.0,294.0,-597.0,572.0,-311.0,484.0,-153.0,465.0
19:30:45.331000,133.0,-180.0,317.0,-585.0,538.0,-300.0,484.0,-153.0,465.0
19:30:45.336000,132.0,-198.0,333.0,-581.0,515.0,-294.0,484.0,-148.0,463.0
19:30:45.341000,135.0,-215.0,337.0,-577.0,497.0,-290.0,484.0,-148.0,463.0
19:30:45.346000,134.0,-231.0,317.0,-582.0,494.0,-293.0,484.0,-156.0,459.0
19:30:45.350000,134.0,-242.0,296.0,-593.0,510.0,-300.0,484.0,-156.0,459.0
19:30:45.354000,126.0,-250.0,286.0,-608.0,534.0,-307.0,484.0,-156.0,459.0
19:30:45.360000,114.0,-253.0,275.0,-632.0,571.0,-315.0,499.0,-156.0,453.0
19:30:45.364000,94.0,-253.0,263.0,-669.0,618.0,-322.0,499.0,-156.0,453.0
19:30:45.369000,68.0,-250.0,247.0,-708.0,659.0,-325.0,475.0,-157.0,457.0
19:30:45.374000,68.0,-250.0,247.0,-730.0,680.0,-324.0,475.0,-157.0,457.0
19:30:45.378000,44.0,-246.0,238.0,-728.0,672.0,-318.0,475.0,-157.0,457.0
19:30:45.383000,18.0,-243.0,247.0,-705.0,639.0,-306.0,493.0,-148.0,456.0
19:30:45.388000,-1.0,-240.0,277.0,-671.0,596.0,-290.0,493.0,-148.0,456.0
19:30:45.393000,-18.0,-240.0,310.0,-624.0,551.0,-272.0,496.0,-153.0,454.0
19:30:45.397000,-29.0,-241.0,335.0,-558.0,480.0,-250.0,496.0,-153.0,454.0
19:30:45.401000,-36.0,-247.0,396.0,-488.0,390.0,-224.0,496.0,-153.0,454.0
19:30:45.407000,-37.0,-254.0,473.0,-436.0,319.0,-204.0,505.0,-154.0,466.0
19:30:45.411000,-20.0,-268.0,525.0,-390.0,261.0,-187.0,505.0,-154.0,466.0
19:30:45.416000,-8.0,-279.0,577.0,-356.0,210.0,-173.0,498.0,-153.0,448.0
19:30:45.421000,9.0,-292.0,625.0,-351.0,186.0,-164.0,498.0,-153.0,448.0
19:30:45.425000,32.0,-303.0,639.0,-361.0,176.0,-155.0,498.0,-153.0,448.0
19:30:45.430000,46.0,-309.0,639.0,-381.0,173.0,-151.0,513.0,-156.0,448.0
19:30:45.435000,65.0,-315.0,617.0,-381.0,177.0,-151.0,513.0,-156.0,448.0
19:30:45.440000,74.0,-310.0,577.0,-407.0,177.0,-151.0,517.0,-162.0,451.0
19:30:45.444000,85.0,-304.0,528.0,-435.0,184.0,-152.0,517.0,-162.0,451.0
19:30:45.448000,93.0,-296.0,480.0,-497.0,210.0,-150.0,516.0,-154.0,447.0
19:30:45.454000,93.0,-287.0,434.0,-497.0,210.0,-150.0,516.0,-154.0,447.0
19:30:45.458000,93.0,-282.0,392.0,-520.0,222.0,-149.0,516.0,-154.0,447.0
19:30:45.463000,87.0,-280.0,362.0,-529.0,233.0,-147.0,513.0,-172.0,453.0
19:30:45.468000,74.0,-273.0,340.0,-531.0,254.0,-142.0,513.0,-172.0,453.0
19:30:45.472000,49.0,-266.0,329.0,-530.0,287.0,-135.0,525.0,-160.0,450.0
19:30:45.477000,21.0,-257.0,328.0,-528.0,319.0,-129.0,525.0,-160.0,450.0
19:30:45.481000,21.0,-257.0,328.0,-527.0,342.0,-124.0,525.0,-160.0,450.0
19:30:45.487000,-15.0,-245.0,332.0,-528.0,345.0,-119.0,523.0,-166.0,448.0
19:30:45.491000,-56.0,-230.0,344.0,-532.0,327.0,-119.0,523.0,-166.0,448.0
19:30:45.495000,-96.0,-214.0,361.0,-537.0,297.0,-122.0,525.0,-171.0,444.0
19:30:45.501000,-133.0,-196.0,373.0,-539.0,265.0,-128.0,525.0,-171.0,444.0
19:30:45.505000,-170.0,-176.0,383.0,-546.0,247.0,-138.0,525.0,-171.0,444.0
19:30:45.510000,-199.0,-155.0,382.0,-562.0,249.0,-146.0,525.0,-169.0,448.0
19:30:45.515000,-228.0,-130.0,363.0,-574.0,257.0,-152.0,525.0,-169.0,448.0
19:30:45.519000,-252.0,-106.0,335.0,-574.0,247.0,-157.0,532.0,-171.0,447.0
19:30:45.524000,-269.0,-84.0,306.0,-564.0,216.0,-162.0,532.0,-171.0,447.0
19:30:45.528000,-275.0,-67.0,282.0,-544.0,172.0,-168.0,532.0,-171.0,447.0
19:30:45.534000,-266.0,-58.0,262.0,-525.0,132.0,-171.0,538.0,-163.0,445.0
19:30:45.538000,-246.0,-53.0,243.0,-510.0,108.0,-173.0,538.0,-163.0,445.0
19:30:45.543000,-219.0,-52.0,226.0,-510.0,108.0,-173.0,544.0,-183.0,453.0
19:30:45.548000,-189.0,-56.0,220.0,-492.0,97.0,-171.0,544.0,-183.0,453.0
19:30:45.552000,-156.0,-65.0,225.0,-473.0,92.0,-169.0,544.0,-183.0,453.0
19:30:45.557000,-124.0,-76.0,242.0,-460.0,89.0,-167.0,537.0,-181.0,448.0
19:30:45.562000,-98.0,-86.0,269.0,-455.0,90.0,-167.0,537.0,-181.0,448.0
19:30:45.566000,-79.0,-95.0,299.0,-465.0,103.0,-168.0,549.0,-187.0,444.0
19:30:45.571000,-71.0,-98.0,332.0,-484.0,127.0,-167.0,549.0,-187.0,444.0
19:30:45.575000,-71.0,-100.0,368.0,-500.0,144.0,-167.0,549.0,-187.0,444.0
19:30:45.581000,-75.0,-98.0,406.0,-508.0,143.0,-170.0,543.0,-184.0,442.0
19:30:45.585000,-78.0,-97.0,440.0,-515.0,129.0,-178.0,543.0,-184.0,442.0
19:30:45.590000,-82.0,-95.0,461.0,-529.0,120.0,-190.0,553.0,-183.0,454.0
19:30:45.595000,-82.0,-95.0,461.0,-553.0,127.0,-201.0,553.0,-183.0,454.0
19:30:45.599000,-88.0,-91.0,467.0,-576.0,137.0,-208.0,553.0,-183.0,454.0
19:30:45.604000,-94.0,-87.0,469.0,-587.0,133.0,-211.0,540.0,-193.0,433.0
19:30:45.609000,-93.0,-86.0,466.0,-585.0,107.0,-211.0,540.0,-193.0,433.0
19:30:45.613000,-81.0,-91.0,463.0,-575.0,74.0,-208.0,552.0,-189.0,439.0
19:30:45.618000,-63.0,-101.0,454.0,-560.0,49.0,-200.0,552.0,-189.0,439.0
19:30:45.622000,-39.0,-119.0,441.0,-540.0,40.0,-191.0,552.0,-189.0,439.0
19:30:45.628000,-16.0,-137.0,432.0,-518.0,45.0,-179.0,550.0,-196.0,445.0
19:30:45.632000,2.0,-160.0,431.0,-499.0,66.0,-166.0,550.0,-196.0,445.0
19:30:45.637000,14.0,-180.0,430.0,-487.0,99.0,-154.0,556.0,-199.0,436.0
19:30:45.642000,15.0,-198.0,430.0,-484.0,139.0,-140.0,556.0,-199.0,436.0
19:30:45.646000,3.0,-207.0,427.0,-486.0,174.0,-124.0,556.0,-199.0,436.0
19:30:45.651000,-18.0,-215.0,425.0,-485.0,190.0,-107.0,571.0,-199.0,444.0
19:30:45.656000,-44.0,-220.0,428.0,-485.0,190.0,-107.0,571.0,-199.0,444.0
19:30:45.660000,-70.0,-224.0,430.0,-479.0,184.0,-92.0,564.0,-202.0,435.0
19:30:45.665000,-91.0,-228.0,429.0,-470.0,170.0,-81.0,564.0,-202.0,435.0
19:30:45.669000,-108.0,-228.0,420.0,-468.0,160.0,-74.0,564.0,-202.0,435.0
19:30:45.675000,-124.0,-224.0,403.0,-479.0,159.0,-71.0,564.0,-204.0,456.0
19:30:45.679000,-137.0,-219.0,385.0,-498.0,160.0,-72.0,564.0,-204.0,456.0
19:30:45.684000,-147.0,-213.0,372.0,-518.0,153.0,-77.0,579.0,-199.0,441.0
19:30:45.689000,-151.0,-207.0,361.0,-539.0,142.0,-85.0,579.0,-199.0,441.0
19:30:45.693000,-151.0,-207.0,361.0,-564.0,134.0,-93.0,579.0,-199.0,441.0
19:30:45.698000,-162.0,-189.0,359.0,-590.0,135.0,-103.0,567.0,-211.0,435.0
19:30:45.703000,-162.0,-189.0,359.0,-612.0,144.0,-111.0,567.0,-211.0,435.0
19:30:45.707000,-172.0,-180.0,367.0,-625.0,155.0,-115.0,568.0,-211.0,436.0
19:30:45.712000,-184.0,-171.0,383.0,-627.0,160.0,-117.0,568.0,-211.0,436.0
19:30:45.716000,-199.0,-163.0,404.0,-625.0,154.0,-120.0,568.0,-211.0,436.0
19:30:45.722000,-213.0,-156.0,422.0,-621.0,142.0,-123.0,568.0,-219.0,427.0
19:30:45.726000,-228.0,-151.0,434.0,-614.0,127.0,-125.0,568.0,-219.0,427.0
19:30:45.731000,-242.0,-149.0,444.0,-610.0,118.0,-127.0,558.0,-216.0,444.0
19:30:45.736000,-254.0,-151.0,445.0,-607.0,122.0,-133.0,558.0,-216.0,444.0
19:30:45.740000,-264.0,-157.0,433.0,-603.0,132.0,-142.0,558.0,-216.0,444.0
19:30:45.745000,-270.0,-166.0,415.0,-597.0,143.0,-150.0,564.0,-223.0,426.0
19:30:45.750000,-275.0,-180.0,402.0,-589.0,156.0,-156.0,564.0,-223.0,426.0
19:30:45.754000,-280.0,-197.0,396.0,-589.0,156.0,-156.0,579.0,-232.0,429.0
19:30:45.759000,-284.0,-218.0,399.0,-574.0,176.0,-165.0,579.0,-232.0,429.0
19:30:45.763000,-289.0,-240.0,410.0,-572.0,189.0,-172.0,579.0,-232.0,429.0
19:30:45.769000,-296.0,-259.0,427.0,-572.0,189.0,-172.0,588.0,-234.0,453.0
19:30:45.773000,-310.0,-271.0,450.0,-578.0,208.0,-174.0,588.0,-234.0,453.0
19:30:45.778000,-328.0,-282.0,478.0,-587.0,218.0,-170.0,580.0,-234.0,427.0
19:30:45.783000,-340.0,-294.0,505.0,-600.0,204.0,-168.0,580.0,-234.0,427.0
19:30:45.787000,-345.0,-308.0,520.0,-624.0,177.0,-170.0,580.0,-234.0,427.0
19:30:45.792000,-347.0,-323.0,527.0,-663.0,163.0,-173.0,588.0,-241.0,424.0
19:30:45.797000,-348.0,-334.0,533.0,-708.0,170.0,-177.0,588.0,-241.0,424.0
19:30:45.801000,-351.0,-342.0,550.0,-749.0,186.0,-180.0,585.0,-243.0,433.0
19:30:45.806000,-351.0,-342.0,550.0,-781.0,199.0,-182.0,585.0,-243.0,433.0
19:30:45.810000,-357.0,-347.0,577.0,-804.0,208.0,-187.0,585.0,-243.0,433.0
19:30:45.816000,-365.0,-353.0,610.0,-823.0,218.0,-191.0,597.0,-243.0,421.0
