hh:mm:ss.ms,gyroX[mdps],gyroY[mdps],gyroZ[mdps],accX[mg],accY[mg],accZ[mg],magX[mG],magY[mG],magZ[mG]
19:30:55.727000,-92.0,-122.0,219.0,-865.0,-166.0,-145.0,658.0,-420.0,69.0
19:30:55.732000,-61.0,-143.0,199.0,-922.0,-117.0,-140.0,658.0,-420.0,69.0
19:30:55.736000,-44.0,-156.0,152.0,-984.0,-82.0,-133.0,658.0,-420.0,69.0
19:30:55.741000,-32.0,-168.0,123.0,-984.0,-44.0,-133.0,663.0,-411.0,70.0
19:30:55.746000,-20.0,-170.0,107.0,-1038.0,-44.0,-134.0,663.0,-411.0,70.0
19:30:55.751000,-16.0,-165.0,95.0,-1090.0,-9.0,-135.0,660.0,-418.0,51.0
19:30:55.755000,-23.0,-155.0,77.0,-1149.0,15.0,-131.0,660.0,-418.0,51.0
19:30:55.760000,-32.0,-143.0,63.0,-1209.0,41.0,-132.0,660.0,-418.0,51.0
19:30:55.765000,-42.0,-128.0,74.0,-1231.0,40.0,-139.0,655.0,-414.0,63.0
19:30:55.770000,-44.0,-112.0,112.0,-1227.0,10.0,-152.0,655.0,-414.0,63.0
19:30:55.774000,-36.0,-97.0,119.0,-1250.0,10.0,-164.0,666.0,-412.0,55.0
19:30:55.779000,-16.0,-76.0,98.0,-1294.0,73.0,-181.0,666.0,-412.0,55.0
19:30:55.783000,-16.0,-76.0,98.0,-1315.0,133.0,-196.0,666.0,-412.0,55.0
19:30:55.788000,4.0,-13.0,109.0,-1317.0,140.0,-195.0,646.0,-415.0,61.0
19:30:55.793000,4.0,-13.0,109.0,-1329.0,103.0,-191.0,646.0,-415.0,61.0
19:30:55.798000,35.0,4.0,129.0,-1359.0,31.0,-186.0,660.0,-415.0,58.0
19:30:55.802000,46.0,34.0,142.0,-1370.0,-24.0,-194.0,660.0,-415.0,58.0
19:30:55.807000,82.0,63.0,140.0,-1342.0,-66.0,-200.0,660.0,-415.0,58.0
19:30:55.812000,116.0,87.0,150.0,-1344.0,-108.0,-196.0,658.0,-408.0,48.0
19:30:55.817000,159.0,109.0,143.0,-1370.0,-150.0,-198.0,658.0,-408.0,48.0
19:30:55.821000,183.0,128.0,131.0,-1370.0,-168.0,-204.0,657.0,-427.0,55.0
19:30:55.826000,207.0,142.0,126.0,-1352.0,-150.0,-225.0,657.0,-427.0,55.0
19:30:55.830000,242.0,156.0,125.0,-1331.0,-109.0,-223.0,657.0,-427.0,55.0
19:30:55.835000,211.0,160.0,128.0,-1327.0,-42.0,-217.0,666.0,-424.0,63.0
19:30:55.840000,210.0,166.0,107.0,-1330.0,-30.0,-226.0,666.0,-424.0,63.0
19:30:55.845000,188.0,175.0,55.0,-1330.0,-30.0,-226.0,660.0,-414.0,63.0
19:30:55.849000,178.0,175.0,-9.0,-1343.0,-104.0,-233.0,660.0,-414.0,63.0
19:30:55.854000,189.0,172.0,-65.0,-1343.0,-104.0,-233.0,660.0,-414.0,63.0
19:30:55.859000,179.0,181.0,-88.0,-1336.0,-88.0,-237.0,660.0,-426.0,58.0
19:30:55.864000,163.0,162.0,-60.0,-1334.0,-62.0,-220.0,660.0,-426.0,58.0
19:30:55.868000,144.0,149.0,-20.0,-1257.0,-83.0,-197.0,660.0,-421.0,66.0
19:30:55.873000,137.0,114.0,9.0,-1257.0,-83.0,-197.0,660.0,-421.0,66.0
19:30:55.877000,123.0,75.0,7.0,-1199.0,-90.0,-202.0,660.0,-421.0,66.0
19:30:55.882000,107.0,62.0,-34.0,-1164.0,-21.0,-211.0,655.0,-417.0,61.0
19:30:55.887000,74.0,52.0,-105.0,-1168.0,70.0,-222.0,655.0,-417.0,61.0
19:30:55.892000,6.0,36.0,-138.0,-1142.0,46.0,-213.0,654.0,-421.0,58.0
19:30:55.896000,20.0,14.0,-141.0,-1063.0,5.0,-212.0,654.0,-421.0,58.0
19:30:55.901000,20.0,14.0,-141.0,-1032.0,0.0,-217.0,654.0,-421.0,58.0
19:30:55.906000,8.0,0.0,-121.0,-1082.0,5.0,-203.0,661.0,-426.0,66.0
19:30:55.911000,2.0,-12.0,-138.0,-1142.0,-23.0,-201.0,661.0,-426.0,66.0
19:30:55.915000,-23.0,-16.0,-172.0,-1171.0,-106.0,-200.0,658.0,-414.0,58.0
19:30:55.920000,-15.0,-31.0,-200.0,-1185.0,-142.0,-201.0,658.0,-414.0,58.0
19:30:55.925000,3.0,-44.0,-193.0,-1199.0,-75.0,-215.0,661.0,-409.0,63.0
19:30:55.929000,46.0,-48.0,-222.0,-1193.0,35.0,-206.0,661.0,-409.0,63.0
19:30:55.933000,23.0,-38.0,-258.0,-1162.0,54.0,-175.0,661.0,-409.0,63.0
19:30:55.939000,-13.0,-28.0,-268.0,-1145.0,4.0,-175.0,667.0,-414.0,70.0
19:30:55.943000,-25.0,-19.0,-247.0,-1159.0,-42.0,-169.0,667.0,-414.0,70.0
19:30:55.948000,-28.0,-9.0,-178.0,-1159.0,-42.0,-169.0,663.0,-417.0,60.0
19:30:55.953000,-4.0,2.0,-152.0,-1204.0,-63.0,-177.0,663.0,-417.0,60.0
19:30:55.957000,5.0,18.0,-220.0,-1223.0,-13.0,-172.0,663.0,-417.0,60.0
19:30:55.962000,-14.0,42.0,-301.0,-1171.0,17.0,-168.0,667.0,-411.0,58.0
19:30:55.967000,-22.0,63.0,-354.0,-1171.0,17.0,-168.0,667.0,-411.0,58.0
19:30:55.972000,-46.0,80.0,-322.0,-1067.0,33.0,-169.0,651.0,-403.0,87.0
19:30:55.976000,-45.0,102.0,-263.0,-1013.0,71.0,-178.0,651.0,-403.0,87.0
19:30:55.980000,-46.0,119.0,-251.0,-1043.0,144.0,-178.0,651.0,-403.0,87.0
19:30:55.986000,-62.0,147.0,-270.0,-1092.0,133.0,-187.0,673.0,-403.0,70.0
19:30:55.990000,-54.0,161.0,-301.0,-1150.0,53.0,-210.0,673.0,-403.0,70.0
19:30:55.995000,-66.0,172.0,-329.0,-1148.0,-24.0,-213.0,663.0,-399.0,75.0
19:30:56.000000,-53.0,178.0,-326.0,-1074.0,-39.0,-208.0,663.0,-399.0,75.0
19:30:56.004000,-53.0,178.0,-326.0,-1024.0,6.0,-219.0,663.0,-399.0,75.0
19:30:56.009000,-47.0,185.0,-301.0,-1003.0,30.0,-221.0,661.0,-396.0,76.0
19:30:56.014000,-49.0,190.0,-274.0,-1000.0,-12.0,-219.0,661.0,-396.0,76.0
19:30:56.019000,-38.0,198.0,-218.0,-1033.0,-36.0,-228.0,666.0,-394.0,70.0
19:30:56.023000,9.0,197.0,-224.0,-1069.0,-27.0,-231.0,666.0,-394.0,70.0
19:30:56.027000,44.0,200.0,-304.0,-1059.0,-55.0,-230.0,666.0,-394.0,70.0
19:30:56.033000,72.0,204.0,-340.0,-1021.0,-71.0,-227.0,664.0,-394.0,69.0
19:30:56.037000,98.0,203.0,-310.0,-1017.0,-55.0,-222.0,664.0,-394.0,69.0
19:30:56.042000,119.0,199.0,-313.0,-1033.0,-12.0,-225.0,669.0,-396.0,78.0
19:30:56.047000,132.0,196.0,-343.0,-1034.0,22.0,-227.0,669.0,-396.0,78.0
19:30:56.051000,137.0,188.0,-375.0,-1037.0,31.0,-229.0,669.0,-396.0,78.0
19:30:56.056000,134.0,181.0,-392.0,-1040.0,23.0,-238.0,655.0,-390.0,94.0
19:30:56.061000,128.0,177.0,-399.0,-1043.0,32.0,-246.0,655.0,-390.0,94.0
19:30:56.066000,128.0,172.0,-410.0,-1043.0,32.0,-246.0,678.0,-381.0,73.0
19:30:56.070000,129.0,171.0,-420.0,-1058.0,117.0,-254.0,678.0,-381.0,73.0
19:30:56.074000,121.0,171.0,-429.0,-1090.0,117.0,-260.0,678.0,-381.0,73.0
19:30:56.080000,92.0,175.0,-418.0,-1102.0,110.0,-254.0,664.0,-381.0,69.0
19:30:56.084000,86.0,176.0,-430.0,-1095.0,97.0,-252.0,664.0,-381.0,69.0
19:30:56.089000,93.0,172.0,-462.0,-1082.0,96.0,-254.0,666.0,-372.0,81.0
19:30:56.094000,80.0,176.0,-478.0,-1069.0,81.0,-246.0,666.0,-372.0,81.0
19:30:56.101000,85.0,179.0,-520.0,-1082.0,140.0,-247.0,670.0,-381.0,90.0
19:30:56.103000,94.0,182.0,-540.0,-1082.0,140.0,-247.0,670.0,-381.0,90.0
19:30:56.107000,94.0,182.0,-540.0,-1063.0,108.0,-243.0,670.0,-381.0,90.0
19:30:56.113000,64.0,200.0,-545.0,-1066.0,92.0,-237.0,664.0,-367.0,84.0
19:30:56.117000,60.0,210.0,-585.0,-1084.0,116.0,-234.0,664.0,-367.0,84.0
19:30:56.122000,60.0,210.0,-585.0,-1087.0,126.0,-233.0,667.0,-369.0,82.0
19:30:56.127000,55.0,221.0,-619.0,-1072.0,107.0,-230.0,667.0,-369.0,82.0
19:30:56.131000,61.0,227.0,-616.0,-1060.0,122.0,-233.0,667.0,-369.0,82.0
19:30:56.136000,84.0,234.0,-618.0,-1061.0,131.0,-230.0,667.0,-357.0,90.0
19:30:56.141000,68.0,247.0,-620.0,-1059.0,124.0,-224.0,667.0,-357.0,90.0
19:30:56.145000,70.0,259.0,-613.0,-1074.0,133.0,-235.0,673.0,-340.0,93.0
19:30:56.150000,95.0,269.0,-618.0,-1109.0,133.0,-251.0,673.0,-340.0,93.0
19:30:56.154000,110.0,282.0,-614.0,-1133.0,135.0,-247.0,673.0,-340.0,93.0
19:30:56.160000,121.0,294.0,-636.0,-1143.0,147.0,-241.0,672.0,-346.0,88.0
19:30:56.164000,133.0,306.0,-683.0,-1121.0,151.0,-249.0,672.0,-346.0,88.0
19:30:56.169000,153.0,315.0,-730.0,-1121.0,151.0,-249.0,675.0,-342.0,96.0
19:30:56.174000,173.0,321.0,-769.0,-1071.0,142.0,-255.0,675.0,-342.0,96.0
19:30:56.178000,182.0,326.0,-797.0,-1059.0,182.0,-254.0,675.0,-342.0,96.0
19:30:56.183000,198.0,322.0,-836.0,-1059.0,182.0,-254.0,670.0,-339.0,99.0
19:30:56.188000,198.0,322.0,-842.0,-1016.0,231.0,-255.0,670.0,-339.0,99.0
19:30:56.192000,204.0,324.0,-837.0,-1016.0,231.0,-255.0,672.0,-333.0,105.0
19:30:56.197000,199.0,317.0,-830.0,-995.0,237.0,-255.0,672.0,-333.0,105.0
19:30:56.201000,200.0,301.0,-806.0,-971.0,253.0,-251.0,672.0,-333.0,105.0
19:30:56.207000,198.0,284.0,-766.0,-939.0,261.0,-250.0,670.0,-310.0,112.0
19:30:56.211000,219.0,261.0,-747.0,-903.0,299.0,-255.0,670.0,-310.0,112.0
19:30:56.216000,208.0,239.0,-724.0,-867.0,353.0,-254.0,672.0,-309.0,105.0
19:30:56.221000,187.0,228.0,-671.0,-834.0,354.0,-249.0,672.0,-309.0,105.0
19:30:56.225000,187.0,228.0,-671.0,-847.0,371.0,-253.0,672.0,-309.0,105.0
19:30:56.230000,174.0,224.0,-648.0,-892.0,438.0,-261.0,664.0,-309.0,108.0
19:30:56.235000,191.0,217.0,-653.0,-927.0,475.0,-266.0,664.0,-309.0,108.0
19:30:56.239000,196.0,208.0,-637.0,-946.0,432.0,-256.0,667.0,-306.0,117.0
19:30:56.244000,163.0,209.0,-620.0,-961.0,405.0,-256.0,667.0,-306.0,117.0
19:30:56.248000,177.0,207.0,-600.0,-981.0,442.0,-271.0,667.0,-306.0,117.0
19:30:56.254000,210.0,198.0,-590.0,-970.0,443.0,-276.0,678.0,-298.0,115.0
19:30:56.258000,203.0,195.0,-587.0,-938.0,442.0,-281.0,678.0,-298.0,115.0
19:30:56.263000,205.0,200.0,-597.0,-921.0,488.0,-295.0,669.0,-297.0,111.0
19:30:56.268000,217.0,200.0,-612.0,-923.0,534.0,-308.0,669.0,-297.0,111.0
19:30:56.272000,223.0,207.0,-612.0,-923.0,554.0,-318.0,669.0,-297.0,111.0
19:30:56.277000,216.0,211.0,-592.0,-927.0,515.0,-321.0,658.0,-283.0,117.0
19:30:56.282000,197.0,209.0,-548.0,-946.0,466.0,-329.0,658.0,-283.0,117.0
19:30:56.286000,210.0,209.0,-515.0,-946.0,466.0,-329.0,669.0,-285.0,114.0
19:30:56.291000,219.0,203.0,-485.0,-964.0,469.0,-341.0,669.0,-285.0,114.0
19:30:56.295000,231.0,189.0,-460.0,-977.0,514.0,-346.0,669.0,-285.0,114.0
19:30:56.301000,246.0,173.0,-428.0,-969.0,572.0,-346.0,667.0,-285.0,114.0
19:30:56.305000,217.0,174.0,-401.0,-949.0,605.0,-340.0,667.0,-285.0,114.0
19:30:56.310000,212.0,162.0,-403.0,-927.0,606.0,-336.0,675.0,-271.0,118.0
19:30:56.315000,242.0,140.0,-432.0,-907.0,611.0,-356.0,675.0,-271.0,118.0
19:30:56.319000,221.0,120.0,-459.0,-908.0,647.0,-364.0,675.0,-271.0,118.0
19:30:56.324000,175.0,104.0,-466.0,-924.0,703.0,-349.0,661.0,-280.0,111.0
19:30:56.329000,156.0,75.0,-448.0,-971.0,738.0,-347.0,661.0,-280.0,111.0
19:30:56.333000,142.0,63.0,-431.0,-1050.0,727.0,-359.0,652.0,-270.0,129.0
19:30:56.338000,142.0,63.0,-431.0,-1086.0,673.0,-363.0,652.0,-270.0,129.0
19:30:56.342000,126.0,38.0,-375.0,-1020.0,610.0,-352.0,652.0,-270.0,129.0
19:30:56.348000,104.0,25.0,-263.0,-967.0,611.0,-359.0,666.0,-264.0,123.0
19:30:56.352000,95.0,15.0,-191.0,-976.0,684.0,-372.0,666.0,-264.0,123.0
19:30:56.357000,86.0,14.0,-221.0,-939.0,738.0,-370.0,657.0,-265.0,118.0
19:30:56.362000,52.0,30.0,-256.0,-854.0,724.0,-365.0,657.0,-265.0,118.0
19:30:56.366000,51.0,31.0,-238.0,-872.0,699.0,-369.0,657.0,-265.0,118.0
19:30:56.371000,57.0,36.0,-266.0,-1017.0,712.0,-371.0,660.0,-267.0,123.0
19:30:56.376000,42.0,46.0,-315.0,-1064.0,715.0,-370.0,660.0,-267.0,123.0
19:30:56.380000,-2.0,74.0,-245.0,-998.0,687.0,-367.0,670.0,-261.0,114.0
19:30:56.385000,-45.0,104.0,-133.0,-971.0,673.0,-371.0,670.0,-261.0,114.0
19:30:56.389000,-64.0,129.0,-84.0,-977.0,653.0,-370.0,670.0,-261.0,114.0
19:30:56.395000,-84.0,147.0,-72.0,-991.0,623.0,-373.0,669.0,-253.0,111.0
19:30:56.399000,-78.0,162.0,-95.0,-991.0,623.0,-373.0,669.0,-253.0,111.0
19:30:56.404000,-58.0,175.0,-114.0,-1007.0,601.0,-387.0,663.0,-258.0,105.0
19:30:56.409000,-49.0,176.0,-86.0,-1008.0,557.0,-384.0,663.0,-258.0,105.0
19:30:56.416000,-28.0,168.0,-53.0,-997.0,510.0,-380.0,663.0,-261.0,121.0
19:30:56.418000,2.0,154.0,-50.0,-997.0,510.0,-380.0,663.0,-261.0,121.0
19:30:56.422000,36.0,130.0,-32.0,-982.0,512.0,-378.0,663.0,-261.0,121.0
19:30:56.427000,83.0,97.0,0.0,-960.0,506.0,-378.0,667.0,-253.0,126.0
19:30:56.432000,131.0,58.0,29.0,-941.0,510.0,-380.0,667.0,-253.0,126.0
19:30:56.437000,170.0,11.0,89.0,-916.0,514.0,-373.0,658.0,-252.0,123.0
19:30:56.442000,203.0,-28.0,163.0,-902.0,522.0,-366.0,658.0,-252.0,123.0
19:30:56.446000,203.0,-28.0,163.0,-925.0,558.0,-359.0,658.0,-252.0,123.0
19:30:56.451000,224.0,-67.0,224.0,-937.0,586.0,-341.0,666.0,-249.0,115.0
19:30:56.456000,233.0,-102.0,287.0,-899.0,584.0,-320.0,666.0,-249.0,115.0
19:30:56.460000,240.0,-130.0,356.0,-840.0,572.0,-294.0,664.0,-255.0,120.0
19:30:56.465000,232.0,-149.0,420.0,-790.0,554.0,-263.0,664.0,-255.0,120.0
19:30:56.469000,224.0,-168.0,472.0,-754.0,536.0,-234.0,664.0,-255.0,120.0
19:30:56.474000,217.0,-179.0,490.0,-730.0,512.0,-209.0,670.0,-258.0,111.0
19:30:56.479000,208.0,-188.0,490.0,-710.0,462.0,-187.0,670.0,-258.0,111.0
19:30:56.484000,196.0,-193.0,484.0,-690.0,412.0,-173.0,666.0,-261.0,117.0
19:30:56.489000,191.0,-196.0,462.0,-670.0,376.0,-165.0,666.0,-261.0,117.0
19:30:56.493000,183.0,-191.0,443.0,-665.0,362.0,-162.0,666.0,-261.0,117.0
19:30:56.498000,173.0,-177.0,415.0,-681.0,376.0,-169.0,669.0,-273.0,109.0
19:30:56.503000,161.0,-158.0,363.0,-692.0,388.0,-180.0,669.0,-273.0,109.0
19:30:56.507000,137.0,-136.0,308.0,-692.0,388.0,-180.0,655.0,-274.0,112.0
19:30:56.512000,107.0,-112.0,265.0,-697.0,393.0,-188.0,655.0,-274.0,112.0
19:30:56.516000,71.0,-91.0,238.0,-693.0,391.0,-192.0,655.0,-274.0,112.0
19:30:56.521000,37.0,-75.0,229.0,-660.0,371.0,-192.0,672.0,-276.0,108.0
19:30:56.526000,11.0,-65.0,234.0,-597.0,332.0,-190.0,672.0,-276.0,108.0
19:30:56.531000,-6.0,-62.0,239.0,-526.0,297.0,-186.0,669.0,-274.0,105.0
19:30:56.536000,-17.0,-65.0,246.0,-463.0,272.0,-180.0,669.0,-274.0,105.0
19:30:56.540000,-19.0,-72.0,262.0,-412.0,245.0,-174.0,669.0,-274.0,105.0
19:30:56.545000,-14.0,-81.0,277.0,-376.0,218.0,-175.0,670.0,-271.0,97.0
19:30:56.550000,-2.0,-92.0,289.0,-370.0,203.0,-177.0,670.0,-271.0,97.0
19:30:56.554000,5.0,-100.0,295.0,-395.0,201.0,-179.0,672.0,-273.0,100.0
19:30:56.559000,5.0,-100.0,295.0,-430.0,197.0,-180.0,672.0,-273.0,100.0
19:30:56.563000,6.0,-102.0,303.0,-460.0,188.0,-181.0,672.0,-273.0,100.0
19:30:56.568000,7.0,-101.0,312.0,-486.0,176.0,-184.0,681.0,-277.0,111.0
19:30:56.573000,9.0,-98.0,314.0,-515.0,176.0,-188.0,681.0,-277.0,111.0
19:30:56.578000,8.0,-93.0,300.0,-545.0,190.0,-192.0,675.0,-285.0,105.0
19:30:56.583000,0.0,-84.0,277.0,-568.0,205.0,-193.0,675.0,-285.0,105.0
19:30:56.587000,-14.0,-74.0,254.0,-577.0,213.0,-190.0,675.0,-285.0,105.0
19:30:56.592000,-33.0,-63.0,233.0,-579.0,215.0,-189.0,690.0,-277.0,103.0
19:30:56.597000,-49.0,-51.0,207.0,-579.0,222.0,-191.0,690.0,-277.0,103.0
19:30:56.601000,-64.0,-42.0,173.0,-587.0,238.0,-196.0,679.0,-288.0,117.0
19:30:56.606000,-77.0,-32.0,130.0,-600.0,254.0,-201.0,679.0,-288.0,117.0
19:30:56.610000,-91.0,-20.0,86.0,-610.0,265.0,-204.0,679.0,-288.0,117.0
19:30:56.615000,-109.0,-8.0,48.0,-608.0,266.0,-208.0,681.0,-289.0,106.0
19:30:56.620000,-129.0,3.0,31.0,-608.0,266.0,-208.0,681.0,-289.0,106.0
19:30:56.625000,-147.0,14.0,25.0,-599.0,257.0,-211.0,672.0,-289.0,103.0
19:30:56.630000,-164.0,24.0,18.0,-583.0,249.0,-214.0,672.0,-289.0,103.0
19:30:56.634000,-176.0,28.0,25.0,-558.0,241.0,-215.0,672.0,-289.0,103.0
19:30:56.639000,-182.0,30.0,42.0,-535.0,233.0,-219.0,685.0,-288.0,109.0
19:30:56.643000,-184.0,32.0,65.0,-528.0,228.0,-225.0,685.0,-288.0,109.0
19:30:56.648000,-187.0,33.0,91.0,-528.0,228.0,-225.0,664.0,-282.0,105.0
19:30:56.653000,-189.0,31.0,123.0,-529.0,219.0,-223.0,664.0,-282.0,105.0
19:30:56.657000,-189.0,31.0,123.0,-514.0,189.0,-218.0,664.0,-282.0,105.0
19:30:56.662000,-163.0,14.0,218.0,-494.0,152.0,-213.0,681.0,-291.0,105.0
19:30:56.667000,-163.0,14.0,218.0,-487.0,129.0,-209.0,681.0,-291.0,105.0
19:30:56.672000,-139.0,1.0,260.0,-493.0,123.0,-204.0,687.0,-295.0,109.0
19:30:56.677000,-114.0,-14.0,294.0,-503.0,114.0,-195.0,687.0,-295.0,109.0
19:30:56.681000,-88.0,-30.0,322.0,-509.0,91.0,-188.0,687.0,-295.0,109.0
19:30:56.686000,-61.0,-50.0,350.0,-518.0,67.0,-182.0,682.0,-292.0,106.0
19:30:56.691000,-35.0,-72.0,374.0,-533.0,56.0,-173.0,682.0,-292.0,106.0
19:30:56.695000,-15.0,-91.0,387.0,-547.0,54.0,-163.0,670.0,-292.0,112.0
19:30:56.700000,-2.0,-108.0,393.0,-559.0,52.0,-154.0,670.0,-292.0,112.0
19:30:56.704000,9.0,-125.0,392.0,-571.0,51.0,-144.0,670.0,-292.0,112.0
19:30:56.709000,17.0,-139.0,383.0,-580.0,49.0,-134.0,687.0,-301.0,108.0
19:30:56.714000,23.0,-151.0,370.0,-589.0,41.0,-125.0,687.0,-301.0,108.0
19:30:56.719000,28.0,-160.0,358.0,-589.0,41.0,-125.0,675.0,-300.0,108.0
19:30:56.724000,30.0,-166.0,348.0,-599.0,13.0,-112.0,675.0,-300.0,108.0
19:30:56.728000,32.0,-172.0,339.0,-599.0,13.0,-112.0,675.0,-300.0,108.0
19:30:56.733000,35.0,-175.0,329.0,-620.0,8.0,-112.0,687.0,-309.0,111.0
19:30:56.738000,32.0,-175.0,312.0,-620.0,8.0,-112.0,687.0,-309.0,111.0
19:30:56.742000,23.0,-170.0,300.0,-639.0,23.0,-113.0,676.0,-321.0,105.0
19:30:56.747000,11.0,-162.0,294.0,-654.0,29.0,-111.0,676.0,-321.0,105.0
19:30:56.751000,2.0,-155.0,289.0,-660.0,17.0,-107.0,676.0,-321.0,105.0
19:30:56.756000,2.0,-150.0,282.0,-656.0,-10.0,-103.0,682.0,-312.0,103.0
19:30:56.761000,9.0,-150.0,270.0,-646.0,-41.0,-101.0,682.0,-312.0,103.0
19:30:56.766000,22.0,-152.0,252.0,-642.0,-60.0,-97.0,678.0,-312.0,96.0
19:30:56.771000,37.0,-156.0,231.0,-644.0,-64.0,-94.0,678.0,-312.0,96.0
19:30:56.775000,37.0,-156.0,231.0,-655.0,-54.0,-91.0,678.0,-312.0,96.0
19:30:56.780000,51.0,-157.0,209.0,-672.0,-35.0,-88.0,688.0,-307.0,106.0
19:30:56.785000,57.0,-156.0,189.0,-685.0,-14.0,-85.0,688.0,-307.0,106.0
19:30:56.789000,56.0,-151.0,174.0,-695.0,3.0,-84.0,690.0,-322.0,96.0
19:30:56.794000,48.0,-145.0,162.0,-704.0,24.0,-86.0,690.0,-322.0,96.0
19:30:56.798000,35.0,-135.0,146.0,-711.0,50.0,-88.0,690.0,-322.0,96.0
19:30:56.803000,16.0,-123.0,127.0,-713.0,70.0,-90.0,681.0,-312.0,99.0
19:30:56.808000,-4.0,-109.0,109.0,-708.0,79.0,-93.0,681.0,-312.0,99.0
19:30:56.813000,-23.0,-96.0,88.0,-702.0,81.0,-96.0,690.0,-309.0,94.0
19:30:56.818000,-37.0,-84.0,63.0,-695.0,80.0,-100.0,690.0,-309.0,94.0
19:30:56.822000,-47.0,-73.0,35.0,-683.0,76.0,-106.0,690.0,-309.0,94.0
19:30:56.827000,-53.0,-65.0,7.0,-668.0,70.0,-109.0,682.0,-322.0,99.0
19:30:56.832000,-53.0,-62.0,-14.0,-652.0,63.0,-109.0,682.0,-322.0,99.0
19:30:56.836000,-49.0,-60.0,-28.0,-652.0,63.0,-109.0,664.0,-316.0,114.0
19:30:56.841000,-40.0,-61.0,-39.0,-638.0,64.0,-109.0,664.0,-316.0,114.0
19:30:56.845000,-30.0,-64.0,-53.0,-629.0,73.0,-107.0,664.0,-316.0,114.0
19:30:56.850000,-18.0,-69.0,-60.0,-618.0,81.0,-106.0,681.0,-313.0,87.0
19:30:56.855000,-7.0,-74.0,-53.0,-608.0,86.0,-105.0,681.0,-313.0,87.0
19:30:56.860000,-1.0,-77.0,-42.0,-607.0,96.0,-103.0,684.0,-316.0,94.0
19:30:56.865000,0.0,-77.0,-34.0,-612.0,117.0,-100.0,684.0,-316.0,94.0
19:30:56.869000,-4.0,-77.0,-18.0,-609.0,134.0,-98.0,684.0,-316.0,94.0
19:30:56.874000,-9.0,-78.0,0.0,-599.0,143.0,-98.0,670.0,-321.0,93.0
19:30:56.879000,-20.0,-75.0,14.0,-598.0,157.0,-98.0,670.0,-321.0,93.0
19:30:56.883000,-34.0,-73.0,23.0,-605.0,173.0,-101.0,675.0,-310.0,85.0
19:30:56.888000,-34.0,-73.0,23.0,-613.0,188.0,-108.0,675.0,-310.0,85.0
19:30:56.892000,-53.0,-69.0,31.0,-621.0,199.0,-115.0,675.0,-310.0,85.0
19:30:56.897000,-77.0,-63.0,41.0,-628.0,203.0,-121.0,682.0,-324.0,93.0
19:30:56.902000,-101.0,-56.0,46.0,-635.0,207.0,-128.0,682.0,-324.0,93.0
19:30:56.906000,-126.0,-47.0,44.0,-638.0,207.0,-138.0,675.0,-324.0,94.0
19:30:56.912000,-150.0,-39.0,38.0,-634.0,204.0,-153.0,675.0,-324.0,94.0
19:30:56.916000,-170.0,-33.0,36.0,-631.0,200.0,-170.0,675.0,-324.0,94.0
19:30:56.921000,-189.0,-29.0,36.0,-630.0,194.0,-186.0,687.0,-319.0,91.0
19:30:56.926000,-207.0,-26.0,37.0,-625.0,177.0,-199.0,687.0,-319.0,91.0
19:30:56.930000,-219.0,-23.0,42.0,-610.0,149.0,-209.0,685.0,-315.0,94.0
19:30:56.935000,-224.0,-25.0,54.0,-595.0,127.0,-220.0,685.0,-315.0,94.0
19:30:56.939000,-225.0,-28.0,63.0,-588.0,128.0,-232.0,685.0,-315.0,94.0
19:30:56.944000,-224.0,-31.0,65.0,-586.0,145.0,-242.0,685.0,-312.0,81.0
19:30:56.949000,-227.0,-32.0,67.0,-586.0,145.0,-242.0,685.0,-312.0,81.0
19:30:56.954000,-231.0,-32.0,70.0,-589.0,168.0,-250.0,682.0,-313.0,96.0
19:30:56.959000,-230.0,-30.0,66.0,-598.0,187.0,-257.0,682.0,-313.0,96.0
19:30:56.963000,-228.0,-28.0,67.0,-605.0,192.0,-264.0,682.0,-313.0,96.0
19:30:56.968000,-217.0,-27.0,72.0,-620.0,195.0,-278.0,676.0,-303.0,90.0
19:30:56.973000,-214.0,-19.0,70.0,-651.0,217.0,-291.0,676.0,-303.0,90.0
19:30:56.977000,-221.0,-10.0,74.0,-685.0,254.0,-298.0,666.0,-318.0,108.0
19:30:56.982000,-234.0,0.0,95.0,-700.0,276.0,-302.0,666.0,-318.0,108.0
19:30:56.986000,-234.0,0.0,95.0,-697.0,271.0,-304.0,666.0,-318.0,108.0
19:30:56.991000,-241.0,16.0,167.0,-691.0,257.0,-308.0,678.0,-322.0,88.0
19:30:56.996000,-241.0,16.0,167.0,-690.0,247.0,-315.0,678.0,-322.0,88.0
19:30:57.001000,-235.0,22.0,195.0,-700.0,251.0,-320.0,673.0,-316.0,96.0
19:30:57.006000,-224.0,28.0,210.0,-719.0,263.0,-327.0,673.0,-316.0,96.0
19:30:57.010000,-212.0,33.0,227.0,-742.0,269.0,-334.0,673.0,-316.0,96.0
19:30:57.015000,-201.0,38.0,252.0,-764.0,269.0,-338.0,681.0,-318.0,105.0
19:30:57.020000,-193.0,40.0,281.0,-774.0,265.0,-339.0,681.0,-318.0,105.0
19:30:57.024000,-184.0,41.0,311.0,-760.0,265.0,-336.0,678.0,-325.0,87.0
19:30:57.029000,-175.0,39.0,337.0,-729.0,276.0,-333.0,678.0,-325.0,87.0
19:30:57.033000,-163.0,37.0,354.0,-694.0,299.0,-330.0,678.0,-325.0,87.0
19:30:57.038000,-149.0,30.0,362.0,-661.0,332.0,-327.0,681.0,-316.0,94.0
19:30:57.043000,-133.0,15.0,364.0,-635.0,375.0,-330.0,681.0,-316.0,94.0
19:30:57.048000,-113.0,-5.0,360.0,-635.0,375.0,-330.0,679.0,-324.0,96.0
19:30:57.053000,-92.0,-25.0,347.0,-631.0,525.0,-360.0,679.0,-324.0,96.0
19:30:57.057000,-72.0,-39.0,325.0,-631.0,525.0,-360.0,679.0,-324.0,96.0
19:30:57.062000,-54.0,-51.0,290.0,-732.0,757.0,-402.0,678.0,-333.0,100.0
19:30:57.067000,-55.0,-56.0,240.0,-732.0,757.0,-402.0,678.0,-333.0,100.0
19:30:57.071000,-70.0,-57.0,193.0,-793.0,860.0,-413.0,673.0,-328.0,96.0
19:30:57.076000,-82.0,-52.0,172.0,-815.0,904.0,-418.0,673.0,-328.0,96.0
19:30:57.080000,-85.0,-42.0,175.0,-795.0,883.0,-419.0,673.0,-328.0,96.0
19:30:57.085000,-77.0,-29.0,188.0,-750.0,824.0,-409.0,676.0,-336.0,91.0
19:30:57.090000,-50.0,-14.0,196.0,-697.0,751.0,-394.0,676.0,-336.0,91.0
19:30:57.095000,-1.0,-7.0,186.0,-661.0,679.0,-384.0,690.0,-339.0,93.0
19:30:57.100000,56.0,-4.0,171.0,-628.0,624.0,-368.0,690.0,-339.0,93.0
19:30:57.104000,56.0,-4.0,171.0,-573.0,574.0,-344.0,690.0,-339.0,93.0
19:30:57.109000,107.0,0.0,174.0,-542.0,547.0,-333.0,679.0,-334.0,97.0
19:30:57.114000,165.0,2.0,189.0,-576.0,610.0,-334.0,679.0,-334.0,97.0
19:30:57.118000,207.0,-4.0,170.0,-624.0,750.0,-320.0,663.0,-336.0,114.0
19:30:57.123000,202.0,-9.0,131.0,-633.0,863.0,-306.0,663.0,-336.0,114.0
19:30:57.127000,182.0,-23.0,121.0,-626.0,910.0,-308.0,663.0,-336.0,114.0
19:30:57.132000,156.0,-44.0,133.0,-612.0,960.0,-321.0,682.0,-345.0,102.0
19:30:57.137000,104.0,-65.0,145.0,-623.0,1046.0,-344.0,682.0,-345.0,102.0
19:30:57.142000,45.0,-81.0,142.0,-670.0,1128.0,-373.0,673.0,-340.0,94.0
19:30:57.147000,-10.0,-98.0,100.0,-693.0,1116.0,-401.0,673.0,-340.0,94.0
19:30:57.151000,-73.0,-99.0,128.0,-734.0,1040.0,-433.0,673.0,-340.0,94.0
19:30:57.156000,-104.0,-88.0,200.0,-861.0,936.0,-455.0,667.0,-345.0,96.0
19:30:57.161000,-182.0,-70.0,314.0,-964.0,808.0,-468.0,667.0,-345.0,96.0
19:30:57.165000,-194.0,-73.0,428.0,-964.0,808.0,-468.0,675.0,-348.0,99.0
19:30:57.170000,-179.0,-53.0,462.0,-1146.0,710.0,-493.0,675.0,-348.0,99.0
19:30:57.174000,-173.0,-46.0,255.0,-1727.0,649.0,-514.0,675.0,-348.0,99.0
19:30:57.179000,-192.0,-7.0,27.0,-1800.0,541.0,-472.0,676.0,-340.0,87.0
19:30:57.184000,-175.0,71.0,360.0,-1004.0,351.0,-448.0,676.0,-340.0,87.0
19:30:57.189000,-93.0,87.0,597.0,-473.0,337.0,-456.0,678.0,-352.0,91.0
19:30:57.194000,-25.0,101.0,534.0,-466.0,544.0,-439.0,678.0,-352.0,91.0
19:30:57.201000,46.0,93.0,394.0,-853.0,686.0,-451.0,669.0,-354.0,97.0
19:30:57.203000,103.0,88.0,209.0,-853.0,686.0,-451.0,669.0,-354.0,97.0
19:30:57.207000,103.0,88.0,209.0,-1133.0,568.0,-470.0,669.0,-354.0,97.0
19:30:57.212000,147.0,80.0,-39.0,-1299.0,440.0,-471.0,669.0,-354.0,105.0
19:30:57.217000,147.0,80.0,-39.0,-1348.0,427.0,-478.0,669.0,-354.0,105.0
19:30:57.222000,181.0,55.0,-76.0,-1260.0,475.0,-487.0,664.0,-349.0,96.0
19:30:57.226000,140.0,47.0,34.0,-1233.0,503.0,-475.0,664.0,-349.0,96.0
19:30:57.231000,115.0,23.0,139.0,-1253.0,575.0,-470.0,664.0,-349.0,96.0
19:30:57.236000,90.0,6.0,121.0,-1182.0,610.0,-462.0,663.0,-358.0,99.0
19:30:57.241000,40.0,-13.0,109.0,-1114.0,589.0,-453.0,663.0,-358.0,99.0
19:30:57.245000,10.0,-43.0,114.0,-1086.0,598.0,-439.0,666.0,-367.0,97.0
19:30:57.250000,-25.0,-81.0,159.0,-1095.0,622.0,-416.0,666.0,-367.0,97.0
19:30:57.254000,-62.0,-118.0,160.0,-1122.0,591.0,-385.0,666.0,-367.0,97.0
19:30:57.259000,-111.0,-146.0,158.0,-1089.0,452.0,-358.0,667.0,-358.0,96.0
19:30:57.264000,-129.0,-193.0,252.0,-1016.0,294.0,-329.0,667.0,-358.0,96.0
19:30:57.269000,-142.0,-243.0,396.0,-1016.0,294.0,-329.0,664.0,-364.0,97.0
19:30:57.273000,-147.0,-271.0,434.0,-1142.0,285.0,-261.0,664.0,-364.0,97.0
19:30:57.278000,-156.0,-294.0,386.0,-1142.0,285.0,-261.0,664.0,-364.0,97.0
19:30:57.283000,-167.0,-296.0,372.0,-1214.0,310.0,-238.0,658.0,-364.0,96.0
19:30:57.288000,-180.0,-291.0,434.0,-1235.0,266.0,-222.0,658.0,-364.0,96.0
19:30:57.292000,-178.0,-284.0,470.0,-1388.0,199.0,-185.0,658.0,-373.0,99.0
19:30:57.297000,-163.0,-270.0,429.0,-1388.0,199.0,-185.0,658.0,-373.0,99.0
19:30:57.301000,-158.0,-237.0,342.0,-1471.0,207.0,-175.0,658.0,-373.0,99.0
19:30:57.306000,-153.0,-205.0,352.0,-1488.0,138.0,-159.0,663.0,-372.0,94.0
19:30:57.311000,-122.0,-179.0,375.0,-1479.0,48.0,-148.0,663.0,-372.0,94.0
19:30:57.316000,-97.0,-145.0,340.0,-1516.0,20.0,-148.0,666.0,-379.0,84.0
19:30:57.320000,-70.0,-110.0,294.0,-1556.0,12.0,-147.0,666.0,-379.0,84.0
19:30:57.325000,-70.0,-110.0,294.0,-1568.0,9.0,-153.0,666.0,-379.0,84.0
19:30:57.330000,-34.0,-77.0,251.0,-1575.0,-3.0,-165.0,654.0,-378.0,91.0
19:30:57.335000,-18.0,-33.0,212.0,-1576.0,-17.0,-181.0,654.0,-378.0,91.0
19:30:57.339000,0.0,4.0,170.0,-1564.0,-26.0,-203.0,661.0,-382.0,85.0
19:30:57.344000,3.0,49.0,142.0,-1547.0,-45.0,-224.0,661.0,-382.0,85.0
19:30:57.348000,20.0,77.0,131.0,-1514.0,-60.0,-249.0,661.0,-382.0,85.0
19:30:57.353000,46.0,101.0,108.0,-1469.0,-55.0,-274.0,666.0,-372.0,93.0
19:30:57.358000,62.0,128.0,62.0,-1421.0,-50.0,-296.0,666.0,-372.0,93.0
19:30:57.363000,79.0,146.0,48.0,-1382.0,-47.0,-313.0,657.0,-381.0,85.0
19:30:57.367000,92.0,158.0,59.0,-1373.0,-33.0,-326.0,657.0,-381.0,85.0
19:30:57.372000,111.0,168.0,7.0,-1360.0,-43.0,-335.0,657.0,-381.0,85.0
19:30:57.377000,128.0,175.0,-39.0,-1331.0,-65.0,-344.0,669.0,-387.0,91.0
19:30:57.381000,145.0,182.0,-76.0,-1321.0,-40.0,-349.0,669.0,-387.0,91.0
19:30:57.386000,152.0,184.0,-137.0,-1321.0,-40.0,-349.0,669.0,-373.0,105.0
19:30:57.391000,182.0,168.0,-142.0,-1276.0,-15.0,-343.0,669.0,-373.0,105.0
19:30:57.395000,202.0,155.0,-101.0,-1191.0,1.0,-343.0,669.0,-373.0,105.0
19:30:57.400000,198.0,147.0,-86.0,-1150.0,81.0,-340.0,655.0,-378.0,91.0
19:30:57.405000,196.0,109.0,-87.0,-1129.0,158.0,-326.0,655.0,-378.0,91.0
19:30:57.410000,204.0,81.0,-133.0,-1108.0,185.0,-316.0,666.0,-394.0,91.0
19:30:57.414000,189.0,79.0,-224.0,-1119.0,186.0,-313.0,666.0,-394.0,91.0
19:30:57.419000,179.0,56.0,-253.0,-1089.0,168.0,-290.0,666.0,-394.0,91.0
19:30:57.424000,170.0,23.0,-224.0,-908.0,225.0,-259.0,661.0,-381.0,97.0
19:30:57.429000,172.0,-27.0,-228.0,-763.0,423.0,-218.0,661.0,-381.0,97.0
19:30:57.433000,79.0,-27.0,-49.0,-959.0,282.0,-218.0,649.0,-384.0,105.0
19:30:57.438000,79.0,-57.0,-172.0,-1084.0,-137.0,-243.0,649.0,-384.0,105.0
19:30:57.442000,61.0,-72.0,-63.0,-1096.0,-164.0,-247.0,649.0,-384.0,105.0
19:30:57.447000,61.0,-89.0,-78.0,-1126.0,67.0,-232.0,663.0,-378.0,99.0
19:30:57.452000,0.0,-74.0,-76.0,-1042.0,291.0,-228.0,663.0,-378.0,99.0
19:30:57.457000,-4.0,-64.0,-85.0,-1016.0,416.0,-234.0,657.0,-375.0,93.0
19:30:57.461000,2.0,-65.0,-156.0,-1033.0,337.0,-215.0,657.0,-375.0,93.0
19:30:57.466000,10.0,-74.0,-289.0,-1040.0,132.0,-199.0,657.0,-375.0,93.0
19:30:57.471000,-16.0,-61.0,-332.0,-1071.0,7.0,-189.0,663.0,-373.0,94.0
19:30:57.476000,9.0,-60.0,-259.0,-1147.0,-1.0,-191.0,663.0,-373.0,94.0
19:30:57.480000,18.0,-56.0,-189.0,-1198.0,14.0,-197.0,663.0,-369.0,90.0
19:30:57.485000,16.0,-30.0,-205.0,-1193.0,47.0,-197.0,663.0,-369.0,90.0
19:30:57.489000,29.0,-21.0,-251.0,-1124.0,65.0,-189.0,663.0,-369.0,90.0
19:30:57.494000,38.0,-24.0,-240.0,-1048.0,62.0,-190.0,664.0,-367.0,88.0
19:30:57.499000,51.0,-27.0,-213.0,-1048.0,62.0,-190.0,664.0,-367.0,88.0
19:30:57.504000,73.0,-21.0,-249.0,-1031.0,110.0,-193.0,657.0,-364.0,87.0
19:30:57.508000,52.0,-23.0,-231.0,-1027.0,148.0,-181.0,657.0,-364.0,87.0
19:30:57.513000,31.0,-14.0,-195.0,-1040.0,91.0,-179.0,657.0,-364.0,87.0
19:30:57.518000,63.0,-14.0,-199.0,-1127.0,71.0,-205.0,652.0,-363.0,93.0
19:30:57.523000,70.0,-15.0,-195.0,-1182.0,97.0,-221.0,652.0,-363.0,93.0
19:30:57.527000,67.0,-16.0,-210.0,-1135.0,78.0,-216.0,660.0,-360.0,93.0
19:30:57.532000,51.0,-16.0,-193.0,-1071.0,83.0,-209.0,660.0,-360.0,93.0
19:30:57.536000,51.0,-16.0,-193.0,-1023.0,189.0,-215.0,660.0,-360.0,93.0
19:30:57.541000,37.0,-7.0,-275.0,-981.0,276.0,-230.0,664.0,-355.0,99.0
19:30:57.546000,37.0,-7.0,-275.0,-950.0,249.0,-235.0,664.0,-355.0,99.0
19:30:57.551000,35.0,-13.0,-273.0,-956.0,175.0,-227.0,657.0,-364.0,90.0
19:30:57.555000,12.0,-11.0,-232.0,-990.0,149.0,-219.0,657.0,-364.0,90.0
19:30:57.559000,-10.0,-4.0,-205.0,-1003.0,175.0,-211.0,657.0,-364.0,90.0
19:30:57.565000,-35.0,-2.0,-192.0,-1001.0,196.0,-208.0,664.0,-355.0,88.0
19:30:57.570000,-32.0,0.0,-224.0,-985.0,178.0,-216.0,664.0,-355.0,88.0
19:30:57.574000,-22.0,2.0,-236.0,-978.0,122.0,-220.0,663.0,-351.0,96.0
19:30:57.579000,-15.0,2.0,-210.0,-983.0,77.0,-219.0,663.0,-351.0,96.0
19:30:57.583000,-35.0,13.0,-186.0,-989.0,102.0,-219.0,663.0,-351.0,96.0
19:30:57.588000,-70.0,31.0,-165.0,-981.0,173.0,-229.0,654.0,-360.0,96.0
19:30:57.593000,-73.0,39.0,-173.0,-926.0,200.0,-232.0,654.0,-360.0,96.0
19:30:57.598000,-74.0,37.0,-182.0,-926.0,200.0,-232.0,657.0,-354.0,88.0
19:30:57.602000,-84.0,37.0,-174.0,-866.0,116.0,-244.0,657.0,-354.0,88.0
19:30:57.606000,-81.0,37.0,-165.0,-866.0,116.0,-244.0,657.0,-354.0,88.0
19:30:57.612000,-67.0,31.0,-174.0,-863.0,136.0,-248.0,663.0,-355.0,88.0
19:30:57.617000,-61.0,20.0,-186.0,-852.0,168.0,-249.0,663.0,-355.0,88.0
19:30:57.621000,-58.0,11.0,-179.0,-822.0,169.0,-251.0,651.0,-352.0,99.0
19:30:57.626000,-46.0,1.0,-175.0,-816.0,159.0,-254.0,651.0,-352.0,99.0
19:30:57.630000,-25.0,-12.0,-164.0,-864.0,148.0,-258.0,651.0,-352.0,99.0
19:30:57.635000,-11.0,-19.0,-172.0,-907.0,132.0,-258.0,669.0,-343.0,96.0
19:30:57.640000,-2.0,-23.0,-197.0,-920.0,112.0,-260.0,669.0,-343.0,96.0
19:30:57.645000,21.0,-34.0,-210.0,-913.0,115.0,-261.0,661.0,-345.0,82.0
19:30:57.649000,40.0,-45.0,-189.0,-901.0,136.0,-263.0,661.0,-345.0,82.0
19:30:57.653000,40.0,-45.0,-189.0,-912.0,142.0,-263.0,661.0,-345.0,82.0
19:30:57.659000,50.0,-50.0,-161.0,-944.0,144.0,-258.0,654.0,-349.0,90.0
19:30:57.664000,48.0,-44.0,-159.0,-993.0,160.0,-263.0,654.0,-349.0,90.0
19:30:57.668000,56.0,-37.0,-210.0,-1029.0,153.0,-259.0,654.0,-351.0,87.0
19:30:57.673000,46.0,-30.0,-239.0,-1034.0,117.0,-254.0,654.0,-351.0,87.0
19:30:57.677000,46.0,-26.0,-238.0,-1053.0,108.0,-253.0,654.0,-351.0,87.0
19:30:57.682000,38.0,-18.0,-242.0,-1059.0,115.0,-237.0,661.0,-339.0,91.0
19:30:57.687000,29.0,-7.0,-249.0,-1063.0,129.0,-244.0,661.0,-339.0,91.0
19:30:57.692000,20.0,5.0,-273.0,-1077.0,161.0,-255.0,654.0,-340.0,82.0
19:30:57.696000,2.0,26.0,-303.0,-1036.0,178.0,-238.0,654.0,-340.0,82.0
19:30:57.700000,-7.0,41.0,-305.0,-1001.0,189.0,-242.0,654.0,-340.0,82.0
19:30:57.706000,-11.0,53.0,-304.0,-1008.0,223.0,-256.0,667.0,-336.0,99.0
19:30:57.710000,-16.0,72.0,-335.0,-1024.0,239.0,-249.0,667.0,-336.0,99.0
19:30:57.715000,-27.0,93.0,-386.0,-1024.0,239.0,-249.0,667.0,-336.0,94.0
19:30:57.720000,-19.0,114.0,-426.0,-1029.0,213.0,-240.0,667.0,-336.0,94.0
19:30:57.724000,-17.0,128.0,-448.0,-1031.0,174.0,-240.0,667.0,-336.0,94.0
19:30:57.729000,-15.0,143.0,-456.0,-1033.0,155.0,-242.0,661.0,-322.0,93.0
19:30:57.734000,-4.0,156.0,-462.0,-1025.0,153.0,-252.0,661.0,-322.0,93.0
19:30:57.739000,15.0,167.0,-478.0,-1016.0,155.0,-261.0,651.0,-328.0,96.0
19:30:57.743000,35.0,172.0,-479.0,-1029.0,184.0,-268.0,651.0,-328.0,96.0
19:30:57.747000,37.0,184.0,-506.0,-1059.0,234.0,-277.0,651.0,-328.0,96.0
19:30:57.753000,34.0,196.0,-538.0,-1080.0,276.0,-282.0,664.0,-316.0,93.0
19:30:57.757000,35.0,206.0,-536.0,-1077.0,291.0,-288.0,664.0,-316.0,93.0
19:30:57.762000,35.0,206.0,-536.0,-1067.0,305.0,-296.0,655.0,-319.0,94.0
19:30:57.767000,33.0,212.0,-524.0,-1072.0,324.0,-300.0,655.0,-319.0,94.0
19:30:57.771000,29.0,214.0,-525.0,-1082.0,330.0,-307.0,655.0,-319.0,94.0
19:30:57.776000,33.0,220.0,-524.0,-1094.0,331.0,-315.0,664.0,-309.0,99.0
19:30:57.781000,33.0,226.0,-516.0,-1102.0,344.0,-313.0,664.0,-309.0,99.0
19:30:57.786000,30.0,235.0,-507.0,-1115.0,376.0,-314.0,657.0,-309.0,96.0
19:30:57.790000,26.0,245.0,-503.0,-1121.0,402.0,-309.0,657.0,-309.0,96.0
19:30:57.798000,-3.0,277.0,-482.0,-1103.0,418.0,-308.0,660.0,-300.0,108.0
19:30:57.800000,-3.0,277.0,-482.0,-1103.0,418.0,-308.0,660.0,-300.0,108.0
19:30:57.804000,-18.0,294.0,-468.0,-1111.0,418.0,-305.0,660.0,-300.0,108.0
19:30:57.809000,-37.0,308.0,-462.0,-1125.0,418.0,-307.0,661.0,-301.0,97.0
19:30:57.814000,-39.0,311.0,-481.0,-1116.0,418.0,-308.0,661.0,-301.0,97.0
19:30:57.819000,-44.0,315.0,-511.0,-1116.0,418.0,-308.0,639.0,-292.0,94.0
19:30:57.823000,-31.0,314.0,-520.0,-1042.0,397.0,-317.0,639.0,-292.0,94.0
19:30:57.827000,-23.0,307.0,-494.0,-1042.0,397.0,-317.0,639.0,-292.0,94.0
19:30:57.833000,-36.0,305.0,-478.0,-1031.0,392.0,-316.0,657.0,-286.0,100.0
19:30:57.837000,-4.0,297.0,-499.0,-1029.0,411.0,-322.0,657.0,-286.0,100.0
19:30:57.842000,26.0,282.0,-514.0,-1004.0,376.0,-325.0,655.0,-286.0,105.0
19:30:57.847000,58.0,258.0,-492.0,-958.0,376.0,-328.0,655.0,-286.0,105.0
19:30:57.851000,66.0,244.0,-455.0,-925.0,334.0,-326.0,655.0,-286.0,105.0
19:30:57.856000,99.0,231.0,-435.0,-932.0,330.0,-332.0,663.0,-280.0,118.0
19:30:57.861000,129.0,221.0,-436.0,-952.0,372.0,-341.0,663.0,-280.0,118.0
19:30:57.866000,146.0,211.0,-419.0,-945.0,393.0,-351.0,654.0,-276.0,108.0
19:30:57.870000,180.0,184.0,-378.0,-926.0,396.0,-361.0,654.0,-276.0,108.0
19:30:57.874000,180.0,184.0,-378.0,-924.0,413.0,-354.0,654.0,-276.0,108.0
19:30:57.880000,163.0,188.0,-357.0,-933.0,454.0,-352.0,646.0,-277.0,109.0
19:30:57.884000,174.0,169.0,-375.0,-934.0,504.0,-372.0,646.0,-277.0,109.0
19:30:57.889000,195.0,151.0,-396.0,-907.0,532.0,-380.0,670.0,-273.0,132.0
19:30:57.894000,159.0,151.0,-407.0,-879.0,565.0,-375.0,670.0,-273.0,132.0
19:30:57.898000,158.0,139.0,-415.0,-883.0,590.0,-376.0,670.0,-273.0,132.0
19:30:57.903000,152.0,120.0,-411.0,-894.0,568.0,-373.0,661.0,-271.0,112.0
19:30:57.908000,140.0,104.0,-404.0,-896.0,537.0,-378.0,661.0,-271.0,112.0
19:30:57.913000,123.0,102.0,-413.0,-907.0,537.0,-386.0,657.0,-267.0,109.0
19:30:57.917000,132.0,86.0,-417.0,-934.0,561.0,-391.0,657.0,-267.0,109.0
19:30:57.921000,138.0,71.0,-420.0,-979.0,585.0,-385.0,657.0,-267.0,109.0
19:30:57.927000,112.0,65.0,-438.0,-1031.0,603.0,-372.0,661.0,-255.0,120.0
19:30:57.931000,79.0,68.0,-464.0,-1059.0,622.0,-378.0,661.0,-255.0,120.0
19:30:57.936000,63.0,79.0,-477.0,-1059.0,622.0,-378.0,636.0,-259.0,115.0
19:30:57.941000,35.0,87.0,-442.0,-1066.0,610.0,-374.0,636.0,-259.0,115.0
19:30:57.945000,4.0,106.0,-357.0,-1072.0,561.0,-350.0,636.0,-259.0,115.0
19:30:57.950000,-15.0,129.0,-300.0,-1064.0,534.0,-343.0,660.0,-252.0,112.0
19:30:57.955000,-17.0,157.0,-282.0,-1054.0,558.0,-350.0,660.0,-252.0,112.0
19:30:57.960000,-24.0,190.0,-327.0,-1033.0,588.0,-357.0,661.0,-255.0,114.0
19:30:57.964000,0.0,216.0,-431.0,-959.0,623.0,-368.0,661.0,-255.0,114.0
19:30:57.968000,0.0,216.0,-431.0,-894.0,626.0,-373.0,661.0,-255.0,114.0
19:30:57.974000,27.0,226.0,-393.0,-899.0,567.0,-373.0,651.0,-253.0,120.0
19:30:57.978000,56.0,221.0,-329.0,-956.0,519.0,-385.0,651.0,-253.0,120.0
19:30:57.983000,56.0,221.0,-329.0,-998.0,523.0,-394.0,646.0,-241.0,130.0
19:30:57.988000,86.0,207.0,-295.0,-994.0,559.0,-404.0,646.0,-241.0,130.0
19:30:57.992000,111.0,189.0,-237.0,-974.0,596.0,-414.0,646.0,-241.0,130.0
19:30:57.997000,143.0,163.0,-231.0,-924.0,644.0,-427.0,658.0,-238.0,123.0
19:30:58.002000,161.0,144.0,-252.0,-867.0,672.0,-433.0,658.0,-238.0,123.0
19:30:58.007000,169.0,112.0,-215.0,-839.0,666.0,-436.0,661.0,-234.0,127.0
19:30:58.011000,179.0,81.0,-144.0,-835.0,651.0,-445.0,661.0,-234.0,127.0
19:30:58.015000,178.0,56.0,-62.0,-852.0,674.0,-444.0,661.0,-234.0,127.0
19:30:58.021000,175.0,21.0,-10.0,-858.0,711.0,-435.0,652.0,-241.0,121.0
19:30:58.025000,164.0,-11.0,37.0,-837.0,706.0,-421.0,652.0,-241.0,121.0
19:30:58.030000,150.0,-43.0,91.0,-837.0,689.0,-421.0,655.0,-234.0,121.0
19:30:58.035000,141.0,-72.0,149.0,-806.0,682.0,-400.0,655.0,-234.0,121.0
19:30:58.039000,126.0,-99.0,180.0,-797.0,668.0,-390.0,655.0,-234.0,121.0
19:30:58.044000,109.0,-124.0,198.0,-797.0,668.0,-390.0,651.0,-250.0,118.0
19:30:58.049000,82.0,-146.0,242.0,-764.0,626.0,-382.0,651.0,-250.0,118.0
19:30:58.054000,74.0,-172.0,251.0,-760.0,607.0,-378.0,658.0,-246.0,108.0
19:30:58.058000,69.0,-195.0,235.0,-774.0,605.0,-375.0,658.0,-246.0,108.0
19:30:58.062000,60.0,-212.0,228.0,-784.0,568.0,-364.0,658.0,-246.0,108.0
19:30:58.068000,46.0,-228.0,249.0,-786.0,513.0,-342.0,651.0,-243.0,118.0
19:30:58.072000,47.0,-245.0,274.0,-763.0,456.0,-330.0,651.0,-243.0,118.0
19:30:58.077000,54.0,-258.0,260.0,-743.0,434.0,-328.0,655.0,-241.0,105.0
19:30:58.082000,50.0,-265.0,231.0,-737.0,448.0,-324.0,655.0,-241.0,105.0
19:30:58.086000,50.0,-265.0,231.0,-728.0,461.0,-314.0,655.0,-241.0,105.0
19:30:58.091000,30.0,-265.0,221.0,-739.0,484.0,-303.0,660.0,-243.0,102.0
19:30:58.096000,10.0,-260.0,211.0,-750.0,485.0,-293.0,660.0,-243.0,102.0
19:30:58.101000,-12.0,-252.0,221.0,-748.0,455.0,-286.0,661.0,-253.0,111.0
19:30:58.105000,-36.0,-240.0,238.0,-746.0,443.0,-281.0,661.0,-253.0,111.0
19:30:58.109000,-53.0,-227.0,235.0,-741.0,465.0,-278.0,666.0,-244.0,106.0
19:30:58.115000,-70.0,-211.0,196.0,-738.0,499.0,-277.0,666.0,-244.0,106.0
19:30:58.119000,-91.0,-193.0,140.0,-733.0,511.0,-273.0,666.0,-244.0,106.0
19:30:58.124000,-111.0,-179.0,100.0,-721.0,494.0,-267.0,663.0,-256.0,106.0
19:30:58.129000,-131.0,-168.0,86.0,-704.0,458.0,-259.0,663.0,-256.0,106.0
19:30:58.133000,-147.0,-163.0,86.0,-672.0,415.0,-247.0,660.0,-246.0,102.0
19:30:58.138000,-154.0,-163.0,90.0,-619.0,370.0,-234.0,660.0,-246.0,102.0
19:30:58.142000,-151.0,-173.0,99.0,-559.0,333.0,-221.0,660.0,-246.0,102.0
19:30:58.148000,-142.0,-189.0,116.0,-504.0,309.0,-209.0,652.0,-241.0,100.0
19:30:58.152000,-129.0,-207.0,146.0,-465.0,294.0,-196.0,652.0,-241.0,100.0
19:30:58.157000,-119.0,-224.0,181.0,-443.0,283.0,-178.0,661.0,-247.0,100.0
19:30:58.162000,-110.0,-238.0,210.0,-443.0,283.0,-178.0,661.0,-247.0,100.0
19:30:58.166000,-105.0,-249.0,238.0,-430.0,264.0,-158.0,661.0,-247.0,100.0
19:30:58.171000,-98.0,-259.0,275.0,-421.0,224.0,-141.0,667.0,-253.0,91.0
19:30:58.176000,-88.0,-264.0,303.0,-425.0,181.0,-129.0,667.0,-253.0,91.0
19:30:58.180000,-79.0,-263.0,316.0,-446.0,155.0,-120.0,666.0,-247.0,87.0
19:30:58.185000,-68.0,-253.0,312.0,-478.0,150.0,-113.0,666.0,-247.0,87.0
19:30:58.189000,-68.0,-253.0,312.0,-515.0,156.0,-109.0,666.0,-247.0,87.0
19:30:58.195000,-49.0,-211.0,270.0,-554.0,162.0,-111.0,664.0,-247.0,91.0
19:30:58.199000,-37.0,-182.0,234.0,-590.0,162.0,-115.0,664.0,-247.0,91.0
19:30:58.204000,-37.0,-182.0,234.0,-620.0,157.0,-120.0,672.0,-256.0,90.0
19:30:58.209000,-23.0,-153.0,194.0,-639.0,150.0,-125.0,672.0,-256.0,90.0
19:30:58.213000,-10.0,-120.0,165.0,-643.0,137.0,-128.0,672.0,-256.0,90.0
19:30:58.218000,2.0,-88.0,149.0,-638.0,129.0,-133.0,658.0,-259.0,91.0
19:30:58.223000,17.0,-58.0,138.0,-630.0,130.0,-138.0,658.0,-259.0,91.0
19:30:58.227000,32.0,-28.0,128.0,-620.0,140.0,-141.0,657.0,-261.0,85.0
19:30:58.232000,45.0,0.0,119.0,-610.0,161.0,-143.0,657.0,-261.0,85.0
19:30:58.236000,55.0,25.0,109.0,-597.0,180.0,-144.0,657.0,-261.0,85.0
19:30:58.242000,61.0,46.0,106.0,-581.0,193.0,-145.0,667.0,-252.0,88.0
19:30:58.246000,63.0,62.0,110.0,-562.0,203.0,-145.0,667.0,-252.0,88.0
19:30:58.251000,62.0,74.0,117.0,-562.0,203.0,-145.0,672.0,-256.0,97.0
19:30:58.256000,58.0,83.0,121.0,-528.0,229.0,-148.0,672.0,-256.0,97.0
19:30:58.260000,48.0,87.0,121.0,-514.0,244.0,-149.0,672.0,-256.0,97.0
19:30:58.265000,32.0,88.0,121.0,-514.0,244.0,-149.0,669.0,-264.0,91.0
19:30:58.270000,11.0,88.0,123.0,-499.0,253.0,-150.0,669.0,-264.0,91.0
19:30:58.274000,-7.0,89.0,125.0,-483.0,258.0,-149.0,667.0,-267.0,78.0
19:30:58.279000,-24.0,86.0,121.0,-474.0,261.0,-147.0,667.0,-267.0,78.0
19:30:58.283000,-38.0,82.0,120.0,-472.0,258.0,-143.0,667.0,-267.0,78.0
19:30:58.289000,-42.0,74.0,120.0,-474.0,238.0,-138.0,669.0,-255.0,87.0
19:30:58.293000,-32.0,62.0,121.0,-477.0,203.0,-135.0,669.0,-255.0,87.0
19:30:58.298000,-16.0,48.0,131.0,-481.0,166.0,-131.0,655.0,-267.0,100.0
19:30:58.303000,0.0,35.0,153.0,-488.0,139.0,-124.0,655.0,-267.0,100.0
19:30:58.307000,0.0,35.0,153.0,-503.0,126.0,-116.0,655.0,-267.0,100.0
19:30:58.312000,18.0,24.0,177.0,-515.0,122.0,-112.0,670.0,-268.0,85.0
19:30:58.317000,35.0,17.0,201.0,-529.0,122.0,-111.0,670.0,-268.0,85.0
19:30:58.321000,50.0,14.0,226.0,-552.0,132.0,-112.0,672.0,-264.0,88.0
19:30:58.326000,59.0,18.0,251.0,-581.0,145.0,-111.0,672.0,-264.0,88.0
19:30:58.330000,60.0,28.0,275.0,-603.0,150.0,-108.0,672.0,-264.0,88.0
19:30:58.336000,56.0,40.0,301.0,-611.0,139.0,-107.0,660.0,-268.0,91.0
19:30:58.340000,51.0,51.0,330.0,-608.0,120.0,-107.0,660.0,-268.0,91.0
19:30:58.345000,44.0,60.0,354.0,-601.0,109.0,-107.0,664.0,-268.0,91.0
19:30:58.350000,34.0,63.0,370.0,-591.0,104.0,-109.0,664.0,-268.0,91.0
19:30:58.354000,26.0,60.0,382.0,-580.0,95.0,-111.0,664.0,-268.0,91.0
19:30:58.359000,14.0,54.0,393.0,-578.0,82.0,-115.0,673.0,-264.0,90.0
19:30:58.364000,4.0,44.0,393.0,-578.0,72.0,-122.0,673.0,-264.0,90.0
19:30:58.368000,-3.0,29.0,385.0,-578.0,72.0,-122.0,669.0,-279.0,81.0
19:30:58.373000,-9.0,9.0,375.0,-571.0,61.0,-129.0,669.0,-279.0,81.0
19:30:58.377000,-17.0,-8.0,359.0,-561.0,52.0,-135.0,669.0,-279.0,81.0
19:30:58.383000,-18.0,-30.0,335.0,-552.0,50.0,-140.0,673.0,-282.0,96.0
19:30:58.387000,-18.0,-51.0,306.0,-550.0,45.0,-144.0,673.0,-282.0,96.0
19:30:58.392000,-11.0,-73.0,272.0,-552.0,37.0,-151.0,679.0,-276.0,99.0
19:30:58.397000,-2.0,-95.0,233.0,-560.0,38.0,-159.0,679.0,-276.0,99.0
19:30:58.401000,3.0,-115.0,205.0,-573.0,47.0,-165.0,679.0,-276.0,99.0
19:30:58.406000,4.0,-131.0,189.0,-584.0,58.0,-167.0,679.0,-285.0,91.0
19:30:58.411000,4.0,-145.0,174.0,-590.0,71.0,-167.0,679.0,-285.0,91.0
19:30:58.415000,2.0,-156.0,165.0,-590.0,83.0,-164.0,676.0,-280.0,87.0
19:30:58.420000,2.0,-156.0,165.0,-586.0,92.0,-159.0,676.0,-280.0,87.0
19:30:58.424000,0.0,-165.0,161.0,-593.0,102.0,-155.0,676.0,-280.0,87.0
19:30:58.430000,-6.0,-168.0,153.0,-616.0,112.0,-150.0,676.0,-292.0,82.0
19:30:58.434000,-14.0,-165.0,139.0,-648.0,119.0,-143.0,676.0,-292.0,82.0
19:30:58.439000,-24.0,-158.0,128.0,-677.0,111.0,-135.0,669.0,-292.0,88.0
19:30:58.444000,-30.0,-151.0,119.0,-695.0,90.0,-127.0,669.0,-292.0,88.0
19:30:58.448000,-30.0,-145.0,110.0,-704.0,69.0,-120.0,669.0,-292.0,88.0
19:30:58.453000,-21.0,-141.0,101.0,-708.0,62.0,-114.0,669.0,-286.0,85.0
19:30:58.458000,-8.0,-137.0,89.0,-710.0,67.0,-107.0,669.0,-286.0,85.0
19:30:58.462000,3.0,-131.0,83.0,-709.0,77.0,-101.0,670.0,-283.0,84.0
19:30:58.467000,11.0,-126.0,78.0,-705.0,90.0,-95.0,670.0,-283.0,84.0
19:30:58.471000,17.0,-119.0,75.0,-697.0,102.0,-94.0,670.0,-283.0,84.0
19:30:58.477000,18.0,-110.0,74.0,-688.0,118.0,-96.0,673.0,-280.0,85.0
19:30:58.481000,19.0,-97.0,75.0,-682.0,136.0,-102.0,673.0,-280.0,85.0
19:30:58.485000,15.0,-81.0,76.0,-679.0,152.0,-111.0,667.0,-294.0,79.0
19:30:58.491000,7.0,-67.0,74.0,-679.0,152.0,-111.0,667.0,-294.0,79.0
19:30:58.495000,0.0,-52.0,67.0,-676.0,164.0,-121.0,667.0,-294.0,79.0
19:30:58.500000,-6.0,-42.0,63.0,-667.0,166.0,-129.0,658.0,-285.0,93.0
19:30:58.505000,-7.0,-37.0,61.0,-649.0,161.0,-135.0,658.0,-285.0,93.0
19:30:58.509000,-7.0,-38.0,63.0,-623.0,156.0,-141.0,666.0,-282.0,78.0
19:30:58.514000,-6.0,-43.0,60.0,-600.0,161.0,-146.0,666.0,-282.0,78.0
19:30:58.518000,-6.0,-43.0,60.0,-583.0,180.0,-147.0,666.0,-282.0,78.0
19:30:58.524000,-14.0,-59.0,60.0,-570.0,196.0,-147.0,661.0,-288.0,78.0
19:30:58.528000,-18.0,-71.0,70.0,-567.0,202.0,-152.0,661.0,-288.0,78.0
19:30:58.532000,-18.0,-71.0,70.0,-586.0,213.0,-162.0,673.0,-300.0,81.0
19:30:58.538000,-25.0,-81.0,80.0,-620.0,232.0,-174.0,673.0,-300.0,81.0
19:30:58.542000,-42.0,-87.0,94.0,-653.0,243.0,-186.0,673.0,-300.0,81.0
19:30:58.547000,-67.0,-90.0,115.0,-671.0,227.0,-196.0,673.0,-295.0,81.0
19:30:58.552000,-92.0,-90.0,142.0,-676.0,197.0,-207.0,673.0,-295.0,81.0
19:30:58.556000,-108.0,-91.0,161.0,-677.0,172.0,-220.0,670.0,-294.0,73.0
19:30:58.561000,-116.0,-94.0,173.0,-685.0,165.0,-231.0,670.0,-294.0,73.0
19:30:58.565000,-120.0,-98.0,179.0,-702.0,176.0,-240.0,670.0,-294.0,73.0
19:30:58.571000,-122.0,-101.0,179.0,-722.0,193.0,-253.0,666.0,-300.0,79.0
