hh:mm:ss.ms,gyroX[mdps],gyroY[mdps],gyroZ[mdps],accX[mg],accY[mg],accZ[mg],magX[mG],magY[mG],magZ[mG]
19:30:13.552000,17.0,213.0,-80.0,-1278.0,-478.0,-136.0,616.0,-474.0,6.0
19:30:13.557000,30.0,217.0,-106.0,-1249.0,-521.0,-126.0,616.0,-474.0,6.0
19:30:13.561000,30.0,217.0,-106.0,-1246.0,-484.0,-125.0,616.0,-474.0,6.0
19:30:13.566000,131.0,205.0,-312.0,-1268.0,-391.0,-123.0,622.0,-466.0,18.0
19:30:13.571000,131.0,205.0,-312.0,-1235.0,-352.0,-124.0,622.0,-466.0,18.0
19:30:13.576000,154.0,193.0,-398.0,-1177.0,-350.0,-126.0,618.0,-471.0,19.0
19:30:13.580000,160.0,195.0,-452.0,-1137.0,-348.0,-137.0,618.0,-471.0,19.0
19:30:13.584000,195.0,182.0,-517.0,-1108.0,-324.0,-128.0,618.0,-471.0,19.0
19:30:13.590000,217.0,160.0,-504.0,-1084.0,-260.0,-118.0,630.0,-459.0,22.0
19:30:13.594000,247.0,132.0,-477.0,-1107.0,-128.0,-120.0,630.0,-459.0,22.0
19:30:13.599000,229.0,112.0,-524.0,-1152.0,-36.0,-117.0,627.0,-460.0,21.0
19:30:13.604000,181.0,114.0,-555.0,-1205.0,12.0,-126.0,627.0,-460.0,21.0
19:30:13.608000,175.0,109.0,-566.0,-1292.0,24.0,-105.0,627.0,-460.0,21.0
19:30:13.613000,131.0,119.0,-559.0,-1363.0,-18.0,-98.0,610.0,-454.0,34.0
19:30:13.618000,84.0,138.0,-546.0,-1397.0,-43.0,-120.0,610.0,-454.0,34.0
19:30:13.623000,74.0,168.0,-562.0,-1397.0,-43.0,-120.0,627.0,-444.0,25.0
19:30:13.627000,71.0,192.0,-601.0,-1436.0,-201.0,-111.0,627.0,-444.0,25.0
19:30:13.631000,65.0,211.0,-631.0,-1436.0,-201.0,-111.0,627.0,-444.0,25.0
19:30:13.637000,101.0,222.0,-627.0,-1415.0,-287.0,-129.0,625.0,-448.0,22.0
19:30:13.641000,126.0,237.0,-585.0,-1354.0,-276.0,-137.0,625.0,-448.0,22.0
19:30:13.646000,133.0,258.0,-548.0,-1296.0,-208.0,-132.0,627.0,-448.0,21.0
19:30:13.651000,179.0,250.0,-582.0,-1269.0,-38.0,-150.0,627.0,-448.0,21.0
19:30:13.655000,182.0,252.0,-621.0,-1251.0,-38.0,-150.0,627.0,-448.0,21.0
19:30:13.660000,156.0,273.0,-525.0,-1210.0,-144.0,-167.0,637.0,-439.0,37.0
19:30:13.665000,159.0,289.0,-402.0,-1163.0,-182.0,-181.0,637.0,-439.0,37.0
19:30:13.670000,214.0,263.0,-387.0,-1154.0,-83.0,-175.0,631.0,-433.0,34.0
19:30:13.674000,243.0,228.0,-476.0,-1136.0,29.0,-158.0,631.0,-433.0,34.0
19:30:13.678000,243.0,228.0,-476.0,-1039.0,49.0,-156.0,631.0,-433.0,34.0
19:30:13.684000,212.0,219.0,-480.0,-938.0,40.0,-159.0,630.0,-436.0,37.0
19:30:13.688000,175.0,205.0,-433.0,-967.0,-26.0,-157.0,630.0,-436.0,37.0
19:30:13.693000,203.0,154.0,-411.0,-1045.0,-107.0,-178.0,640.0,-432.0,45.0
19:30:13.698000,197.0,119.0,-386.0,-1065.0,-87.0,-183.0,640.0,-432.0,45.0
19:30:13.702000,150.0,118.0,-320.0,-1121.0,34.0,-167.0,640.0,-432.0,45.0
19:30:13.707000,92.0,119.0,-368.0,-1179.0,129.0,-171.0,619.0,-420.0,39.0
19:30:13.712000,46.0,114.0,-427.0,-1163.0,165.0,-178.0,619.0,-420.0,39.0
19:30:13.717000,5.0,107.0,-441.0,-1123.0,127.0,-166.0,634.0,-429.0,31.0
19:30:13.721000,-52.0,102.0,-431.0,-1119.0,74.0,-166.0,634.0,-429.0,31.0
19:30:13.725000,-86.0,99.0,-434.0,-1113.0,63.0,-173.0,634.0,-429.0,31.0
19:30:13.731000,-86.0,91.0,-392.0,-1135.0,30.0,-172.0,645.0,-412.0,42.0
19:30:13.735000,-85.0,89.0,-399.0,-1152.0,32.0,-177.0,645.0,-412.0,42.0
19:30:13.740000,-72.0,91.0,-487.0,-1152.0,32.0,-177.0,634.0,-426.0,33.0
19:30:13.745000,-41.0,96.0,-496.0,-1096.0,-10.0,-174.0,634.0,-426.0,33.0
19:30:13.749000,-39.0,103.0,-424.0,-1096.0,-10.0,-174.0,634.0,-426.0,33.0
19:30:13.754000,-30.0,104.0,-352.0,-1122.0,-70.0,-164.0,634.0,-417.0,36.0
19:30:13.759000,-35.0,119.0,-294.0,-1174.0,-89.0,-171.0,634.0,-417.0,36.0
19:30:13.764000,-37.0,125.0,-330.0,-1190.0,-38.0,-187.0,639.0,-412.0,36.0
19:30:13.768000,36.0,105.0,-388.0,-1153.0,-22.0,-185.0,639.0,-412.0,36.0
19:30:13.772000,-3.0,151.0,-376.0,-1094.0,-107.0,-188.0,639.0,-412.0,36.0
19:30:13.778000,-11.0,176.0,-321.0,-1056.0,-116.0,-195.0,637.0,-411.0,43.0
19:30:13.782000,40.0,162.0,-266.0,-1053.0,10.0,-192.0,637.0,-411.0,43.0
19:30:13.786000,40.0,162.0,-266.0,-1065.0,-13.0,-190.0,640.0,-412.0,43.0
19:30:13.792000,30.0,170.0,-229.0,-1063.0,-160.0,-202.0,640.0,-412.0,43.0
19:30:13.796000,40.0,172.0,-217.0,-1044.0,-159.0,-211.0,640.0,-412.0,43.0
19:30:13.801000,25.0,188.0,-187.0,-1025.0,-57.0,-208.0,631.0,-405.0,40.0
19:30:13.806000,51.0,180.0,-164.0,-1024.0,73.0,-202.0,631.0,-405.0,40.0
19:30:13.811000,73.0,158.0,-255.0,-988.0,80.0,-199.0,636.0,-408.0,37.0
19:30:13.815000,89.0,144.0,-359.0,-904.0,20.0,-196.0,636.0,-408.0,37.0
19:30:13.819000,114.0,132.0,-385.0,-847.0,-11.0,-192.0,636.0,-408.0,37.0
19:30:13.825000,128.0,107.0,-347.0,-873.0,3.0,-198.0,646.0,-399.0,48.0
19:30:13.829000,137.0,83.0,-291.0,-927.0,63.0,-195.0,646.0,-399.0,48.0
19:30:13.833000,114.0,75.0,-267.0,-959.0,102.0,-195.0,642.0,-405.0,43.0
19:30:13.839000,84.0,93.0,-267.0,-979.0,148.0,-206.0,642.0,-405.0,43.0
19:30:13.843000,88.0,98.0,-286.0,-983.0,143.0,-202.0,642.0,-405.0,43.0
19:30:13.848000,86.0,85.0,-277.0,-981.0,96.0,-203.0,637.0,-393.0,51.0
19:30:13.853000,67.0,85.0,-264.0,-981.0,96.0,-203.0,637.0,-393.0,51.0
19:30:13.858000,62.0,88.0,-261.0,-996.0,95.0,-211.0,642.0,-402.0,48.0
19:30:13.862000,56.0,82.0,-247.0,-996.0,100.0,-207.0,642.0,-402.0,48.0
19:30:13.866000,46.0,84.0,-238.0,-991.0,80.0,-207.0,642.0,-402.0,48.0
19:30:13.872000,35.0,93.0,-233.0,-992.0,93.0,-215.0,654.0,-393.0,46.0
19:30:13.876000,30.0,93.0,-193.0,-984.0,114.0,-217.0,654.0,-393.0,46.0
19:30:13.880000,29.0,94.0,-182.0,-1000.0,125.0,-222.0,636.0,-396.0,66.0
19:30:13.886000,32.0,91.0,-216.0,-1020.0,160.0,-228.0,636.0,-396.0,66.0
19:30:13.890000,32.0,91.0,-216.0,-1014.0,149.0,-227.0,636.0,-396.0,66.0
19:30:13.895000,24.0,96.0,-165.0,-998.0,96.0,-227.0,652.0,-385.0,54.0
19:30:13.900000,24.0,96.0,-165.0,-1005.0,64.0,-236.0,652.0,-385.0,54.0
19:30:13.905000,29.0,102.0,-149.0,-1041.0,52.0,-244.0,649.0,-387.0,49.0
19:30:13.909000,31.0,102.0,-166.0,-1077.0,56.0,-250.0,649.0,-387.0,49.0
19:30:13.913000,42.0,100.0,-184.0,-1084.0,27.0,-254.0,649.0,-387.0,49.0
19:30:13.919000,37.0,92.0,-193.0,-1066.0,2.0,-257.0,643.0,-390.0,58.0
19:30:13.923000,28.0,98.0,-215.0,-1032.0,42.0,-261.0,643.0,-390.0,58.0
19:30:13.927000,30.0,94.0,-245.0,-1004.0,59.0,-263.0,646.0,-393.0,52.0
19:30:13.933000,37.0,88.0,-244.0,-989.0,46.0,-262.0,646.0,-393.0,52.0
19:30:13.937000,53.0,72.0,-242.0,-976.0,41.0,-261.0,622.0,-379.0,48.0
19:30:13.942000,60.0,62.0,-247.0,-984.0,48.0,-264.0,622.0,-379.0,48.0
19:30:13.946000,84.0,51.0,-264.0,-1012.0,56.0,-261.0,622.0,-379.0,48.0
19:30:13.952000,87.0,44.0,-287.0,-1044.0,70.0,-262.0,648.0,-381.0,52.0
19:30:13.956000,86.0,40.0,-336.0,-1059.0,116.0,-263.0,648.0,-381.0,52.0
19:30:13.961000,92.0,32.0,-396.0,-1059.0,116.0,-263.0,637.0,-382.0,49.0
19:30:13.966000,96.0,24.0,-422.0,-1044.0,125.0,-264.0,637.0,-382.0,49.0
19:30:13.970000,91.0,24.0,-397.0,-1019.0,99.0,-269.0,637.0,-382.0,49.0
19:30:13.975000,86.0,12.0,-366.0,-1023.0,114.0,-267.0,645.0,-379.0,55.0
19:30:13.980000,72.0,22.0,-373.0,-1038.0,145.0,-269.0,645.0,-379.0,55.0
19:30:13.984000,82.0,11.0,-403.0,-1051.0,167.0,-267.0,643.0,-370.0,51.0
19:30:13.989000,80.0,8.0,-432.0,-1068.0,172.0,-260.0,643.0,-370.0,51.0
19:30:13.993000,80.0,8.0,-432.0,-1070.0,156.0,-258.0,643.0,-370.0,51.0
19:30:13.999000,50.0,6.0,-456.0,-1072.0,149.0,-252.0,651.0,-363.0,52.0
19:30:14.003000,31.0,7.0,-473.0,-1083.0,163.0,-253.0,651.0,-363.0,52.0
19:30:14.008000,31.0,7.0,-473.0,-1087.0,182.0,-257.0,658.0,-360.0,46.0
19:30:14.013000,23.0,10.0,-476.0,-1087.0,217.0,-265.0,658.0,-360.0,46.0
19:30:14.017000,0.0,23.0,-456.0,-1099.0,238.0,-268.0,658.0,-360.0,46.0
19:30:14.022000,-21.0,39.0,-434.0,-1139.0,249.0,-272.0,652.0,-360.0,64.0
19:30:14.027000,-24.0,50.0,-440.0,-1165.0,247.0,-271.0,652.0,-360.0,64.0
19:30:14.031000,-51.0,81.0,-446.0,-1163.0,208.0,-262.0,637.0,-349.0,64.0
19:30:14.036000,-72.0,112.0,-445.0,-1167.0,184.0,-265.0,637.0,-349.0,64.0
19:30:14.040000,-66.0,135.0,-452.0,-1171.0,131.0,-274.0,637.0,-349.0,64.0
19:30:14.046000,-61.0,161.0,-466.0,-1177.0,116.0,-278.0,652.0,-354.0,52.0
19:30:14.050000,-49.0,184.0,-495.0,-1153.0,138.0,-276.0,652.0,-354.0,52.0
19:30:14.055000,-16.0,193.0,-510.0,-1153.0,94.0,-278.0,649.0,-351.0,55.0
19:30:14.060000,18.0,200.0,-490.0,-1077.0,68.0,-277.0,649.0,-351.0,55.0
19:30:14.064000,38.0,207.0,-483.0,-1049.0,85.0,-273.0,649.0,-351.0,55.0
19:30:14.069000,60.0,209.0,-508.0,-1028.0,109.0,-278.0,640.0,-339.0,61.0
19:30:14.074000,105.0,200.0,-520.0,-1028.0,109.0,-278.0,640.0,-339.0,61.0
19:30:14.078000,147.0,185.0,-513.0,-1006.0,117.0,-284.0,648.0,-342.0,63.0
19:30:14.083000,177.0,173.0,-535.0,-994.0,128.0,-290.0,648.0,-342.0,63.0
19:30:14.087000,195.0,160.0,-567.0,-996.0,181.0,-293.0,648.0,-342.0,63.0
19:30:14.093000,200.0,155.0,-583.0,-993.0,231.0,-296.0,649.0,-325.0,64.0
19:30:14.097000,204.0,141.0,-590.0,-997.0,268.0,-297.0,649.0,-325.0,64.0
19:30:14.102000,198.0,140.0,-588.0,-1002.0,292.0,-299.0,648.0,-339.0,57.0
19:30:14.107000,202.0,130.0,-578.0,-1005.0,310.0,-305.0,648.0,-339.0,57.0
19:30:14.111000,202.0,130.0,-578.0,-1000.0,325.0,-305.0,648.0,-339.0,57.0
19:30:14.116000,197.0,114.0,-520.0,-981.0,328.0,-305.0,645.0,-330.0,75.0
19:30:14.121000,197.0,114.0,-520.0,-978.0,325.0,-304.0,645.0,-330.0,75.0
19:30:14.125000,190.0,106.0,-506.0,-989.0,323.0,-300.0,666.0,-330.0,63.0
19:30:14.130000,163.0,109.0,-516.0,-989.0,346.0,-308.0,666.0,-330.0,63.0
19:30:14.134000,150.0,116.0,-536.0,-977.0,368.0,-318.0,666.0,-330.0,63.0
19:30:14.140000,142.0,115.0,-537.0,-969.0,373.0,-322.0,646.0,-327.0,57.0
19:30:14.144000,136.0,117.0,-522.0,-961.0,359.0,-326.0,646.0,-327.0,57.0
19:30:14.149000,139.0,120.0,-494.0,-954.0,333.0,-328.0,654.0,-315.0,61.0
19:30:14.154000,144.0,116.0,-463.0,-958.0,330.0,-330.0,654.0,-315.0,61.0
19:30:14.161000,142.0,105.0,-468.0,-968.0,351.0,-336.0,654.0,-315.0,61.0
19:30:14.163000,142.0,105.0,-468.0,-968.0,351.0,-336.0,654.0,-315.0,61.0
19:30:14.167000,143.0,102.0,-480.0,-967.0,385.0,-338.0,654.0,-315.0,61.0
19:30:14.172000,129.0,100.0,-484.0,-952.0,409.0,-335.0,661.0,-312.0,60.0
19:30:14.177000,130.0,97.0,-473.0,-929.0,417.0,-342.0,661.0,-312.0,60.0
19:30:14.182000,140.0,86.0,-478.0,-929.0,417.0,-342.0,657.0,-307.0,63.0
19:30:14.187000,144.0,78.0,-474.0,-913.0,407.0,-343.0,657.0,-307.0,63.0
19:30:14.191000,130.0,77.0,-462.0,-898.0,390.0,-336.0,657.0,-307.0,63.0
19:30:14.196000,147.0,59.0,-437.0,-887.0,380.0,-337.0,660.0,-297.0,57.0
19:30:14.201000,161.0,50.0,-416.0,-888.0,383.0,-351.0,660.0,-297.0,57.0
19:30:14.205000,165.0,37.0,-403.0,-886.0,398.0,-352.0,661.0,-298.0,78.0
19:30:14.210000,176.0,25.0,-368.0,-880.0,424.0,-358.0,661.0,-298.0,78.0
19:30:14.214000,176.0,25.0,-368.0,-888.0,446.0,-360.0,661.0,-298.0,78.0
19:30:14.219000,175.0,8.0,-311.0,-897.0,466.0,-352.0,661.0,-303.0,61.0
19:30:14.224000,159.0,7.0,-335.0,-904.0,490.0,-353.0,661.0,-303.0,61.0
19:30:14.229000,159.0,7.0,-335.0,-915.0,509.0,-347.0,655.0,-288.0,57.0
19:30:14.234000,162.0,-7.0,-353.0,-906.0,504.0,-340.0,655.0,-288.0,57.0
19:30:14.238000,172.0,-25.0,-350.0,-888.0,487.0,-339.0,655.0,-288.0,57.0
19:30:14.243000,180.0,-43.0,-328.0,-884.0,475.0,-330.0,654.0,-294.0,63.0
19:30:14.248000,193.0,-69.0,-295.0,-908.0,476.0,-329.0,654.0,-294.0,63.0
19:30:14.252000,208.0,-80.0,-302.0,-960.0,504.0,-330.0,651.0,-283.0,64.0
19:30:14.257000,206.0,-85.0,-322.0,-1011.0,525.0,-322.0,651.0,-283.0,64.0
19:30:14.261000,198.0,-83.0,-318.0,-1038.0,531.0,-319.0,651.0,-283.0,64.0
19:30:14.266000,182.0,-73.0,-298.0,-1031.0,544.0,-315.0,657.0,-280.0,61.0
19:30:14.271000,165.0,-65.0,-257.0,-1006.0,575.0,-310.0,657.0,-280.0,61.0
19:30:14.276000,164.0,-66.0,-276.0,-1006.0,575.0,-310.0,652.0,-282.0,63.0
19:30:14.281000,158.0,-53.0,-338.0,-942.0,620.0,-311.0,652.0,-282.0,63.0
19:30:14.285000,149.0,-44.0,-345.0,-912.0,613.0,-303.0,652.0,-282.0,63.0
19:30:14.290000,172.0,-53.0,-305.0,-912.0,613.0,-303.0,649.0,-276.0,61.0
19:30:14.294000,169.0,-47.0,-280.0,-940.0,609.0,-278.0,649.0,-276.0,61.0
19:30:14.299000,161.0,-33.0,-276.0,-940.0,609.0,-278.0,663.0,-276.0,72.0
19:30:14.304000,158.0,-27.0,-275.0,-968.0,602.0,-266.0,663.0,-276.0,72.0
19:30:14.308000,165.0,-22.0,-296.0,-1013.0,597.0,-256.0,663.0,-276.0,72.0
19:30:14.313000,161.0,-11.0,-311.0,-1030.0,592.0,-250.0,652.0,-270.0,57.0
19:30:14.318000,172.0,-13.0,-298.0,-994.0,584.0,-244.0,652.0,-270.0,57.0
19:30:14.323000,184.0,-23.0,-279.0,-956.0,581.0,-233.0,645.0,-274.0,54.0
19:30:14.328000,207.0,-28.0,-265.0,-929.0,579.0,-238.0,645.0,-274.0,54.0
19:30:14.332000,207.0,-28.0,-265.0,-936.0,583.0,-243.0,645.0,-274.0,54.0
19:30:14.337000,209.0,-25.0,-267.0,-988.0,598.0,-231.0,658.0,-273.0,57.0
19:30:14.342000,209.0,-35.0,-288.0,-1009.0,614.0,-224.0,658.0,-273.0,57.0
19:30:14.346000,203.0,-42.0,-293.0,-986.0,609.0,-218.0,643.0,-258.0,61.0
19:30:14.351000,201.0,-58.0,-268.0,-952.0,594.0,-215.0,643.0,-258.0,61.0
19:30:14.355000,211.0,-77.0,-245.0,-915.0,586.0,-211.0,643.0,-258.0,61.0
19:30:14.360000,226.0,-102.0,-237.0,-880.0,581.0,-197.0,652.0,-264.0,49.0
19:30:14.365000,217.0,-116.0,-214.0,-835.0,568.0,-180.0,652.0,-264.0,49.0
19:30:14.370000,208.0,-131.0,-144.0,-773.0,539.0,-166.0,654.0,-265.0,57.0
19:30:14.375000,189.0,-137.0,-59.0,-711.0,513.0,-148.0,654.0,-265.0,57.0
19:30:14.379000,163.0,-132.0,-10.0,-664.0,508.0,-129.0,654.0,-265.0,57.0
19:30:14.384000,125.0,-120.0,-1.0,-622.0,490.0,-118.0,657.0,-250.0,42.0
19:30:14.389000,101.0,-119.0,18.0,-584.0,452.0,-120.0,657.0,-250.0,42.0
19:30:14.393000,79.0,-114.0,54.0,-584.0,452.0,-120.0,646.0,-261.0,70.0
19:30:14.398000,40.0,-102.0,74.0,-579.0,428.0,-126.0,646.0,-261.0,70.0
19:30:14.402000,13.0,-92.0,51.0,-611.0,437.0,-137.0,646.0,-261.0,70.0
19:30:14.407000,-9.0,-84.0,-4.0,-660.0,462.0,-152.0,655.0,-258.0,51.0
19:30:14.412000,-33.0,-75.0,-58.0,-696.0,472.0,-169.0,655.0,-258.0,51.0
19:30:14.417000,-57.0,-70.0,-107.0,-720.0,471.0,-184.0,657.0,-252.0,39.0
19:30:14.421000,-73.0,-67.0,-147.0,-729.0,475.0,-198.0,657.0,-252.0,39.0
19:30:14.426000,-86.0,-67.0,-177.0,-721.0,486.0,-210.0,657.0,-252.0,39.0
19:30:14.431000,-94.0,-71.0,-207.0,-709.0,514.0,-219.0,652.0,-252.0,49.0
19:30:14.436000,-102.0,-79.0,-226.0,-693.0,541.0,-224.0,652.0,-252.0,49.0
19:30:14.440000,-111.0,-86.0,-219.0,-676.0,553.0,-225.0,649.0,-255.0,45.0
19:30:14.445000,-121.0,-93.0,-185.0,-654.0,543.0,-222.0,649.0,-255.0,45.0
19:30:14.449000,-121.0,-93.0,-185.0,-631.0,515.0,-217.0,649.0,-255.0,45.0
19:30:14.454000,-121.0,-104.0,-139.0,-610.0,472.0,-208.0,654.0,-252.0,48.0
19:30:14.459000,-118.0,-115.0,-79.0,-579.0,412.0,-196.0,654.0,-252.0,48.0
19:30:14.464000,-110.0,-126.0,4.0,-540.0,349.0,-179.0,643.0,-255.0,42.0
19:30:14.468000,-101.0,-135.0,107.0,-502.0,294.0,-161.0,643.0,-255.0,42.0
19:30:14.473000,-91.0,-143.0,221.0,-472.0,249.0,-144.0,643.0,-255.0,42.0
19:30:14.478000,-77.0,-150.0,320.0,-451.0,213.0,-132.0,658.0,-259.0,45.0
19:30:14.483000,-65.0,-158.0,405.0,-444.0,192.0,-125.0,658.0,-259.0,45.0
19:30:14.487000,-46.0,-163.0,468.0,-458.0,193.0,-122.0,651.0,-250.0,45.0
19:30:14.492000,-35.0,-165.0,509.0,-494.0,215.0,-121.0,651.0,-250.0,45.0
19:30:14.496000,-33.0,-162.0,532.0,-545.0,252.0,-122.0,651.0,-250.0,45.0
19:30:14.501000,-46.0,-153.0,539.0,-592.0,288.0,-122.0,655.0,-250.0,31.0
19:30:14.506000,-72.0,-137.0,536.0,-622.0,313.0,-122.0,655.0,-250.0,31.0
19:30:14.511000,-109.0,-119.0,527.0,-622.0,313.0,-122.0,657.0,-255.0,46.0
19:30:14.515000,-150.0,-98.0,513.0,-630.0,323.0,-121.0,657.0,-255.0,46.0
19:30:14.520000,-186.0,-79.0,495.0,-579.0,285.0,-127.0,657.0,-255.0,46.0
19:30:14.525000,-217.0,-67.0,473.0,-579.0,285.0,-127.0,652.0,-262.0,42.0
19:30:14.530000,-236.0,-52.0,441.0,-542.0,258.0,-133.0,652.0,-262.0,42.0
19:30:14.534000,-248.0,-40.0,406.0,-508.0,236.0,-138.0,655.0,-264.0,34.0
19:30:14.539000,-255.0,-32.0,373.0,-478.0,213.0,-144.0,655.0,-264.0,34.0
19:30:14.543000,-255.0,-32.0,373.0,-457.0,183.0,-150.0,655.0,-264.0,34.0
19:30:14.548000,-239.0,-25.0,337.0,-442.0,144.0,-154.0,672.0,-258.0,36.0
19:30:14.553000,-209.0,-30.0,329.0,-430.0,95.0,-155.0,672.0,-258.0,36.0
19:30:14.558000,-209.0,-30.0,329.0,-423.0,43.0,-154.0,669.0,-277.0,43.0
19:30:14.562000,-168.0,-37.0,334.0,-428.0,3.0,-152.0,669.0,-277.0,43.0
19:30:14.567000,-119.0,-49.0,335.0,-441.0,-20.0,-149.0,676.0,-274.0,48.0
19:30:14.572000,-67.0,-63.0,332.0,-446.0,-40.0,-144.0,676.0,-274.0,48.0
19:30:14.576000,-11.0,-81.0,337.0,-437.0,-61.0,-138.0,676.0,-274.0,48.0
19:30:14.581000,39.0,-99.0,352.0,-431.0,-56.0,-132.0,663.0,-276.0,33.0
19:30:14.586000,88.0,-119.0,361.0,-434.0,-25.0,-125.0,663.0,-276.0,33.0
19:30:14.591000,127.0,-140.0,368.0,-431.0,6.0,-115.0,664.0,-279.0,37.0
19:30:14.595000,151.0,-156.0,389.0,-428.0,40.0,-105.0,664.0,-279.0,37.0
19:30:14.599000,158.0,-165.0,420.0,-441.0,89.0,-97.0,664.0,-279.0,37.0
19:30:14.605000,153.0,-172.0,441.0,-466.0,143.0,-90.0,672.0,-279.0,25.0
19:30:14.609000,136.0,-174.0,455.0,-482.0,177.0,-85.0,672.0,-279.0,25.0
19:30:14.614000,109.0,-169.0,473.0,-489.0,191.0,-81.0,666.0,-285.0,34.0
19:30:14.619000,74.0,-164.0,501.0,-489.0,191.0,-81.0,666.0,-285.0,34.0
19:30:14.623000,36.0,-158.0,525.0,-497.0,200.0,-77.0,666.0,-285.0,34.0
19:30:14.628000,-1.0,-155.0,542.0,-508.0,207.0,-74.0,673.0,-291.0,36.0
19:30:14.633000,-35.0,-151.0,557.0,-514.0,205.0,-72.0,673.0,-291.0,36.0
19:30:14.638000,-63.0,-148.0,574.0,-512.0,190.0,-69.0,666.0,-291.0,31.0
19:30:14.642000,-83.0,-147.0,590.0,-508.0,167.0,-66.0,666.0,-291.0,31.0
19:30:14.646000,-94.0,-149.0,605.0,-508.0,143.0,-63.0,666.0,-291.0,31.0
19:30:14.652000,-100.0,-151.0,620.0,-507.0,120.0,-58.0,663.0,-297.0,21.0
19:30:14.656000,-104.0,-156.0,639.0,-503.0,97.0,-52.0,663.0,-297.0,21.0
19:30:14.661000,-104.0,-156.0,639.0,-499.0,72.0,-45.0,675.0,-306.0,27.0
19:30:14.666000,-105.0,-162.0,660.0,-491.0,42.0,-37.0,675.0,-306.0,27.0
19:30:14.670000,-100.0,-171.0,683.0,-484.0,15.0,-29.0,675.0,-306.0,27.0
19:30:14.675000,-92.0,-179.0,700.0,-491.0,0.0,-23.0,678.0,-307.0,21.0
19:30:14.680000,-80.0,-191.0,710.0,-508.0,-1.0,-18.0,678.0,-307.0,21.0
19:30:14.685000,-69.0,-203.0,711.0,-529.0,9.0,-18.0,673.0,-295.0,27.0
19:30:14.689000,-59.0,-212.0,702.0,-549.0,28.0,-22.0,673.0,-295.0,27.0
19:30:14.693000,-55.0,-219.0,686.0,-569.0,52.0,-28.0,673.0,-295.0,27.0
19:30:14.699000,-57.0,-225.0,672.0,-585.0,75.0,-34.0,676.0,-307.0,28.0
19:30:14.703000,-65.0,-226.0,660.0,-593.0,92.0,-39.0,676.0,-307.0,28.0
19:30:14.708000,-78.0,-225.0,648.0,-589.0,100.0,-44.0,673.0,-324.0,19.0
19:30:14.713000,-93.0,-221.0,638.0,-572.0,100.0,-51.0,673.0,-324.0,19.0
19:30:14.717000,-107.0,-219.0,632.0,-549.0,99.0,-60.0,673.0,-324.0,19.0
19:30:14.722000,-116.0,-222.0,630.0,-532.0,105.0,-67.0,673.0,-330.0,24.0
19:30:14.727000,-121.0,-231.0,630.0,-532.0,116.0,-67.0,673.0,-330.0,24.0
19:30:14.732000,-132.0,-240.0,640.0,-526.0,116.0,-70.0,675.0,-331.0,18.0
19:30:14.736000,-147.0,-250.0,674.0,-530.0,120.0,-69.0,675.0,-331.0,18.0
19:30:14.740000,-165.0,-258.0,729.0,-539.0,109.0,-65.0,675.0,-331.0,18.0
19:30:14.746000,-186.0,-262.0,786.0,-555.0,91.0,-61.0,672.0,-330.0,16.0
19:30:14.750000,-209.0,-261.0,840.0,-578.0,76.0,-60.0,672.0,-330.0,16.0
19:30:14.755000,-231.0,-254.0,885.0,-604.0,61.0,-64.0,679.0,-343.0,10.0
19:30:14.760000,-254.0,-243.0,921.0,-633.0,45.0,-68.0,679.0,-343.0,10.0
19:30:14.764000,-254.0,-243.0,921.0,-659.0,26.0,-72.0,679.0,-343.0,10.0
19:30:14.769000,-289.0,-211.0,966.0,-675.0,-5.0,-78.0,667.0,-349.0,12.0
19:30:14.774000,-294.0,-196.0,974.0,-679.0,-45.0,-84.0,667.0,-349.0,12.0
19:30:14.779000,-294.0,-196.0,974.0,-675.0,-82.0,-89.0,663.0,-360.0,13.0
19:30:14.783000,-289.0,-181.0,969.0,-665.0,-108.0,-92.0,663.0,-360.0,13.0
19:30:14.787000,-277.0,-162.0,950.0,-657.0,-120.0,-97.0,663.0,-360.0,13.0
19:30:14.793000,-256.0,-146.0,917.0,-648.0,-122.0,-106.0,660.0,-360.0,7.0
19:30:14.797000,-233.0,-131.0,872.0,-636.0,-117.0,-113.0,660.0,-360.0,7.0
19:30:14.802000,-213.0,-119.0,827.0,-630.0,-112.0,-117.0,663.0,-369.0,12.0
19:30:14.807000,-193.0,-110.0,788.0,-632.0,-112.0,-117.0,663.0,-369.0,12.0
19:30:14.812000,-176.0,-106.0,754.0,-636.0,-123.0,-114.0,663.0,-373.0,12.0
19:30:14.816000,-158.0,-107.0,730.0,-639.0,-139.0,-113.0,663.0,-373.0,12.0
19:30:14.820000,-143.0,-113.0,714.0,-651.0,-137.0,-113.0,663.0,-373.0,12.0
19:30:14.826000,-133.0,-120.0,694.0,-676.0,-112.0,-114.0,663.0,-373.0,1.0
19:30:14.830000,-131.0,-123.0,672.0,-704.0,-77.0,-117.0,663.0,-373.0,1.0
19:30:14.835000,-139.0,-123.0,653.0,-704.0,-77.0,-117.0,657.0,-378.0,12.0
19:30:14.840000,-156.0,-119.0,641.0,-731.0,-48.0,-118.0,657.0,-378.0,12.0
19:30:14.844000,-176.0,-113.0,631.0,-772.0,-26.0,-124.0,657.0,-378.0,12.0
19:30:14.849000,-194.0,-105.0,618.0,-772.0,-26.0,-124.0,658.0,-393.0,0.0
19:30:14.854000,-207.0,-91.0,598.0,-790.0,-35.0,-128.0,658.0,-393.0,0.0
19:30:14.859000,-214.0,-75.0,576.0,-810.0,-49.0,-130.0,658.0,-399.0,6.0
19:30:14.863000,-210.0,-59.0,553.0,-834.0,-67.0,-132.0,658.0,-399.0,6.0
19:30:14.867000,-203.0,-44.0,525.0,-866.0,-81.0,-132.0,658.0,-399.0,6.0
19:30:14.873000,-193.0,-29.0,488.0,-913.0,-84.0,-132.0,666.0,-399.0,1.0
19:30:14.877000,-188.0,-12.0,450.0,-965.0,-83.0,-131.0,666.0,-399.0,1.0
19:30:14.882000,-179.0,3.0,416.0,-1014.0,-88.0,-136.0,655.0,-406.0,4.0
19:30:14.887000,-179.0,3.0,416.0,-1059.0,-93.0,-144.0,655.0,-406.0,4.0
19:30:14.894000,-168.0,32.0,340.0,-1138.0,-69.0,-163.0,651.0,-406.0,3.0
19:30:14.896000,-168.0,32.0,340.0,-1138.0,-69.0,-163.0,651.0,-406.0,3.0
19:30:14.900000,-168.0,44.0,303.0,-1154.0,-49.0,-177.0,651.0,-406.0,3.0
19:30:14.906000,-167.0,57.0,273.0,-1157.0,-18.0,-195.0,655.0,-402.0,10.0
19:30:14.910000,-168.0,73.0,245.0,-1153.0,29.0,-209.0,655.0,-402.0,10.0
19:30:14.915000,-177.0,92.0,214.0,-1141.0,81.0,-218.0,664.0,-403.0,9.0
19:30:14.920000,-191.0,107.0,190.0,-1116.0,119.0,-225.0,664.0,-403.0,9.0
19:30:14.924000,-204.0,119.0,172.0,-1088.0,148.0,-236.0,664.0,-403.0,9.0
19:30:14.929000,-211.0,125.0,150.0,-1067.0,185.0,-259.0,646.0,-406.0,4.0
19:30:14.934000,-205.0,127.0,119.0,-1065.0,259.0,-288.0,646.0,-406.0,4.0
19:30:14.938000,-192.0,128.0,68.0,-1065.0,259.0,-288.0,640.0,-414.0,12.0
19:30:14.943000,-180.0,134.0,7.0,-1111.0,488.0,-343.0,640.0,-414.0,12.0
19:30:14.947000,-169.0,142.0,-50.0,-1111.0,488.0,-343.0,640.0,-414.0,12.0
19:30:14.953000,-144.0,149.0,-103.0,-1141.0,567.0,-373.0,654.0,-409.0,16.0
19:30:14.957000,-110.0,150.0,-160.0,-1167.0,625.0,-409.0,654.0,-409.0,16.0
19:30:14.962000,-76.0,148.0,-210.0,-1181.0,692.0,-437.0,655.0,-405.0,12.0
19:30:14.967000,-44.0,150.0,-254.0,-1188.0,770.0,-454.0,655.0,-405.0,12.0
19:30:14.971000,-23.0,145.0,-291.0,-1199.0,849.0,-458.0,655.0,-405.0,12.0
19:30:14.976000,-18.0,139.0,-292.0,-1182.0,914.0,-450.0,657.0,-409.0,3.0
19:30:14.981000,-35.0,128.0,-235.0,-1114.0,937.0,-421.0,657.0,-409.0,3.0
19:30:14.985000,-70.0,119.0,-126.0,-1006.0,910.0,-378.0,655.0,-397.0,13.0
19:30:14.990000,-106.0,108.0,-6.0,-889.0,855.0,-339.0,655.0,-397.0,13.0
19:30:14.994000,-106.0,108.0,-6.0,-791.0,787.0,-316.0,655.0,-397.0,13.0
19:30:15.000000,-123.0,91.0,103.0,-720.0,716.0,-308.0,648.0,-400.0,19.0
19:30:15.004000,-125.0,60.0,186.0,-683.0,674.0,-313.0,648.0,-400.0,19.0
19:30:15.009000,-125.0,48.0,244.0,-720.0,674.0,-324.0,649.0,-402.0,12.0
19:30:15.014000,-110.0,37.0,266.0,-844.0,726.0,-332.0,649.0,-402.0,12.0
19:30:15.018000,-84.0,14.0,194.0,-1068.0,744.0,-302.0,649.0,-402.0,12.0
19:30:15.023000,-79.0,-37.0,-13.0,-1541.0,657.0,-277.0,652.0,-399.0,18.0
19:30:15.027000,-164.0,-8.0,15.0,-1276.0,516.0,-261.0,652.0,-399.0,18.0
19:30:15.032000,-240.0,0.0,510.0,-603.0,568.0,-276.0,651.0,-400.0,31.0
19:30:15.037000,-189.0,10.0,549.0,-647.0,730.0,-309.0,651.0,-400.0,31.0
19:30:15.041000,-158.0,25.0,305.0,-818.0,738.0,-299.0,651.0,-400.0,31.0
19:30:15.047000,-97.0,4.0,102.0,-932.0,659.0,-307.0,648.0,-405.0,10.0
19:30:15.051000,-45.0,0.0,-2.0,-1063.0,600.0,-335.0,648.0,-405.0,10.0
19:30:15.056000,-14.0,9.0,-86.0,-1063.0,600.0,-335.0,645.0,-409.0,18.0
19:30:15.061000,2.0,12.0,-170.0,-1166.0,605.0,-356.0,645.0,-409.0,18.0
19:30:15.065000,16.0,5.0,-211.0,-1213.0,623.0,-363.0,645.0,-409.0,18.0
19:30:15.070000,26.0,-7.0,-212.0,-1220.0,637.0,-377.0,652.0,-402.0,19.0
19:30:15.075000,-1.0,-17.0,-97.0,-1109.0,538.0,-358.0,652.0,-402.0,19.0
19:30:15.079000,-37.0,-21.0,31.0,-1109.0,538.0,-358.0,634.0,-396.0,15.0
19:30:15.084000,-74.0,-27.0,91.0,-1138.0,577.0,-373.0,634.0,-396.0,15.0
19:30:15.088000,-119.0,-26.0,137.0,-1186.0,615.0,-375.0,634.0,-396.0,15.0
19:30:15.094000,-160.0,-30.0,203.0,-1194.0,606.0,-367.0,654.0,-405.0,7.0
19:30:15.098000,-186.0,-32.0,256.0,-1159.0,551.0,-365.0,654.0,-405.0,7.0
19:30:15.103000,-210.0,-23.0,268.0,-1159.0,493.0,-368.0,649.0,-402.0,22.0
19:30:15.108000,-210.0,-23.0,268.0,-1171.0,441.0,-360.0,649.0,-402.0,22.0
19:30:15.112000,-224.0,-12.0,271.0,-1131.0,354.0,-352.0,649.0,-402.0,22.0
19:30:15.117000,-240.0,19.0,294.0,-1125.0,224.0,-332.0,648.0,-409.0,7.0
19:30:15.122000,-267.0,49.0,287.0,-1195.0,158.0,-325.0,648.0,-409.0,7.0
19:30:15.126000,-240.0,67.0,236.0,-1241.0,100.0,-320.0,636.0,-405.0,24.0
19:30:15.131000,-228.0,87.0,231.0,-1246.0,-10.0,-294.0,636.0,-405.0,24.0
19:30:15.135000,-224.0,111.0,229.0,-1248.0,-96.0,-284.0,636.0,-405.0,24.0
19:30:15.141000,-202.0,135.0,186.0,-1233.0,-133.0,-277.0,648.0,-405.0,19.0
19:30:15.145000,-167.0,149.0,137.0,-1168.0,-139.0,-261.0,648.0,-405.0,19.0
19:30:15.150000,-133.0,153.0,179.0,-1083.0,-175.0,-239.0,640.0,-406.0,12.0
19:30:15.155000,-107.0,152.0,291.0,-1063.0,-218.0,-217.0,640.0,-406.0,12.0
19:30:15.159000,-92.0,156.0,341.0,-1090.0,-233.0,-199.0,640.0,-406.0,12.0
19:30:15.164000,-77.0,162.0,302.0,-1091.0,-259.0,-186.0,651.0,-405.0,18.0
19:30:15.169000,-67.0,175.0,263.0,-1091.0,-259.0,-186.0,651.0,-405.0,18.0
19:30:15.173000,-34.0,162.0,252.0,-1077.0,-300.0,-170.0,655.0,-414.0,16.0
19:30:15.178000,-9.0,152.0,203.0,-1078.0,-317.0,-155.0,655.0,-414.0,16.0
19:30:15.182000,12.0,151.0,99.0,-1114.0,-309.0,-154.0,655.0,-414.0,16.0
19:30:15.188000,34.0,133.0,-1.0,-1134.0,-285.0,-142.0,649.0,-400.0,19.0
19:30:15.192000,41.0,130.0,-53.0,-1107.0,-254.0,-133.0,649.0,-400.0,19.0
19:30:15.197000,54.0,117.0,-67.0,-1091.0,-191.0,-149.0,637.0,-411.0,24.0
19:30:15.202000,55.0,116.0,-79.0,-1110.0,-104.0,-162.0,637.0,-411.0,24.0
19:30:15.206000,55.0,116.0,-79.0,-1148.0,-29.0,-172.0,637.0,-411.0,24.0
19:30:15.211000,56.0,127.0,-169.0,-1187.0,8.0,-182.0,648.0,-408.0,21.0
19:30:15.216000,56.0,127.0,-169.0,-1221.0,11.0,-193.0,648.0,-408.0,21.0
19:30:15.220000,63.0,142.0,-217.0,-1258.0,-5.0,-202.0,648.0,-403.0,21.0
19:30:15.225000,62.0,159.0,-247.0,-1294.0,-37.0,-213.0,648.0,-403.0,21.0
19:30:15.229000,70.0,172.0,-253.0,-1301.0,-63.0,-215.0,648.0,-403.0,21.0
19:30:15.235000,70.0,179.0,-196.0,-1281.0,-67.0,-206.0,639.0,-405.0,19.0
19:30:15.239000,65.0,198.0,-132.0,-1279.0,-53.0,-204.0,639.0,-405.0,19.0
19:30:15.244000,51.0,226.0,-153.0,-1281.0,-68.0,-212.0,655.0,-402.0,19.0
19:30:15.249000,62.0,241.0,-201.0,-1240.0,-119.0,-220.0,655.0,-402.0,19.0
19:30:15.256000,95.0,236.0,-107.0,-1191.0,-103.0,-231.0,643.0,-402.0,18.0
19:30:15.258000,95.0,236.0,-107.0,-1191.0,-103.0,-231.0,643.0,-402.0,18.0
19:30:15.262000,124.0,224.0,-44.0,-1205.0,-48.0,-240.0,643.0,-402.0,18.0
19:30:15.267000,120.0,229.0,-10.0,-1235.0,-30.0,-253.0,652.0,-388.0,16.0
19:30:15.272000,105.0,240.0,-47.0,-1253.0,-36.0,-287.0,652.0,-388.0,16.0
19:30:15.277000,150.0,235.0,-88.0,-1253.0,-36.0,-287.0,645.0,-405.0,27.0
19:30:15.282000,140.0,241.0,-70.0,-1258.0,-56.0,-290.0,645.0,-405.0,27.0
19:30:15.286000,116.0,238.0,-44.0,-1228.0,-54.0,-259.0,645.0,-405.0,27.0
19:30:15.291000,125.0,212.0,-53.0,-1176.0,-29.0,-249.0,645.0,-396.0,27.0
19:30:15.296000,93.0,198.0,-86.0,-1142.0,-47.0,-240.0,645.0,-396.0,27.0
19:30:15.300000,56.0,204.0,-165.0,-1141.0,-76.0,-247.0,643.0,-396.0,42.0
19:30:15.305000,79.0,170.0,-197.0,-1153.0,-86.0,-270.0,643.0,-396.0,42.0
19:30:15.309000,79.0,170.0,-197.0,-1119.0,-59.0,-272.0,643.0,-396.0,42.0
19:30:15.314000,65.0,142.0,-75.0,-1077.0,-36.0,-274.0,652.0,-396.0,36.0
19:30:15.319000,44.0,128.0,-43.0,-1056.0,-28.0,-278.0,652.0,-396.0,36.0
19:30:15.324000,44.0,128.0,-43.0,-1057.0,21.0,-274.0,648.0,-391.0,39.0
19:30:15.329000,49.0,113.0,-92.0,-1047.0,58.0,-267.0,648.0,-391.0,39.0
19:30:15.333000,30.0,105.0,-194.0,-1012.0,9.0,-266.0,648.0,-391.0,39.0
19:30:15.338000,16.0,90.0,-247.0,-967.0,-79.0,-272.0,649.0,-391.0,39.0
19:30:15.343000,7.0,82.0,-186.0,-935.0,-124.0,-270.0,649.0,-391.0,39.0
19:30:15.347000,14.0,58.0,-99.0,-961.0,-85.0,-275.0,658.0,-390.0,24.0
19:30:15.352000,25.0,56.0,-79.0,-1073.0,-53.0,-285.0,658.0,-390.0,24.0
19:30:15.356000,47.0,71.0,-136.0,-1098.0,-111.0,-274.0,658.0,-390.0,24.0
19:30:15.361000,63.0,76.0,-96.0,-1017.0,-105.0,-240.0,633.0,-388.0,37.0
19:30:15.366000,81.0,32.0,-26.0,-1000.0,-7.0,-206.0,633.0,-388.0,37.0
19:30:15.371000,53.0,20.0,-159.0,-1000.0,51.0,-200.0,652.0,-391.0,31.0
19:30:15.376000,45.0,21.0,-268.0,-938.0,-106.0,-214.0,652.0,-391.0,31.0
19:30:15.380000,51.0,17.0,-186.0,-911.0,-190.0,-226.0,652.0,-391.0,31.0
19:30:15.385000,81.0,2.0,-54.0,-911.0,-69.0,-229.0,655.0,-382.0,30.0
19:30:15.390000,91.0,5.0,-56.0,-1010.0,-69.0,-229.0,655.0,-382.0,30.0
19:30:15.394000,65.0,19.0,-115.0,-1103.0,-78.0,-216.0,655.0,-387.0,33.0
19:30:15.399000,15.0,53.0,-96.0,-1103.0,-78.0,-216.0,655.0,-387.0,33.0
19:30:15.403000,23.0,62.0,-94.0,-1120.0,-50.0,-220.0,655.0,-387.0,33.0
19:30:15.408000,36.0,71.0,-138.0,-1120.0,-11.0,-216.0,654.0,-388.0,42.0
19:30:15.413000,22.0,82.0,-159.0,-1045.0,0.0,-206.0,654.0,-388.0,42.0
19:30:15.418000,11.0,89.0,-127.0,-996.0,-5.0,-209.0,642.0,-384.0,25.0
19:30:15.423000,28.0,87.0,-86.0,-1012.0,-64.0,-222.0,642.0,-384.0,25.0
19:30:15.427000,28.0,87.0,-86.0,-1045.0,-96.0,-234.0,642.0,-384.0,25.0
19:30:15.432000,83.0,81.0,-37.0,-1108.0,9.0,-235.0,651.0,-378.0,37.0
19:30:15.437000,83.0,81.0,-37.0,-1116.0,18.0,-220.0,651.0,-378.0,37.0
19:30:15.441000,62.0,102.0,-17.0,-1050.0,-85.0,-214.0,649.0,-379.0,48.0
19:30:15.446000,74.0,110.0,0.0,-1009.0,-71.0,-230.0,649.0,-379.0,48.0
19:30:15.450000,139.0,100.0,-29.0,-992.0,-33.0,-225.0,649.0,-379.0,48.0
19:30:15.455000,217.0,63.0,-105.0,-985.0,-38.0,-207.0,642.0,-387.0,37.0
19:30:15.460000,224.0,51.0,-150.0,-950.0,-90.0,-207.0,642.0,-387.0,37.0
19:30:15.465000,223.0,42.0,-144.0,-966.0,-94.0,-226.0,651.0,-384.0,30.0
19:30:15.470000,212.0,36.0,-124.0,-1023.0,-6.0,-232.0,651.0,-384.0,30.0
19:30:15.474000,173.0,53.0,-140.0,-1020.0,43.0,-230.0,651.0,-384.0,30.0
19:30:15.479000,165.0,60.0,-161.0,-990.0,21.0,-235.0,646.0,-390.0,33.0
19:30:15.484000,179.0,48.0,-168.0,-956.0,-25.0,-229.0,646.0,-390.0,33.0
19:30:15.488000,200.0,34.0,-170.0,-948.0,-83.0,-225.0,649.0,-379.0,37.0
19:30:15.493000,203.0,24.0,-192.0,-967.0,-80.0,-227.0,649.0,-379.0,37.0
19:30:15.497000,196.0,26.0,-201.0,-967.0,-80.0,-227.0,649.0,-379.0,37.0
19:30:15.502000,200.0,24.0,-226.0,-995.0,-4.0,-231.0,655.0,-375.0,34.0
19:30:15.507000,198.0,35.0,-282.0,-1015.0,41.0,-235.0,655.0,-375.0,34.0
19:30:15.512000,207.0,32.0,-312.0,-1011.0,-5.0,-238.0,639.0,-373.0,40.0
19:30:15.517000,209.0,25.0,-301.0,-998.0,-66.0,-241.0,639.0,-373.0,40.0
19:30:15.521000,191.0,23.0,-303.0,-1015.0,-48.0,-242.0,639.0,-373.0,40.0
19:30:15.526000,172.0,41.0,-341.0,-1049.0,32.0,-254.0,655.0,-373.0,33.0
19:30:15.531000,175.0,49.0,-368.0,-1050.0,96.0,-273.0,655.0,-373.0,33.0
19:30:15.535000,175.0,49.0,-368.0,-1032.0,116.0,-278.0,652.0,-375.0,42.0
19:30:15.540000,161.0,70.0,-320.0,-1036.0,85.0,-274.0,652.0,-375.0,42.0
19:30:15.544000,161.0,70.0,-320.0,-1075.0,70.0,-273.0,652.0,-375.0,42.0
19:30:15.549000,147.0,77.0,-305.0,-1112.0,91.0,-277.0,643.0,-372.0,28.0
19:30:15.554000,114.0,92.0,-337.0,-1115.0,113.0,-281.0,643.0,-372.0,28.0
19:30:15.559000,97.0,113.0,-374.0,-1089.0,123.0,-285.0,648.0,-375.0,30.0
19:30:15.564000,99.0,118.0,-373.0,-1068.0,95.0,-279.0,648.0,-375.0,30.0
19:30:15.568000,79.0,136.0,-364.0,-1079.0,95.0,-278.0,648.0,-375.0,30.0
19:30:15.573000,83.0,144.0,-394.0,-1096.0,112.0,-287.0,654.0,-364.0,43.0
19:30:15.578000,85.0,154.0,-446.0,-1097.0,102.0,-297.0,654.0,-364.0,43.0
19:30:15.582000,74.0,175.0,-471.0,-1091.0,103.0,-304.0,643.0,-361.0,34.0
19:30:15.587000,67.0,192.0,-480.0,-1086.0,115.0,-303.0,643.0,-361.0,34.0
19:30:15.591000,54.0,209.0,-477.0,-1073.0,126.0,-312.0,643.0,-361.0,34.0
19:30:15.596000,66.0,217.0,-475.0,-1069.0,110.0,-323.0,652.0,-364.0,37.0
19:30:15.601000,65.0,225.0,-456.0,-1087.0,64.0,-325.0,652.0,-364.0,37.0
19:30:15.606000,64.0,233.0,-443.0,-1087.0,64.0,-325.0,648.0,-364.0,36.0
19:30:15.611000,86.0,235.0,-447.0,-1102.0,61.0,-334.0,648.0,-364.0,36.0
19:30:15.615000,110.0,231.0,-439.0,-1077.0,84.0,-342.0,648.0,-364.0,36.0
19:30:15.620000,139.0,216.0,-429.0,-1038.0,113.0,-344.0,655.0,-354.0,40.0
19:30:15.625000,135.0,212.0,-446.0,-1017.0,174.0,-335.0,655.0,-354.0,40.0
19:30:15.629000,128.0,217.0,-459.0,-1017.0,174.0,-335.0,651.0,-346.0,42.0
19:30:15.634000,158.0,205.0,-462.0,-1002.0,188.0,-343.0,651.0,-346.0,42.0
19:30:15.638000,158.0,205.0,-462.0,-975.0,145.0,-347.0,651.0,-346.0,42.0
19:30:15.643000,210.0,161.0,-455.0,-986.0,140.0,-347.0,661.0,-345.0,52.0
19:30:15.648000,208.0,145.0,-455.0,-1014.0,161.0,-349.0,661.0,-345.0,52.0
19:30:15.653000,208.0,145.0,-455.0,-1019.0,169.0,-345.0,649.0,-336.0,51.0
19:30:15.658000,191.0,137.0,-446.0,-1018.0,195.0,-347.0,649.0,-336.0,51.0
19:30:15.662000,185.0,126.0,-447.0,-1029.0,223.0,-351.0,649.0,-336.0,51.0
19:30:15.667000,156.0,131.0,-434.0,-1043.0,276.0,-356.0,655.0,-343.0,46.0
19:30:15.672000,143.0,138.0,-433.0,-1055.0,315.0,-354.0,655.0,-343.0,46.0
19:30:15.676000,126.0,142.0,-462.0,-1050.0,267.0,-354.0,652.0,-334.0,64.0
19:30:15.681000,110.0,149.0,-482.0,-1041.0,216.0,-362.0,652.0,-334.0,64.0
19:30:15.685000,106.0,153.0,-486.0,-1042.0,214.0,-368.0,652.0,-334.0,64.0
19:30:15.690000,126.0,143.0,-487.0,-1044.0,230.0,-374.0,652.0,-340.0,48.0
19:30:15.695000,166.0,135.0,-483.0,-1032.0,216.0,-371.0,652.0,-340.0,48.0
19:30:15.700000,172.0,135.0,-469.0,-1014.0,199.0,-368.0,648.0,-325.0,40.0
19:30:15.705000,177.0,136.0,-454.0,-994.0,199.0,-374.0,648.0,-325.0,40.0
19:30:15.709000,177.0,144.0,-445.0,-990.0,196.0,-380.0,648.0,-325.0,40.0
19:30:15.714000,214.0,126.0,-450.0,-1006.0,204.0,-385.0,661.0,-328.0,51.0
19:30:15.719000,253.0,110.0,-473.0,-1006.0,204.0,-385.0,661.0,-328.0,51.0
19:30:15.723000,241.0,112.0,-501.0,-1002.0,200.0,-383.0,657.0,-309.0,49.0
19:30:15.728000,276.0,95.0,-508.0,-989.0,219.0,-393.0,657.0,-309.0,49.0
19:30:15.732000,282.0,98.0,-515.0,-1000.0,271.0,-405.0,657.0,-309.0,49.0
19:30:15.737000,289.0,96.0,-510.0,-1014.0,315.0,-404.0,648.0,-318.0,49.0
19:30:15.742000,289.0,100.0,-498.0,-1019.0,352.0,-411.0,648.0,-318.0,49.0
19:30:15.747000,287.0,99.0,-488.0,-1028.0,378.0,-417.0,655.0,-313.0,52.0
19:30:15.752000,270.0,97.0,-490.0,-1032.0,396.0,-414.0,655.0,-313.0,52.0
19:30:15.756000,270.0,97.0,-490.0,-1025.0,416.0,-417.0,655.0,-313.0,52.0
19:30:15.761000,255.0,86.0,-476.0,-1011.0,422.0,-419.0,660.0,-318.0,57.0
19:30:15.766000,255.0,86.0,-476.0,-1004.0,411.0,-416.0,660.0,-318.0,57.0
19:30:15.770000,260.0,68.0,-453.0,-1002.0,411.0,-425.0,648.0,-313.0,73.0
19:30:15.775000,275.0,50.0,-436.0,-999.0,427.0,-433.0,648.0,-313.0,73.0
19:30:15.779000,287.0,35.0,-431.0,-990.0,457.0,-434.0,648.0,-313.0,73.0
19:30:15.784000,302.0,21.0,-424.0,-976.0,479.0,-434.0,651.0,-295.0,64.0
19:30:15.789000,306.0,14.0,-427.0,-974.0,486.0,-428.0,651.0,-295.0,64.0
19:30:15.794000,301.0,11.0,-424.0,-990.0,503.0,-425.0,651.0,-306.0,63.0
19:30:15.799000,294.0,22.0,-417.0,-1022.0,529.0,-420.0,651.0,-306.0,63.0
19:30:15.803000,301.0,21.0,-415.0,-1066.0,526.0,-416.0,651.0,-306.0,63.0
19:30:15.808000,293.0,31.0,-410.0,-1123.0,490.0,-412.0,654.0,-294.0,61.0
19:30:15.813000,284.0,34.0,-395.0,-1190.0,477.0,-410.0,654.0,-294.0,61.0
19:30:15.817000,287.0,36.0,-421.0,-1190.0,477.0,-410.0,654.0,-295.0,46.0
19:30:15.822000,289.0,39.0,-469.0,-1283.0,485.0,-401.0,654.0,-295.0,46.0
19:30:15.826000,289.0,49.0,-478.0,-1283.0,485.0,-401.0,654.0,-295.0,46.0
19:30:15.831000,276.0,66.0,-453.0,-1283.0,463.0,-386.0,657.0,-291.0,45.0
19:30:15.836000,267.0,77.0,-400.0,-1256.0,454.0,-375.0,657.0,-291.0,45.0
19:30:15.841000,258.0,85.0,-336.0,-1220.0,459.0,-364.0,657.0,-292.0,42.0
19:30:15.846000,245.0,103.0,-298.0,-1201.0,475.0,-361.0,657.0,-292.0,42.0
19:30:15.853000,236.0,121.0,-332.0,-1199.0,476.0,-361.0,652.0,-291.0,52.0
19:30:15.855000,263.0,124.0,-428.0,-1199.0,476.0,-361.0,652.0,-291.0,52.0
19:30:15.859000,263.0,124.0,-428.0,-1200.0,468.0,-354.0,652.0,-291.0,52.0
19:30:15.864000,287.0,107.0,-550.0,-1157.0,487.0,-341.0,660.0,-279.0,52.0
19:30:15.869000,284.0,100.0,-501.0,-1113.0,518.0,-332.0,660.0,-279.0,52.0
19:30:15.874000,284.0,100.0,-501.0,-1110.0,496.0,-325.0,649.0,-289.0,54.0
19:30:15.878000,270.0,100.0,-432.0,-1118.0,473.0,-318.0,649.0,-289.0,54.0
19:30:15.882000,275.0,77.0,-396.0,-1103.0,489.0,-306.0,649.0,-289.0,54.0
19:30:15.888000,280.0,48.0,-419.0,-1071.0,503.0,-297.0,655.0,-276.0,39.0
19:30:15.893000,287.0,23.0,-444.0,-1053.0,494.0,-297.0,655.0,-276.0,39.0
19:30:15.897000,282.0,5.0,-422.0,-1047.0,459.0,-287.0,663.0,-274.0,51.0
19:30:15.902000,257.0,-16.0,-361.0,-1016.0,466.0,-292.0,663.0,-274.0,51.0
19:30:15.906000,256.0,-18.0,-351.0,-992.0,505.0,-306.0,663.0,-274.0,51.0
19:30:15.911000,234.0,-22.0,-419.0,-985.0,486.0,-286.0,660.0,-279.0,48.0
19:30:15.916000,211.0,-47.0,-431.0,-959.0,449.0,-276.0,660.0,-279.0,48.0
19:30:15.921000,175.0,-55.0,-369.0,-959.0,449.0,-276.0,648.0,-276.0,49.0
19:30:15.925000,131.0,-66.0,-301.0,-963.0,419.0,-270.0,648.0,-276.0,49.0
19:30:15.929000,84.0,-77.0,-270.0,-966.0,418.0,-281.0,648.0,-276.0,49.0
19:30:15.935000,57.0,-76.0,-297.0,-966.0,418.0,-281.0,651.0,-274.0,51.0
19:30:15.940000,28.0,-92.0,-290.0,-937.0,353.0,-278.0,651.0,-274.0,51.0
19:30:15.944000,5.0,-106.0,-263.0,-937.0,353.0,-278.0,640.0,-261.0,46.0
19:30:15.949000,-31.0,-107.0,-252.0,-874.0,348.0,-290.0,640.0,-261.0,46.0
19:30:15.953000,-58.0,-116.0,-239.0,-828.0,362.0,-283.0,640.0,-261.0,46.0
19:30:15.958000,-84.0,-113.0,-198.0,-783.0,353.0,-278.0,648.0,-267.0,48.0
19:30:15.963000,-101.0,-108.0,-149.0,-728.0,314.0,-271.0,648.0,-267.0,48.0
19:30:15.968000,-112.0,-101.0,-114.0,-677.0,260.0,-264.0,649.0,-264.0,48.0
19:30:15.972000,-119.0,-95.0,-72.0,-638.0,210.0,-258.0,649.0,-264.0,48.0
19:30:15.976000,-119.0,-95.0,-72.0,-623.0,177.0,-251.0,649.0,-264.0,48.0
19:30:15.982000,-121.0,-86.0,-42.0,-630.0,151.0,-244.0,646.0,-256.0,45.0
19:30:15.986000,-107.0,-92.0,-35.0,-637.0,115.0,-233.0,646.0,-256.0,45.0
19:30:15.991000,-84.0,-100.0,-44.0,-650.0,83.0,-221.0,654.0,-258.0,42.0
19:30:15.996000,-49.0,-119.0,-73.0,-659.0,65.0,-210.0,654.0,-258.0,42.0
19:30:16.000000,-11.0,-140.0,-104.0,-642.0,50.0,-197.0,654.0,-258.0,42.0
19:30:16.005000,27.0,-162.0,-123.0,-617.0,52.0,-185.0,655.0,-259.0,45.0
19:30:16.010000,61.0,-183.0,-135.0,-605.0,79.0,-177.0,655.0,-259.0,45.0
19:30:16.015000,90.0,-202.0,-158.0,-598.0,126.0,-169.0,648.0,-261.0,40.0
19:30:16.019000,111.0,-221.0,-181.0,-577.0,170.0,-162.0,648.0,-261.0,40.0
19:30:16.023000,119.0,-231.0,-191.0,-548.0,202.0,-154.0,648.0,-261.0,40.0
19:30:16.029000,122.0,-239.0,-198.0,-520.0,223.0,-147.0,657.0,-255.0,31.0
19:30:16.033000,127.0,-245.0,-196.0,-497.0,238.0,-143.0,657.0,-255.0,31.0
19:30:16.038000,129.0,-248.0,-186.0,-497.0,238.0,-143.0,660.0,-256.0,49.0
19:30:16.043000,127.0,-252.0,-165.0,-479.0,255.0,-134.0,660.0,-256.0,49.0
19:30:16.047000,120.0,-251.0,-131.0,-461.0,255.0,-134.0,660.0,-256.0,49.0
19:30:16.052000,110.0,-246.0,-88.0,-443.0,255.0,-130.0,646.0,-252.0,39.0
19:30:16.057000,98.0,-243.0,-37.0,-427.0,256.0,-128.0,646.0,-252.0,39.0
19:30:16.062000,86.0,-241.0,21.0,-413.0,260.0,-130.0,646.0,-259.0,42.0
19:30:16.066000,64.0,-232.0,79.0,-408.0,270.0,-132.0,646.0,-259.0,42.0
19:30:16.070000,37.0,-229.0,128.0,-412.0,291.0,-133.0,646.0,-259.0,42.0
19:30:16.076000,3.0,-224.0,165.0,-416.0,316.0,-132.0,658.0,-255.0,36.0
19:30:16.080000,-28.0,-220.0,198.0,-412.0,331.0,-132.0,658.0,-255.0,36.0
19:30:16.085000,-52.0,-226.0,233.0,-395.0,326.0,-141.0,646.0,-243.0,37.0
19:30:16.090000,-70.0,-233.0,266.0,-371.0,314.0,-149.0,646.0,-243.0,37.0
19:30:16.094000,-70.0,-233.0,266.0,-365.0,315.0,-155.0,646.0,-243.0,37.0
19:30:16.099000,-87.0,-235.0,295.0,-376.0,329.0,-157.0,651.0,-262.0,31.0
19:30:16.104000,-107.0,-235.0,318.0,-384.0,331.0,-159.0,651.0,-262.0,31.0
19:30:16.109000,-121.0,-235.0,343.0,-382.0,308.0,-161.0,654.0,-255.0,25.0
19:30:16.113000,-133.0,-234.0,367.0,-376.0,271.0,-159.0,654.0,-255.0,25.0
19:30:16.117000,-139.0,-234.0,382.0,-366.0,232.0,-156.0,654.0,-255.0,25.0
19:30:16.123000,-135.0,-234.0,390.0,-357.0,197.0,-153.0,639.0,-258.0,27.0
19:30:16.127000,-122.0,-233.0,389.0,-352.0,168.0,-150.0,639.0,-258.0,27.0
19:30:16.132000,-102.0,-233.0,380.0,-352.0,145.0,-148.0,642.0,-262.0,39.0
19:30:16.137000,-76.0,-237.0,366.0,-364.0,132.0,-148.0,642.0,-262.0,39.0
19:30:16.141000,-46.0,-240.0,348.0,-391.0,135.0,-147.0,642.0,-262.0,39.0
19:30:16.146000,-19.0,-244.0,329.0,-425.0,144.0,-145.0,655.0,-262.0,15.0
19:30:16.151000,2.0,-248.0,322.0,-454.0,143.0,-142.0,655.0,-262.0,15.0
19:30:16.156000,21.0,-253.0,329.0,-454.0,143.0,-142.0,649.0,-270.0,21.0
19:30:16.160000,35.0,-259.0,340.0,-479.0,148.0,-140.0,649.0,-270.0,21.0
19:30:16.164000,41.0,-260.0,350.0,-495.0,164.0,-138.0,649.0,-270.0,21.0
19:30:16.170000,42.0,-257.0,371.0,-499.0,184.0,-134.0,648.0,-273.0,15.0
19:30:16.174000,38.0,-254.0,403.0,-498.0,194.0,-129.0,648.0,-273.0,15.0
19:30:16.179000,30.0,-249.0,432.0,-501.0,199.0,-122.0,649.0,-265.0,16.0
19:30:16.184000,18.0,-240.0,459.0,-511.0,202.0,-115.0,649.0,-265.0,16.0
19:30:16.188000,18.0,-240.0,459.0,-521.0,193.0,-108.0,649.0,-265.0,16.0
19:30:16.193000,-2.0,-221.0,512.0,-525.0,172.0,-103.0,655.0,-270.0,21.0
19:30:16.198000,-11.0,-211.0,529.0,-526.0,153.0,-101.0,655.0,-270.0,21.0
19:30:16.203000,-11.0,-211.0,529.0,-531.0,148.0,-100.0,646.0,-270.0,16.0
19:30:16.207000,-17.0,-203.0,532.0,-538.0,151.0,-96.0,646.0,-270.0,16.0
19:30:16.211000,-25.0,-195.0,526.0,-539.0,153.0,-92.0,646.0,-270.0,16.0
19:30:16.217000,-35.0,-188.0,514.0,-534.0,153.0,-88.0,645.0,-294.0,28.0
19:30:16.221000,-44.0,-179.0,497.0,-520.0,142.0,-84.0,645.0,-294.0,28.0
19:30:16.226000,-50.0,-174.0,480.0,-502.0,122.0,-80.0,651.0,-285.0,10.0
19:30:16.231000,-51.0,-173.0,466.0,-486.0,107.0,-77.0,651.0,-285.0,10.0
19:30:16.235000,-49.0,-177.0,452.0,-480.0,104.0,-77.0,651.0,-285.0,10.0
19:30:16.240000,-46.0,-180.0,440.0,-488.0,113.0,-78.0,654.0,-294.0,1.0
19:30:16.245000,-44.0,-183.0,428.0,-510.0,127.0,-78.0,654.0,-294.0,1.0
19:30:16.250000,-47.0,-185.0,416.0,-536.0,134.0,-77.0,661.0,-297.0,12.0
19:30:16.254000,-51.0,-186.0,410.0,-559.0,127.0,-76.0,661.0,-297.0,12.0
19:30:16.262000,-51.0,-189.0,404.0,-579.0,111.0,-76.0,648.0,-292.0,-1.0
19:30:16.264000,-51.0,-189.0,404.0,-579.0,111.0,-76.0,648.0,-292.0,-1.0
19:30:16.268000,-46.0,-191.0,401.0,-598.0,94.0,-75.0,648.0,-292.0,-1.0
19:30:16.273000,-43.0,-191.0,403.0,-614.0,77.0,-76.0,654.0,-307.0,1.0
19:30:16.278000,-38.0,-190.0,409.0,-624.0,61.0,-76.0,654.0,-307.0,1.0
19:30:16.283000,-32.0,-186.0,417.0,-633.0,47.0,-79.0,660.0,-298.0,3.0
19:30:16.287000,-30.0,-180.0,421.0,-645.0,43.0,-83.0,660.0,-298.0,3.0
19:30:16.291000,-31.0,-170.0,420.0,-655.0,51.0,-87.0,660.0,-298.0,3.0
19:30:16.297000,-38.0,-159.0,418.0,-662.0,64.0,-89.0,654.0,-309.0,-1.0
19:30:16.301000,-51.0,-149.0,420.0,-664.0,74.0,-88.0,654.0,-309.0,-1.0
19:30:16.305000,-51.0,-149.0,420.0,-657.0,76.0,-85.0,643.0,-312.0,10.0
19:30:16.311000,-67.0,-142.0,425.0,-646.0,76.0,-80.0,643.0,-312.0,10.0
19:30:16.315000,-85.0,-135.0,434.0,-641.0,77.0,-76.0,643.0,-312.0,10.0
19:30:16.320000,-106.0,-128.0,441.0,-639.0,75.0,-70.0,649.0,-321.0,-7.0
19:30:16.325000,-128.0,-119.0,448.0,-635.0,60.0,-66.0,649.0,-321.0,-7.0
19:30:16.330000,-147.0,-114.0,452.0,-633.0,37.0,-65.0,652.0,-319.0,-12.0
19:30:16.334000,-164.0,-110.0,452.0,-639.0,23.0,-66.0,652.0,-319.0,-12.0
19:30:16.338000,-179.0,-108.0,446.0,-647.0,14.0,-68.0,652.0,-319.0,-12.0
19:30:16.344000,-191.0,-104.0,438.0,-657.0,8.0,-73.0,657.0,-324.0,-10.0
19:30:16.348000,-200.0,-100.0,430.0,-667.0,4.0,-79.0,657.0,-324.0,-10.0
19:30:16.352000,-205.0,-92.0,417.0,-673.0,0.0,-85.0,645.0,-324.0,-4.0
19:30:16.358000,-205.0,-87.0,398.0,-669.0,-11.0,-94.0,645.0,-324.0,-4.0
19:30:16.362000,-194.0,-82.0,379.0,-665.0,-26.0,-102.0,645.0,-324.0,-4.0
19:30:16.367000,-176.0,-81.0,359.0,-664.0,-34.0,-108.0,648.0,-322.0,-10.0
19:30:16.372000,-154.0,-79.0,341.0,-664.0,-36.0,-113.0,648.0,-322.0,-10.0
19:30:16.377000,-132.0,-78.0,334.0,-662.0,-36.0,-113.0,651.0,-339.0,-10.0
19:30:16.381000,-111.0,-78.0,333.0,-662.0,-36.0,-117.0,651.0,-339.0,-10.0
19:30:16.385000,-95.0,-81.0,333.0,-668.0,-25.0,-120.0,651.0,-339.0,-10.0
19:30:16.391000,-88.0,-82.0,337.0,-681.0,-3.0,-125.0,655.0,-334.0,-16.0
19:30:16.395000,-90.0,-81.0,345.0,-699.0,23.0,-128.0,655.0,-334.0,-16.0
