hh:mm:ss.ms,gyroX[mdps],gyroY[mdps],gyroZ[mdps],accX[mg],accY[mg],accZ[mg],magX[mG],magY[mG],magZ[mG]
19:31:08.492000,-21.0,-198.0,53.0,-1118.0,-64.0,-123.0,649.0,-364.0,-25.0
19:31:08.496000,-9.0,-191.0,-5.0,-1189.0,-33.0,-133.0,649.0,-364.0,-25.0
19:31:08.500000,-9.0,-191.0,-5.0,-1245.0,14.0,-150.0,649.0,-364.0,-25.0
19:31:08.506000,-9.0,-177.0,-30.0,-1297.0,73.0,-168.0,637.0,-364.0,-19.0
19:31:08.510000,-14.0,-153.0,-46.0,-1360.0,114.0,-177.0,637.0,-364.0,-19.0
19:31:08.515000,-19.0,-123.0,-48.0,-1395.0,93.0,-180.0,642.0,-370.0,-39.0
19:31:08.520000,-9.0,-99.0,-24.0,-1401.0,34.0,-191.0,642.0,-370.0,-39.0
19:31:08.524000,14.0,-81.0,2.0,-1397.0,-33.0,-200.0,642.0,-370.0,-39.0
19:31:08.529000,44.0,-50.0,7.0,-1423.0,-71.0,-209.0,649.0,-369.0,-36.0
19:31:08.534000,70.0,-9.0,-30.0,-1462.0,-57.0,-221.0,649.0,-369.0,-36.0
19:31:08.539000,86.0,30.0,-45.0,-1470.0,-39.0,-233.0,648.0,-366.0,-30.0
19:31:08.543000,90.0,67.0,-38.0,-1456.0,-47.0,-239.0,648.0,-366.0,-30.0
19:31:08.547000,89.0,98.0,-13.0,-1428.0,-71.0,-242.0,648.0,-366.0,-30.0
19:31:08.553000,95.0,129.0,-1.0,-1405.0,-113.0,-245.0,633.0,-363.0,-27.0
19:31:08.557000,106.0,153.0,-38.0,-1383.0,-177.0,-248.0,633.0,-363.0,-27.0
19:31:08.562000,142.0,162.0,-77.0,-1383.0,-177.0,-248.0,633.0,-378.0,-25.0
19:31:08.567000,178.0,158.0,-72.0,-1326.0,-183.0,-248.0,633.0,-378.0,-25.0
19:31:08.571000,191.0,160.0,-57.0,-1262.0,-183.0,-248.0,633.0,-378.0,-25.0
19:31:08.576000,218.0,129.0,13.0,-1191.0,-154.0,-252.0,652.0,-366.0,-28.0
19:31:08.581000,221.0,110.0,105.0,-1139.0,-100.0,-245.0,652.0,-366.0,-28.0
19:31:08.585000,198.0,109.0,162.0,-1146.0,27.0,-244.0,643.0,-372.0,-10.0
19:31:08.590000,235.0,81.0,96.0,-1146.0,27.0,-244.0,643.0,-372.0,-10.0
19:31:08.594000,197.0,65.0,-26.0,-1123.0,140.0,-259.0,643.0,-372.0,-10.0
19:31:08.600000,149.0,62.0,-149.0,-1153.0,249.0,-248.0,646.0,-376.0,-25.0
19:31:08.604000,86.0,70.0,-159.0,-1249.0,113.0,-248.0,646.0,-376.0,-25.0
19:31:08.609000,83.0,49.0,-11.0,-1217.0,-187.0,-264.0,648.0,-369.0,-28.0
19:31:08.614000,76.0,29.0,99.0,-1123.0,-264.0,-264.0,648.0,-369.0,-28.0
19:31:08.618000,76.0,29.0,99.0,-1122.0,-156.0,-268.0,648.0,-369.0,-28.0
19:31:08.623000,60.0,0.0,28.0,-1110.0,-18.0,-244.0,643.0,-372.0,-24.0
19:31:08.628000,40.0,-20.0,-121.0,-1048.0,49.0,-222.0,643.0,-372.0,-24.0
19:31:08.632000,53.0,-38.0,-170.0,-969.0,32.0,-208.0,645.0,-373.0,-27.0
19:31:08.637000,65.0,-71.0,-107.0,-966.0,20.0,-187.0,645.0,-373.0,-27.0
19:31:08.641000,48.0,-89.0,-83.0,-1057.0,70.0,-190.0,645.0,-373.0,-27.0
19:31:08.647000,103.0,-104.0,-138.0,-1116.0,104.0,-193.0,634.0,-375.0,-33.0
19:31:08.651000,105.0,-116.0,-168.0,-1118.0,59.0,-172.0,634.0,-375.0,-33.0
19:31:08.656000,32.0,-90.0,-172.0,-1067.0,28.0,-159.0,637.0,-370.0,-34.0
19:31:08.661000,16.0,-81.0,-185.0,-1037.0,78.0,-158.0,637.0,-370.0,-34.0
19:31:08.665000,43.0,-96.0,-146.0,-1100.0,123.0,-157.0,637.0,-370.0,-34.0
19:31:08.670000,10.0,-91.0,-116.0,-1160.0,83.0,-163.0,640.0,-379.0,-27.0
19:31:08.674000,-5.0,-81.0,-144.0,-1145.0,0.0,-165.0,640.0,-379.0,-27.0
19:31:08.680000,14.0,-77.0,-149.0,-1145.0,0.0,-165.0,628.0,-373.0,-18.0
19:31:08.684000,27.0,-74.0,-176.0,-1140.0,-26.0,-160.0,628.0,-373.0,-18.0
19:31:08.689000,32.0,-65.0,-176.0,-1113.0,6.0,-159.0,645.0,-369.0,-30.0
19:31:08.694000,45.0,-62.0,-123.0,-1072.0,28.0,-161.0,645.0,-369.0,-30.0
19:31:08.698000,62.0,-44.0,-87.0,-1090.0,39.0,-177.0,645.0,-369.0,-30.0
19:31:08.703000,56.0,-28.0,-103.0,-1162.0,33.0,-183.0,640.0,-370.0,-22.0
19:31:08.708000,56.0,-2.0,-151.0,-1205.0,16.0,-187.0,640.0,-370.0,-22.0
19:31:08.713000,76.0,8.0,-189.0,-1186.0,-18.0,-202.0,637.0,-367.0,-33.0
19:31:08.717000,103.0,20.0,-171.0,-1139.0,-52.0,-207.0,637.0,-367.0,-33.0
19:31:08.721000,103.0,20.0,-171.0,-1100.0,-55.0,-211.0,637.0,-367.0,-33.0
19:31:08.727000,131.0,28.0,-131.0,-1128.0,-20.0,-207.0,642.0,-366.0,-31.0
19:31:08.731000,121.0,51.0,-142.0,-1180.0,14.0,-219.0,642.0,-366.0,-31.0
19:31:08.736000,130.0,72.0,-193.0,-1189.0,8.0,-239.0,648.0,-372.0,-37.0
19:31:08.741000,133.0,91.0,-215.0,-1165.0,15.0,-241.0,648.0,-372.0,-37.0
19:31:08.745000,140.0,104.0,-184.0,-1149.0,46.0,-231.0,648.0,-372.0,-37.0
19:31:08.750000,130.0,112.0,-184.0,-1141.0,47.0,-226.0,637.0,-376.0,-25.0
19:31:08.755000,108.0,126.0,-213.0,-1136.0,36.0,-238.0,637.0,-376.0,-25.0
19:31:08.760000,105.0,136.0,-229.0,-1143.0,70.0,-244.0,639.0,-361.0,-18.0
19:31:08.764000,121.0,134.0,-252.0,-1136.0,126.0,-240.0,639.0,-361.0,-18.0
19:31:08.772000,101.0,151.0,-272.0,-1054.0,114.0,-239.0,637.0,-361.0,-16.0
19:31:08.774000,101.0,151.0,-272.0,-1054.0,114.0,-239.0,637.0,-361.0,-16.0
19:31:08.778000,81.0,158.0,-245.0,-1096.0,95.0,-250.0,637.0,-361.0,-16.0
19:31:08.783000,86.0,158.0,-279.0,-1147.0,92.0,-251.0,640.0,-369.0,-30.0
19:31:08.788000,59.0,168.0,-322.0,-1147.0,92.0,-251.0,640.0,-369.0,-30.0
19:31:08.792000,36.0,169.0,-358.0,-1159.0,106.0,-251.0,652.0,-355.0,-22.0
19:31:08.797000,33.0,163.0,-385.0,-1136.0,160.0,-267.0,652.0,-355.0,-22.0
19:31:08.801000,8.0,154.0,-385.0,-1087.0,188.0,-272.0,652.0,-355.0,-22.0
19:31:08.807000,-9.0,149.0,-378.0,-1014.0,202.0,-264.0,636.0,-369.0,-25.0
19:31:08.811000,-1.0,141.0,-380.0,-1027.0,192.0,-285.0,636.0,-369.0,-25.0
19:31:08.816000,-2.0,140.0,-356.0,-1094.0,128.0,-299.0,646.0,-358.0,-21.0
19:31:08.821000,2.0,144.0,-344.0,-1118.0,82.0,-296.0,646.0,-358.0,-21.0
19:31:08.825000,2.0,144.0,-344.0,-1150.0,88.0,-303.0,646.0,-358.0,-21.0
19:31:08.830000,9.0,156.0,-383.0,-1169.0,123.0,-297.0,649.0,-352.0,-16.0
19:31:08.835000,9.0,156.0,-383.0,-1179.0,152.0,-293.0,649.0,-352.0,-16.0
19:31:08.839000,17.0,163.0,-392.0,-1182.0,149.0,-290.0,643.0,-351.0,-22.0
19:31:08.844000,9.0,177.0,-396.0,-1186.0,148.0,-283.0,643.0,-351.0,-22.0
19:31:08.848000,31.0,185.0,-403.0,-1157.0,129.0,-273.0,643.0,-351.0,-22.0
19:31:08.854000,38.0,193.0,-420.0,-1096.0,78.0,-262.0,649.0,-351.0,-19.0
19:31:08.858000,50.0,197.0,-442.0,-1053.0,44.0,-271.0,649.0,-351.0,-19.0
19:31:08.863000,106.0,197.0,-464.0,-1034.0,13.0,-284.0,648.0,-345.0,3.0
19:31:08.868000,137.0,196.0,-487.0,-1071.0,11.0,-278.0,648.0,-345.0,3.0
19:31:08.872000,175.0,189.0,-506.0,-1076.0,41.0,-266.0,648.0,-345.0,3.0
19:31:08.877000,212.0,179.0,-523.0,-1031.0,46.0,-265.0,646.0,-342.0,-16.0
19:31:08.882000,224.0,168.0,-532.0,-1027.0,72.0,-276.0,646.0,-342.0,-16.0
19:31:08.886000,265.0,149.0,-564.0,-1027.0,72.0,-276.0,649.0,-337.0,-10.0
19:31:08.891000,291.0,134.0,-610.0,-1024.0,166.0,-285.0,649.0,-337.0,-10.0
19:31:08.895000,310.0,119.0,-641.0,-1024.0,201.0,-280.0,649.0,-337.0,-10.0
19:31:08.901000,312.0,104.0,-627.0,-1010.0,264.0,-267.0,643.0,-331.0,-6.0
19:31:08.905000,301.0,91.0,-646.0,-1010.0,264.0,-267.0,643.0,-331.0,-6.0
19:31:08.910000,284.0,82.0,-657.0,-1019.0,334.0,-259.0,645.0,-328.0,-10.0
19:31:08.915000,268.0,69.0,-634.0,-1028.0,374.0,-253.0,645.0,-328.0,-10.0
19:31:08.919000,224.0,65.0,-604.0,-1050.0,386.0,-241.0,645.0,-328.0,-10.0
19:31:08.924000,181.0,65.0,-590.0,-1064.0,373.0,-228.0,651.0,-325.0,-9.0
19:31:08.929000,167.0,64.0,-588.0,-1057.0,385.0,-226.0,651.0,-325.0,-9.0
19:31:08.933000,147.0,65.0,-601.0,-1035.0,417.0,-219.0,648.0,-319.0,-12.0
19:31:08.938000,123.0,73.0,-610.0,-1025.0,435.0,-209.0,648.0,-319.0,-12.0
19:31:08.942000,123.0,73.0,-610.0,-1034.0,444.0,-207.0,648.0,-319.0,-12.0
19:31:08.947000,102.0,82.0,-599.0,-1055.0,458.0,-205.0,643.0,-316.0,-6.0
19:31:08.952000,77.0,94.0,-600.0,-1069.0,459.0,-204.0,643.0,-316.0,-6.0
19:31:08.957000,53.0,106.0,-612.0,-1068.0,429.0,-206.0,633.0,-315.0,3.0
19:31:08.962000,39.0,119.0,-620.0,-1061.0,410.0,-209.0,633.0,-315.0,3.0
19:31:08.966000,47.0,124.0,-612.0,-1056.0,419.0,-211.0,633.0,-315.0,3.0
19:31:08.971000,40.0,133.0,-583.0,-1075.0,436.0,-217.0,652.0,-303.0,-7.0
19:31:08.976000,32.0,148.0,-571.0,-1092.0,444.0,-218.0,652.0,-303.0,-7.0
19:31:08.980000,24.0,168.0,-566.0,-1095.0,424.0,-218.0,636.0,-307.0,-13.0
19:31:08.985000,18.0,189.0,-542.0,-1113.0,405.0,-226.0,636.0,-307.0,-13.0
19:31:08.989000,20.0,209.0,-521.0,-1132.0,413.0,-233.0,636.0,-307.0,-13.0
19:31:08.994000,16.0,226.0,-517.0,-1119.0,421.0,-242.0,649.0,-298.0,-6.0
19:31:08.999000,14.0,242.0,-501.0,-1078.0,423.0,-247.0,649.0,-298.0,-6.0
19:31:09.004000,26.0,251.0,-480.0,-1078.0,423.0,-247.0,651.0,-300.0,3.0
19:31:09.009000,49.0,256.0,-469.0,-1031.0,436.0,-250.0,651.0,-300.0,3.0
19:31:09.013000,65.0,261.0,-448.0,-984.0,440.0,-255.0,651.0,-300.0,3.0
19:31:09.018000,94.0,263.0,-435.0,-950.0,428.0,-258.0,651.0,-283.0,7.0
19:31:09.023000,128.0,261.0,-434.0,-946.0,417.0,-270.0,651.0,-283.0,7.0
19:31:09.027000,158.0,263.0,-432.0,-954.0,415.0,-281.0,652.0,-294.0,0.0
19:31:09.032000,189.0,262.0,-443.0,-968.0,439.0,-290.0,652.0,-294.0,0.0
19:31:09.036000,206.0,260.0,-460.0,-990.0,468.0,-296.0,652.0,-294.0,0.0
19:31:09.041000,225.0,252.0,-459.0,-1002.0,488.0,-304.0,655.0,-292.0,13.0
19:31:09.046000,244.0,243.0,-440.0,-1016.0,513.0,-321.0,655.0,-292.0,13.0
19:31:09.051000,238.0,241.0,-424.0,-1043.0,529.0,-331.0,655.0,-271.0,7.0
19:31:09.056000,238.0,241.0,-424.0,-1073.0,556.0,-338.0,655.0,-271.0,7.0
19:31:09.060000,220.0,245.0,-408.0,-1096.0,610.0,-347.0,655.0,-271.0,7.0
19:31:09.065000,191.0,255.0,-392.0,-1103.0,670.0,-352.0,651.0,-282.0,16.0
19:31:09.070000,156.0,263.0,-381.0,-1089.0,705.0,-361.0,651.0,-282.0,16.0
19:31:09.074000,126.0,273.0,-368.0,-1073.0,696.0,-368.0,661.0,-280.0,13.0
19:31:09.079000,98.0,273.0,-349.0,-1064.0,651.0,-367.0,661.0,-280.0,13.0
19:31:09.083000,78.0,266.0,-326.0,-1071.0,615.0,-363.0,654.0,-265.0,12.0
19:31:09.088000,46.0,248.0,-337.0,-1094.0,599.0,-370.0,654.0,-265.0,12.0
19:31:09.093000,58.0,231.0,-363.0,-1100.0,580.0,-362.0,654.0,-265.0,12.0
19:31:09.098000,46.0,210.0,-364.0,-1117.0,561.0,-347.0,660.0,-268.0,19.0
19:31:09.103000,18.0,202.0,-335.0,-1161.0,562.0,-349.0,660.0,-268.0,19.0
19:31:09.107000,2.0,196.0,-319.0,-1161.0,562.0,-349.0,657.0,-262.0,22.0
19:31:09.112000,-30.0,200.0,-289.0,-1150.0,533.0,-346.0,657.0,-262.0,22.0
19:31:09.116000,-42.0,201.0,-263.0,-1150.0,533.0,-346.0,657.0,-262.0,22.0
19:31:09.121000,-53.0,195.0,-244.0,-1097.0,480.0,-348.0,658.0,-271.0,28.0
19:31:09.126000,-43.0,187.0,-234.0,-1053.0,422.0,-352.0,658.0,-271.0,28.0
19:31:09.130000,-19.0,179.0,-226.0,-1059.0,375.0,-360.0,657.0,-253.0,31.0
19:31:09.135000,21.0,166.0,-200.0,-1059.0,375.0,-360.0,657.0,-253.0,31.0
19:31:09.140000,58.0,166.0,-242.0,-1089.0,383.0,-372.0,657.0,-253.0,31.0
19:31:09.145000,84.0,161.0,-340.0,-1055.0,403.0,-379.0,655.0,-264.0,31.0
19:31:09.150000,123.0,147.0,-364.0,-970.0,407.0,-366.0,655.0,-264.0,31.0
19:31:09.154000,165.0,126.0,-394.0,-920.0,437.0,-358.0,666.0,-270.0,34.0
19:31:09.159000,175.0,109.0,-420.0,-869.0,452.0,-347.0,666.0,-270.0,34.0
19:31:09.163000,175.0,109.0,-420.0,-809.0,415.0,-341.0,666.0,-270.0,34.0
19:31:09.168000,189.0,91.0,-346.0,-803.0,392.0,-340.0,658.0,-256.0,28.0
19:31:09.173000,190.0,75.0,-258.0,-811.0,417.0,-346.0,658.0,-256.0,28.0
19:31:09.178000,208.0,60.0,-244.0,-806.0,465.0,-354.0,658.0,-253.0,24.0
19:31:09.182000,200.0,53.0,-238.0,-815.0,523.0,-351.0,658.0,-253.0,24.0
19:31:09.187000,198.0,46.0,-236.0,-819.0,565.0,-345.0,658.0,-253.0,24.0
19:31:09.192000,166.0,47.0,-225.0,-808.0,550.0,-337.0,655.0,-243.0,34.0
19:31:09.197000,138.0,54.0,-195.0,-802.0,510.0,-333.0,655.0,-243.0,34.0
19:31:09.201000,116.0,60.0,-159.0,-795.0,471.0,-327.0,663.0,-249.0,31.0
19:31:09.206000,98.0,64.0,-131.0,-772.0,451.0,-330.0,663.0,-249.0,31.0
19:31:09.210000,95.0,63.0,-128.0,-746.0,439.0,-337.0,663.0,-249.0,31.0
19:31:09.215000,85.0,67.0,-147.0,-745.0,439.0,-338.0,664.0,-249.0,30.0
19:31:09.220000,82.0,64.0,-212.0,-740.0,435.0,-334.0,664.0,-249.0,30.0
19:31:09.225000,79.0,65.0,-268.0,-740.0,435.0,-334.0,660.0,-246.0,46.0
19:31:09.229000,86.0,53.0,-295.0,-712.0,399.0,-327.0,660.0,-246.0,46.0
19:31:09.234000,97.0,37.0,-308.0,-674.0,365.0,-317.0,660.0,-246.0,46.0
19:31:09.239000,116.0,17.0,-296.0,-632.0,338.0,-308.0,669.0,-244.0,42.0
19:31:09.244000,150.0,-12.0,-284.0,-594.0,322.0,-300.0,669.0,-244.0,42.0
19:31:09.248000,179.0,-46.0,-261.0,-559.0,319.0,-290.0,667.0,-252.0,28.0
19:31:09.253000,196.0,-77.0,-217.0,-530.0,334.0,-278.0,667.0,-252.0,28.0
19:31:09.257000,209.0,-112.0,-171.0,-512.0,371.0,-267.0,667.0,-252.0,28.0
19:31:09.262000,208.0,-141.0,-114.0,-487.0,410.0,-255.0,658.0,-247.0,40.0
19:31:09.267000,196.0,-170.0,-33.0,-467.0,439.0,-241.0,658.0,-247.0,40.0
19:31:09.272000,177.0,-193.0,35.0,-465.0,472.0,-224.0,654.0,-247.0,28.0
19:31:09.276000,177.0,-193.0,35.0,-454.0,498.0,-202.0,654.0,-247.0,28.0
19:31:09.281000,135.0,-204.0,110.0,-434.0,501.0,-179.0,654.0,-247.0,28.0
19:31:09.286000,94.0,-210.0,177.0,-417.0,482.0,-158.0,661.0,-247.0,30.0
19:31:09.291000,44.0,-207.0,227.0,-399.0,439.0,-136.0,661.0,-247.0,30.0
19:31:09.295000,-2.0,-200.0,268.0,-396.0,397.0,-122.0,666.0,-243.0,36.0
19:31:09.300000,-39.0,-193.0,281.0,-412.0,363.0,-115.0,666.0,-243.0,36.0
19:31:09.304000,-70.0,-181.0,261.0,-435.0,329.0,-113.0,666.0,-243.0,36.0
19:31:09.309000,-102.0,-164.0,239.0,-478.0,309.0,-116.0,654.0,-249.0,31.0
19:31:09.314000,-127.0,-145.0,203.0,-532.0,300.0,-124.0,654.0,-249.0,31.0
19:31:09.319000,-149.0,-126.0,158.0,-573.0,278.0,-131.0,661.0,-246.0,25.0
19:31:09.323000,-163.0,-103.0,123.0,-602.0,246.0,-141.0,661.0,-246.0,25.0
19:31:09.328000,-169.0,-84.0,93.0,-616.0,219.0,-152.0,661.0,-246.0,25.0
19:31:09.333000,-171.0,-65.0,60.0,-613.0,199.0,-162.0,664.0,-243.0,36.0
19:31:09.338000,-167.0,-50.0,34.0,-613.0,199.0,-162.0,664.0,-243.0,36.0
19:31:09.342000,-158.0,-41.0,18.0,-590.0,186.0,-174.0,660.0,-247.0,21.0
19:31:09.347000,-147.0,-36.0,13.0,-553.0,186.0,-185.0,660.0,-247.0,21.0
19:31:09.351000,-137.0,-36.0,18.0,-515.0,203.0,-195.0,660.0,-247.0,21.0
19:31:09.356000,-133.0,-37.0,39.0,-487.0,225.0,-201.0,657.0,-244.0,30.0
19:31:09.361000,-128.0,-40.0,69.0,-468.0,236.0,-205.0,657.0,-244.0,30.0
19:31:09.366000,-123.0,-43.0,100.0,-464.0,231.0,-206.0,672.0,-249.0,36.0
19:31:09.370000,-114.0,-48.0,128.0,-472.0,215.0,-207.0,672.0,-249.0,36.0
19:31:09.375000,-114.0,-48.0,128.0,-484.0,194.0,-208.0,672.0,-249.0,36.0
19:31:09.380000,-81.0,-63.0,175.0,-494.0,173.0,-206.0,666.0,-244.0,22.0
19:31:09.385000,-81.0,-63.0,175.0,-502.0,156.0,-201.0,666.0,-244.0,22.0
19:31:09.389000,-57.0,-70.0,189.0,-504.0,145.0,-194.0,661.0,-255.0,25.0
19:31:09.394000,-32.0,-78.0,195.0,-494.0,132.0,-184.0,661.0,-255.0,25.0
19:31:09.398000,-7.0,-87.0,203.0,-479.0,118.0,-171.0,661.0,-255.0,25.0
19:31:09.403000,16.0,-95.0,212.0,-465.0,110.0,-157.0,661.0,-250.0,39.0
19:31:09.408000,38.0,-102.0,219.0,-458.0,115.0,-144.0,661.0,-250.0,39.0
19:31:09.413000,60.0,-110.0,217.0,-455.0,130.0,-134.0,669.0,-249.0,31.0
19:31:09.417000,75.0,-114.0,214.0,-458.0,149.0,-124.0,669.0,-249.0,31.0
19:31:09.422000,83.0,-114.0,213.0,-470.0,177.0,-118.0,669.0,-249.0,31.0
19:31:09.427000,86.0,-114.0,209.0,-480.0,202.0,-116.0,664.0,-261.0,30.0
19:31:09.432000,81.0,-109.0,213.0,-486.0,214.0,-114.0,664.0,-261.0,30.0
19:31:09.436000,71.0,-102.0,232.0,-486.0,214.0,-114.0,672.0,-264.0,33.0
19:31:09.441000,58.0,-94.0,259.0,-501.0,227.0,-117.0,672.0,-264.0,33.0
19:31:09.445000,42.0,-85.0,294.0,-501.0,227.0,-117.0,672.0,-264.0,33.0
19:31:09.450000,25.0,-76.0,329.0,-536.0,231.0,-129.0,661.0,-259.0,22.0
19:31:09.455000,9.0,-64.0,358.0,-536.0,231.0,-129.0,661.0,-259.0,22.0
19:31:09.460000,-3.0,-55.0,385.0,-549.0,233.0,-136.0,660.0,-265.0,40.0
19:31:09.464000,-11.0,-50.0,416.0,-550.0,223.0,-142.0,660.0,-265.0,40.0
19:31:09.469000,-9.0,-52.0,444.0,-546.0,202.0,-146.0,660.0,-265.0,40.0
19:31:09.474000,0.0,-61.0,475.0,-536.0,173.0,-149.0,670.0,-262.0,37.0
19:31:09.479000,10.0,-73.0,514.0,-516.0,137.0,-146.0,670.0,-262.0,37.0
19:31:09.483000,23.0,-88.0,557.0,-492.0,103.0,-141.0,670.0,-276.0,24.0
19:31:09.488000,36.0,-103.0,585.0,-480.0,87.0,-136.0,670.0,-276.0,24.0
19:31:09.492000,36.0,-103.0,585.0,-485.0,95.0,-133.0,670.0,-276.0,24.0
19:31:09.497000,42.0,-115.0,588.0,-496.0,113.0,-132.0,673.0,-264.0,18.0
19:31:09.502000,39.0,-124.0,576.0,-502.0,125.0,-133.0,673.0,-264.0,18.0
19:31:09.507000,31.0,-132.0,561.0,-506.0,131.0,-136.0,669.0,-277.0,25.0
19:31:09.511000,16.0,-135.0,544.0,-513.0,146.0,-136.0,669.0,-277.0,25.0
19:31:09.516000,-4.0,-135.0,523.0,-518.0,163.0,-135.0,669.0,-277.0,25.0
19:31:09.521000,-30.0,-133.0,500.0,-518.0,166.0,-137.0,666.0,-279.0,24.0
19:31:09.526000,-51.0,-131.0,475.0,-513.0,152.0,-139.0,666.0,-279.0,24.0
19:31:09.530000,-63.0,-132.0,452.0,-509.0,136.0,-141.0,670.0,-294.0,19.0
19:31:09.535000,-69.0,-133.0,428.0,-512.0,130.0,-140.0,670.0,-294.0,19.0
19:31:09.539000,-74.0,-133.0,408.0,-516.0,125.0,-137.0,670.0,-294.0,19.0
19:31:09.544000,-77.0,-133.0,404.0,-522.0,110.0,-136.0,678.0,-298.0,15.0
19:31:09.549000,-79.0,-133.0,416.0,-533.0,92.0,-137.0,678.0,-298.0,15.0
19:31:09.554000,-81.0,-130.0,431.0,-533.0,92.0,-137.0,672.0,-304.0,28.0
19:31:09.558000,-79.0,-130.0,436.0,-547.0,81.0,-140.0,672.0,-304.0,28.0
19:31:09.563000,-75.0,-129.0,431.0,-558.0,78.0,-144.0,672.0,-304.0,28.0
19:31:09.568000,-72.0,-127.0,415.0,-567.0,86.0,-146.0,667.0,-303.0,21.0
19:31:09.573000,-71.0,-125.0,398.0,-575.0,96.0,-149.0,667.0,-303.0,21.0
19:31:09.577000,-74.0,-121.0,383.0,-586.0,106.0,-151.0,678.0,-303.0,18.0
19:31:09.582000,-77.0,-116.0,373.0,-596.0,110.0,-150.0,678.0,-303.0,18.0
19:31:09.586000,-81.0,-110.0,367.0,-599.0,102.0,-146.0,678.0,-303.0,18.0
19:31:09.591000,-83.0,-106.0,357.0,-592.0,89.0,-142.0,672.0,-309.0,19.0
19:31:09.596000,-78.0,-104.0,343.0,-572.0,75.0,-144.0,672.0,-309.0,19.0
19:31:09.601000,-65.0,-104.0,324.0,-544.0,66.0,-150.0,660.0,-306.0,22.0
19:31:09.605000,-65.0,-104.0,324.0,-526.0,70.0,-160.0,660.0,-306.0,22.0
19:31:09.610000,-51.0,-106.0,305.0,-521.0,87.0,-169.0,660.0,-306.0,22.0
19:31:09.615000,-42.0,-111.0,294.0,-527.0,108.0,-173.0,682.0,-315.0,7.0
19:31:09.620000,-38.0,-114.0,295.0,-538.0,123.0,-176.0,682.0,-315.0,7.0
19:31:09.624000,-42.0,-118.0,303.0,-548.0,129.0,-176.0,660.0,-307.0,15.0
19:31:09.629000,-46.0,-121.0,310.0,-553.0,130.0,-176.0,660.0,-307.0,15.0
19:31:09.633000,-49.0,-123.0,312.0,-555.0,131.0,-177.0,660.0,-307.0,15.0
19:31:09.638000,-51.0,-120.0,310.0,-561.0,128.0,-177.0,675.0,-312.0,13.0
19:31:09.643000,-50.0,-114.0,305.0,-574.0,120.0,-177.0,675.0,-312.0,13.0
19:31:09.648000,-46.0,-105.0,301.0,-595.0,109.0,-179.0,670.0,-319.0,4.0
19:31:09.652000,-38.0,-94.0,294.0,-621.0,103.0,-183.0,670.0,-319.0,4.0
19:31:09.657000,-28.0,-85.0,280.0,-644.0,105.0,-184.0,670.0,-319.0,4.0
19:31:09.662000,-19.0,-77.0,262.0,-654.0,116.0,-184.0,673.0,-319.0,6.0
19:31:09.667000,-10.0,-72.0,246.0,-654.0,116.0,-184.0,673.0,-319.0,6.0
19:31:09.671000,-3.0,-70.0,235.0,-653.0,134.0,-185.0,670.0,-324.0,13.0
19:31:09.676000,-5.0,-71.0,227.0,-646.0,166.0,-184.0,670.0,-324.0,13.0
19:31:09.680000,-16.0,-74.0,228.0,-634.0,243.0,-181.0,670.0,-324.0,13.0
19:31:09.685000,-35.0,-78.0,240.0,-617.0,243.0,-181.0,660.0,-330.0,15.0
19:31:09.690000,-62.0,-84.0,260.0,-607.0,269.0,-182.0,660.0,-330.0,15.0
19:31:09.695000,-92.0,-94.0,280.0,-608.0,282.0,-186.0,670.0,-324.0,15.0
19:31:09.699000,-125.0,-104.0,297.0,-623.0,287.0,-189.0,670.0,-324.0,15.0
19:31:09.704000,-125.0,-104.0,297.0,-651.0,290.0,-190.0,670.0,-324.0,15.0
19:31:09.709000,-199.0,-125.0,319.0,-685.0,286.0,-195.0,667.0,-331.0,1.0
19:31:09.714000,-199.0,-125.0,319.0,-727.0,277.0,-202.0,667.0,-331.0,1.0
19:31:09.718000,-233.0,-135.0,318.0,-777.0,275.0,-208.0,669.0,-325.0,0.0
19:31:09.723000,-267.0,-146.0,307.0,-826.0,279.0,-215.0,669.0,-325.0,0.0
19:31:09.730000,-333.0,-163.0,275.0,-889.0,274.0,-217.0,672.0,-340.0,0.0
19:31:09.732000,-333.0,-163.0,275.0,-889.0,274.0,-217.0,672.0,-340.0,0.0
19:31:09.736000,-366.0,-170.0,267.0,-892.0,250.0,-217.0,672.0,-340.0,0.0
19:31:09.742000,-390.0,-183.0,265.0,-884.0,213.0,-218.0,669.0,-333.0,6.0
19:31:09.746000,-401.0,-200.0,264.0,-874.0,176.0,-220.0,669.0,-333.0,6.0
19:31:09.751000,-399.0,-217.0,260.0,-869.0,151.0,-221.0,658.0,-336.0,-1.0
19:31:09.756000,-386.0,-238.0,254.0,-868.0,136.0,-225.0,658.0,-336.0,-1.0
19:31:09.760000,-362.0,-263.0,249.0,-874.0,139.0,-234.0,658.0,-336.0,-1.0
19:31:09.765000,-331.0,-291.0,244.0,-895.0,174.0,-244.0,658.0,-333.0,6.0
19:31:09.770000,-303.0,-317.0,228.0,-925.0,248.0,-256.0,658.0,-333.0,6.0
19:31:09.775000,-281.0,-335.0,201.0,-959.0,347.0,-276.0,661.0,-339.0,-6.0
19:31:09.779000,-265.0,-341.0,167.0,-959.0,347.0,-276.0,661.0,-339.0,-6.0
19:31:09.783000,-255.0,-335.0,117.0,-1001.0,470.0,-304.0,661.0,-339.0,-6.0
19:31:09.789000,-254.0,-312.0,54.0,-1054.0,605.0,-337.0,658.0,-342.0,-6.0
19:31:09.793000,-262.0,-275.0,-9.0,-1107.0,730.0,-369.0,658.0,-342.0,-6.0
19:31:09.798000,-277.0,-221.0,-61.0,-1143.0,822.0,-398.0,660.0,-331.0,1.0
19:31:09.803000,-283.0,-160.0,-98.0,-1157.0,866.0,-428.0,660.0,-331.0,1.0
19:31:09.807000,-283.0,-160.0,-98.0,-1155.0,865.0,-459.0,660.0,-331.0,1.0
19:31:09.812000,-249.0,-60.0,-161.0,-1153.0,860.0,-489.0,654.0,-331.0,-13.0
19:31:09.816000,-249.0,-60.0,-161.0,-1150.0,873.0,-512.0,654.0,-331.0,-13.0
19:31:09.822000,-221.0,-25.0,-191.0,-1134.0,894.0,-523.0,654.0,-331.0,-4.0
19:31:09.826000,-193.0,1.0,-203.0,-1102.0,908.0,-516.0,654.0,-331.0,-4.0
19:31:09.830000,-167.0,16.0,-189.0,-1047.0,884.0,-487.0,654.0,-331.0,-4.0
19:31:09.836000,-149.0,23.0,-138.0,-978.0,830.0,-439.0,645.0,-333.0,0.0
19:31:09.840000,-133.0,10.0,-53.0,-895.0,794.0,-392.0,645.0,-333.0,0.0
19:31:09.845000,-121.0,-2.0,39.0,-827.0,802.0,-363.0,645.0,-325.0,-7.0
19:31:09.850000,-108.0,-6.0,102.0,-781.0,846.0,-340.0,645.0,-325.0,-7.0
19:31:09.854000,-116.0,-2.0,132.0,-713.0,890.0,-315.0,645.0,-325.0,-7.0
19:31:09.859000,-144.0,6.0,186.0,-674.0,938.0,-300.0,654.0,-331.0,-12.0
19:31:09.864000,-155.0,2.0,242.0,-693.0,978.0,-288.0,654.0,-331.0,-12.0
19:31:09.869000,-161.0,-7.0,258.0,-693.0,986.0,-276.0,646.0,-330.0,9.0
19:31:09.873000,-159.0,-20.0,240.0,-760.0,969.0,-270.0,646.0,-330.0,9.0
19:31:09.877000,-158.0,-31.0,217.0,-781.0,942.0,-260.0,646.0,-330.0,9.0
19:31:09.883000,-158.0,-42.0,230.0,-781.0,930.0,-260.0,654.0,-328.0,4.0
19:31:09.887000,-150.0,-52.0,250.0,-823.0,930.0,-257.0,654.0,-328.0,4.0
19:31:09.892000,-155.0,-49.0,242.0,-904.0,936.0,-273.0,649.0,-336.0,-9.0
19:31:09.897000,-144.0,-80.0,200.0,-965.0,940.0,-266.0,649.0,-336.0,-9.0
19:31:09.901000,-235.0,-109.0,15.0,-1299.0,977.0,-222.0,649.0,-336.0,-9.0
19:31:09.906000,-235.0,-53.0,393.0,-1430.0,832.0,-264.0,652.0,-328.0,-3.0
19:31:09.911000,-242.0,-36.0,700.0,-1087.0,643.0,-276.0,652.0,-328.0,-3.0
19:31:09.916000,-198.0,-14.0,463.0,-935.0,766.0,-237.0,639.0,-334.0,-10.0
19:31:09.920000,-189.0,23.0,193.0,-766.0,851.0,-235.0,639.0,-334.0,-10.0
19:31:09.924000,-189.0,23.0,193.0,-513.0,726.0,-209.0,639.0,-334.0,-10.0
19:31:09.930000,-94.0,39.0,248.0,-552.0,613.0,-214.0,660.0,-346.0,-13.0
19:31:09.934000,-94.0,39.0,248.0,-767.0,613.0,-230.0,660.0,-346.0,-13.0
19:31:09.939000,-51.0,55.0,304.0,-941.0,625.0,-220.0,652.0,-351.0,-9.0
19:31:09.944000,-65.0,70.0,255.0,-1124.0,577.0,-225.0,652.0,-351.0,-9.0
19:31:09.948000,-63.0,85.0,163.0,-1264.0,498.0,-245.0,652.0,-351.0,-9.0
19:31:09.953000,-70.0,98.0,125.0,-1267.0,427.0,-246.0,639.0,-340.0,-13.0
19:31:09.958000,-70.0,102.0,165.0,-1163.0,438.0,-244.0,639.0,-340.0,-13.0
19:31:09.963000,-94.0,112.0,216.0,-1033.0,462.0,-239.0,639.0,-342.0,-1.0
19:31:09.967000,-138.0,121.0,228.0,-950.0,395.0,-233.0,639.0,-342.0,-1.0
19:31:09.971000,-177.0,126.0,254.0,-949.0,300.0,-228.0,639.0,-342.0,-1.0
19:31:09.977000,-178.0,110.0,266.0,-968.0,234.0,-223.0,649.0,-346.0,-3.0
19:31:09.981000,-180.0,95.0,252.0,-923.0,184.0,-215.0,649.0,-346.0,-3.0
19:31:09.986000,-203.0,79.0,243.0,-923.0,184.0,-215.0,652.0,-346.0,-9.0
19:31:09.991000,-201.0,56.0,235.0,-859.0,116.0,-206.0,652.0,-346.0,-9.0
19:31:09.995000,-197.0,30.0,213.0,-859.0,116.0,-206.0,652.0,-346.0,-9.0
19:31:10.000000,-196.0,6.0,200.0,-861.0,57.0,-193.0,648.0,-343.0,-3.0
19:31:10.005000,-182.0,-17.0,214.0,-864.0,-28.0,-187.0,648.0,-343.0,-3.0
19:31:10.010000,-143.0,-44.0,211.0,-886.0,-49.0,-195.0,655.0,-346.0,-9.0
19:31:10.014000,-121.0,-61.0,174.0,-874.0,-9.0,-200.0,655.0,-346.0,-9.0
19:31:10.018000,-109.0,-72.0,137.0,-880.0,7.0,-195.0,655.0,-346.0,-9.0
19:31:10.024000,-81.0,-93.0,132.0,-897.0,-10.0,-190.0,645.0,-348.0,-16.0
19:31:10.028000,-72.0,-109.0,169.0,-893.0,-34.0,-180.0,645.0,-348.0,-16.0
19:31:10.033000,-49.0,-123.0,177.0,-911.0,0.0,-179.0,651.0,-351.0,-12.0
19:31:10.038000,-50.0,-128.0,162.0,-945.0,61.0,-184.0,651.0,-351.0,-12.0
19:31:10.042000,-50.0,-128.0,162.0,-982.0,83.0,-183.0,651.0,-351.0,-12.0
19:31:10.047000,-58.0,-124.0,149.0,-1032.0,95.0,-196.0,643.0,-349.0,-9.0
19:31:10.052000,-60.0,-113.0,118.0,-1098.0,133.0,-219.0,643.0,-349.0,-9.0
19:31:10.057000,-47.0,-109.0,79.0,-1154.0,179.0,-244.0,639.0,-349.0,-3.0
19:31:10.061000,-39.0,-100.0,49.0,-1212.0,242.0,-261.0,639.0,-349.0,-3.0
19:31:10.065000,-48.0,-88.0,7.0,-1267.0,299.0,-263.0,639.0,-349.0,-3.0
19:31:10.071000,-60.0,-67.0,-46.0,-1286.0,293.0,-263.0,642.0,-345.0,-7.0
19:31:10.075000,-65.0,-46.0,-75.0,-1280.0,244.0,-257.0,642.0,-345.0,-7.0
19:31:10.080000,-65.0,-33.0,-61.0,-1262.0,203.0,-250.0,651.0,-354.0,-7.0
19:31:10.085000,-54.0,-22.0,-15.0,-1256.0,162.0,-248.0,651.0,-354.0,-7.0
19:31:10.089000,-49.0,-9.0,51.0,-1274.0,113.0,-235.0,651.0,-354.0,-7.0
19:31:10.094000,-41.0,0.0,111.0,-1302.0,82.0,-225.0,643.0,-352.0,-15.0
19:31:10.099000,-34.0,16.0,141.0,-1341.0,61.0,-223.0,643.0,-352.0,-15.0
19:31:10.104000,-45.0,40.0,130.0,-1341.0,61.0,-223.0,627.0,-358.0,7.0
19:31:10.108000,-37.0,59.0,97.0,-1380.0,26.0,-219.0,627.0,-358.0,7.0
19:31:10.112000,-14.0,67.0,74.0,-1391.0,-33.0,-222.0,627.0,-358.0,7.0
19:31:10.118000,25.0,56.0,88.0,-1343.0,-78.0,-227.0,642.0,-349.0,-13.0
19:31:10.122000,44.0,56.0,71.0,-1272.0,-65.0,-222.0,642.0,-349.0,-13.0
19:31:10.127000,49.0,67.0,11.0,-1266.0,-4.0,-226.0,643.0,-351.0,-9.0
19:31:10.132000,47.0,84.0,-44.0,-1293.0,30.0,-237.0,643.0,-351.0,-9.0
19:31:10.136000,47.0,84.0,-44.0,-1312.0,13.0,-239.0,643.0,-351.0,-9.0
19:31:10.141000,48.0,95.0,-231.0,-1320.0,13.0,-246.0,639.0,-360.0,-13.0
19:31:10.146000,21.0,98.0,-327.0,-1296.0,49.0,-248.0,639.0,-360.0,-13.0
19:31:10.151000,21.0,98.0,-327.0,-1243.0,86.0,-256.0,643.0,-354.0,-15.0
19:31:10.155000,2.0,87.0,-298.0,-1184.0,97.0,-276.0,643.0,-354.0,-15.0
19:31:10.159000,-15.0,86.0,-216.0,-1150.0,121.0,-289.0,643.0,-354.0,-15.0
19:31:10.165000,-44.0,85.0,-200.0,-1127.0,152.0,-289.0,634.0,-352.0,-9.0
19:31:10.169000,-107.0,81.0,-191.0,-1073.0,135.0,-294.0,634.0,-352.0,-9.0
19:31:10.174000,-62.0,18.0,-151.0,-1087.0,195.0,-313.0,639.0,-352.0,-16.0
19:31:10.179000,-48.0,-4.0,-178.0,-1181.0,251.0,-313.0,639.0,-352.0,-16.0
19:31:10.183000,-97.0,-2.0,-178.0,-1214.0,197.0,-338.0,639.0,-352.0,-16.0
19:31:10.188000,-32.0,-17.0,-164.0,-1232.0,124.0,-287.0,634.0,-342.0,-1.0
19:31:10.193000,-82.0,-28.0,-145.0,-1212.0,83.0,-319.0,634.0,-342.0,-1.0
19:31:10.198000,-67.0,-37.0,-79.0,-1157.0,108.0,-379.0,643.0,-334.0,-10.0
19:31:10.202000,-72.0,-42.0,-84.0,-1065.0,131.0,-312.0,643.0,-334.0,-10.0
19:31:10.206000,-91.0,-46.0,-71.0,-989.0,100.0,-314.0,643.0,-334.0,-10.0
19:31:10.212000,-53.0,-67.0,-69.0,-989.0,7.0,-314.0,643.0,-346.0,-19.0
19:31:10.216000,48.0,-91.0,-74.0,-984.0,7.0,-315.0,643.0,-346.0,-19.0
19:31:10.221000,44.0,-95.0,-121.0,-1019.0,-28.0,-303.0,643.0,-352.0,-10.0
19:31:10.226000,66.0,-86.0,-172.0,-1119.0,81.0,-299.0,643.0,-352.0,-10.0
19:31:10.233000,90.0,-85.0,-177.0,-1115.0,181.0,-287.0,642.0,-342.0,-6.0
19:31:10.235000,119.0,-87.0,-147.0,-1115.0,181.0,-287.0,642.0,-342.0,-6.0
19:31:10.239000,90.0,-62.0,-153.0,-1158.0,237.0,-277.0,642.0,-342.0,-6.0
19:31:10.245000,19.0,-18.0,-163.0,-1173.0,245.0,-261.0,642.0,-351.0,-19.0
19:31:10.249000,20.0,14.0,-152.0,-1173.0,199.0,-286.0,642.0,-351.0,-19.0
19:31:10.254000,15.0,26.0,-129.0,-1216.0,188.0,-299.0,628.0,-342.0,-6.0
19:31:10.259000,11.0,42.0,-118.0,-1299.0,186.0,-291.0,628.0,-342.0,-6.0
19:31:10.263000,11.0,42.0,-118.0,-1313.0,205.0,-300.0,628.0,-342.0,-6.0
19:31:10.268000,23.0,61.0,-140.0,-1246.0,198.0,-296.0,645.0,-340.0,-10.0
19:31:10.273000,-11.0,82.0,-137.0,-1159.0,106.0,-293.0,645.0,-340.0,-10.0
19:31:10.277000,2.0,93.0,-66.0,-1115.0,78.0,-293.0,630.0,-339.0,4.0
19:31:10.282000,27.0,86.0,-43.0,-1113.0,103.0,-287.0,630.0,-339.0,4.0
19:31:10.286000,13.0,95.0,-64.0,-1089.0,107.0,-292.0,630.0,-339.0,4.0
19:31:10.292000,20.0,102.0,-120.0,-1063.0,144.0,-293.0,648.0,-349.0,-21.0
19:31:10.296000,39.0,98.0,-148.0,-1075.0,154.0,-289.0,648.0,-349.0,-21.0
19:31:10.301000,32.0,100.0,-205.0,-1121.0,141.0,-294.0,637.0,-331.0,-6.0
19:31:10.306000,47.0,92.0,-266.0,-1148.0,122.0,-299.0,637.0,-331.0,-6.0
19:31:10.310000,41.0,93.0,-254.0,-1167.0,98.0,-298.0,637.0,-331.0,-6.0
19:31:10.315000,53.0,97.0,-226.0,-1188.0,111.0,-296.0,642.0,-334.0,-15.0
19:31:10.320000,56.0,97.0,-214.0,-1171.0,145.0,-293.0,642.0,-334.0,-15.0
19:31:10.324000,74.0,93.0,-243.0,-1137.0,164.0,-290.0,636.0,-337.0,-7.0
19:31:10.329000,81.0,92.0,-277.0,-1137.0,164.0,-290.0,636.0,-337.0,-7.0
19:31:10.333000,101.0,86.0,-268.0,-1109.0,152.0,-288.0,636.0,-337.0,-7.0
19:31:10.339000,111.0,77.0,-244.0,-1099.0,142.0,-288.0,640.0,-330.0,3.0
19:31:10.343000,101.0,84.0,-235.0,-1128.0,149.0,-292.0,640.0,-330.0,3.0
19:31:10.348000,101.0,88.0,-252.0,-1168.0,169.0,-307.0,642.0,-333.0,-7.0
19:31:10.353000,84.0,91.0,-303.0,-1177.0,181.0,-320.0,642.0,-333.0,-7.0
19:31:10.357000,84.0,91.0,-303.0,-1140.0,178.0,-329.0,642.0,-333.0,-7.0
19:31:10.362000,79.0,80.0,-348.0,-1077.0,200.0,-342.0,646.0,-336.0,-3.0
19:31:10.367000,56.0,76.0,-336.0,-1028.0,230.0,-344.0,646.0,-336.0,-3.0
19:31:10.372000,56.0,76.0,-336.0,-1007.0,248.0,-339.0,637.0,-336.0,7.0
19:31:10.376000,37.0,70.0,-334.0,-1005.0,273.0,-314.0,637.0,-336.0,7.0
19:31:10.380000,1.0,64.0,-338.0,-981.0,285.0,-211.0,637.0,-336.0,7.0
19:31:10.386000,-12.0,43.0,-343.0,-967.0,254.0,-147.0,643.0,-339.0,0.0
19:31:10.390000,35.0,11.0,-354.0,-1047.0,218.0,-214.0,643.0,-339.0,0.0
19:31:10.395000,72.0,-4.0,-402.0,-1183.0,219.0,-262.0,645.0,-325.0,-6.0
19:31:10.400000,82.0,-7.0,-469.0,-1278.0,233.0,-279.0,645.0,-325.0,-6.0
19:31:10.404000,95.0,-7.0,-480.0,-1279.0,279.0,-284.0,645.0,-325.0,-6.0
19:31:10.409000,43.0,2.0,-436.0,-1198.0,341.0,-270.0,648.0,-312.0,-4.0
19:31:10.414000,-13.0,21.0,-381.0,-1110.0,378.0,-253.0,648.0,-312.0,-4.0
19:31:10.419000,-58.0,33.0,-336.0,-1110.0,378.0,-253.0,627.0,-319.0,9.0
19:31:10.423000,-87.0,39.0,-321.0,-970.0,317.0,-232.0,627.0,-319.0,9.0
19:31:10.427000,-107.0,43.0,-312.0,-986.0,236.0,-212.0,627.0,-319.0,9.0
19:31:10.433000,-102.0,46.0,-305.0,-986.0,236.0,-212.0,646.0,-321.0,-6.0
19:31:10.437000,-60.0,50.0,-358.0,-1080.0,200.0,-201.0,646.0,-321.0,-6.0
19:31:10.442000,-25.0,68.0,-430.0,-1178.0,142.0,-229.0,642.0,-318.0,-6.0
19:31:10.447000,-7.0,89.0,-474.0,-1227.0,102.0,-223.0,642.0,-318.0,-6.0
19:31:10.451000,9.0,98.0,-466.0,-1236.0,125.0,-203.0,642.0,-318.0,-6.0
19:31:10.456000,21.0,111.0,-450.0,-1228.0,154.0,-224.0,643.0,-304.0,4.0
19:31:10.461000,39.0,125.0,-443.0,-1190.0,155.0,-249.0,643.0,-304.0,4.0
19:31:10.466000,60.0,140.0,-457.0,-1140.0,119.0,-278.0,633.0,-306.0,-6.0
19:31:10.470000,88.0,146.0,-490.0,-1095.0,113.0,-307.0,633.0,-306.0,-6.0
19:31:10.474000,88.0,146.0,-490.0,-1077.0,157.0,-312.0,633.0,-306.0,-6.0
19:31:10.480000,88.0,154.0,-521.0,-1048.0,207.0,-242.0,639.0,-300.0,4.0
19:31:10.484000,70.0,168.0,-562.0,-1006.0,210.0,-194.0,639.0,-300.0,4.0
19:31:10.489000,135.0,163.0,-570.0,-1036.0,136.0,-225.0,642.0,-289.0,7.0
19:31:10.494000,200.0,177.0,-586.0,-1125.0,132.0,-213.0,642.0,-289.0,7.0
19:31:10.498000,247.0,184.0,-656.0,-1182.0,178.0,-206.0,642.0,-289.0,7.0
19:31:10.503000,285.0,191.0,-700.0,-1190.0,209.0,-231.0,646.0,-301.0,1.0
19:31:10.508000,303.0,196.0,-711.0,-1173.0,251.0,-250.0,646.0,-301.0,1.0
19:31:10.513000,302.0,210.0,-693.0,-1134.0,278.0,-277.0,654.0,-288.0,10.0
19:31:10.517000,282.0,233.0,-683.0,-1082.0,306.0,-286.0,654.0,-288.0,10.0
19:31:10.521000,266.0,245.0,-678.0,-1018.0,338.0,-292.0,654.0,-288.0,10.0
19:31:10.527000,263.0,245.0,-656.0,-962.0,367.0,-298.0,630.0,-285.0,-3.0
19:31:10.531000,237.0,252.0,-651.0,-928.0,406.0,-287.0,630.0,-285.0,-3.0
19:31:10.536000,226.0,259.0,-683.0,-928.0,406.0,-287.0,643.0,-285.0,3.0
19:31:10.541000,230.0,263.0,-718.0,-891.0,439.0,-282.0,643.0,-285.0,3.0
19:31:10.545000,242.0,255.0,-717.0,-858.0,416.0,-285.0,643.0,-285.0,3.0
19:31:10.550000,277.0,244.0,-714.0,-880.0,375.0,-297.0,648.0,-267.0,12.0
19:31:10.554000,308.0,242.0,-760.0,-932.0,417.0,-297.0,648.0,-267.0,12.0
19:31:10.559000,326.0,242.0,-808.0,-932.0,417.0,-297.0,631.0,-277.0,22.0
19:31:10.564000,329.0,240.0,-793.0,-904.0,444.0,-292.0,631.0,-277.0,22.0
19:31:10.568000,333.0,237.0,-738.0,-898.0,435.0,-299.0,631.0,-277.0,22.0
19:31:10.574000,332.0,235.0,-707.0,-932.0,461.0,-298.0,646.0,-267.0,24.0
19:31:10.578000,311.0,243.0,-706.0,-966.0,519.0,-290.0,646.0,-267.0,24.0
19:31:10.583000,305.0,247.0,-689.0,-984.0,559.0,-287.0,642.0,-261.0,15.0
19:31:10.588000,282.0,247.0,-653.0,-1006.0,574.0,-288.0,642.0,-261.0,15.0
19:31:10.592000,282.0,249.0,-653.0,-1030.0,582.0,-288.0,642.0,-261.0,15.0
19:31:10.597000,247.0,261.0,-600.0,-1042.0,609.0,-286.0,655.0,-261.0,9.0
19:31:10.602000,217.0,272.0,-544.0,-1016.0,640.0,-284.0,655.0,-261.0,9.0
19:31:10.606000,212.0,272.0,-513.0,-925.0,609.0,-299.0,631.0,-256.0,30.0
19:31:10.611000,197.0,277.0,-480.0,-867.0,620.0,-285.0,631.0,-256.0,30.0
19:31:10.615000,174.0,286.0,-435.0,-891.0,692.0,-261.0,631.0,-256.0,30.0
19:31:10.621000,168.0,287.0,-407.0,-877.0,701.0,-263.0,640.0,-255.0,18.0
19:31:10.625000,164.0,294.0,-383.0,-799.0,603.0,-260.0,640.0,-255.0,18.0
19:31:10.630000,149.0,298.0,-287.0,-756.0,532.0,-291.0,651.0,-249.0,25.0
19:31:10.635000,171.0,298.0,-309.0,-793.0,611.0,-324.0,651.0,-249.0,25.0
19:31:10.639000,156.0,306.0,-471.0,-836.0,727.0,-335.0,651.0,-249.0,25.0
19:31:10.644000,131.0,310.0,-581.0,-875.0,796.0,-353.0,648.0,-246.0,22.0
19:31:10.649000,98.0,318.0,-542.0,-932.0,784.0,-351.0,648.0,-246.0,22.0
19:31:10.653000,75.0,319.0,-447.0,-932.0,784.0,-351.0,657.0,-237.0,22.0
19:31:10.658000,72.0,317.0,-365.0,-1013.0,742.0,-333.0,657.0,-237.0,22.0
19:31:10.662000,60.0,319.0,-280.0,-1044.0,662.0,-321.0,657.0,-237.0,22.0
19:31:10.668000,67.0,317.0,-192.0,-977.0,548.0,-316.0,648.0,-241.0,21.0
19:31:10.672000,104.0,305.0,-184.0,-905.0,516.0,-313.0,648.0,-241.0,21.0
19:31:10.677000,107.0,301.0,-177.0,-855.0,522.0,-302.0,643.0,-241.0,39.0
19:31:10.682000,157.0,275.0,-168.0,-804.0,498.0,-296.0,643.0,-241.0,39.0
19:31:10.686000,157.0,275.0,-168.0,-791.0,529.0,-302.0,643.0,-241.0,39.0
19:31:10.691000,224.0,232.0,-184.0,-798.0,569.0,-306.0,652.0,-232.0,42.0
19:31:10.696000,245.0,212.0,-186.0,-805.0,584.0,-308.0,652.0,-232.0,42.0
19:31:10.700000,245.0,212.0,-186.0,-814.0,622.0,-311.0,639.0,-238.0,39.0
19:31:10.705000,254.0,200.0,-207.0,-808.0,647.0,-316.0,639.0,-238.0,39.0
19:31:10.709000,243.0,198.0,-206.0,-798.0,665.0,-321.0,639.0,-238.0,39.0
19:31:10.715000,239.0,187.0,-200.0,-778.0,669.0,-324.0,655.0,-228.0,34.0
19:31:10.719000,225.0,178.0,-165.0,-752.0,652.0,-324.0,655.0,-228.0,34.0
19:31:10.724000,212.0,166.0,-130.0,-731.0,645.0,-323.0,657.0,-235.0,37.0
19:31:10.729000,198.0,159.0,-117.0,-697.0,615.0,-320.0,657.0,-235.0,37.0
19:31:10.733000,166.0,158.0,-75.0,-663.0,580.0,-323.0,657.0,-235.0,37.0
19:31:10.738000,160.0,151.0,-34.0,-647.0,589.0,-330.0,645.0,-225.0,43.0
19:31:10.743000,142.0,147.0,-13.0,-627.0,616.0,-333.0,645.0,-225.0,43.0
19:31:10.747000,117.0,144.0,12.0,-627.0,637.0,-340.0,654.0,-231.0,45.0
19:31:10.752000,88.0,140.0,39.0,-593.0,651.0,-345.0,654.0,-231.0,45.0
19:31:10.756000,54.0,133.0,57.0,-587.0,653.0,-349.0,654.0,-231.0,45.0
19:31:10.762000,18.0,127.0,68.0,-587.0,653.0,-349.0,658.0,-235.0,40.0
19:31:10.766000,-7.0,113.0,90.0,-588.0,642.0,-354.0,658.0,-235.0,40.0
19:31:10.771000,-32.0,93.0,116.0,-579.0,615.0,-351.0,652.0,-228.0,40.0
19:31:10.776000,-54.0,70.0,154.0,-547.0,574.0,-342.0,652.0,-228.0,40.0
19:31:10.783000,-71.0,41.0,201.0,-486.0,490.0,-323.0,660.0,-234.0,51.0
19:31:10.785000,-78.0,11.0,248.0,-486.0,490.0,-323.0,660.0,-234.0,51.0
19:31:10.789000,-81.0,-20.0,298.0,-462.0,443.0,-310.0,660.0,-234.0,51.0
19:31:10.794000,-75.0,-54.0,350.0,-439.0,388.0,-299.0,669.0,-241.0,40.0
19:31:10.799000,-59.0,-86.0,386.0,-421.0,332.0,-291.0,669.0,-241.0,40.0
19:31:10.804000,-39.0,-117.0,401.0,-414.0,283.0,-282.0,670.0,-241.0,45.0
19:31:10.809000,-39.0,-117.0,401.0,-420.0,248.0,-274.0,670.0,-241.0,45.0
19:31:10.813000,-19.0,-146.0,400.0,-430.0,224.0,-267.0,670.0,-241.0,45.0
19:31:10.818000,-1.0,-168.0,390.0,-446.0,215.0,-262.0,667.0,-240.0,37.0
19:31:10.823000,17.0,-186.0,364.0,-464.0,217.0,-256.0,667.0,-240.0,37.0
19:31:10.827000,31.0,-198.0,322.0,-479.0,218.0,-249.0,663.0,-241.0,36.0
19:31:10.832000,41.0,-207.0,284.0,-492.0,219.0,-245.0,663.0,-241.0,36.0
19:31:10.836000,55.0,-215.0,242.0,-499.0,220.0,-240.0,663.0,-241.0,36.0
19:31:10.841000,67.0,-220.0,200.0,-499.0,222.0,-233.0,669.0,-253.0,40.0
19:31:10.846000,80.0,-226.0,168.0,-498.0,233.0,-226.0,669.0,-253.0,40.0
19:31:10.851000,92.0,-229.0,146.0,-503.0,256.0,-221.0,663.0,-247.0,34.0
19:31:10.856000,101.0,-232.0,132.0,-518.0,286.0,-215.0,663.0,-247.0,34.0
19:31:10.860000,106.0,-232.0,124.0,-536.0,314.0,-209.0,663.0,-247.0,34.0
19:31:10.865000,105.0,-230.0,130.0,-551.0,335.0,-202.0,658.0,-249.0,28.0
19:31:10.870000,98.0,-225.0,153.0,-551.0,335.0,-202.0,658.0,-249.0,28.0
19:31:10.874000,86.0,-218.0,189.0,-564.0,349.0,-189.0,664.0,-246.0,37.0
19:31:10.879000,70.0,-209.0,232.0,-564.0,349.0,-189.0,664.0,-246.0,37.0
19:31:10.883000,51.0,-199.0,279.0,-564.0,350.0,-183.0,664.0,-246.0,37.0
19:31:10.888000,31.0,-188.0,324.0,-562.0,349.0,-177.0,667.0,-253.0,30.0
19:31:10.893000,12.0,-175.0,366.0,-562.0,341.0,-170.0,667.0,-253.0,30.0
19:31:10.898000,-4.0,-160.0,398.0,-562.0,325.0,-161.0,669.0,-252.0,27.0
19:31:10.903000,-16.0,-145.0,419.0,-556.0,297.0,-153.0,669.0,-252.0,27.0
19:31:10.907000,-16.0,-145.0,419.0,-545.0,260.0,-145.0,669.0,-252.0,27.0
19:31:10.912000,-24.0,-116.0,429.0,-536.0,222.0,-138.0,669.0,-249.0,31.0
19:31:10.917000,-24.0,-116.0,429.0,-530.0,187.0,-134.0,669.0,-249.0,31.0
19:31:10.921000,-20.0,-103.0,422.0,-530.0,160.0,-132.0,667.0,-259.0,22.0
19:31:10.926000,-14.0,-90.0,401.0,-531.0,142.0,-128.0,667.0,-259.0,22.0
19:31:10.930000,-4.0,-79.0,374.0,-524.0,123.0,-123.0,667.0,-259.0,22.0
19:31:10.935000,8.0,-71.0,344.0,-512.0,103.0,-120.0,663.0,-256.0,25.0
19:31:10.940000,23.0,-67.0,312.0,-497.0,86.0,-119.0,663.0,-256.0,25.0
19:31:10.945000,44.0,-67.0,278.0,-483.0,80.0,-118.0,672.0,-273.0,33.0
19:31:10.950000,67.0,-70.0,242.0,-477.0,91.0,-118.0,672.0,-273.0,33.0
19:31:10.954000,87.0,-77.0,213.0,-477.0,115.0,-119.0,672.0,-273.0,33.0
19:31:10.959000,101.0,-84.0,200.0,-485.0,144.0,-120.0,670.0,-265.0,34.0
19:31:10.964000,107.0,-91.0,200.0,-500.0,175.0,-121.0,670.0,-265.0,34.0
19:31:10.968000,106.0,-95.0,213.0,-518.0,200.0,-121.0,669.0,-276.0,24.0
19:31:10.973000,98.0,-100.0,234.0,-533.0,214.0,-121.0,669.0,-276.0,24.0
19:31:10.977000,85.0,-102.0,262.0,-543.0,222.0,-121.0,669.0,-276.0,24.0
19:31:10.982000,70.0,-105.0,295.0,-543.0,222.0,-121.0,672.0,-267.0,40.0
19:31:10.987000,55.0,-109.0,331.0,-552.0,222.0,-121.0,672.0,-267.0,40.0
19:31:10.992000,39.0,-109.0,369.0,-561.0,220.0,-120.0,667.0,-277.0,28.0
19:31:10.997000,25.0,-111.0,406.0,-571.0,211.0,-117.0,667.0,-277.0,28.0
19:31:11.001000,18.0,-113.0,443.0,-575.0,187.0,-118.0,667.0,-277.0,28.0
19:31:11.006000,14.0,-116.0,470.0,-578.0,159.0,-124.0,664.0,-279.0,18.0
19:31:11.011000,13.0,-119.0,485.0,-584.0,142.0,-130.0,664.0,-279.0,18.0
19:31:11.015000,13.0,-119.0,485.0,-585.0,130.0,-132.0,682.0,-279.0,27.0
19:31:11.020000,13.0,-126.0,511.0,-573.0,111.0,-131.0,682.0,-279.0,27.0
19:31:11.024000,13.0,-126.0,511.0,-549.0,83.0,-131.0,682.0,-279.0,27.0
19:31:11.029000,18.0,-134.0,523.0,-526.0,56.0,-133.0,673.0,-279.0,21.0
19:31:11.034000,28.0,-143.0,525.0,-512.0,50.0,-137.0,673.0,-279.0,21.0
19:31:11.039000,37.0,-151.0,513.0,-509.0,67.0,-141.0,676.0,-282.0,9.0
19:31:11.044000,42.0,-158.0,492.0,-515.0,97.0,-145.0,676.0,-282.0,9.0
19:31:11.048000,39.0,-165.0,466.0,-528.0,134.0,-150.0,676.0,-282.0,9.0
19:31:11.053000,28.0,-168.0,439.0,-538.0,162.0,-153.0,660.0,-285.0,9.0
19:31:11.058000,14.0,-172.0,423.0,-536.0,165.0,-158.0,660.0,-285.0,9.0
19:31:11.062000,3.0,-182.0,417.0,-530.0,161.0,-162.0,675.0,-292.0,22.0
19:31:11.067000,-7.0,-193.0,408.0,-524.0,169.0,-162.0,675.0,-292.0,22.0
19:31:11.071000,-21.0,-206.0,402.0,-523.0,186.0,-160.0,675.0,-292.0,22.0
19:31:11.076000,-42.0,-216.0,405.0,-531.0,201.0,-154.0,670.0,-304.0,12.0
19:31:11.081000,-70.0,-223.0,409.0,-544.0,207.0,-149.0,670.0,-304.0,12.0
19:31:11.086000,-98.0,-228.0,411.0,-544.0,207.0,-149.0,666.0,-306.0,12.0
19:31:11.091000,-123.0,-232.0,408.0,-559.0,196.0,-146.0,666.0,-306.0,12.0
19:31:11.095000,-140.0,-234.0,396.0,-574.0,171.0,-144.0,666.0,-306.0,12.0
19:31:11.100000,-146.0,-236.0,378.0,-588.0,140.0,-141.0,673.0,-307.0,7.0
19:31:11.104000,-143.0,-236.0,357.0,-601.0,74.0,-145.0,673.0,-307.0,7.0
19:31:11.109000,-130.0,-235.0,338.0,-601.0,74.0,-145.0,675.0,-315.0,13.0
19:31:11.114000,-110.0,-233.0,319.0,-611.0,52.0,-152.0,675.0,-315.0,13.0
19:31:11.119000,-89.0,-227.0,303.0,-621.0,44.0,-159.0,669.0,-310.0,4.0
19:31:11.123000,-73.0,-217.0,294.0,-628.0,56.0,-165.0,669.0,-310.0,4.0
19:31:11.128000,-73.0,-217.0,294.0,-629.0,82.0,-168.0,669.0,-310.0,4.0
19:31:11.133000,-57.0,-189.0,302.0,-618.0,106.0,-167.0,661.0,-309.0,7.0
19:31:11.138000,-57.0,-189.0,302.0,-600.0,119.0,-167.0,661.0,-309.0,7.0
19:31:11.142000,-51.0,-174.0,319.0,-588.0,121.0,-165.0,667.0,-316.0,6.0
19:31:11.147000,-44.0,-161.0,334.0,-583.0,116.0,-162.0,667.0,-316.0,6.0
19:31:11.151000,-37.0,-149.0,342.0,-578.0,107.0,-159.0,667.0,-316.0,6.0
19:31:11.156000,-28.0,-142.0,345.0,-575.0,107.0,-157.0,667.0,-318.0,18.0
19:31:11.161000,-20.0,-139.0,340.0,-578.0,128.0,-155.0,667.0,-318.0,18.0
19:31:11.166000,-18.0,-139.0,326.0,-588.0,167.0,-153.0,658.0,-316.0,-7.0
19:31:11.170000,-27.0,-137.0,310.0,-599.0,208.0,-151.0,658.0,-316.0,-7.0
19:31:11.175000,-45.0,-132.0,298.0,-609.0,235.0,-150.0,658.0,-316.0,-7.0
19:31:11.180000,-71.0,-126.0,295.0,-616.0,241.0,-149.0,672.0,-316.0,-3.0
19:31:11.185000,-98.0,-117.0,296.0,-620.0,224.0,-150.0,672.0,-316.0,-3.0
19:31:11.189000,-119.0,-108.0,296.0,-620.0,224.0,-150.0,667.0,-328.0,-6.0
19:31:11.194000,-130.0,-98.0,296.0,-636.0,167.0,-173.0,667.0,-328.0,-6.0
19:31:11.198000,-133.0,-90.0,291.0,-658.0,153.0,-187.0,657.0,-327.0,-6.0
19:31:11.203000,-128.0,-81.0,284.0,-658.0,153.0,-187.0,657.0,-327.0,-6.0
19:31:11.207000,-120.0,-74.0,280.0,-681.0,144.0,-197.0,657.0,-327.0,-6.0
19:31:11.213000,-109.0,-65.0,279.0,-699.0,133.0,-200.0,651.0,-340.0,1.0
19:31:11.217000,-95.0,-60.0,275.0,-710.0,121.0,-199.0,651.0,-340.0,1.0
19:31:11.222000,-81.0,-56.0,268.0,-716.0,116.0,-200.0,672.0,-342.0,3.0
19:31:11.227000,-75.0,-49.0,253.0,-721.0,131.0,-199.0,672.0,-342.0,3.0
19:31:11.231000,-72.0,-43.0,238.0,-729.0,161.0,-202.0,672.0,-342.0,3.0
19:31:11.236000,-81.0,-36.0,221.0,-745.0,196.0,-205.0,673.0,-331.0,-4.0
19:31:11.241000,-95.0,-32.0,201.0,-763.0,227.0,-206.0,673.0,-331.0,-4.0
19:31:11.245000,-95.0,-32.0,201.0,-776.0,243.0,-211.0,664.0,-331.0,-9.0
19:31:11.250000,-110.0,-30.0,185.0,-787.0,251.0,-215.0,664.0,-331.0,-9.0
19:31:11.254000,-126.0,-30.0,170.0,-797.0,258.0,-221.0,664.0,-331.0,-9.0
19:31:11.260000,-142.0,-34.0,158.0,-809.0,266.0,-230.0,664.0,-337.0,-15.0
19:31:11.264000,-158.0,-42.0,152.0,-826.0,286.0,-241.0,664.0,-337.0,-15.0
19:31:11.269000,-177.0,-50.0,147.0,-846.0,318.0,-250.0,660.0,-337.0,0.0
19:31:11.274000,-202.0,-60.0,146.0,-858.0,350.0,-251.0,660.0,-337.0,0.0
19:31:11.278000,-234.0,-68.0,154.0,-849.0,357.0,-245.0,660.0,-337.0,0.0
19:31:11.283000,-266.0,-81.0,179.0,-820.0,336.0,-233.0,658.0,-339.0,-9.0
19:31:11.287000,-289.0,-98.0,211.0,-787.0,309.0,-218.0,658.0,-339.0,-9.0
19:31:11.293000,-303.0,-120.0,231.0,-758.0,292.0,-202.0,652.0,-345.0,-10.0
19:31:11.297000,-308.0,-151.0,238.0,-729.0,283.0,-189.0,652.0,-345.0,-10.0
19:31:11.301000,-301.0,-184.0,238.0,-707.0,279.0,-175.0,652.0,-345.0,-10.0
19:31:11.307000,-289.0,-215.0,233.0,-699.0,285.0,-166.0,651.0,-348.0,-9.0
19:31:11.311000,-270.0,-247.0,225.0,-699.0,285.0,-166.0,651.0,-348.0,-9.0
19:31:11.316000,-249.0,-274.0,206.0,-712.0,313.0,-169.0,655.0,-339.0,-9.0
19:31:11.321000,-234.0,-291.0,168.0,-750.0,382.0,-180.0,655.0,-339.0,-9.0
19:31:11.325000,-221.0,-296.0,121.0,-799.0,481.0,-205.0,655.0,-339.0,-9.0
19:31:11.330000,-212.0,-288.0,72.0,-851.0,589.0,-241.0,651.0,-342.0,-15.0
19:31:11.335000,-207.0,-273.0,25.0,-906.0,696.0,-277.0,651.0,-342.0,-15.0
