hh:mm:ss.ms,gyroX[mdps],gyroY[mdps],gyroZ[mdps],accX[mg],accY[mg],accZ[mg],magX[mG],magY[mG],magZ[mG]
19:31:10.010000,-143.0,-44.0,211.0,-886.0,-49.0,-195.0,655.0,-346.0,-9.0
19:31:10.014000,-121.0,-61.0,174.0,-874.0,-9.0,-200.0,655.0,-346.0,-9.0
19:31:10.018000,-109.0,-72.0,137.0,-880.0,7.0,-195.0,655.0,-346.0,-9.0
19:31:10.024000,-81.0,-93.0,132.0,-897.0,-10.0,-190.0,645.0,-348.0,-16.0
19:31:10.028000,-72.0,-109.0,169.0,-893.0,-34.0,-180.0,645.0,-348.0,-16.0
19:31:10.033000,-49.0,-123.0,177.0,-911.0,0.0,-179.0,651.0,-351.0,-12.0
19:31:10.038000,-50.0,-128.0,162.0,-945.0,61.0,-184.0,651.0,-351.0,-12.0
19:31:10.042000,-50.0,-128.0,162.0,-982.0,83.0,-183.0,651.0,-351.0,-12.0
19:31:10.047000,-58.0,-124.0,149.0,-1032.0,95.0,-196.0,643.0,-349.0,-9.0
19:31:10.052000,-60.0,-113.0,118.0,-1098.0,133.0,-219.0,643.0,-349.0,-9.0
19:31:10.057000,-47.0,-109.0,79.0,-1154.0,179.0,-244.0,639.0,-349.0,-3.0
19:31:10.061000,-39.0,-100.0,49.0,-1212.0,242.0,-261.0,639.0,-349.0,-3.0
19:31:10.065000,-48.0,-88.0,7.0,-1267.0,299.0,-263.0,639.0,-349.0,-3.0
19:31:10.071000,-60.0,-67.0,-46.0,-1286.0,293.0,-263.0,642.0,-345.0,-7.0
19:31:10.075000,-65.0,-46.0,-75.0,-1280.0,244.0,-257.0,642.0,-345.0,-7.0
19:31:10.080000,-65.0,-33.0,-61.0,-1262.0,203.0,-250.0,651.0,-354.0,-7.0
19:31:10.085000,-54.0,-22.0,-15.0,-1256.0,162.0,-248.0,651.0,-354.0,-7.0
19:31:10.089000,-49.0,-9.0,51.0,-1274.0,113.0,-235.0,651.0,-354.0,-7.0
19:31:10.094000,-41.0,0.0,111.0,-1302.0,82.0,-225.0,643.0,-352.0,-15.0
19:31:10.099000,-34.0,16.0,141.0,-1341.0,61.0,-223.0,643.0,-352.0,-15.0
19:31:10.104000,-45.0,40.0,130.0,-1341.0,61.0,-223.0,627.0,-358.0,7.0
19:31:10.108000,-37.0,59.0,97.0,-1380.0,26.0,-219.0,627.0,-358.0,7.0
19:31:10.112000,-14.0,67.0,74.0,-1391.0,-33.0,-222.0,627.0,-358.0,7.0
19:31:10.118000,25.0,56.0,88.0,-1343.0,-78.0,-227.0,642.0,-349.0,-13.0
19:31:10.122000,44.0,56.0,71.0,-1272.0,-65.0,-222.0,642.0,-349.0,-13.0
19:31:10.127000,49.0,67.0,11.0,-1266.0,-4.0,-226.0,643.0,-351.0,-9.0
19:31:10.132000,47.0,84.0,-44.0,-1293.0,30.0,-237.0,643.0,-351.0,-9.0
19:31:10.136000,47.0,84.0,-44.0,-1312.0,13.0,-239.0,643.0,-351.0,-9.0
19:31:10.141000,48.0,95.0,-231.0,-1320.0,13.0,-246.0,639.0,-360.0,-13.0
19:31:10.146000,21.0,98.0,-327.0,-1296.0,49.0,-248.0,639.0,-360.0,-13.0
19:31:10.151000,21.0,98.0,-327.0,-1243.0,86.0,-256.0,643.0,-354.0,-15.0
19:31:10.155000,2.0,87.0,-298.0,-1184.0,97.0,-276.0,643.0,-354.0,-15.0
19:31:10.159000,-15.0,86.0,-216.0,-1150.0,121.0,-289.0,643.0,-354.0,-15.0
19:31:10.165000,-44.0,85.0,-200.0,-1127.0,152.0,-289.0,634.0,-352.0,-9.0
19:31:10.169000,-107.0,81.0,-191.0,-1073.0,135.0,-294.0,634.0,-352.0,-9.0
19:31:10.174000,-62.0,18.0,-151.0,-1087.0,195.0,-313.0,639.0,-352.0,-16.0
19:31:10.179000,-48.0,-4.0,-178.0,-1181.0,251.0,-313.0,639.0,-352.0,-16.0
19:31:10.183000,-97.0,-2.0,-178.0,-1214.0,197.0,-338.0,639.0,-352.0,-16.0
19:31:10.188000,-32.0,-17.0,-164.0,-1232.0,124.0,-287.0,634.0,-342.0,-1.0
19:31:10.193000,-82.0,-28.0,-145.0,-1212.0,83.0,-319.0,634.0,-342.0,-1.0
19:31:10.198000,-67.0,-37.0,-79.0,-1157.0,108.0,-379.0,643.0,-334.0,-10.0
19:31:10.202000,-72.0,-42.0,-84.0,-1065.0,131.0,-312.0,643.0,-334.0,-10.0
19:31:10.206000,-91.0,-46.0,-71.0,-989.0,100.0,-314.0,643.0,-334.0,-10.0
19:31:10.212000,-53.0,-67.0,-69.0,-989.0,7.0,-314.0,643.0,-346.0,-19.0
19:31:10.216000,48.0,-91.0,-74.0,-984.0,7.0,-315.0,643.0,-346.0,-19.0
19:31:10.221000,44.0,-95.0,-121.0,-1019.0,-28.0,-303.0,643.0,-352.0,-10.0
19:31:10.226000,66.0,-86.0,-172.0,-1119.0,81.0,-299.0,643.0,-352.0,-10.0
19:31:10.233000,90.0,-85.0,-177.0,-1115.0,181.0,-287.0,642.0,-342.0,-6.0
19:31:10.235000,119.0,-87.0,-147.0,-1115.0,181.0,-287.0,642.0,-342.0,-6.0
19:31:10.239000,90.0,-62.0,-153.0,-1158.0,237.0,-277.0,642.0,-342.0,-6.0
19:31:10.245000,19.0,-18.0,-163.0,-1173.0,245.0,-261.0,642.0,-351.0,-19.0
19:31:10.249000,20.0,14.0,-152.0,-1173.0,199.0,-286.0,642.0,-351.0,-19.0
19:31:10.254000,15.0,26.0,-129.0,-1216.0,188.0,-299.0,628.0,-342.0,-6.0
19:31:10.259000,11.0,42.0,-118.0,-1299.0,186.0,-291.0,628.0,-342.0,-6.0
19:31:10.263000,11.0,42.0,-118.0,-1313.0,205.0,-300.0,628.0,-342.0,-6.0
19:31:10.268000,23.0,61.0,-140.0,-1246.0,198.0,-296.0,645.0,-340.0,-10.0
19:31:10.273000,-11.0,82.0,-137.0,-1159.0,106.0,-293.0,645.0,-340.0,-10.0
19:31:10.277000,2.0,93.0,-66.0,-1115.0,78.0,-293.0,630.0,-339.0,4.0
19:31:10.282000,27.0,86.0,-43.0,-1113.0,103.0,-287.0,630.0,-339.0,4.0
19:31:10.286000,13.0,95.0,-64.0,-1089.0,107.0,-292.0,630.0,-339.0,4.0
19:31:10.292000,20.0,102.0,-120.0,-1063.0,144.0,-293.0,648.0,-349.0,-21.0
19:31:10.296000,39.0,98.0,-148.0,-1075.0,154.0,-289.0,648.0,-349.0,-21.0
19:31:10.301000,32.0,100.0,-205.0,-1121.0,141.0,-294.0,637.0,-331.0,-6.0
19:31:10.306000,47.0,92.0,-266.0,-1148.0,122.0,-299.0,637.0,-331.0,-6.0
19:31:10.310000,41.0,93.0,-254.0,-1167.0,98.0,-298.0,637.0,-331.0,-6.0
19:31:10.315000,53.0,97.0,-226.0,-1188.0,111.0,-296.0,642.0,-334.0,-15.0
19:31:10.320000,56.0,97.0,-214.0,-1171.0,145.0,-293.0,642.0,-334.0,-15.0
19:31:10.324000,74.0,93.0,-243.0,-1137.0,164.0,-290.0,636.0,-337.0,-7.0
19:31:10.329000,81.0,92.0,-277.0,-1137.0,164.0,-290.0,636.0,-337.0,-7.0
19:31:10.333000,101.0,86.0,-268.0,-1109.0,152.0,-288.0,636.0,-337.0,-7.0
19:31:10.339000,111.0,77.0,-244.0,-1099.0,142.0,-288.0,640.0,-330.0,3.0
19:31:10.343000,101.0,84.0,-235.0,-1128.0,149.0,-292.0,640.0,-330.0,3.0
19:31:10.348000,101.0,88.0,-252.0,-1168.0,169.0,-307.0,642.0,-333.0,-7.0
19:31:10.353000,84.0,91.0,-303.0,-1177.0,181.0,-320.0,642.0,-333.0,-7.0
19:31:10.357000,84.0,91.0,-303.0,-1140.0,178.0,-329.0,642.0,-333.0,-7.0
19:31:10.362000,79.0,80.0,-348.0,-1077.0,200.0,-342.0,646.0,-336.0,-3.0
19:31:10.367000,56.0,76.0,-336.0,-1028.0,230.0,-344.0,646.0,-336.0,-3.0
19:31:10.372000,56.0,76.0,-336.0,-1007.0,248.0,-339.0,637.0,-336.0,7.0
19:31:10.376000,37.0,70.0,-334.0,-1005.0,273.0,-314.0,637.0,-336.0,7.0
19:31:10.380000,1.0,64.0,-338.0,-981.0,285.0,-211.0,637.0,-336.0,7.0
19:31:10.386000,-12.0,43.0,-343.0,-967.0,254.0,-147.0,643.0,-339.0,0.0
19:31:10.390000,35.0,11.0,-354.0,-1047.0,218.0,-214.0,643.0,-339.0,0.0
19:31:10.395000,72.0,-4.0,-402.0,-1183.0,219.0,-262.0,645.0,-325.0,-6.0
19:31:10.400000,82.0,-7.0,-469.0,-1278.0,233.0,-279.0,645.0,-325.0,-6.0
19:31:10.404000,95.0,-7.0,-480.0,-1279.0,279.0,-284.0,645.0,-325.0,-6.0
19:31:10.409000,43.0,2.0,-436.0,-1198.0,341.0,-270.0,648.0,-312.0,-4.0
19:31:10.414000,-13.0,21.0,-381.0,-1110.0,378.0,-253.0,648.0,-312.0,-4.0
19:31:10.419000,-58.0,33.0,-336.0,-1110.0,378.0,-253.0,627.0,-319.0,9.0
19:31:10.423000,-87.0,39.0,-321.0,-970.0,317.0,-232.0,627.0,-319.0,9.0
19:31:10.427000,-107.0,43.0,-312.0,-986.0,236.0,-212.0,627.0,-319.0,9.0
19:31:10.433000,-102.0,46.0,-305.0,-986.0,236.0,-212.0,646.0,-321.0,-6.0
19:31:10.437000,-60.0,50.0,-358.0,-1080.0,200.0,-201.0,646.0,-321.0,-6.0
19:31:10.442000,-25.0,68.0,-430.0,-1178.0,142.0,-229.0,642.0,-318.0,-6.0
19:31:10.447000,-7.0,89.0,-474.0,-1227.0,102.0,-223.0,642.0,-318.0,-6.0
19:31:10.451000,9.0,98.0,-466.0,-1236.0,125.0,-203.0,642.0,-318.0,-6.0
19:31:10.456000,21.0,111.0,-450.0,-1228.0,154.0,-224.0,643.0,-304.0,4.0
19:31:10.461000,39.0,125.0,-443.0,-1190.0,155.0,-249.0,643.0,-304.0,4.0
19:31:10.466000,60.0,140.0,-457.0,-1140.0,119.0,-278.0,633.0,-306.0,-6.0
19:31:10.470000,88.0,146.0,-490.0,-1095.0,113.0,-307.0,633.0,-306.0,-6.0
19:31:10.474000,88.0,146.0,-490.0,-1077.0,157.0,-312.0,633.0,-306.0,-6.0
19:31:10.480000,88.0,154.0,-521.0,-1048.0,207.0,-242.0,639.0,-300.0,4.0
19:31:10.484000,70.0,168.0,-562.0,-1006.0,210.0,-194.0,639.0,-300.0,4.0
19:31:10.489000,135.0,163.0,-570.0,-1036.0,136.0,-225.0,642.0,-289.0,7.0
19:31:10.494000,200.0,177.0,-586.0,-1125.0,132.0,-213.0,642.0,-289.0,7.0
19:31:10.498000,247.0,184.0,-656.0,-1182.0,178.0,-206.0,642.0,-289.0,7.0
19:31:10.503000,285.0,191.0,-700.0,-1190.0,209.0,-231.0,646.0,-301.0,1.0
19:31:10.508000,303.0,196.0,-711.0,-1173.0,251.0,-250.0,646.0,-301.0,1.0
19:31:10.513000,302.0,210.0,-693.0,-1134.0,278.0,-277.0,654.0,-288.0,10.0
19:31:10.517000,282.0,233.0,-683.0,-1082.0,306.0,-286.0,654.0,-288.0,10.0
19:31:10.521000,266.0,245.0,-678.0,-1018.0,338.0,-292.0,654.0,-288.0,10.0
19:31:10.527000,263.0,245.0,-656.0,-962.0,367.0,-298.0,630.0,-285.0,-3.0
19:31:10.531000,237.0,252.0,-651.0,-928.0,406.0,-287.0,630.0,-285.0,-3.0
19:31:10.536000,226.0,259.0,-683.0,-928.0,406.0,-287.0,643.0,-285.0,3.0
19:31:10.541000,230.0,263.0,-718.0,-891.0,439.0,-282.0,643.0,-285.0,3.0
19:31:10.545000,242.0,255.0,-717.0,-858.0,416.0,-285.0,643.0,-285.0,3.0
19:31:10.550000,277.0,244.0,-714.0,-880.0,375.0,-297.0,648.0,-267.0,12.0
19:31:10.554000,308.0,242.0,-760.0,-932.0,417.0,-297.0,648.0,-267.0,12.0
19:31:10.559000,326.0,242.0,-808.0,-932.0,417.0,-297.0,631.0,-277.0,22.0
19:31:10.564000,329.0,240.0,-793.0,-904.0,444.0,-292.0,631.0,-277.0,22.0
19:31:10.568000,333.0,237.0,-738.0,-898.0,435.0,-299.0,631.0,-277.0,22.0
19:31:10.574000,332.0,235.0,-707.0,-932.0,461.0,-298.0,646.0,-267.0,24.0
19:31:10.578000,311.0,243.0,-706.0,-966.0,519.0,-290.0,646.0,-267.0,24.0
19:31:10.583000,305.0,247.0,-689.0,-984.0,559.0,-287.0,642.0,-261.0,15.0
19:31:10.588000,282.0,247.0,-653.0,-1006.0,574.0,-288.0,642.0,-261.0,15.0
19:31:10.592000,282.0,249.0,-653.0,-1030.0,582.0,-288.0,642.0,-261.0,15.0
19:31:10.597000,247.0,261.0,-600.0,-1042.0,609.0,-286.0,655.0,-261.0,9.0
19:31:10.602000,217.0,272.0,-544.0,-1016.0,640.0,-284.0,655.0,-261.0,9.0
19:31:10.606000,212.0,272.0,-513.0,-925.0,609.0,-299.0,631.0,-256.0,30.0
19:31:10.611000,197.0,277.0,-480.0,-867.0,620.0,-285.0,631.0,-256.0,30.0
19:31:10.615000,174.0,286.0,-435.0,-891.0,692.0,-261.0,631.0,-256.0,30.0
19:31:10.621000,168.0,287.0,-407.0,-877.0,701.0,-263.0,640.0,-255.0,18.0
19:31:10.625000,164.0,294.0,-383.0,-799.0,603.0,-260.0,640.0,-255.0,18.0
19:31:10.630000,149.0,298.0,-287.0,-756.0,532.0,-291.0,651.0,-249.0,25.0
19:31:10.635000,171.0,298.0,-309.0,-793.0,611.0,-324.0,651.0,-249.0,25.0
19:31:10.639000,156.0,306.0,-471.0,-836.0,727.0,-335.0,651.0,-249.0,25.0
19:31:10.644000,131.0,310.0,-581.0,-875.0,796.0,-353.0,648.0,-246.0,22.0
19:31:10.649000,98.0,318.0,-542.0,-932.0,784.0,-351.0,648.0,-246.0,22.0
19:31:10.653000,75.0,319.0,-447.0,-932.0,784.0,-351.0,657.0,-237.0,22.0
19:31:10.658000,72.0,317.0,-365.0,-1013.0,742.0,-333.0,657.0,-237.0,22.0
19:31:10.662000,60.0,319.0,-280.0,-1044.0,662.0,-321.0,657.0,-237.0,22.0
19:31:10.668000,67.0,317.0,-192.0,-977.0,548.0,-316.0,648.0,-241.0,21.0
19:31:10.672000,104.0,305.0,-184.0,-905.0,516.0,-313.0,648.0,-241.0,21.0
19:31:10.677000,107.0,301.0,-177.0,-855.0,522.0,-302.0,643.0,-241.0,39.0
19:31:10.682000,157.0,275.0,-168.0,-804.0,498.0,-296.0,643.0,-241.0,39.0
19:31:10.686000,157.0,275.0,-168.0,-791.0,529.0,-302.0,643.0,-241.0,39.0
19:31:10.691000,224.0,232.0,-184.0,-798.0,569.0,-306.0,652.0,-232.0,42.0
19:31:10.696000,245.0,212.0,-186.0,-805.0,584.0,-308.0,652.0,-232.0,42.0
19:31:10.700000,245.0,212.0,-186.0,-814.0,622.0,-311.0,639.0,-238.0,39.0
19:31:10.705000,254.0,200.0,-207.0,-808.0,647.0,-316.0,639.0,-238.0,39.0
19:31:10.709000,243.0,198.0,-206.0,-798.0,665.0,-321.0,639.0,-238.0,39.0
19:31:10.715000,239.0,187.0,-200.0,-778.0,669.0,-324.0,655.0,-228.0,34.0
19:31:10.719000,225.0,178.0,-165.0,-752.0,652.0,-324.0,655.0,-228.0,34.0
19:31:10.724000,212.0,166.0,-130.0,-731.0,645.0,-323.0,657.0,-235.0,37.0
19:31:10.729000,198.0,159.0,-117.0,-697.0,615.0,-320.0,657.0,-235.0,37.0
19:31:10.733000,166.0,158.0,-75.0,-663.0,580.0,-323.0,657.0,-235.0,37.0
19:31:10.738000,160.0,151.0,-34.0,-647.0,589.0,-330.0,645.0,-225.0,43.0
19:31:10.743000,142.0,147.0,-13.0,-627.0,616.0,-333.0,645.0,-225.0,43.0
19:31:10.747000,117.0,144.0,12.0,-627.0,637.0,-340.0,654.0,-231.0,45.0
19:31:10.752000,88.0,140.0,39.0,-593.0,651.0,-345.0,654.0,-231.0,45.0
19:31:10.756000,54.0,133.0,57.0,-587.0,653.0,-349.0,654.0,-231.0,45.0
19:31:10.762000,18.0,127.0,68.0,-587.0,653.0,-349.0,658.0,-235.0,40.0
19:31:10.766000,-7.0,113.0,90.0,-588.0,642.0,-354.0,658.0,-235.0,40.0
19:31:10.771000,-32.0,93.0,116.0,-579.0,615.0,-351.0,652.0,-228.0,40.0
19:31:10.776000,-54.0,70.0,154.0,-547.0,574.0,-342.0,652.0,-228.0,40.0
19:31:10.783000,-71.0,41.0,201.0,-486.0,490.0,-323.0,660.0,-234.0,51.0
19:31:10.785000,-78.0,11.0,248.0,-486.0,490.0,-323.0,660.0,-234.0,51.0
19:31:10.789000,-81.0,-20.0,298.0,-462.0,443.0,-310.0,660.0,-234.0,51.0
19:31:10.794000,-75.0,-54.0,350.0,-439.0,388.0,-299.0,669.0,-241.0,40.0
19:31:10.799000,-59.0,-86.0,386.0,-421.0,332.0,-291.0,669.0,-241.0,40.0
19:31:10.804000,-39.0,-117.0,401.0,-414.0,283.0,-282.0,670.0,-241.0,45.0
19:31:10.809000,-39.0,-117.0,401.0,-420.0,248.0,-274.0,670.0,-241.0,45.0
19:31:10.813000,-19.0,-146.0,400.0,-430.0,224.0,-267.0,670.0,-241.0,45.0
19:31:10.818000,-1.0,-168.0,390.0,-446.0,215.0,-262.0,667.0,-240.0,37.0
19:31:10.823000,17.0,-186.0,364.0,-464.0,217.0,-256.0,667.0,-240.0,37.0
19:31:10.827000,31.0,-198.0,322.0,-479.0,218.0,-249.0,663.0,-241.0,36.0
19:31:10.832000,41.0,-207.0,284.0,-492.0,219.0,-245.0,663.0,-241.0,36.0
19:31:10.836000,55.0,-215.0,242.0,-499.0,220.0,-240.0,663.0,-241.0,36.0
19:31:10.841000,67.0,-220.0,200.0,-499.0,222.0,-233.0,669.0,-253.0,40.0
19:31:10.846000,80.0,-226.0,168.0,-498.0,233.0,-226.0,669.0,-253.0,40.0
19:31:10.851000,92.0,-229.0,146.0,-503.0,256.0,-221.0,663.0,-247.0,34.0
19:31:10.856000,101.0,-232.0,132.0,-518.0,286.0,-215.0,663.0,-247.0,34.0
19:31:10.860000,106.0,-232.0,124.0,-536.0,314.0,-209.0,663.0,-247.0,34.0
19:31:10.865000,105.0,-230.0,130.0,-551.0,335.0,-202.0,658.0,-249.0,28.0
19:31:10.870000,98.0,-225.0,153.0,-551.0,335.0,-202.0,658.0,-249.0,28.0
19:31:10.874000,86.0,-218.0,189.0,-564.0,349.0,-189.0,664.0,-246.0,37.0
19:31:10.879000,70.0,-209.0,232.0,-564.0,349.0,-189.0,664.0,-246.0,37.0
19:31:10.883000,51.0,-199.0,279.0,-564.0,350.0,-183.0,664.0,-246.0,37.0
19:31:10.888000,31.0,-188.0,324.0,-562.0,349.0,-177.0,667.0,-253.0,30.0
19:31:10.893000,12.0,-175.0,366.0,-562.0,341.0,-170.0,667.0,-253.0,30.0
19:31:10.898000,-4.0,-160.0,398.0,-562.0,325.0,-161.0,669.0,-252.0,27.0
19:31:10.903000,-16.0,-145.0,419.0,-556.0,297.0,-153.0,669.0,-252.0,27.0
19:31:10.907000,-16.0,-145.0,419.0,-545.0,260.0,-145.0,669.0,-252.0,27.0
19:31:10.912000,-24.0,-116.0,429.0,-536.0,222.0,-138.0,669.0,-249.0,31.0
19:31:10.917000,-24.0,-116.0,429.0,-530.0,187.0,-134.0,669.0,-249.0,31.0
19:31:10.921000,-20.0,-103.0,422.0,-530.0,160.0,-132.0,667.0,-259.0,22.0
19:31:10.926000,-14.0,-90.0,401.0,-531.0,142.0,-128.0,667.0,-259.0,22.0
19:31:10.930000,-4.0,-79.0,374.0,-524.0,123.0,-123.0,667.0,-259.0,22.0
19:31:10.935000,8.0,-71.0,344.0,-512.0,103.0,-120.0,663.0,-256.0,25.0
19:31:10.940000,23.0,-67.0,312.0,-497.0,86.0,-119.0,663.0,-256.0,25.0
19:31:10.945000,44.0,-67.0,278.0,-483.0,80.0,-118.0,672.0,-273.0,33.0
19:31:10.950000,67.0,-70.0,242.0,-477.0,91.0,-118.0,672.0,-273.0,33.0
19:31:10.954000,87.0,-77.0,213.0,-477.0,115.0,-119.0,672.0,-273.0,33.0
19:31:10.959000,101.0,-84.0,200.0,-485.0,144.0,-120.0,670.0,-265.0,34.0
19:31:10.964000,107.0,-91.0,200.0,-500.0,175.0,-121.0,670.0,-265.0,34.0
19:31:10.968000,106.0,-95.0,213.0,-518.0,200.0,-121.0,669.0,-276.0,24.0
19:31:10.973000,98.0,-100.0,234.0,-533.0,214.0,-121.0,669.0,-276.0,24.0
19:31:10.977000,85.0,-102.0,262.0,-543.0,222.0,-121.0,669.0,-276.0,24.0
19:31:10.982000,70.0,-105.0,295.0,-543.0,222.0,-121.0,672.0,-267.0,40.0
19:31:10.987000,55.0,-109.0,331.0,-552.0,222.0,-121.0,672.0,-267.0,40.0
19:31:10.992000,39.0,-109.0,369.0,-561.0,220.0,-120.0,667.0,-277.0,28.0
19:31:10.997000,25.0,-111.0,406.0,-571.0,211.0,-117.0,667.0,-277.0,28.0
19:31:11.001000,18.0,-113.0,443.0,-575.0,187.0,-118.0,667.0,-277.0,28.0
19:31:11.006000,14.0,-116.0,470.0,-578.0,159.0,-124.0,664.0,-279.0,18.0
19:31:11.011000,13.0,-119.0,485.0,-584.0,142.0,-130.0,664.0,-279.0,18.0
19:31:11.015000,13.0,-119.0,485.0,-585.0,130.0,-132.0,682.0,-279.0,27.0
19:31:11.020000,13.0,-126.0,511.0,-573.0,111.0,-131.0,682.0,-279.0,27.0
19:31:11.024000,13.0,-126.0,511.0,-549.0,83.0,-131.0,682.0,-279.0,27.0
19:31:11.029000,18.0,-134.0,523.0,-526.0,56.0,-133.0,673.0,-279.0,21.0
19:31:11.034000,28.0,-143.0,525.0,-512.0,50.0,-137.0,673.0,-279.0,21.0
19:31:11.039000,37.0,-151.0,513.0,-509.0,67.0,-141.0,676.0,-282.0,9.0
19:31:11.044000,42.0,-158.0,492.0,-515.0,97.0,-145.0,676.0,-282.0,9.0
19:31:11.048000,39.0,-165.0,466.0,-528.0,134.0,-150.0,676.0,-282.0,9.0
19:31:11.053000,28.0,-168.0,439.0,-538.0,162.0,-153.0,660.0,-285.0,9.0
19:31:11.058000,14.0,-172.0,423.0,-536.0,165.0,-158.0,660.0,-285.0,9.0
19:31:11.062000,3.0,-182.0,417.0,-530.0,161.0,-162.0,675.0,-292.0,22.0
19:31:11.067000,-7.0,-193.0,408.0,-524.0,169.0,-162.0,675.0,-292.0,22.0
19:31:11.071000,-21.0,-206.0,402.0,-523.0,186.0,-160.0,675.0,-292.0,22.0
19:31:11.076000,-42.0,-216.0,405.0,-531.0,201.0,-154.0,670.0,-304.0,12.0
19:31:11.081000,-70.0,-223.0,409.0,-544.0,207.0,-149.0,670.0,-304.0,12.0
19:31:11.086000,-98.0,-228.0,411.0,-544.0,207.0,-149.0,666.0,-306.0,12.0
19:31:11.091000,-123.0,-232.0,408.0,-559.0,196.0,-146.0,666.0,-306.0,12.0
19:31:11.095000,-140.0,-234.0,396.0,-574.0,171.0,-144.0,666.0,-306.0,12.0
19:31:11.100000,-146.0,-236.0,378.0,-588.0,140.0,-141.0,673.0,-307.0,7.0
19:31:11.104000,-143.0,-236.0,357.0,-601.0,74.0,-145.0,673.0,-307.0,7.0
19:31:11.109000,-130.0,-235.0,338.0,-601.0,74.0,-145.0,675.0,-315.0,13.0
19:31:11.114000,-110.0,-233.0,319.0,-611.0,52.0,-152.0,675.0,-315.0,13.0
19:31:11.119000,-89.0,-227.0,303.0,-621.0,44.0,-159.0,669.0,-310.0,4.0
19:31:11.123000,-73.0,-217.0,294.0,-628.0,56.0,-165.0,669.0,-310.0,4.0
19:31:11.128000,-73.0,-217.0,294.0,-629.0,82.0,-168.0,669.0,-310.0,4.0
19:31:11.133000,-57.0,-189.0,302.0,-618.0,106.0,-167.0,661.0,-309.0,7.0
19:31:11.138000,-57.0,-189.0,302.0,-600.0,119.0,-167.0,661.0,-309.0,7.0
19:31:11.142000,-51.0,-174.0,319.0,-588.0,121.0,-165.0,667.0,-316.0,6.0
19:31:11.147000,-44.0,-161.0,334.0,-583.0,116.0,-162.0,667.0,-316.0,6.0
19:31:11.151000,-37.0,-149.0,342.0,-578.0,107.0,-159.0,667.0,-316.0,6.0
19:31:11.156000,-28.0,-142.0,345.0,-575.0,107.0,-157.0,667.0,-318.0,18.0
19:31:11.161000,-20.0,-139.0,340.0,-578.0,128.0,-155.0,667.0,-318.0,18.0
19:31:11.166000,-18.0,-139.0,326.0,-588.0,167.0,-153.0,658.0,-316.0,-7.0
19:31:11.170000,-27.0,-137.0,310.0,-599.0,208.0,-151.0,658.0,-316.0,-7.0
19:31:11.175000,-45.0,-132.0,298.0,-609.0,235.0,-150.0,658.0,-316.0,-7.0
19:31:11.180000,-71.0,-126.0,295.0,-616.0,241.0,-149.0,672.0,-316.0,-3.0
19:31:11.185000,-98.0,-117.0,296.0,-620.0,224.0,-150.0,672.0,-316.0,-3.0
19:31:11.189000,-119.0,-108.0,296.0,-620.0,224.0,-150.0,667.0,-328.0,-6.0
19:31:11.194000,-130.0,-98.0,296.0,-636.0,167.0,-173.0,667.0,-328.0,-6.0
19:31:11.198000,-133.0,-90.0,291.0,-658.0,153.0,-187.0,657.0,-327.0,-6.0
19:31:11.203000,-128.0,-81.0,284.0,-658.0,153.0,-187.0,657.0,-327.0,-6.0
19:31:11.207000,-120.0,-74.0,280.0,-681.0,144.0,-197.0,657.0,-327.0,-6.0
19:31:11.213000,-109.0,-65.0,279.0,-699.0,133.0,-200.0,651.0,-340.0,1.0
19:31:11.217000,-95.0,-60.0,275.0,-710.0,121.0,-199.0,651.0,-340.0,1.0
19:31:11.222000,-81.0,-56.0,268.0,-716.0,116.0,-200.0,672.0,-342.0,3.0
19:31:11.227000,-75.0,-49.0,253.0,-721.0,131.0,-199.0,672.0,-342.0,3.0
19:31:11.231000,-72.0,-43.0,238.0,-729.0,161.0,-202.0,672.0,-342.0,3.0
19:31:11.236000,-81.0,-36.0,221.0,-745.0,196.0,-205.0,673.0,-331.0,-4.0
19:31:11.241000,-95.0,-32.0,201.0,-763.0,227.0,-206.0,673.0,-331.0,-4.0
19:31:11.245000,-95.0,-32.0,201.0,-776.0,243.0,-211.0,664.0,-331.0,-9.0
19:31:11.250000,-110.0,-30.0,185.0,-787.0,251.0,-215.0,664.0,-331.0,-9.0
19:31:11.254000,-126.0,-30.0,170.0,-797.0,258.0,-221.0,664.0,-331.0,-9.0
19:31:11.260000,-142.0,-34.0,158.0,-809.0,266.0,-230.0,664.0,-337.0,-15.0
19:31:11.264000,-158.0,-42.0,152.0,-826.0,286.0,-241.0,664.0,-337.0,-15.0
19:31:11.269000,-177.0,-50.0,147.0,-846.0,318.0,-250.0,660.0,-337.0,0.0
19:31:11.274000,-202.0,-60.0,146.0,-858.0,350.0,-251.0,660.0,-337.0,0.0
19:31:11.278000,-234.0,-68.0,154.0,-849.0,357.0,-245.0,660.0,-337.0,0.0
19:31:11.283000,-266.0,-81.0,179.0,-820.0,336.0,-233.0,658.0,-339.0,-9.0
19:31:11.287000,-289.0,-98.0,211.0,-787.0,309.0,-218.0,658.0,-339.0,-9.0
19:31:11.293000,-303.0,-120.0,231.0,-758.0,292.0,-202.0,652.0,-345.0,-10.0
19:31:11.297000,-308.0,-151.0,238.0,-729.0,283.0,-189.0,652.0,-345.0,-10.0
19:31:11.301000,-301.0,-184.0,238.0,-707.0,279.0,-175.0,652.0,-345.0,-10.0
19:31:11.307000,-289.0,-215.0,233.0,-699.0,285.0,-166.0,651.0,-348.0,-9.0
19:31:11.311000,-270.0,-247.0,225.0,-699.0,285.0,-166.0,651.0,-348.0,-9.0
19:31:11.316000,-249.0,-274.0,206.0,-712.0,313.0,-169.0,655.0,-339.0,-9.0
19:31:11.321000,-234.0,-291.0,168.0,-750.0,382.0,-180.0,655.0,-339.0,-9.0
19:31:11.325000,-221.0,-296.0,121.0,-799.0,481.0,-205.0,655.0,-339.0,-9.0
19:31:11.330000,-212.0,-288.0,72.0,-851.0,589.0,-241.0,651.0,-342.0,-15.0
19:31:11.335000,-207.0,-273.0,25.0,-906.0,696.0,-277.0,651.0,-342.0,-15.0
19:31:11.340000,-200.0,-249.0,-7.0,-951.0,790.0,-307.0,654.0,-330.0,-15.0
19:31:11.344000,-193.0,-224.0,-10.0,-966.0,859.0,-330.0,654.0,-330.0,-15.0
19:31:11.348000,-193.0,-224.0,-10.0,-950.0,894.0,-347.0,654.0,-330.0,-15.0
19:31:11.354000,-160.0,-163.0,70.0,-921.0,906.0,-367.0,645.0,-340.0,-16.0
19:31:11.358000,-160.0,-163.0,70.0,-910.0,926.0,-386.0,645.0,-340.0,-16.0
19:31:11.363000,-142.0,-129.0,119.0,-913.0,960.0,-396.0,646.0,-337.0,-18.0
19:31:11.368000,-130.0,-94.0,170.0,-907.0,983.0,-392.0,646.0,-337.0,-18.0
19:31:11.372000,-127.0,-60.0,226.0,-867.0,958.0,-372.0,646.0,-337.0,-18.0
19:31:11.377000,-121.0,-32.0,294.0,-789.0,874.0,-343.0,643.0,-339.0,-19.0
19:31:11.382000,-107.0,-10.0,362.0,-700.0,767.0,-314.0,643.0,-339.0,-19.0
19:31:11.387000,-74.0,0.0,414.0,-628.0,685.0,-292.0,640.0,-343.0,-30.0
19:31:11.391000,-35.0,-4.0,433.0,-610.0,662.0,-270.0,640.0,-343.0,-30.0
19:31:11.395000,-2.0,-13.0,408.0,-645.0,684.0,-254.0,640.0,-343.0,-30.0
19:31:11.401000,23.0,-16.0,369.0,-696.0,705.0,-252.0,648.0,-345.0,-25.0
19:31:11.405000,46.0,-16.0,338.0,-749.0,704.0,-255.0,648.0,-345.0,-25.0
19:31:11.410000,68.0,-18.0,306.0,-749.0,704.0,-255.0,646.0,-348.0,-30.0
19:31:11.415000,75.0,-21.0,261.0,-887.0,744.0,-261.0,646.0,-348.0,-30.0
19:31:11.419000,71.0,-23.0,196.0,-887.0,744.0,-261.0,646.0,-348.0,-30.0
19:31:11.424000,52.0,-20.0,147.0,-969.0,861.0,-276.0,640.0,-358.0,-15.0
19:31:11.429000,30.0,-17.0,121.0,-1028.0,861.0,-276.0,640.0,-358.0,-15.0
19:31:11.434000,9.0,-9.0,122.0,-1057.0,848.0,-284.0,649.0,-352.0,-24.0
19:31:11.438000,7.0,-13.0,159.0,-1059.0,815.0,-302.0,649.0,-352.0,-24.0
19:31:11.442000,11.0,-17.0,186.0,-1066.0,802.0,-315.0,649.0,-352.0,-24.0
19:31:11.448000,16.0,-21.0,173.0,-1083.0,813.0,-320.0,639.0,-351.0,-30.0
19:31:11.452000,23.0,-23.0,146.0,-1100.0,818.0,-315.0,639.0,-351.0,-30.0
19:31:11.457000,35.0,-21.0,71.0,-1143.0,788.0,-305.0,631.0,-348.0,-33.0
19:31:11.462000,20.0,-29.0,-91.0,-1457.0,751.0,-258.0,631.0,-348.0,-33.0
19:31:11.466000,20.0,-29.0,-91.0,-1729.0,636.0,-247.0,631.0,-348.0,-33.0
19:31:11.471000,0.0,-28.0,21.0,-1581.0,528.0,-325.0,636.0,-351.0,-18.0
19:31:11.476000,8.0,39.0,276.0,-1137.0,554.0,-296.0,636.0,-351.0,-18.0
19:31:11.481000,-12.0,64.0,544.0,-863.0,679.0,-240.0,625.0,-358.0,-22.0
19:31:11.485000,22.0,95.0,361.0,-861.0,774.0,-255.0,625.0,-358.0,-22.0
19:31:11.489000,60.0,103.0,160.0,-963.0,755.0,-246.0,625.0,-358.0,-22.0
19:31:11.495000,67.0,117.0,13.0,-1071.0,660.0,-245.0,634.0,-358.0,-30.0
19:31:11.499000,80.0,133.0,-7.0,-1131.0,558.0,-256.0,634.0,-358.0,-30.0
19:31:11.504000,84.0,146.0,-17.0,-1306.0,547.0,-268.0,642.0,-361.0,-27.0
19:31:11.509000,95.0,166.0,-96.0,-1390.0,562.0,-269.0,642.0,-361.0,-27.0
19:31:11.513000,75.0,186.0,-139.0,-1297.0,541.0,-271.0,642.0,-361.0,-27.0
19:31:11.518000,42.0,205.0,-80.0,-1140.0,494.0,-262.0,636.0,-364.0,-30.0
19:31:11.523000,-1.0,211.0,-1.0,-1157.0,485.0,-265.0,636.0,-364.0,-30.0
19:31:11.528000,4.0,212.0,-51.0,-1157.0,485.0,-265.0,636.0,-357.0,-24.0
19:31:11.532000,-3.0,228.0,-50.0,-1154.0,556.0,-286.0,636.0,-357.0,-24.0
19:31:11.536000,-83.0,231.0,-65.0,-1056.0,606.0,-266.0,636.0,-357.0,-24.0
19:31:11.542000,-79.0,195.0,24.0,-979.0,462.0,-249.0,645.0,-361.0,-22.0
19:31:11.546000,-88.0,162.0,195.0,-854.0,237.0,-238.0,645.0,-361.0,-22.0
19:31:11.551000,-100.0,130.0,242.0,-810.0,201.0,-217.0,643.0,-360.0,-13.0
19:31:11.556000,-100.0,98.0,228.0,-860.0,241.0,-208.0,643.0,-360.0,-13.0
19:31:11.560000,-112.0,69.0,270.0,-880.0,234.0,-195.0,643.0,-360.0,-13.0
19:31:11.565000,-133.0,39.0,326.0,-833.0,209.0,-179.0,637.0,-352.0,-19.0
19:31:11.570000,-142.0,11.0,357.0,-777.0,133.0,-170.0,637.0,-352.0,-19.0
19:31:11.575000,-142.0,11.0,357.0,-788.0,60.0,-168.0,648.0,-360.0,-18.0
19:31:11.579000,-131.0,-16.0,355.0,-870.0,43.0,-168.0,648.0,-360.0,-18.0
19:31:11.583000,-133.0,-27.0,340.0,-948.0,47.0,-176.0,648.0,-360.0,-18.0
19:31:11.589000,-132.0,-36.0,305.0,-997.0,33.0,-189.0,636.0,-355.0,-21.0
19:31:11.593000,-131.0,-39.0,262.0,-1025.0,17.0,-203.0,636.0,-355.0,-21.0
19:31:11.598000,-121.0,-47.0,239.0,-1057.0,42.0,-219.0,645.0,-364.0,-19.0
19:31:11.603000,-107.0,-56.0,210.0,-1093.0,84.0,-234.0,645.0,-364.0,-19.0
19:31:11.610000,-114.0,-49.0,144.0,-1143.0,131.0,-270.0,633.0,-373.0,-19.0
19:31:11.612000,-114.0,-49.0,144.0,-1143.0,131.0,-270.0,633.0,-373.0,-19.0
19:31:11.616000,-115.0,-43.0,116.0,-1195.0,150.0,-283.0,633.0,-373.0,-19.0
19:31:11.622000,-128.0,-37.0,77.0,-1237.0,170.0,-287.0,637.0,-367.0,-16.0
19:31:11.626000,-121.0,-42.0,35.0,-1213.0,153.0,-306.0,637.0,-367.0,-16.0
19:31:11.631000,-114.0,-43.0,16.0,-1213.0,153.0,-306.0,636.0,-366.0,-21.0
19:31:11.636000,-109.0,-54.0,46.0,-1171.0,155.0,-330.0,636.0,-366.0,-21.0
19:31:11.640000,-99.0,-67.0,97.0,-1149.0,155.0,-330.0,636.0,-366.0,-21.0
19:31:11.645000,-91.0,-79.0,114.0,-1154.0,190.0,-346.0,642.0,-363.0,-12.0
19:31:11.649000,-95.0,-87.0,99.0,-1192.0,193.0,-372.0,642.0,-363.0,-12.0
19:31:11.655000,-109.0,-90.0,105.0,-1192.0,193.0,-372.0,633.0,-376.0,-19.0
19:31:11.659000,-100.0,-95.0,135.0,-1212.0,148.0,-380.0,633.0,-376.0,-19.0
19:31:11.663000,-83.0,-97.0,165.0,-1240.0,88.0,-388.0,633.0,-376.0,-19.0
19:31:11.669000,-62.0,-100.0,168.0,-1261.0,27.0,-385.0,640.0,-366.0,-16.0
19:31:11.673000,-28.0,-102.0,158.0,-1271.0,-12.0,-384.0,640.0,-366.0,-16.0
19:31:11.678000,0.0,-96.0,122.0,-1283.0,-21.0,-382.0,634.0,-372.0,-19.0
19:31:11.683000,10.0,-89.0,92.0,-1293.0,0.0,-384.0,634.0,-372.0,-19.0
19:31:11.687000,10.0,-89.0,92.0,-1270.0,11.0,-385.0,634.0,-372.0,-19.0
19:31:11.692000,24.0,-80.0,107.0,-1264.0,-1.0,-380.0,633.0,-369.0,-15.0
19:31:11.697000,35.0,-69.0,98.0,-1260.0,-14.0,-377.0,633.0,-369.0,-15.0
19:31:11.702000,61.0,-79.0,103.0,-1217.0,-14.0,-360.0,639.0,-372.0,-13.0
19:31:11.706000,49.0,-88.0,106.0,-1190.0,1.0,-341.0,639.0,-372.0,-13.0
19:31:11.710000,33.0,-75.0,53.0,-1182.0,16.0,-347.0,639.0,-372.0,-13.0
19:31:11.716000,58.0,-54.0,-28.0,-1161.0,37.0,-330.0,634.0,-373.0,-19.0
19:31:11.720000,60.0,-86.0,-52.0,-1149.0,84.0,-301.0,634.0,-373.0,-19.0
19:31:11.725000,15.0,-77.0,-21.0,-1159.0,84.0,-300.0,630.0,-366.0,-27.0
19:31:11.730000,-14.0,-62.0,-62.0,-1175.0,38.0,-300.0,630.0,-366.0,-27.0
19:31:11.734000,16.0,-79.0,-126.0,-1186.0,26.0,-266.0,630.0,-366.0,-27.0
19:31:11.739000,5.0,-84.0,-123.0,-1186.0,26.0,-266.0,634.0,-381.0,-28.0
19:31:11.744000,4.0,-88.0,-104.0,-1139.0,-26.0,-256.0,634.0,-381.0,-28.0
19:31:11.749000,32.0,-114.0,-101.0,-1139.0,-26.0,-256.0,607.0,-363.0,-7.0
19:31:11.753000,22.0,-128.0,-72.0,-1025.0,73.0,-226.0,607.0,-363.0,-7.0
19:31:11.757000,10.0,-141.0,-107.0,-960.0,162.0,-186.0,607.0,-363.0,-7.0
19:31:11.763000,40.0,-158.0,-121.0,-1035.0,67.0,-190.0,627.0,-372.0,-27.0
19:31:11.767000,73.0,-172.0,-84.0,-1039.0,-26.0,-184.0,627.0,-372.0,-27.0
19:31:11.772000,101.0,-184.0,-123.0,-1052.0,35.0,-145.0,633.0,-364.0,-25.0
19:31:11.777000,107.0,-172.0,-148.0,-1162.0,41.0,-138.0,633.0,-364.0,-25.0
19:31:11.781000,107.0,-172.0,-148.0,-1198.0,27.0,-145.0,633.0,-364.0,-25.0
19:31:11.786000,166.0,-138.0,-156.0,-1135.0,85.0,-124.0,624.0,-363.0,-19.0
19:31:11.791000,154.0,-113.0,-168.0,-1130.0,113.0,-103.0,624.0,-363.0,-19.0
19:31:11.796000,154.0,-113.0,-168.0,-1200.0,209.0,-112.0,625.0,-372.0,-24.0
19:31:11.800000,163.0,-84.0,-266.0,-1231.0,268.0,-129.0,625.0,-372.0,-24.0
19:31:11.804000,128.0,-54.0,-373.0,-1191.0,174.0,-124.0,625.0,-372.0,-24.0
19:31:11.810000,112.0,-34.0,-347.0,-1193.0,144.0,-130.0,622.0,-369.0,-30.0
19:31:11.814000,121.0,-17.0,-322.0,-1250.0,172.0,-140.0,622.0,-369.0,-30.0
19:31:11.819000,80.0,14.0,-313.0,-1249.0,139.0,-154.0,624.0,-363.0,-25.0
19:31:11.824000,81.0,42.0,-277.0,-1194.0,122.0,-165.0,624.0,-363.0,-25.0
19:31:11.828000,67.0,63.0,-277.0,-1136.0,128.0,-174.0,624.0,-363.0,-25.0
19:31:11.833000,51.0,83.0,-268.0,-1130.0,162.0,-191.0,627.0,-360.0,-22.0
19:31:11.838000,71.0,88.0,-260.0,-1170.0,151.0,-206.0,627.0,-360.0,-22.0
19:31:11.843000,36.0,112.0,-259.0,-1170.0,151.0,-206.0,612.0,-358.0,-24.0
19:31:11.847000,32.0,122.0,-242.0,-1175.0,58.0,-234.0,612.0,-358.0,-24.0
19:31:11.851000,37.0,130.0,-250.0,-1122.0,66.0,-241.0,612.0,-358.0,-24.0
19:31:11.857000,38.0,127.0,-305.0,-1122.0,66.0,-241.0,621.0,-355.0,-22.0
19:31:11.861000,68.0,120.0,-319.0,-1109.0,106.0,-260.0,621.0,-355.0,-22.0
19:31:11.866000,96.0,119.0,-303.0,-1121.0,183.0,-280.0,631.0,-349.0,-21.0
19:31:11.871000,88.0,109.0,-303.0,-1126.0,220.0,-275.0,631.0,-349.0,-21.0
19:31:11.875000,92.0,116.0,-381.0,-1094.0,223.0,-281.0,631.0,-349.0,-21.0
19:31:11.880000,100.0,109.0,-418.0,-1094.0,223.0,-281.0,628.0,-361.0,-9.0
19:31:11.885000,86.0,102.0,-375.0,-1047.0,200.0,-267.0,628.0,-361.0,-9.0
19:31:11.890000,78.0,101.0,-377.0,-1087.0,262.0,-262.0,621.0,-354.0,-22.0
19:31:11.894000,48.0,110.0,-394.0,-1138.0,289.0,-254.0,621.0,-354.0,-22.0
19:31:11.898000,48.0,110.0,-394.0,-1148.0,267.0,-243.0,621.0,-354.0,-22.0
19:31:11.904000,53.0,110.0,-413.0,-1160.0,244.0,-240.0,636.0,-351.0,-27.0
19:31:11.908000,56.0,112.0,-440.0,-1145.0,264.0,-229.0,636.0,-351.0,-27.0
19:31:11.913000,58.0,106.0,-449.0,-1117.0,351.0,-211.0,628.0,-340.0,-21.0
19:31:11.918000,26.0,115.0,-486.0,-1111.0,359.0,-203.0,628.0,-340.0,-21.0
19:31:11.925000,-21.0,142.0,-460.0,-1113.0,249.0,-179.0,628.0,-342.0,-19.0
19:31:11.927000,-21.0,142.0,-460.0,-1113.0,249.0,-179.0,628.0,-342.0,-19.0
19:31:11.931000,-4.0,142.0,-483.0,-1103.0,221.0,-177.0,628.0,-342.0,-19.0
19:31:11.937000,-11.0,147.0,-482.0,-1116.0,203.0,-173.0,616.0,-345.0,-19.0
19:31:11.941000,-17.0,157.0,-441.0,-1166.0,205.0,-175.0,616.0,-345.0,-19.0
19:31:11.946000,-35.0,174.0,-450.0,-1178.0,210.0,-185.0,634.0,-337.0,-10.0
19:31:11.951000,-18.0,189.0,-452.0,-1160.0,208.0,-195.0,634.0,-337.0,-10.0
19:31:11.955000,-11.0,205.0,-479.0,-1138.0,236.0,-202.0,634.0,-337.0,-10.0
19:31:11.960000,18.0,215.0,-507.0,-1086.0,240.0,-204.0,619.0,-331.0,-16.0
19:31:11.965000,14.0,231.0,-496.0,-1047.0,185.0,-200.0,619.0,-331.0,-16.0
19:31:11.969000,19.0,244.0,-487.0,-1047.0,185.0,-200.0,628.0,-321.0,3.0
19:31:11.974000,51.0,245.0,-508.0,-1060.0,174.0,-211.0,628.0,-321.0,3.0
19:31:11.978000,51.0,256.0,-542.0,-1073.0,188.0,-215.0,628.0,-321.0,3.0
19:31:11.984000,79.0,261.0,-568.0,-1064.0,219.0,-223.0,628.0,-324.0,-7.0
19:31:11.988000,79.0,263.0,-592.0,-1054.0,258.0,-228.0,628.0,-324.0,-7.0
19:31:11.993000,99.0,260.0,-585.0,-1054.0,241.0,-230.0,631.0,-315.0,-13.0
19:31:11.998000,112.0,251.0,-590.0,-1057.0,212.0,-233.0,631.0,-315.0,-13.0
19:31:12.002000,112.0,251.0,-590.0,-1057.0,214.0,-235.0,631.0,-315.0,-13.0
19:31:12.007000,117.0,240.0,-600.0,-1046.0,243.0,-243.0,631.0,-319.0,-7.0
19:31:12.011000,117.0,240.0,-600.0,-1030.0,282.0,-245.0,631.0,-319.0,-7.0
19:31:12.016000,107.0,237.0,-609.0,-1014.0,307.0,-248.0,628.0,-306.0,-10.0
19:31:12.021000,108.0,234.0,-625.0,-1008.0,322.0,-254.0,628.0,-306.0,-10.0
19:31:12.025000,105.0,236.0,-629.0,-1016.0,318.0,-252.0,628.0,-306.0,-10.0
19:31:12.031000,93.0,238.0,-629.0,-1028.0,311.0,-252.0,633.0,-301.0,-9.0
19:31:12.035000,95.0,242.0,-641.0,-1048.0,321.0,-261.0,633.0,-301.0,-9.0
19:31:12.040000,86.0,249.0,-644.0,-1058.0,326.0,-263.0,628.0,-301.0,10.0
19:31:12.045000,80.0,257.0,-628.0,-1047.0,321.0,-265.0,628.0,-301.0,10.0
19:31:12.049000,94.0,261.0,-605.0,-1039.0,320.0,-260.0,628.0,-301.0,10.0
19:31:12.054000,88.0,267.0,-598.0,-1018.0,337.0,-260.0,639.0,-297.0,1.0
19:31:12.059000,73.0,280.0,-599.0,-983.0,347.0,-270.0,639.0,-297.0,1.0
19:31:12.063000,79.0,287.0,-591.0,-983.0,347.0,-270.0,609.0,-294.0,7.0
19:31:12.068000,109.0,288.0,-590.0,-972.0,352.0,-299.0,609.0,-294.0,7.0
19:31:12.072000,128.0,291.0,-569.0,-986.0,340.0,-314.0,609.0,-294.0,7.0
19:31:12.078000,151.0,296.0,-555.0,-986.0,340.0,-314.0,634.0,-288.0,9.0
19:31:12.082000,177.0,297.0,-553.0,-980.0,358.0,-308.0,634.0,-288.0,9.0
19:31:12.087000,196.0,293.0,-540.0,-970.0,381.0,-323.0,645.0,-283.0,9.0
19:31:12.092000,196.0,296.0,-548.0,-993.0,405.0,-360.0,645.0,-283.0,9.0
19:31:12.096000,222.0,291.0,-567.0,-981.0,429.0,-358.0,645.0,-283.0,9.0
19:31:12.101000,236.0,280.0,-548.0,-905.0,401.0,-339.0,628.0,-285.0,16.0
19:31:12.106000,280.0,257.0,-522.0,-866.0,397.0,-365.0,628.0,-285.0,16.0
19:31:12.110000,289.0,246.0,-519.0,-891.0,461.0,-387.0,640.0,-277.0,18.0
19:31:12.115000,303.0,244.0,-541.0,-900.0,510.0,-373.0,640.0,-277.0,18.0
19:31:12.119000,303.0,244.0,-541.0,-868.0,531.0,-355.0,640.0,-277.0,18.0
19:31:12.125000,303.0,226.0,-539.0,-855.0,541.0,-360.0,631.0,-279.0,18.0
19:31:12.129000,301.0,214.0,-506.0,-876.0,590.0,-342.0,631.0,-279.0,18.0
19:31:12.134000,306.0,196.0,-513.0,-882.0,660.0,-292.0,640.0,-267.0,13.0
19:31:12.139000,296.0,182.0,-556.0,-878.0,716.0,-309.0,640.0,-267.0,13.0
19:31:12.143000,272.0,175.0,-583.0,-877.0,735.0,-342.0,640.0,-267.0,13.0
19:31:12.148000,236.0,172.0,-579.0,-867.0,710.0,-332.0,636.0,-268.0,34.0
19:31:12.153000,222.0,153.0,-553.0,-864.0,685.0,-327.0,636.0,-268.0,34.0
19:31:12.157000,189.0,144.0,-526.0,-884.0,691.0,-312.0,633.0,-265.0,18.0
19:31:12.162000,149.0,144.0,-508.0,-903.0,718.0,-285.0,633.0,-265.0,18.0
19:31:12.166000,127.0,138.0,-457.0,-903.0,722.0,-261.0,633.0,-265.0,18.0
19:31:12.171000,98.0,145.0,-374.0,-930.0,724.0,-274.0,640.0,-267.0,24.0
19:31:12.176000,98.0,156.0,-354.0,-984.0,754.0,-292.0,640.0,-267.0,24.0
19:31:12.181000,85.0,164.0,-349.0,-984.0,754.0,-292.0,637.0,-261.0,27.0
19:31:12.186000,75.0,184.0,-289.0,-1020.0,776.0,-304.0,637.0,-261.0,27.0
19:31:12.190000,52.0,214.0,-290.0,-1042.0,783.0,-318.0,637.0,-261.0,27.0
19:31:12.195000,28.0,247.0,-281.0,-1080.0,756.0,-303.0,640.0,-247.0,22.0
19:31:12.200000,23.0,259.0,-309.0,-1087.0,714.0,-289.0,640.0,-247.0,22.0
19:31:12.204000,23.0,273.0,-331.0,-1039.0,708.0,-296.0,621.0,-258.0,42.0
19:31:12.209000,24.0,273.0,-252.0,-1008.0,702.0,-295.0,621.0,-258.0,42.0
19:31:12.213000,27.0,281.0,-195.0,-1005.0,684.0,-292.0,621.0,-258.0,42.0
19:31:12.218000,30.0,285.0,-189.0,-1012.0,671.0,-301.0,640.0,-250.0,28.0
19:31:12.223000,25.0,288.0,-181.0,-1006.0,640.0,-307.0,640.0,-250.0,28.0
19:31:12.228000,44.0,280.0,-172.0,-961.0,612.0,-317.0,639.0,-246.0,36.0
19:31:12.233000,44.0,280.0,-172.0,-897.0,597.0,-344.0,639.0,-246.0,36.0
19:31:12.237000,76.0,266.0,-152.0,-863.0,580.0,-356.0,639.0,-246.0,36.0
19:31:12.242000,86.0,259.0,-111.0,-911.0,581.0,-345.0,634.0,-240.0,51.0
19:31:12.247000,95.0,248.0,-87.0,-985.0,585.0,-340.0,634.0,-240.0,51.0
19:31:12.251000,106.0,239.0,-100.0,-1010.0,578.0,-338.0,652.0,-243.0,42.0
19:31:12.256000,128.0,233.0,-142.0,-966.0,532.0,-337.0,652.0,-243.0,42.0
19:31:12.260000,148.0,221.0,-125.0,-908.0,462.0,-336.0,652.0,-243.0,42.0
19:31:12.265000,160.0,209.0,-66.0,-897.0,462.0,-342.0,640.0,-243.0,45.0
19:31:12.270000,182.0,196.0,-72.0,-892.0,519.0,-349.0,640.0,-243.0,45.0
19:31:12.275000,196.0,186.0,-119.0,-865.0,551.0,-347.0,649.0,-240.0,42.0
19:31:12.280000,196.0,180.0,-144.0,-843.0,554.0,-344.0,649.0,-240.0,42.0
19:31:12.287000,170.0,163.0,-130.0,-786.0,555.0,-342.0,652.0,-240.0,39.0
19:31:12.289000,170.0,163.0,-130.0,-786.0,555.0,-342.0,652.0,-240.0,39.0
19:31:12.293000,150.0,148.0,-123.0,-786.0,558.0,-341.0,652.0,-240.0,39.0
19:31:12.298000,124.0,131.0,-92.0,-728.0,558.0,-341.0,637.0,-240.0,48.0
19:31:12.303000,109.0,114.0,-72.0,-667.0,555.0,-345.0,637.0,-240.0,48.0
19:31:12.308000,81.0,96.0,-88.0,-637.0,581.0,-347.0,640.0,-246.0,57.0
19:31:12.312000,46.0,81.0,-62.0,-616.0,600.0,-345.0,640.0,-246.0,57.0
19:31:12.317000,19.0,65.0,-21.0,-603.0,587.0,-348.0,640.0,-246.0,57.0
19:31:12.322000,-17.0,47.0,-7.0,-609.0,584.0,-346.0,652.0,-243.0,51.0
19:31:12.327000,-61.0,33.0,-12.0,-605.0,596.0,-336.0,652.0,-243.0,51.0
19:31:12.331000,-61.0,33.0,-12.0,-569.0,566.0,-321.0,657.0,-238.0,55.0
19:31:12.336000,-121.0,-2.0,70.0,-521.0,501.0,-306.0,657.0,-238.0,55.0
19:31:12.340000,-121.0,-2.0,70.0,-493.0,446.0,-286.0,657.0,-238.0,55.0
19:31:12.345000,-147.0,-25.0,102.0,-474.0,384.0,-262.0,649.0,-243.0,51.0
19:31:12.350000,-165.0,-51.0,138.0,-446.0,320.0,-244.0,649.0,-243.0,51.0
19:31:12.355000,-159.0,-86.0,172.0,-404.0,255.0,-228.0,645.0,-234.0,55.0
19:31:12.359000,-157.0,-119.0,207.0,-365.0,192.0,-213.0,645.0,-234.0,55.0
19:31:12.364000,-143.0,-156.0,246.0,-354.0,170.0,-209.0,645.0,-234.0,55.0
19:31:12.369000,-121.0,-186.0,265.0,-361.0,188.0,-209.0,651.0,-246.0,46.0
19:31:12.374000,-100.0,-209.0,254.0,-371.0,228.0,-213.0,651.0,-246.0,46.0
19:31:12.378000,-79.0,-224.0,224.0,-387.0,259.0,-219.0,655.0,-241.0,72.0
19:31:12.383000,-64.0,-230.0,200.0,-417.0,276.0,-225.0,655.0,-241.0,72.0
19:31:12.387000,-49.0,-231.0,168.0,-458.0,287.0,-230.0,655.0,-241.0,72.0
19:31:12.392000,-37.0,-226.0,130.0,-490.0,291.0,-232.0,657.0,-234.0,55.0
19:31:12.397000,-25.0,-219.0,91.0,-502.0,288.0,-233.0,657.0,-234.0,55.0
19:31:12.402000,-14.0,-209.0,62.0,-502.0,288.0,-233.0,655.0,-252.0,45.0
19:31:12.406000,-4.0,-198.0,39.0,-504.0,287.0,-231.0,655.0,-252.0,45.0
19:31:12.411000,5.0,-189.0,31.0,-497.0,289.0,-225.0,655.0,-252.0,45.0
19:31:12.416000,16.0,-182.0,28.0,-487.0,289.0,-220.0,661.0,-253.0,49.0
19:31:12.421000,30.0,-177.0,25.0,-479.0,293.0,-213.0,661.0,-253.0,49.0
19:31:12.425000,39.0,-174.0,27.0,-474.0,300.0,-206.0,655.0,-243.0,49.0
19:31:12.430000,46.0,-171.0,41.0,-476.0,311.0,-199.0,655.0,-243.0,49.0
19:31:12.434000,44.0,-169.0,72.0,-484.0,318.0,-193.0,655.0,-243.0,49.0
19:31:12.439000,37.0,-164.0,115.0,-496.0,321.0,-189.0,646.0,-255.0,51.0
19:31:12.444000,23.0,-156.0,163.0,-511.0,325.0,-187.0,646.0,-255.0,51.0
19:31:12.449000,1.0,-146.0,210.0,-520.0,326.0,-184.0,654.0,-249.0,46.0
19:31:12.453000,1.0,-146.0,210.0,-518.0,321.0,-183.0,654.0,-249.0,46.0
19:31:12.458000,-24.0,-133.0,250.0,-507.0,313.0,-184.0,654.0,-249.0,46.0
19:31:12.463000,-51.0,-117.0,277.0,-494.0,307.0,-186.0,649.0,-249.0,42.0
19:31:12.468000,-79.0,-100.0,284.0,-481.0,300.0,-187.0,649.0,-249.0,42.0
19:31:12.472000,-105.0,-86.0,277.0,-468.0,283.0,-187.0,661.0,-256.0,52.0
19:31:12.477000,-122.0,-70.0,266.0,-458.0,259.0,-185.0,661.0,-256.0,52.0
19:31:12.481000,-135.0,-58.0,252.0,-452.0,225.0,-181.0,661.0,-256.0,52.0
19:31:12.486000,-137.0,-49.0,234.0,-439.0,182.0,-175.0,660.0,-250.0,46.0
19:31:12.491000,-126.0,-45.0,215.0,-424.0,138.0,-168.0,660.0,-250.0,46.0
19:31:12.496000,-103.0,-46.0,194.0,-414.0,104.0,-161.0,660.0,-256.0,43.0
19:31:12.500000,-72.0,-50.0,170.0,-404.0,77.0,-155.0,660.0,-256.0,43.0
19:31:12.505000,-32.0,-58.0,157.0,-400.0,61.0,-150.0,660.0,-256.0,43.0
19:31:12.510000,9.0,-68.0,154.0,-407.0,69.0,-146.0,658.0,-255.0,39.0
19:31:12.514000,48.0,-79.0,156.0,-421.0,102.0,-144.0,658.0,-255.0,39.0
19:31:12.519000,74.0,-89.0,163.0,-421.0,102.0,-144.0,667.0,-250.0,48.0
19:31:12.524000,88.0,-94.0,174.0,-439.0,149.0,-144.0,667.0,-250.0,48.0
19:31:12.529000,88.0,-98.0,194.0,-457.0,198.0,-145.0,651.0,-264.0,51.0
19:31:12.533000,77.0,-99.0,223.0,-469.0,242.0,-145.0,651.0,-264.0,51.0
19:31:12.537000,60.0,-101.0,261.0,-477.0,276.0,-146.0,651.0,-264.0,51.0
19:31:12.543000,41.0,-105.0,303.0,-479.0,295.0,-150.0,658.0,-262.0,51.0
19:31:12.547000,21.0,-109.0,347.0,-481.0,305.0,-156.0,658.0,-262.0,51.0
19:31:12.552000,1.0,-115.0,387.0,-486.0,305.0,-160.0,666.0,-264.0,46.0
19:31:12.557000,-19.0,-121.0,429.0,-485.0,290.0,-162.0,666.0,-264.0,46.0
19:31:12.561000,-19.0,-121.0,429.0,-476.0,264.0,-162.0,666.0,-264.0,46.0
19:31:12.566000,-31.0,-130.0,471.0,-469.0,237.0,-162.0,663.0,-265.0,45.0
19:31:12.571000,-37.0,-143.0,508.0,-470.0,216.0,-162.0,663.0,-265.0,45.0
19:31:12.576000,-40.0,-157.0,532.0,-477.0,197.0,-160.0,658.0,-279.0,48.0
19:31:12.580000,-43.0,-172.0,547.0,-481.0,170.0,-158.0,658.0,-279.0,48.0
19:31:12.584000,-40.0,-189.0,564.0,-481.0,133.0,-159.0,658.0,-279.0,48.0
19:31:12.590000,-30.0,-207.0,578.0,-480.0,99.0,-161.0,672.0,-277.0,43.0
19:31:12.594000,-20.0,-227.0,586.0,-478.0,78.0,-165.0,672.0,-277.0,43.0
19:31:12.599000,-11.0,-246.0,585.0,-479.0,76.0,-168.0,654.0,-274.0,45.0
19:31:12.604000,-7.0,-262.0,578.0,-486.0,93.0,-168.0,654.0,-274.0,45.0
19:31:12.611000,-18.0,-277.0,530.0,-500.0,144.0,-159.0,654.0,-282.0,43.0
19:31:12.613000,-18.0,-277.0,530.0,-500.0,144.0,-159.0,654.0,-282.0,43.0
19:31:12.617000,-31.0,-279.0,498.0,-512.0,168.0,-156.0,654.0,-282.0,43.0
19:31:12.623000,-46.0,-277.0,464.0,-512.0,199.0,-156.0,657.0,-288.0,34.0
19:31:12.627000,-65.0,-270.0,431.0,-536.0,199.0,-156.0,657.0,-288.0,34.0
19:31:12.632000,-87.0,-260.0,404.0,-568.0,227.0,-155.0,666.0,-288.0,33.0
19:31:12.637000,-105.0,-250.0,392.0,-596.0,239.0,-154.0,666.0,-288.0,33.0
19:31:12.641000,-109.0,-247.0,394.0,-610.0,221.0,-156.0,666.0,-288.0,33.0
19:31:12.646000,-102.0,-248.0,407.0,-606.0,186.0,-156.0,651.0,-295.0,31.0
19:31:12.651000,-92.0,-252.0,434.0,-593.0,155.0,-151.0,651.0,-295.0,31.0
19:31:12.655000,-84.0,-257.0,473.0,-574.0,142.0,-145.0,655.0,-292.0,28.0
19:31:12.660000,-80.0,-263.0,516.0,-560.0,144.0,-140.0,655.0,-292.0,28.0
19:31:12.664000,-80.0,-263.0,516.0,-565.0,159.0,-137.0,655.0,-292.0,28.0
19:31:12.670000,-98.0,-259.0,557.0,-588.0,187.0,-134.0,649.0,-310.0,37.0
19:31:12.674000,-98.0,-259.0,557.0,-611.0,203.0,-131.0,649.0,-310.0,37.0
19:31:12.679000,-116.0,-255.0,557.0,-624.0,195.0,-130.0,651.0,-301.0,30.0
19:31:12.684000,-129.0,-252.0,549.0,-626.0,171.0,-130.0,651.0,-301.0,30.0
19:31:12.688000,-133.0,-245.0,529.0,-620.0,143.0,-131.0,651.0,-301.0,30.0
19:31:12.693000,-128.0,-240.0,503.0,-614.0,125.0,-135.0,654.0,-310.0,22.0
19:31:12.698000,-119.0,-235.0,477.0,-616.0,120.0,-141.0,654.0,-310.0,22.0
19:31:12.703000,-107.0,-228.0,455.0,-627.0,129.0,-146.0,642.0,-319.0,28.0
19:31:12.707000,-98.0,-222.0,432.0,-640.0,148.0,-151.0,642.0,-319.0,28.0
19:31:12.711000,-94.0,-212.0,413.0,-645.0,162.0,-152.0,642.0,-319.0,28.0
19:31:12.717000,-92.0,-200.0,404.0,-643.0,160.0,-151.0,664.0,-309.0,18.0
19:31:12.721000,-89.0,-186.0,408.0,-635.0,152.0,-154.0,664.0,-309.0,18.0
19:31:12.726000,-84.0,-177.0,419.0,-635.0,152.0,-154.0,667.0,-325.0,19.0
19:31:12.731000,-77.0,-170.0,424.0,-633.0,166.0,-163.0,667.0,-325.0,19.0
19:31:12.735000,-72.0,-163.0,420.0,-633.0,166.0,-163.0,667.0,-325.0,19.0
19:31:12.740000,-65.0,-159.0,417.0,-633.0,179.0,-165.0,655.0,-324.0,21.0
19:31:12.744000,-58.0,-159.0,419.0,-644.0,199.0,-170.0,655.0,-324.0,21.0
19:31:12.750000,-58.0,-158.0,417.0,-644.0,199.0,-170.0,649.0,-324.0,9.0
19:31:12.754000,-67.0,-155.0,415.0,-666.0,227.0,-172.0,649.0,-324.0,9.0
19:31:12.758000,-84.0,-151.0,416.0,-684.0,250.0,-172.0,649.0,-324.0,9.0
19:31:12.764000,-105.0,-147.0,415.0,-692.0,263.0,-173.0,646.0,-336.0,12.0
19:31:12.768000,-126.0,-143.0,406.0,-694.0,271.0,-175.0,646.0,-336.0,12.0
19:31:12.773000,-143.0,-140.0,391.0,-694.0,276.0,-180.0,649.0,-334.0,16.0
19:31:12.778000,-154.0,-137.0,375.0,-697.0,273.0,-187.0,649.0,-334.0,16.0
19:31:12.782000,-154.0,-137.0,375.0,-710.0,261.0,-195.0,649.0,-334.0,16.0
19:31:12.787000,-163.0,-135.0,366.0,-732.0,242.0,-204.0,649.0,-339.0,16.0
19:31:12.792000,-166.0,-130.0,362.0,-761.0,224.0,-214.0,649.0,-339.0,16.0
19:31:12.797000,-167.0,-124.0,359.0,-798.0,223.0,-219.0,652.0,-340.0,1.0
19:31:12.801000,-171.0,-117.0,349.0,-832.0,226.0,-223.0,652.0,-340.0,1.0
19:31:12.805000,-176.0,-107.0,335.0,-852.0,222.0,-232.0,652.0,-340.0,1.0
19:31:12.811000,-174.0,-98.0,317.0,-870.0,221.0,-241.0,646.0,-345.0,10.0
19:31:12.815000,-169.0,-88.0,294.0,-894.0,232.0,-248.0,646.0,-345.0,10.0
19:31:12.820000,-165.0,-83.0,270.0,-916.0,247.0,-254.0,654.0,-348.0,12.0
19:31:12.825000,-162.0,-86.0,256.0,-927.0,252.0,-259.0,654.0,-348.0,12.0
19:31:12.829000,-161.0,-88.0,256.0,-931.0,251.0,-260.0,654.0,-348.0,12.0
19:31:12.834000,-158.0,-88.0,263.0,-941.0,247.0,-267.0,648.0,-351.0,7.0
19:31:12.839000,-151.0,-91.0,268.0,-973.0,248.0,-266.0,648.0,-351.0,7.0
19:31:12.844000,-155.0,-91.0,263.0,-973.0,248.0,-266.0,637.0,-357.0,4.0
19:31:12.848000,-160.0,-94.0,270.0,-1016.0,234.0,-256.0,637.0,-357.0,4.0
19:31:12.852000,-154.0,-107.0,305.0,-1024.0,177.0,-250.0,637.0,-357.0,4.0
