hh:mm:ss.ms,gyroX[mdps],gyroY[mdps],gyroZ[mdps],accX[mg],accY[mg],accZ[mg],magX[mG],magY[mG],magZ[mG]
19:31:05.343000,-81.0,35.0,361.0,-1097.0,-85.0,-195.0,661.0,-354.0,-46.0
19:31:05.348000,-36.0,32.0,364.0,-1113.0,-100.0,-189.0,661.0,-354.0,-46.0
19:31:05.352000,-13.0,45.0,366.0,-1133.0,-105.0,-182.0,661.0,-354.0,-46.0
19:31:05.357000,-4.0,68.0,325.0,-1165.0,-111.0,-179.0,663.0,-357.0,-48.0
19:31:05.362000,9.0,85.0,263.0,-1150.0,-136.0,-183.0,663.0,-357.0,-48.0
19:31:05.366000,35.0,98.0,203.0,-1117.0,-152.0,-185.0,646.0,-364.0,-33.0
19:31:05.371000,51.0,102.0,146.0,-1104.0,-128.0,-192.0,646.0,-364.0,-33.0
19:31:05.375000,65.0,114.0,86.0,-1107.0,-73.0,-209.0,646.0,-364.0,-33.0
19:31:05.380000,76.0,126.0,35.0,-1131.0,-1.0,-232.0,666.0,-363.0,-43.0
19:31:05.385000,77.0,134.0,-14.0,-1162.0,62.0,-256.0,666.0,-363.0,-43.0
19:31:05.390000,77.0,133.0,-73.0,-1162.0,62.0,-256.0,660.0,-369.0,-49.0
19:31:05.395000,72.0,128.0,-131.0,-1182.0,96.0,-275.0,660.0,-369.0,-49.0
19:31:05.399000,52.0,118.0,-183.0,-1189.0,114.0,-286.0,660.0,-369.0,-49.0
19:31:05.404000,42.0,98.0,-212.0,-1181.0,123.0,-294.0,667.0,-369.0,-40.0
19:31:05.409000,31.0,74.0,-195.0,-1157.0,106.0,-298.0,667.0,-369.0,-40.0
19:31:05.413000,16.0,56.0,-185.0,-1141.0,87.0,-295.0,661.0,-364.0,-46.0
19:31:05.418000,-2.0,45.0,-211.0,-1155.0,93.0,-295.0,661.0,-364.0,-46.0
19:31:05.422000,-2.0,45.0,-211.0,-1156.0,106.0,-293.0,661.0,-364.0,-46.0
19:31:05.427000,-11.0,0.0,-205.0,-1143.0,91.0,-283.0,661.0,-366.0,-42.0
19:31:05.432000,-23.0,-19.0,-176.0,-1142.0,46.0,-274.0,661.0,-366.0,-42.0
19:31:05.437000,-23.0,-19.0,-176.0,-1153.0,11.0,-268.0,660.0,-360.0,-43.0
19:31:05.442000,-49.0,-23.0,-193.0,-1177.0,0.0,-269.0,660.0,-360.0,-43.0
19:31:05.446000,-46.0,-35.0,-247.0,-1146.0,11.0,-269.0,660.0,-360.0,-43.0
19:31:05.451000,-15.0,-84.0,-203.0,-1100.0,36.0,-266.0,670.0,-354.0,-43.0
19:31:05.456000,-33.0,-93.0,-190.0,-1142.0,64.0,-261.0,670.0,-354.0,-43.0
19:31:05.460000,-42.0,-91.0,-268.0,-1199.0,108.0,-279.0,660.0,-355.0,-51.0
19:31:05.465000,4.0,-115.0,-336.0,-1228.0,123.0,-280.0,660.0,-355.0,-51.0
19:31:05.469000,-61.0,-97.0,-358.0,-1263.0,90.0,-277.0,660.0,-355.0,-51.0
19:31:05.474000,-64.0,-86.0,-371.0,-1239.0,56.0,-294.0,661.0,-352.0,-51.0
19:31:05.479000,-42.0,-97.0,-273.0,-1178.0,63.0,-280.0,661.0,-352.0,-51.0
19:31:05.484000,-65.0,-86.0,-171.0,-1178.0,87.0,-269.0,658.0,-354.0,-51.0
19:31:05.489000,-94.0,-55.0,-238.0,-1232.0,44.0,-265.0,658.0,-354.0,-51.0
19:31:05.493000,-70.0,-40.0,-324.0,-1125.0,-23.0,-273.0,658.0,-354.0,-51.0
19:31:05.498000,-4.0,-43.0,-325.0,-1125.0,-30.0,-273.0,660.0,-346.0,-46.0
19:31:05.503000,43.0,-70.0,-237.0,-988.0,-30.0,-247.0,660.0,-346.0,-46.0
19:31:05.507000,50.0,-68.0,-165.0,-952.0,43.0,-207.0,655.0,-343.0,-39.0
19:31:05.512000,51.0,-64.0,-174.0,-1013.0,109.0,-200.0,655.0,-343.0,-39.0
19:31:05.516000,53.0,-35.0,-210.0,-1093.0,107.0,-204.0,655.0,-343.0,-39.0
19:31:05.521000,74.0,-31.0,-173.0,-1127.0,96.0,-218.0,652.0,-340.0,-48.0
19:31:05.526000,52.0,-19.0,-93.0,-1085.0,119.0,-201.0,652.0,-340.0,-48.0
19:31:05.531000,46.0,-8.0,-64.0,-1024.0,158.0,-184.0,655.0,-342.0,-40.0
19:31:05.536000,31.0,-3.0,-50.0,-995.0,155.0,-177.0,655.0,-342.0,-40.0
19:31:05.543000,32.0,2.0,-31.0,-982.0,179.0,-175.0,654.0,-340.0,-40.0
19:31:05.545000,17.0,15.0,-31.0,-982.0,179.0,-175.0,654.0,-340.0,-40.0
19:31:05.549000,17.0,15.0,-31.0,-1034.0,174.0,-193.0,654.0,-340.0,-40.0
19:31:05.554000,44.0,11.0,-32.0,-1042.0,125.0,-200.0,657.0,-340.0,-49.0
19:31:05.559000,23.0,32.0,-17.0,-1048.0,96.0,-196.0,657.0,-340.0,-49.0
19:31:05.564000,46.0,29.0,20.0,-1029.0,159.0,-170.0,660.0,-337.0,-49.0
19:31:05.568000,14.0,30.0,-53.0,-989.0,176.0,-160.0,660.0,-337.0,-49.0
19:31:05.572000,23.0,31.0,-125.0,-961.0,136.0,-173.0,660.0,-337.0,-49.0
19:31:05.578000,27.0,26.0,-140.0,-972.0,60.0,-180.0,654.0,-340.0,-46.0
19:31:05.583000,33.0,20.0,-119.0,-990.0,-6.0,-177.0,654.0,-340.0,-46.0
19:31:05.587000,39.0,7.0,-89.0,-998.0,3.0,-178.0,655.0,-351.0,-45.0
19:31:05.592000,38.0,13.0,-115.0,-1004.0,74.0,-190.0,655.0,-351.0,-45.0
19:31:05.596000,74.0,-9.0,-116.0,-1003.0,125.0,-184.0,655.0,-351.0,-45.0
19:31:05.601000,83.0,-26.0,-110.0,-985.0,102.0,-183.0,649.0,-340.0,-45.0
19:31:05.606000,52.0,-25.0,-141.0,-953.0,82.0,-183.0,649.0,-340.0,-45.0
19:31:05.611000,52.0,-32.0,-140.0,-953.0,82.0,-183.0,658.0,-337.0,-48.0
19:31:05.615000,56.0,-46.0,-153.0,-958.0,129.0,-175.0,658.0,-337.0,-48.0
19:31:05.619000,36.0,-45.0,-168.0,-987.0,142.0,-171.0,658.0,-337.0,-48.0
19:31:05.625000,52.0,-51.0,-177.0,-1012.0,93.0,-173.0,652.0,-331.0,-39.0
19:31:05.630000,58.0,-51.0,-196.0,-1044.0,67.0,-178.0,652.0,-331.0,-39.0
19:31:05.634000,60.0,-46.0,-218.0,-1056.0,93.0,-179.0,657.0,-337.0,-39.0
19:31:05.639000,81.0,-44.0,-233.0,-1060.0,180.0,-183.0,657.0,-337.0,-39.0
19:31:05.643000,81.0,-44.0,-233.0,-1059.0,206.0,-181.0,657.0,-337.0,-39.0
19:31:05.648000,62.0,-21.0,-249.0,-1041.0,127.0,-180.0,655.0,-337.0,-48.0
19:31:05.653000,84.0,-13.0,-235.0,-1039.0,76.0,-187.0,655.0,-337.0,-48.0
19:31:05.658000,84.0,-13.0,-235.0,-1067.0,99.0,-192.0,669.0,-328.0,-46.0
19:31:05.662000,100.0,-2.0,-257.0,-1103.0,120.0,-188.0,669.0,-328.0,-46.0
19:31:05.666000,74.0,15.0,-292.0,-1122.0,123.0,-197.0,669.0,-328.0,-46.0
19:31:05.672000,67.0,28.0,-308.0,-1103.0,134.0,-212.0,661.0,-327.0,-42.0
19:31:05.677000,65.0,36.0,-312.0,-1052.0,136.0,-219.0,661.0,-327.0,-42.0
19:31:05.681000,65.0,42.0,-319.0,-997.0,155.0,-233.0,636.0,-328.0,-45.0
19:31:05.686000,69.0,49.0,-335.0,-973.0,208.0,-243.0,636.0,-328.0,-45.0
19:31:05.690000,65.0,55.0,-345.0,-974.0,251.0,-248.0,636.0,-328.0,-45.0
19:31:05.695000,60.0,63.0,-347.0,-994.0,249.0,-256.0,658.0,-324.0,-45.0
19:31:05.700000,39.0,73.0,-356.0,-1026.0,231.0,-267.0,658.0,-324.0,-45.0
19:31:05.705000,32.0,86.0,-378.0,-1026.0,231.0,-267.0,660.0,-318.0,-43.0
19:31:05.709000,23.0,86.0,-380.0,-1027.0,217.0,-281.0,660.0,-318.0,-43.0
19:31:05.713000,16.0,83.0,-386.0,-1006.0,220.0,-292.0,660.0,-318.0,-43.0
19:31:05.719000,12.0,77.0,-385.0,-1006.0,220.0,-292.0,658.0,-316.0,-39.0
19:31:05.723000,12.0,75.0,-364.0,-918.0,274.0,-297.0,658.0,-316.0,-39.0
19:31:05.728000,12.0,70.0,-362.0,-918.0,274.0,-297.0,654.0,-315.0,-49.0
19:31:05.733000,-4.0,69.0,-390.0,-938.0,254.0,-298.0,654.0,-315.0,-49.0
19:31:05.737000,7.0,68.0,-415.0,-975.0,223.0,-300.0,654.0,-315.0,-49.0
19:31:05.742000,37.0,62.0,-441.0,-993.0,245.0,-302.0,652.0,-312.0,-40.0
19:31:05.747000,41.0,52.0,-449.0,-1001.0,293.0,-295.0,652.0,-312.0,-40.0
19:31:05.752000,47.0,58.0,-438.0,-995.0,299.0,-292.0,667.0,-303.0,-46.0
19:31:05.756000,64.0,57.0,-445.0,-994.0,288.0,-294.0,667.0,-303.0,-46.0
19:31:05.760000,64.0,57.0,-445.0,-1009.0,259.0,-287.0,667.0,-303.0,-46.0
19:31:05.766000,51.0,70.0,-456.0,-1027.0,196.0,-278.0,648.0,-306.0,-42.0
19:31:05.770000,67.0,72.0,-459.0,-1057.0,151.0,-272.0,648.0,-306.0,-42.0
19:31:05.775000,81.0,74.0,-460.0,-1103.0,154.0,-272.0,657.0,-297.0,-24.0
19:31:05.780000,98.0,75.0,-456.0,-1124.0,199.0,-276.0,657.0,-297.0,-24.0
19:31:05.784000,112.0,84.0,-476.0,-1119.0,231.0,-275.0,657.0,-297.0,-24.0
19:31:05.789000,102.0,98.0,-492.0,-1111.0,261.0,-272.0,652.0,-292.0,-37.0
19:31:05.794000,95.0,109.0,-487.0,-1082.0,307.0,-259.0,652.0,-292.0,-37.0
19:31:05.799000,84.0,122.0,-463.0,-1027.0,334.0,-250.0,661.0,-294.0,-37.0
19:31:05.803000,104.0,121.0,-459.0,-932.0,275.0,-275.0,661.0,-294.0,-37.0
19:31:05.807000,123.0,121.0,-475.0,-926.0,206.0,-278.0,661.0,-294.0,-37.0
19:31:05.813000,128.0,121.0,-503.0,-1042.0,264.0,-252.0,652.0,-288.0,-36.0
19:31:05.817000,123.0,127.0,-563.0,-1098.0,350.0,-247.0,652.0,-288.0,-36.0
19:31:05.822000,107.0,141.0,-579.0,-1098.0,350.0,-247.0,652.0,-289.0,-40.0
19:31:05.827000,92.0,160.0,-555.0,-1097.0,368.0,-243.0,652.0,-289.0,-40.0
19:31:05.831000,98.0,164.0,-522.0,-1094.0,368.0,-235.0,652.0,-289.0,-40.0
19:31:05.836000,126.0,158.0,-473.0,-1087.0,342.0,-229.0,655.0,-286.0,-39.0
19:31:05.841000,142.0,155.0,-411.0,-1074.0,314.0,-214.0,655.0,-286.0,-39.0
19:31:05.846000,175.0,148.0,-364.0,-1039.0,316.0,-202.0,655.0,-277.0,-34.0
19:31:05.850000,244.0,117.0,-484.0,-926.0,319.0,-235.0,655.0,-277.0,-34.0
19:31:05.854000,252.0,127.0,-705.0,-823.0,228.0,-307.0,655.0,-277.0,-34.0
19:31:05.860000,191.0,139.0,-908.0,-915.0,367.0,-307.0,663.0,-274.0,-27.0
19:31:05.864000,85.0,185.0,-899.0,-1013.0,617.0,-257.0,663.0,-274.0,-27.0
19:31:05.869000,57.0,199.0,-683.0,-1023.0,615.0,-261.0,640.0,-268.0,-22.0
19:31:05.874000,54.0,204.0,-529.0,-1100.0,551.0,-280.0,640.0,-268.0,-22.0
19:31:05.878000,54.0,204.0,-529.0,-1173.0,468.0,-283.0,640.0,-268.0,-22.0
19:31:05.883000,50.0,202.0,-507.0,-1159.0,344.0,-279.0,649.0,-262.0,-24.0
19:31:05.888000,44.0,198.0,-479.0,-1122.0,281.0,-279.0,649.0,-262.0,-24.0
19:31:05.893000,51.0,208.0,-476.0,-1107.0,359.0,-293.0,658.0,-252.0,-24.0
19:31:05.897000,115.0,194.0,-503.0,-1071.0,444.0,-295.0,658.0,-252.0,-24.0
19:31:05.901000,91.0,205.0,-516.0,-1022.0,477.0,-284.0,658.0,-252.0,-24.0
19:31:05.907000,70.0,221.0,-569.0,-984.0,549.0,-297.0,660.0,-259.0,-22.0
19:31:05.911000,88.0,234.0,-705.0,-903.0,593.0,-299.0,660.0,-259.0,-22.0
19:31:05.916000,67.0,242.0,-704.0,-845.0,553.0,-308.0,663.0,-250.0,-16.0
19:31:05.921000,70.0,251.0,-575.0,-914.0,508.0,-330.0,663.0,-250.0,-16.0
19:31:05.925000,80.0,248.0,-515.0,-1039.0,510.0,-335.0,663.0,-250.0,-16.0
19:31:05.930000,79.0,250.0,-575.0,-1103.0,559.0,-354.0,654.0,-247.0,-25.0
19:31:05.935000,77.0,265.0,-659.0,-1086.0,588.0,-366.0,654.0,-247.0,-25.0
19:31:05.940000,81.0,262.0,-674.0,-1086.0,588.0,-366.0,655.0,-244.0,-18.0
19:31:05.944000,81.0,261.0,-625.0,-1027.0,569.0,-367.0,655.0,-244.0,-18.0
19:31:05.952000,92.0,260.0,-551.0,-994.0,549.0,-389.0,658.0,-235.0,-15.0
19:31:05.954000,86.0,268.0,-490.0,-994.0,549.0,-389.0,658.0,-235.0,-15.0
19:31:05.958000,86.0,280.0,-450.0,-1040.0,573.0,-397.0,658.0,-235.0,-15.0
19:31:05.963000,124.0,287.0,-440.0,-1035.0,604.0,-414.0,657.0,-232.0,-9.0
19:31:05.968000,139.0,291.0,-364.0,-993.0,640.0,-421.0,657.0,-232.0,-9.0
19:31:05.973000,157.0,294.0,-281.0,-982.0,651.0,-415.0,658.0,-220.0,-4.0
19:31:05.977000,162.0,296.0,-332.0,-972.0,686.0,-396.0,658.0,-220.0,-4.0
19:31:05.981000,162.0,296.0,-332.0,-918.0,720.0,-385.0,658.0,-220.0,-4.0
19:31:05.987000,170.0,293.0,-392.0,-850.0,743.0,-395.0,658.0,-229.0,-12.0
19:31:05.991000,177.0,290.0,-380.0,-893.0,827.0,-395.0,658.0,-229.0,-12.0
19:31:05.996000,195.0,289.0,-323.0,-1009.0,853.0,-404.0,661.0,-220.0,9.0
19:31:06.001000,203.0,284.0,-237.0,-1093.0,798.0,-429.0,661.0,-220.0,9.0
19:31:06.005000,224.0,271.0,-252.0,-1112.0,771.0,-457.0,661.0,-220.0,9.0
19:31:06.010000,200.0,272.0,-272.0,-1078.0,768.0,-463.0,649.0,-222.0,-10.0
19:31:06.015000,165.0,259.0,-198.0,-1058.0,800.0,-463.0,649.0,-222.0,-10.0
19:31:06.020000,147.0,233.0,-67.0,-1075.0,840.0,-464.0,663.0,-222.0,-9.0
19:31:06.024000,106.0,215.0,28.0,-1104.0,837.0,-443.0,663.0,-222.0,-9.0
19:31:06.028000,56.0,202.0,51.0,-1091.0,787.0,-415.0,663.0,-222.0,-9.0
19:31:06.034000,51.0,177.0,46.0,-1009.0,660.0,-388.0,664.0,-220.0,0.0
19:31:06.038000,54.0,142.0,97.0,-939.0,512.0,-374.0,664.0,-220.0,0.0
19:31:06.043000,91.0,107.0,116.0,-939.0,512.0,-374.0,651.0,-223.0,7.0
19:31:06.048000,135.0,79.0,44.0,-960.0,483.0,-367.0,651.0,-223.0,7.0
19:31:06.052000,154.0,60.0,-22.0,-1020.0,501.0,-350.0,651.0,-223.0,7.0
19:31:06.057000,184.0,40.0,-41.0,-1053.0,485.0,-339.0,666.0,-222.0,3.0
19:31:06.062000,199.0,29.0,-44.0,-1070.0,485.0,-337.0,666.0,-222.0,3.0
19:31:06.067000,210.0,13.0,-80.0,-1088.0,532.0,-334.0,658.0,-220.0,-3.0
19:31:06.071000,195.0,9.0,-91.0,-1076.0,579.0,-330.0,658.0,-220.0,-3.0
19:31:06.075000,193.0,-4.0,-95.0,-1050.0,604.0,-332.0,658.0,-220.0,-3.0
19:31:06.081000,181.0,-18.0,-102.0,-1031.0,622.0,-332.0,658.0,-223.0,3.0
19:31:06.085000,169.0,-39.0,-113.0,-996.0,630.0,-326.0,658.0,-223.0,3.0
19:31:06.090000,149.0,-57.0,-112.0,-950.0,645.0,-319.0,664.0,-223.0,3.0
19:31:06.095000,149.0,-57.0,-112.0,-895.0,651.0,-309.0,664.0,-223.0,3.0
19:31:06.099000,119.0,-70.0,-82.0,-853.0,649.0,-298.0,664.0,-223.0,3.0
19:31:06.104000,96.0,-85.0,-42.0,-813.0,626.0,-285.0,663.0,-226.0,6.0
19:31:06.109000,71.0,-91.0,0.0,-764.0,587.0,-269.0,663.0,-226.0,6.0
19:31:06.114000,46.0,-91.0,38.0,-712.0,530.0,-252.0,664.0,-220.0,-3.0
19:31:06.118000,24.0,-87.0,81.0,-668.0,463.0,-243.0,664.0,-220.0,-3.0
19:31:06.122000,12.0,-84.0,111.0,-656.0,423.0,-243.0,664.0,-220.0,-3.0
19:31:06.128000,6.0,-80.0,106.0,-671.0,411.0,-242.0,673.0,-216.0,12.0
19:31:06.132000,7.0,-77.0,72.0,-682.0,402.0,-234.0,673.0,-216.0,12.0
19:31:06.137000,7.0,-75.0,41.0,-673.0,370.0,-219.0,673.0,-223.0,19.0
19:31:06.142000,9.0,-72.0,39.0,-642.0,317.0,-200.0,673.0,-223.0,19.0
19:31:06.146000,21.0,-75.0,55.0,-603.0,261.0,-180.0,673.0,-223.0,19.0
19:31:06.151000,43.0,-85.0,74.0,-560.0,209.0,-162.0,673.0,-214.0,10.0
19:31:06.156000,74.0,-97.0,98.0,-560.0,172.0,-162.0,673.0,-214.0,10.0
19:31:06.161000,112.0,-114.0,122.0,-519.0,172.0,-147.0,666.0,-213.0,1.0
19:31:06.165000,151.0,-134.0,147.0,-491.0,159.0,-135.0,666.0,-213.0,1.0
19:31:06.169000,189.0,-152.0,177.0,-471.0,164.0,-126.0,666.0,-213.0,1.0
19:31:06.175000,219.0,-167.0,216.0,-455.0,175.0,-118.0,676.0,-228.0,3.0
19:31:06.179000,243.0,-181.0,252.0,-445.0,211.0,-110.0,676.0,-228.0,3.0
19:31:06.184000,259.0,-191.0,285.0,-445.0,211.0,-110.0,660.0,-220.0,7.0
19:31:06.189000,268.0,-196.0,309.0,-444.0,231.0,-108.0,660.0,-220.0,7.0
19:31:06.193000,268.0,-196.0,309.0,-447.0,259.0,-106.0,660.0,-220.0,7.0
19:31:06.198000,256.0,-184.0,309.0,-450.0,286.0,-103.0,672.0,-217.0,-3.0
19:31:06.203000,244.0,-172.0,289.0,-457.0,307.0,-101.0,672.0,-217.0,-3.0
19:31:06.208000,244.0,-172.0,289.0,-466.0,330.0,-100.0,675.0,-231.0,-1.0
19:31:06.212000,225.0,-156.0,249.0,-472.0,349.0,-99.0,675.0,-231.0,-1.0
19:31:06.216000,205.0,-137.0,206.0,-478.0,365.0,-99.0,675.0,-231.0,-1.0
19:31:06.222000,179.0,-118.0,165.0,-485.0,376.0,-98.0,672.0,-228.0,9.0
19:31:06.226000,147.0,-98.0,140.0,-496.0,381.0,-99.0,672.0,-228.0,9.0
19:31:06.231000,114.0,-75.0,130.0,-507.0,381.0,-102.0,672.0,-240.0,-6.0
19:31:06.236000,74.0,-58.0,131.0,-512.0,382.0,-99.0,672.0,-240.0,-6.0
19:31:06.240000,33.0,-43.0,140.0,-506.0,387.0,-94.0,672.0,-240.0,-6.0
19:31:06.245000,-9.0,-32.0,152.0,-481.0,386.0,-94.0,676.0,-237.0,-4.0
19:31:06.250000,-52.0,-19.0,173.0,-450.0,371.0,-96.0,676.0,-237.0,-4.0
19:31:06.255000,-93.0,-12.0,203.0,-450.0,371.0,-96.0,676.0,-228.0,-6.0
19:31:06.259000,-128.0,-7.0,226.0,-425.0,347.0,-102.0,676.0,-228.0,-6.0
19:31:06.263000,-161.0,1.0,240.0,-432.0,335.0,-107.0,676.0,-228.0,-6.0
19:31:06.269000,-191.0,11.0,245.0,-432.0,335.0,-107.0,669.0,-240.0,-9.0
19:31:06.273000,-214.0,21.0,243.0,-450.0,272.0,-114.0,669.0,-240.0,-9.0
19:31:06.278000,-223.0,28.0,235.0,-450.0,272.0,-114.0,678.0,-237.0,12.0
19:31:06.283000,-216.0,30.0,231.0,-446.0,215.0,-119.0,678.0,-237.0,12.0
19:31:06.287000,-196.0,30.0,225.0,-432.0,157.0,-123.0,678.0,-237.0,12.0
19:31:06.292000,-163.0,23.0,217.0,-421.0,108.0,-128.0,672.0,-240.0,6.0
19:31:06.297000,-119.0,11.0,204.0,-417.0,70.0,-133.0,672.0,-240.0,6.0
19:31:06.302000,-73.0,-2.0,194.0,-416.0,46.0,-134.0,678.0,-243.0,3.0
19:31:06.306000,-28.0,-17.0,191.0,-416.0,37.0,-135.0,678.0,-243.0,3.0
19:31:06.310000,-28.0,-17.0,191.0,-420.0,48.0,-137.0,678.0,-243.0,3.0
19:31:06.316000,8.0,-30.0,196.0,-433.0,79.0,-138.0,676.0,-238.0,7.0
19:31:06.320000,32.0,-37.0,201.0,-451.0,120.0,-138.0,676.0,-238.0,7.0
19:31:06.325000,41.0,-40.0,211.0,-471.0,153.0,-137.0,669.0,-232.0,10.0
19:31:06.330000,40.0,-41.0,225.0,-488.0,165.0,-138.0,669.0,-232.0,10.0
19:31:06.334000,32.0,-36.0,245.0,-497.0,156.0,-138.0,669.0,-232.0,10.0
19:31:06.339000,18.0,-32.0,272.0,-500.0,147.0,-137.0,681.0,-237.0,3.0
19:31:06.344000,7.0,-31.0,298.0,-501.0,143.0,-139.0,681.0,-237.0,3.0
19:31:06.349000,-1.0,-32.0,322.0,-503.0,142.0,-138.0,681.0,-249.0,0.0
19:31:06.353000,-8.0,-33.0,340.0,-509.0,145.0,-136.0,681.0,-249.0,0.0
19:31:06.357000,-13.0,-35.0,354.0,-517.0,137.0,-133.0,681.0,-249.0,0.0
19:31:06.363000,-11.0,-42.0,368.0,-527.0,120.0,-131.0,682.0,-243.0,-4.0
19:31:06.367000,-10.0,-44.0,382.0,-544.0,109.0,-131.0,682.0,-243.0,-4.0
19:31:06.372000,-12.0,-48.0,392.0,-544.0,109.0,-131.0,687.0,-247.0,-3.0
19:31:06.377000,-20.0,-49.0,404.0,-562.0,110.0,-132.0,687.0,-247.0,-3.0
19:31:06.381000,-31.0,-50.0,416.0,-573.0,119.0,-136.0,687.0,-247.0,-3.0
19:31:06.386000,-44.0,-51.0,421.0,-574.0,128.0,-139.0,694.0,-264.0,-1.0
19:31:06.391000,-59.0,-56.0,417.0,-566.0,132.0,-143.0,694.0,-264.0,-1.0
19:31:06.396000,-72.0,-65.0,411.0,-550.0,126.0,-144.0,694.0,-262.0,6.0
19:31:06.400000,-80.0,-79.0,405.0,-521.0,110.0,-143.0,694.0,-262.0,6.0
19:31:06.404000,-84.0,-100.0,399.0,-484.0,90.0,-141.0,694.0,-262.0,6.0
19:31:06.410000,-85.0,-124.0,390.0,-447.0,81.0,-138.0,682.0,-261.0,-7.0
19:31:06.414000,-84.0,-150.0,379.0,-417.0,87.0,-135.0,682.0,-261.0,-7.0
19:31:06.419000,-83.0,-175.0,371.0,-398.0,99.0,-135.0,694.0,-256.0,13.0
19:31:06.424000,-83.0,-175.0,371.0,-388.0,106.0,-135.0,694.0,-256.0,13.0
19:31:06.428000,-80.0,-199.0,370.0,-396.0,110.0,-135.0,694.0,-256.0,13.0
19:31:06.433000,-81.0,-219.0,368.0,-422.0,117.0,-137.0,685.0,-271.0,6.0
19:31:06.438000,-84.0,-234.0,368.0,-450.0,115.0,-137.0,685.0,-271.0,6.0
19:31:06.443000,-88.0,-245.0,373.0,-474.0,100.0,-137.0,688.0,-274.0,-4.0
19:31:06.447000,-88.0,-254.0,379.0,-493.0,80.0,-136.0,688.0,-274.0,-4.0
19:31:06.451000,-78.0,-262.0,382.0,-512.0,74.0,-135.0,688.0,-274.0,-4.0
19:31:06.457000,-65.0,-267.0,375.0,-534.0,96.0,-131.0,684.0,-271.0,-7.0
19:31:06.461000,-56.0,-270.0,361.0,-550.0,129.0,-123.0,684.0,-271.0,-7.0
19:31:06.466000,-53.0,-271.0,354.0,-556.0,159.0,-119.0,664.0,-277.0,-3.0
19:31:06.471000,-53.0,-269.0,357.0,-552.0,182.0,-116.0,664.0,-277.0,-3.0
19:31:06.475000,-58.0,-263.0,369.0,-548.0,206.0,-111.0,664.0,-277.0,-3.0
19:31:06.480000,-69.0,-252.0,385.0,-543.0,227.0,-103.0,681.0,-277.0,-9.0
19:31:06.485000,-83.0,-239.0,408.0,-543.0,227.0,-103.0,681.0,-277.0,-9.0
19:31:06.490000,-96.0,-224.0,436.0,-536.0,235.0,-95.0,682.0,-286.0,-22.0
19:31:06.494000,-104.0,-209.0,462.0,-533.0,229.0,-89.0,682.0,-286.0,-22.0
19:31:06.498000,-106.0,-193.0,487.0,-539.0,214.0,-85.0,682.0,-286.0,-22.0
19:31:06.504000,-103.0,-177.0,513.0,-556.0,199.0,-82.0,676.0,-274.0,-18.0
19:31:06.508000,-99.0,-161.0,534.0,-584.0,192.0,-80.0,676.0,-274.0,-18.0
19:31:06.513000,-97.0,-143.0,555.0,-610.0,184.0,-79.0,681.0,-295.0,-22.0
19:31:06.518000,-92.0,-128.0,578.0,-623.0,163.0,-80.0,681.0,-295.0,-22.0
19:31:06.522000,-92.0,-128.0,578.0,-624.0,139.0,-82.0,681.0,-295.0,-22.0
19:31:06.527000,-75.0,-104.0,601.0,-622.0,130.0,-83.0,688.0,-291.0,-18.0
19:31:06.532000,-72.0,-95.0,593.0,-619.0,145.0,-83.0,688.0,-291.0,-18.0
19:31:06.537000,-72.0,-95.0,593.0,-613.0,172.0,-85.0,678.0,-294.0,-21.0
19:31:06.541000,-74.0,-84.0,581.0,-601.0,189.0,-88.0,678.0,-294.0,-21.0
19:31:06.545000,-77.0,-77.0,573.0,-586.0,187.0,-90.0,678.0,-294.0,-21.0
19:31:06.551000,-81.0,-72.0,569.0,-571.0,172.0,-92.0,670.0,-301.0,-25.0
19:31:06.555000,-84.0,-70.0,568.0,-560.0,156.0,-100.0,670.0,-301.0,-25.0
19:31:06.560000,-83.0,-70.0,564.0,-561.0,156.0,-110.0,669.0,-303.0,-27.0
19:31:06.565000,-87.0,-70.0,549.0,-572.0,168.0,-119.0,669.0,-303.0,-27.0
19:31:06.569000,-95.0,-71.0,531.0,-587.0,175.0,-129.0,669.0,-303.0,-27.0
19:31:06.574000,-109.0,-69.0,513.0,-610.0,173.0,-142.0,679.0,-319.0,-27.0
19:31:06.579000,-123.0,-65.0,497.0,-640.0,162.0,-165.0,679.0,-319.0,-27.0
19:31:06.584000,-132.0,-61.0,483.0,-640.0,162.0,-165.0,679.0,-316.0,-37.0
19:31:06.588000,-140.0,-59.0,465.0,-740.0,168.0,-211.0,679.0,-316.0,-37.0
19:31:06.592000,-154.0,-56.0,446.0,-792.0,180.0,-226.0,679.0,-316.0,-37.0
19:31:06.598000,-169.0,-56.0,434.0,-822.0,172.0,-239.0,682.0,-318.0,-24.0
19:31:06.602000,-179.0,-57.0,431.0,-822.0,172.0,-239.0,682.0,-318.0,-24.0
19:31:06.607000,-189.0,-63.0,431.0,-838.0,155.0,-248.0,684.0,-328.0,-27.0
19:31:06.612000,-198.0,-70.0,429.0,-848.0,147.0,-249.0,684.0,-328.0,-27.0
19:31:06.616000,-207.0,-74.0,429.0,-856.0,145.0,-247.0,684.0,-328.0,-27.0
19:31:06.621000,-217.0,-79.0,431.0,-869.0,147.0,-249.0,676.0,-325.0,-39.0
19:31:06.626000,-229.0,-81.0,429.0,-891.0,157.0,-250.0,676.0,-325.0,-39.0
19:31:06.631000,-244.0,-78.0,422.0,-923.0,172.0,-252.0,682.0,-325.0,-27.0
19:31:06.635000,-261.0,-74.0,409.0,-956.0,181.0,-254.0,682.0,-325.0,-27.0
19:31:06.639000,-261.0,-74.0,409.0,-984.0,175.0,-257.0,682.0,-325.0,-27.0
19:31:06.645000,-275.0,-72.0,401.0,-1003.0,152.0,-254.0,672.0,-337.0,-25.0
19:31:06.649000,-287.0,-77.0,399.0,-1011.0,127.0,-247.0,672.0,-337.0,-25.0
19:31:06.654000,-294.0,-86.0,403.0,-1008.0,117.0,-242.0,675.0,-331.0,-28.0
19:31:06.659000,-298.0,-97.0,404.0,-1000.0,136.0,-235.0,675.0,-331.0,-28.0
19:31:06.663000,-305.0,-105.0,394.0,-987.0,177.0,-223.0,675.0,-331.0,-28.0
19:31:06.668000,-317.0,-112.0,374.0,-963.0,215.0,-213.0,693.0,-336.0,-30.0
19:31:06.673000,-335.0,-116.0,350.0,-932.0,240.0,-212.0,693.0,-336.0,-30.0
19:31:06.678000,-348.0,-119.0,324.0,-907.0,264.0,-223.0,685.0,-339.0,-39.0
19:31:06.682000,-351.0,-119.0,295.0,-902.0,308.0,-245.0,685.0,-339.0,-39.0
19:31:06.690000,-336.0,-111.0,208.0,-952.0,437.0,-303.0,678.0,-333.0,-21.0
19:31:06.692000,-336.0,-111.0,208.0,-952.0,437.0,-303.0,678.0,-333.0,-21.0
19:31:06.696000,-315.0,-107.0,165.0,-978.0,494.0,-335.0,678.0,-333.0,-21.0
19:31:06.701000,-286.0,-100.0,128.0,-1002.0,548.0,-361.0,670.0,-343.0,-40.0
19:31:06.706000,-254.0,-91.0,105.0,-1002.0,548.0,-361.0,670.0,-343.0,-40.0
19:31:06.710000,-219.0,-82.0,103.0,-1015.0,590.0,-380.0,673.0,-330.0,-31.0
19:31:06.715000,-186.0,-72.0,109.0,-1010.0,626.0,-394.0,673.0,-330.0,-31.0
19:31:06.719000,-157.0,-65.0,118.0,-993.0,667.0,-397.0,673.0,-330.0,-31.0
19:31:06.725000,-132.0,-58.0,132.0,-963.0,707.0,-394.0,666.0,-331.0,-40.0
19:31:06.729000,-112.0,-47.0,138.0,-932.0,745.0,-392.0,666.0,-331.0,-40.0
19:31:06.734000,-95.0,-41.0,120.0,-919.0,783.0,-382.0,666.0,-340.0,-40.0
19:31:06.739000,-84.0,-32.0,124.0,-878.0,766.0,-362.0,666.0,-340.0,-40.0
19:31:06.743000,-84.0,-32.0,124.0,-828.0,689.0,-337.0,666.0,-340.0,-40.0
19:31:06.748000,-30.0,-54.0,129.0,-806.0,661.0,-307.0,673.0,-348.0,-37.0
19:31:06.753000,-30.0,-54.0,129.0,-750.0,700.0,-269.0,673.0,-348.0,-37.0
19:31:06.757000,-28.0,-51.0,81.0,-665.0,755.0,-231.0,655.0,-337.0,-36.0
19:31:06.762000,-33.0,-44.0,44.0,-612.0,798.0,-200.0,655.0,-337.0,-36.0
19:31:06.766000,-35.0,-38.0,0.0,-587.0,810.0,-174.0,655.0,-337.0,-36.0
19:31:06.772000,-46.0,-26.0,-56.0,-572.0,821.0,-162.0,661.0,-343.0,-37.0
19:31:06.776000,-65.0,-3.0,-114.0,-579.0,860.0,-171.0,661.0,-343.0,-37.0
19:31:06.781000,-88.0,29.0,-166.0,-632.0,914.0,-202.0,658.0,-333.0,-25.0
19:31:06.786000,-116.0,65.0,-225.0,-715.0,950.0,-245.0,658.0,-333.0,-25.0
19:31:06.790000,-144.0,109.0,-278.0,-804.0,935.0,-299.0,658.0,-333.0,-25.0
19:31:06.795000,-139.0,141.0,-312.0,-887.0,848.0,-370.0,670.0,-337.0,-37.0
19:31:06.800000,-130.0,179.0,-317.0,-973.0,741.0,-415.0,670.0,-337.0,-37.0
19:31:06.804000,-112.0,151.0,-358.0,-973.0,741.0,-415.0,664.0,-340.0,-42.0
19:31:06.809000,-135.0,143.0,-571.0,-1526.0,494.0,-488.0,664.0,-340.0,-42.0
19:31:06.813000,-106.0,198.0,148.0,-1526.0,494.0,-488.0,664.0,-340.0,-42.0
19:31:06.819000,-32.0,193.0,946.0,-737.0,602.0,-521.0,664.0,-339.0,-31.0
19:31:06.823000,67.0,185.0,947.0,-737.0,602.0,-521.0,664.0,-339.0,-31.0
19:31:06.828000,79.0,191.0,583.0,-828.0,913.0,-471.0,669.0,-331.0,-33.0
19:31:06.833000,97.0,200.0,472.0,-843.0,877.0,-427.0,669.0,-331.0,-33.0
19:31:06.837000,138.0,176.0,620.0,-815.0,656.0,-400.0,669.0,-331.0,-33.0
19:31:06.842000,171.0,165.0,746.0,-941.0,554.0,-387.0,663.0,-345.0,-39.0
19:31:06.847000,168.0,153.0,763.0,-1146.0,548.0,-372.0,663.0,-345.0,-39.0
19:31:06.851000,165.0,143.0,653.0,-1283.0,509.0,-339.0,670.0,-340.0,-42.0
19:31:06.856000,135.0,137.0,557.0,-1375.0,478.0,-321.0,670.0,-340.0,-42.0
19:31:06.860000,135.0,137.0,557.0,-1415.0,443.0,-311.0,670.0,-340.0,-42.0
19:31:06.866000,98.0,135.0,538.0,-1414.0,427.0,-304.0,661.0,-360.0,-31.0
19:31:06.870000,56.0,134.0,531.0,-1420.0,444.0,-295.0,661.0,-360.0,-31.0
19:31:06.875000,9.0,133.0,435.0,-1412.0,449.0,-294.0,658.0,-357.0,-18.0
19:31:06.880000,-37.0,141.0,318.0,-1380.0,382.0,-297.0,658.0,-357.0,-18.0
19:31:06.884000,-81.0,139.0,265.0,-1329.0,300.0,-283.0,658.0,-357.0,-18.0
19:31:06.889000,-100.0,125.0,186.0,-1249.0,262.0,-265.0,672.0,-358.0,-22.0
19:31:06.894000,-114.0,105.0,95.0,-1151.0,207.0,-263.0,672.0,-358.0,-22.0
19:31:06.898000,-121.0,83.0,57.0,-1091.0,138.0,-268.0,657.0,-370.0,-19.0
19:31:06.903000,-121.0,63.0,37.0,-1081.0,106.0,-272.0,657.0,-370.0,-19.0
19:31:06.907000,-122.0,41.0,33.0,-1086.0,76.0,-279.0,657.0,-370.0,-19.0
19:31:06.913000,-130.0,26.0,50.0,-1106.0,28.0,-292.0,669.0,-358.0,-28.0
19:31:06.917000,-111.0,2.0,45.0,-1119.0,-31.0,-301.0,669.0,-358.0,-28.0
19:31:06.922000,-79.0,-28.0,57.0,-1119.0,-31.0,-301.0,655.0,-360.0,-27.0
19:31:06.927000,-44.0,-51.0,118.0,-1103.0,-72.0,-305.0,655.0,-360.0,-27.0
19:31:06.931000,-8.0,-73.0,179.0,-1090.0,-66.0,-303.0,655.0,-360.0,-27.0
19:31:06.936000,25.0,-90.0,177.0,-1126.0,-23.0,-304.0,678.0,-354.0,-33.0
19:31:06.941000,32.0,-95.0,133.0,-1190.0,17.0,-305.0,678.0,-354.0,-33.0
19:31:06.945000,30.0,-95.0,101.0,-1208.0,12.0,-296.0,654.0,-367.0,-37.0
19:31:06.950000,32.0,-90.0,74.0,-1210.0,-20.0,-290.0,654.0,-367.0,-37.0
19:31:06.957000,39.0,-92.0,67.0,-1217.0,-83.0,-255.0,667.0,-361.0,-24.0
19:31:06.960000,46.0,-101.0,63.0,-1217.0,-83.0,-255.0,667.0,-361.0,-24.0
19:31:06.964000,46.0,-101.0,63.0,-1232.0,-86.0,-243.0,667.0,-361.0,-24.0
19:31:06.969000,63.0,-106.0,-40.0,-1245.0,-75.0,-235.0,667.0,-372.0,-31.0
19:31:06.974000,63.0,-106.0,-40.0,-1282.0,-45.0,-232.0,667.0,-372.0,-31.0
19:31:06.978000,49.0,-93.0,-148.0,-1327.0,6.0,-232.0,654.0,-369.0,-27.0
19:31:06.983000,47.0,-82.0,-280.0,-1335.0,56.0,-230.0,654.0,-369.0,-27.0
19:31:06.987000,44.0,-72.0,-357.0,-1308.0,101.0,-232.0,654.0,-369.0,-27.0
19:31:06.992000,35.0,-65.0,-378.0,-1314.0,174.0,-238.0,660.0,-355.0,-34.0
19:31:06.997000,28.0,-65.0,-410.0,-1345.0,259.0,-244.0,660.0,-355.0,-34.0
19:31:07.001000,-17.0,-36.0,-436.0,-1332.0,297.0,-244.0,658.0,-349.0,-30.0
19:31:07.007000,-35.0,-4.0,-417.0,-1329.0,327.0,-226.0,658.0,-349.0,-30.0
19:31:07.011000,-36.0,15.0,-425.0,-1379.0,308.0,-219.0,658.0,-349.0,-30.0
19:31:07.016000,-100.0,63.0,-457.0,-1370.0,193.0,-219.0,658.0,-355.0,-42.0
19:31:07.021000,-77.0,77.0,-385.0,-1289.0,108.0,-210.0,658.0,-355.0,-42.0
19:31:07.025000,-44.0,72.0,-256.0,-1289.0,108.0,-210.0,654.0,-351.0,-33.0
19:31:07.030000,-54.0,98.0,-191.0,-1407.0,150.0,-250.0,654.0,-351.0,-33.0
19:31:07.034000,-49.0,126.0,-193.0,-1407.0,150.0,-250.0,654.0,-351.0,-33.0
19:31:07.039000,-56.0,176.0,-214.0,-1434.0,188.0,-237.0,661.0,-348.0,-33.0
19:31:07.044000,-60.0,227.0,-229.0,-1427.0,82.0,-259.0,661.0,-348.0,-33.0
19:31:07.049000,-59.0,260.0,-224.0,-1427.0,82.0,-259.0,646.0,-349.0,-25.0
19:31:07.054000,-14.0,274.0,-204.0,-1341.0,23.0,-259.0,646.0,-349.0,-25.0
19:31:07.058000,21.0,275.0,-171.0,-1240.0,52.0,-259.0,646.0,-349.0,-25.0
19:31:07.063000,35.0,277.0,-170.0,-1232.0,101.0,-274.0,660.0,-343.0,-36.0
19:31:07.068000,31.0,290.0,-201.0,-1230.0,88.0,-273.0,660.0,-343.0,-36.0
19:31:07.072000,59.0,271.0,-170.0,-1156.0,74.0,-269.0,666.0,-346.0,-30.0
19:31:07.077000,37.0,258.0,-150.0,-1100.0,120.0,-280.0,666.0,-346.0,-30.0
19:31:07.081000,37.0,258.0,-150.0,-1095.0,171.0,-297.0,666.0,-346.0,-30.0
19:31:07.086000,53.0,247.0,-149.0,-1093.0,186.0,-306.0,649.0,-342.0,-28.0
19:31:07.091000,63.0,221.0,-164.0,-1054.0,187.0,-303.0,649.0,-342.0,-28.0
19:31:07.096000,36.0,206.0,-175.0,-1003.0,184.0,-304.0,661.0,-343.0,-25.0
19:31:07.101000,23.0,177.0,-130.0,-1005.0,200.0,-311.0,661.0,-343.0,-25.0
19:31:07.105000,9.0,150.0,-172.0,-1025.0,201.0,-317.0,661.0,-343.0,-25.0
19:31:07.110000,7.0,112.0,-247.0,-996.0,171.0,-316.0,676.0,-331.0,-19.0
19:31:07.115000,-41.0,84.0,-268.0,-983.0,190.0,-322.0,676.0,-331.0,-19.0
19:31:07.119000,-64.0,61.0,-282.0,-964.0,178.0,-323.0,660.0,-328.0,-19.0
19:31:07.124000,-89.0,42.0,-270.0,-935.0,108.0,-320.0,660.0,-328.0,-19.0
19:31:07.128000,-79.0,17.0,-224.0,-950.0,73.0,-328.0,660.0,-328.0,-19.0
19:31:07.133000,-53.0,-18.0,-175.0,-978.0,104.0,-326.0,655.0,-336.0,-21.0
19:31:07.138000,-60.0,-37.0,-167.0,-1000.0,161.0,-324.0,655.0,-336.0,-21.0
19:31:07.143000,-72.0,-43.0,-189.0,-1000.0,161.0,-324.0,660.0,-330.0,-21.0
19:31:07.148000,-76.0,-51.0,-201.0,-1004.0,155.0,-325.0,660.0,-330.0,-21.0
19:31:07.152000,-57.0,-59.0,-194.0,-1003.0,117.0,-326.0,660.0,-330.0,-21.0
19:31:07.157000,-45.0,-67.0,-217.0,-1021.0,101.0,-323.0,660.0,-328.0,-13.0
19:31:07.162000,-18.0,-70.0,-250.0,-1033.0,94.0,-322.0,660.0,-328.0,-13.0
19:31:07.166000,7.0,-78.0,-279.0,-1048.0,111.0,-318.0,663.0,-331.0,-25.0
19:31:07.171000,30.0,-77.0,-267.0,-1080.0,93.0,-328.0,663.0,-331.0,-25.0
19:31:07.175000,44.0,-70.0,-263.0,-1121.0,49.0,-337.0,663.0,-331.0,-25.0
19:31:07.180000,54.0,-63.0,-299.0,-1177.0,80.0,-327.0,660.0,-327.0,-19.0
19:31:07.185000,59.0,-53.0,-290.0,-1188.0,122.0,-329.0,660.0,-327.0,-19.0
19:31:07.190000,59.0,-53.0,-290.0,-1155.0,137.0,-329.0,661.0,-325.0,-19.0
19:31:07.195000,79.0,-51.0,-266.0,-1127.0,138.0,-318.0,661.0,-325.0,-19.0
19:31:07.199000,91.0,-46.0,-257.0,-1129.0,137.0,-313.0,661.0,-325.0,-19.0
19:31:07.204000,109.0,-42.0,-279.0,-1142.0,143.0,-313.0,658.0,-330.0,-19.0
19:31:07.209000,123.0,-35.0,-301.0,-1130.0,142.0,-307.0,658.0,-330.0,-19.0
19:31:07.213000,133.0,-31.0,-323.0,-1115.0,126.0,-305.0,669.0,-328.0,-13.0
19:31:07.218000,127.0,-20.0,-359.0,-1102.0,108.0,-311.0,669.0,-328.0,-13.0
19:31:07.222000,148.0,-16.0,-378.0,-1108.0,114.0,-321.0,669.0,-328.0,-13.0
19:31:07.227000,161.0,-12.0,-392.0,-1112.0,142.0,-319.0,654.0,-330.0,-19.0
19:31:07.232000,163.0,-9.0,-400.0,-1108.0,192.0,-314.0,654.0,-330.0,-19.0
19:31:07.237000,155.0,-1.0,-436.0,-1103.0,251.0,-314.0,666.0,-313.0,-15.0
19:31:07.242000,149.0,7.0,-480.0,-1061.0,281.0,-304.0,666.0,-313.0,-15.0
19:31:07.246000,144.0,12.0,-489.0,-1015.0,271.0,-298.0,666.0,-313.0,-15.0
19:31:07.251000,140.0,14.0,-450.0,-1029.0,232.0,-297.0,652.0,-316.0,-22.0
19:31:07.256000,119.0,23.0,-403.0,-1029.0,232.0,-297.0,652.0,-316.0,-22.0
19:31:07.260000,106.0,32.0,-385.0,-1061.0,195.0,-293.0,663.0,-306.0,-13.0
19:31:07.265000,110.0,38.0,-399.0,-1091.0,204.0,-297.0,663.0,-306.0,-13.0
19:31:07.269000,100.0,49.0,-408.0,-1091.0,213.0,-298.0,658.0,-306.0,-6.0
19:31:07.274000,101.0,63.0,-403.0,-1091.0,213.0,-298.0,658.0,-306.0,-6.0
19:31:07.278000,102.0,70.0,-409.0,-1093.0,229.0,-297.0,658.0,-306.0,-6.0
19:31:07.284000,98.0,81.0,-414.0,-1108.0,250.0,-298.0,654.0,-307.0,-16.0
19:31:07.289000,109.0,89.0,-424.0,-1112.0,285.0,-299.0,654.0,-307.0,-16.0
19:31:07.293000,107.0,98.0,-446.0,-1115.0,308.0,-298.0,654.0,-304.0,-22.0
19:31:07.298000,102.0,111.0,-445.0,-1106.0,275.0,-302.0,654.0,-304.0,-22.0
19:31:07.302000,102.0,111.0,-445.0,-1095.0,228.0,-303.0,654.0,-304.0,-22.0
19:31:07.307000,112.0,115.0,-453.0,-1091.0,229.0,-304.0,658.0,-298.0,-18.0
19:31:07.312000,130.0,111.0,-464.0,-1095.0,277.0,-313.0,658.0,-298.0,-18.0
19:31:07.317000,156.0,103.0,-482.0,-1072.0,264.0,-312.0,666.0,-291.0,-24.0
19:31:07.321000,153.0,105.0,-479.0,-1045.0,227.0,-308.0,666.0,-291.0,-24.0
19:31:07.325000,180.0,89.0,-477.0,-1043.0,244.0,-310.0,666.0,-291.0,-24.0
19:31:07.331000,194.0,78.0,-480.0,-1032.0,241.0,-306.0,654.0,-294.0,-12.0
19:31:07.335000,209.0,62.0,-457.0,-1029.0,237.0,-300.0,654.0,-294.0,-12.0
19:31:07.340000,214.0,47.0,-441.0,-1034.0,268.0,-300.0,658.0,-297.0,-15.0
19:31:07.345000,225.0,37.0,-457.0,-1058.0,285.0,-298.0,658.0,-297.0,-15.0
19:31:07.349000,196.0,35.0,-477.0,-1081.0,262.0,-290.0,658.0,-297.0,-15.0
19:31:07.354000,180.0,36.0,-485.0,-1087.0,261.0,-280.0,661.0,-283.0,-13.0
19:31:07.359000,186.0,33.0,-499.0,-1081.0,288.0,-266.0,661.0,-283.0,-13.0
19:31:07.364000,147.0,46.0,-523.0,-1081.0,288.0,-266.0,657.0,-291.0,3.0
19:31:07.368000,135.0,57.0,-541.0,-1067.0,303.0,-261.0,657.0,-291.0,3.0
19:31:07.372000,130.0,61.0,-547.0,-1061.0,311.0,-261.0,657.0,-291.0,3.0
19:31:07.378000,101.0,73.0,-572.0,-1058.0,327.0,-244.0,657.0,-271.0,-19.0
19:31:07.382000,75.0,91.0,-591.0,-1042.0,328.0,-228.0,657.0,-271.0,-19.0
19:31:07.387000,78.0,99.0,-604.0,-1026.0,308.0,-226.0,660.0,-283.0,-15.0
19:31:07.392000,81.0,111.0,-636.0,-1029.0,288.0,-224.0,660.0,-283.0,-15.0
19:31:07.396000,81.0,111.0,-636.0,-1032.0,270.0,-228.0,660.0,-283.0,-15.0
19:31:07.401000,101.0,135.0,-706.0,-1046.0,271.0,-233.0,652.0,-268.0,-1.0
19:31:07.406000,121.0,149.0,-729.0,-1064.0,293.0,-238.0,652.0,-268.0,-1.0
19:31:07.411000,121.0,149.0,-729.0,-1062.0,296.0,-250.0,657.0,-274.0,-1.0
19:31:07.415000,129.0,166.0,-749.0,-1059.0,291.0,-255.0,657.0,-274.0,-1.0
19:31:07.419000,146.0,185.0,-772.0,-1062.0,330.0,-264.0,657.0,-274.0,-1.0
19:31:07.425000,177.0,197.0,-809.0,-1063.0,358.0,-269.0,657.0,-265.0,-12.0
19:31:07.429000,175.0,216.0,-805.0,-1065.0,354.0,-272.0,657.0,-265.0,-12.0
19:31:07.434000,189.0,231.0,-760.0,-1069.0,373.0,-277.0,655.0,-253.0,-3.0
19:31:07.439000,218.0,240.0,-746.0,-1054.0,430.0,-279.0,655.0,-253.0,-3.0
19:31:07.443000,247.0,251.0,-763.0,-1034.0,485.0,-276.0,655.0,-253.0,-3.0
19:31:07.448000,242.0,265.0,-730.0,-1020.0,512.0,-264.0,651.0,-258.0,3.0
19:31:07.453000,235.0,283.0,-691.0,-985.0,553.0,-274.0,651.0,-258.0,3.0
19:31:07.458000,262.0,291.0,-712.0,-985.0,509.0,-274.0,637.0,-244.0,15.0
19:31:07.462000,326.0,280.0,-819.0,-843.0,439.0,-376.0,637.0,-244.0,15.0
19:31:07.466000,265.0,308.0,-954.0,-965.0,575.0,-357.0,637.0,-244.0,15.0
19:31:07.472000,182.0,324.0,-991.0,-965.0,575.0,-357.0,654.0,-226.0,13.0
19:31:07.476000,122.0,343.0,-914.0,-1037.0,717.0,-347.0,654.0,-226.0,13.0
19:31:07.481000,88.0,344.0,-807.0,-1056.0,762.0,-341.0,655.0,-223.0,1.0
19:31:07.486000,71.0,319.0,-687.0,-1095.0,772.0,-328.0,655.0,-223.0,1.0
19:31:07.490000,89.0,295.0,-529.0,-1076.0,561.0,-309.0,655.0,-223.0,1.0
19:31:07.495000,97.0,275.0,-479.0,-1076.0,561.0,-309.0,649.0,-225.0,9.0
19:31:07.500000,122.0,252.0,-530.0,-1059.0,608.0,-306.0,649.0,-225.0,9.0
19:31:07.505000,101.0,260.0,-588.0,-959.0,627.0,-297.0,655.0,-214.0,4.0
19:31:07.509000,105.0,258.0,-623.0,-905.0,678.0,-293.0,655.0,-214.0,4.0
19:31:07.513000,105.0,258.0,-623.0,-945.0,752.0,-294.0,655.0,-214.0,4.0
19:31:07.519000,86.0,261.0,-561.0,-961.0,725.0,-294.0,651.0,-216.0,12.0
19:31:07.523000,75.0,269.0,-549.0,-864.0,676.0,-307.0,651.0,-216.0,12.0
19:31:07.528000,48.0,282.0,-569.0,-804.0,668.0,-308.0,649.0,-220.0,13.0
19:31:07.533000,42.0,269.0,-422.0,-878.0,702.0,-313.0,649.0,-220.0,13.0
19:31:07.540000,13.0,282.0,-323.0,-923.0,779.0,-344.0,646.0,-214.0,13.0
19:31:07.542000,13.0,282.0,-323.0,-923.0,779.0,-344.0,646.0,-214.0,13.0
19:31:07.546000,0.0,292.0,-431.0,-828.0,775.0,-356.0,646.0,-214.0,13.0
19:31:07.552000,-15.0,296.0,-504.0,-722.0,729.0,-362.0,636.0,-199.0,24.0
19:31:07.556000,-50.0,296.0,-463.0,-696.0,682.0,-386.0,636.0,-199.0,24.0
19:31:07.561000,-25.0,286.0,-385.0,-758.0,722.0,-422.0,640.0,-196.0,22.0
19:31:07.565000,-3.0,275.0,-399.0,-808.0,762.0,-436.0,640.0,-196.0,22.0
19:31:07.570000,-3.0,270.0,-367.0,-836.0,735.0,-427.0,640.0,-196.0,22.0
19:31:07.575000,2.0,256.0,-248.0,-902.0,699.0,-414.0,646.0,-201.0,30.0
19:31:07.580000,32.0,229.0,-164.0,-930.0,683.0,-409.0,646.0,-201.0,30.0
19:31:07.584000,68.0,202.0,-147.0,-872.0,649.0,-399.0,646.0,-195.0,31.0
19:31:07.589000,95.0,175.0,-107.0,-872.0,649.0,-399.0,646.0,-195.0,31.0
19:31:07.593000,146.0,137.0,-70.0,-790.0,621.0,-391.0,646.0,-195.0,31.0
19:31:07.599000,186.0,97.0,-53.0,-727.0,618.0,-384.0,654.0,-193.0,36.0
19:31:07.603000,196.0,60.0,-29.0,-678.0,610.0,-367.0,654.0,-193.0,36.0
19:31:07.608000,211.0,31.0,-9.0,-662.0,623.0,-361.0,657.0,-196.0,28.0
19:31:07.613000,213.0,1.0,-8.0,-681.0,661.0,-358.0,657.0,-196.0,28.0
19:31:07.617000,213.0,1.0,-8.0,-707.0,719.0,-352.0,657.0,-196.0,28.0
19:31:07.622000,172.0,-44.0,39.0,-706.0,719.0,-342.0,661.0,-192.0,36.0
19:31:07.627000,137.0,-61.0,89.0,-705.0,688.0,-332.0,661.0,-192.0,36.0
19:31:07.631000,137.0,-61.0,89.0,-711.0,687.0,-331.0,658.0,-201.0,43.0
19:31:07.636000,111.0,-77.0,91.0,-678.0,653.0,-319.0,658.0,-201.0,43.0
19:31:07.640000,70.0,-88.0,108.0,-615.0,595.0,-310.0,658.0,-201.0,43.0
19:31:07.646000,37.0,-93.0,168.0,-580.0,557.0,-309.0,658.0,-196.0,33.0
19:31:07.650000,10.0,-102.0,226.0,-574.0,533.0,-301.0,658.0,-196.0,33.0
19:31:07.655000,-25.0,-104.0,233.0,-543.0,496.0,-295.0,652.0,-192.0,27.0
19:31:07.660000,-46.0,-109.0,241.0,-498.0,461.0,-292.0,652.0,-192.0,27.0
19:31:07.664000,-53.0,-123.0,256.0,-462.0,418.0,-283.0,652.0,-192.0,27.0
19:31:07.669000,-78.0,-131.0,279.0,-447.0,398.0,-280.0,661.0,-195.0,33.0
19:31:07.674000,-71.0,-146.0,267.0,-437.0,417.0,-277.0,661.0,-195.0,33.0
19:31:07.678000,-64.0,-162.0,236.0,-407.0,402.0,-262.0,654.0,-192.0,31.0
19:31:07.683000,-65.0,-179.0,237.0,-390.0,376.0,-247.0,654.0,-192.0,31.0
19:31:07.687000,-48.0,-200.0,230.0,-381.0,350.0,-226.0,654.0,-192.0,31.0
19:31:07.693000,-37.0,-225.0,226.0,-381.0,350.0,-226.0,645.0,-201.0,33.0
19:31:07.697000,-13.0,-251.0,242.0,-350.0,297.0,-203.0,645.0,-201.0,33.0
19:31:07.702000,23.0,-277.0,256.0,-312.0,250.0,-186.0,657.0,-204.0,30.0
19:31:07.707000,56.0,-298.0,281.0,-280.0,224.0,-170.0,657.0,-204.0,30.0
19:31:07.711000,91.0,-319.0,310.0,-267.0,209.0,-157.0,657.0,-204.0,30.0
19:31:07.716000,119.0,-332.0,317.0,-284.0,218.0,-149.0,673.0,-207.0,22.0
19:31:07.721000,139.0,-333.0,304.0,-318.0,237.0,-141.0,673.0,-207.0,22.0
19:31:07.725000,139.0,-333.0,304.0,-352.0,248.0,-134.0,661.0,-217.0,21.0
19:31:07.730000,170.0,-328.0,259.0,-381.0,252.0,-129.0,661.0,-217.0,21.0
19:31:07.734000,170.0,-328.0,259.0,-409.0,259.0,-125.0,661.0,-217.0,21.0
19:31:07.740000,180.0,-317.0,226.0,-437.0,276.0,-120.0,669.0,-208.0,22.0
19:31:07.744000,184.0,-303.0,195.0,-463.0,290.0,-116.0,669.0,-208.0,22.0
19:31:07.749000,184.0,-288.0,177.0,-493.0,308.0,-115.0,673.0,-202.0,16.0
19:31:07.754000,185.0,-273.0,152.0,-521.0,327.0,-112.0,673.0,-202.0,16.0
19:31:07.758000,181.0,-254.0,134.0,-538.0,335.0,-108.0,673.0,-202.0,16.0
19:31:07.763000,175.0,-238.0,132.0,-550.0,343.0,-103.0,663.0,-202.0,15.0
19:31:07.767000,164.0,-220.0,142.0,-564.0,353.0,-99.0,663.0,-202.0,15.0
19:31:07.773000,151.0,-201.0,154.0,-574.0,361.0,-97.0,658.0,-210.0,13.0
19:31:07.777000,134.0,-185.0,177.0,-581.0,366.0,-96.0,658.0,-210.0,13.0
19:31:07.782000,114.0,-169.0,207.0,-587.0,370.0,-96.0,666.0,-216.0,18.0
19:31:07.787000,92.0,-153.0,241.0,-591.0,369.0,-97.0,666.0,-216.0,18.0
19:31:07.791000,66.0,-137.0,280.0,-597.0,365.0,-97.0,666.0,-216.0,18.0
19:31:07.796000,37.0,-120.0,313.0,-602.0,363.0,-96.0,666.0,-220.0,10.0
19:31:07.801000,5.0,-102.0,336.0,-602.0,363.0,-96.0,666.0,-220.0,10.0
19:31:07.805000,-24.0,-85.0,355.0,-596.0,356.0,-95.0,664.0,-222.0,4.0
19:31:07.810000,-53.0,-67.0,370.0,-581.0,337.0,-95.0,664.0,-222.0,4.0
19:31:07.814000,-78.0,-53.0,382.0,-543.0,275.0,-93.0,664.0,-222.0,4.0
19:31:07.820000,-99.0,-43.0,392.0,-543.0,275.0,-93.0,669.0,-229.0,15.0
19:31:07.824000,-112.0,-36.0,396.0,-525.0,233.0,-89.0,669.0,-229.0,15.0
19:31:07.829000,-121.0,-28.0,396.0,-509.0,186.0,-92.0,666.0,-228.0,4.0
19:31:07.834000,-126.0,-28.0,384.0,-496.0,150.0,-94.0,666.0,-228.0,4.0
19:31:07.838000,-126.0,-28.0,384.0,-477.0,125.0,-87.0,666.0,-228.0,4.0
19:31:07.843000,-111.0,-34.0,336.0,-447.0,96.0,-86.0,669.0,-219.0,9.0
19:31:07.848000,-111.0,-34.0,336.0,-426.0,68.0,-88.0,669.0,-219.0,9.0
19:31:07.852000,-91.0,-44.0,311.0,-420.0,56.0,-95.0,669.0,-225.0,12.0
19:31:07.857000,-66.0,-56.0,277.0,-433.0,72.0,-100.0,669.0,-225.0,12.0
19:31:07.864000,-31.0,-72.0,202.0,-488.0,134.0,-100.0,666.0,-231.0,28.0
19:31:07.867000,-31.0,-72.0,202.0,-488.0,134.0,-100.0,666.0,-231.0,28.0
19:31:07.871000,-24.0,-76.0,182.0,-505.0,142.0,-100.0,666.0,-231.0,28.0
19:31:07.876000,-16.0,-81.0,185.0,-518.0,141.0,-100.0,667.0,-234.0,7.0
19:31:07.881000,-7.0,-84.0,200.0,-534.0,141.0,-102.0,667.0,-234.0,7.0
19:31:07.885000,1.0,-89.0,222.0,-544.0,137.0,-103.0,669.0,-232.0,1.0
19:31:07.890000,11.0,-96.0,252.0,-549.0,129.0,-105.0,669.0,-232.0,1.0
19:31:07.894000,20.0,-103.0,287.0,-554.0,129.0,-108.0,669.0,-232.0,1.0
19:31:07.899000,25.0,-110.0,320.0,-563.0,137.0,-110.0,667.0,-246.0,3.0
19:31:07.904000,28.0,-116.0,353.0,-569.0,141.0,-111.0,667.0,-246.0,3.0
19:31:07.908000,25.0,-121.0,387.0,-572.0,145.0,-112.0,667.0,-234.0,7.0
19:31:07.914000,21.0,-125.0,406.0,-572.0,145.0,-112.0,667.0,-234.0,7.0
19:31:07.918000,14.0,-130.0,416.0,-571.0,148.0,-110.0,667.0,-234.0,7.0
19:31:07.923000,8.0,-135.0,423.0,-558.0,141.0,-107.0,660.0,-235.0,9.0
19:31:07.928000,2.0,-142.0,424.0,-543.0,135.0,-105.0,660.0,-235.0,9.0
19:31:07.932000,-4.0,-149.0,421.0,-538.0,138.0,-104.0,666.0,-250.0,10.0
19:31:07.937000,-15.0,-156.0,420.0,-535.0,147.0,-105.0,666.0,-250.0,10.0
19:31:07.941000,-27.0,-165.0,424.0,-529.0,153.0,-105.0,666.0,-250.0,10.0
19:31:07.946000,-39.0,-173.0,429.0,-522.0,161.0,-106.0,670.0,-255.0,0.0
19:31:07.951000,-50.0,-184.0,430.0,-515.0,171.0,-110.0,670.0,-255.0,0.0
19:31:07.955000,-50.0,-184.0,430.0,-509.0,184.0,-109.0,675.0,-256.0,1.0
19:31:07.961000,-67.0,-193.0,431.0,-503.0,192.0,-105.0,675.0,-256.0,1.0
19:31:07.965000,-86.0,-200.0,442.0,-494.0,183.0,-102.0,675.0,-256.0,1.0
19:31:07.970000,-103.0,-207.0,463.0,-492.0,167.0,-100.0,673.0,-253.0,-3.0
19:31:07.975000,-116.0,-213.0,480.0,-506.0,163.0,-98.0,673.0,-253.0,-3.0
19:31:07.979000,-127.0,-217.0,480.0,-528.0,170.0,-100.0,670.0,-262.0,-4.0
19:31:07.984000,-135.0,-219.0,474.0,-545.0,167.0,-105.0,670.0,-262.0,-4.0
19:31:07.988000,-142.0,-219.0,472.0,-562.0,157.0,-113.0,670.0,-262.0,-4.0
19:31:07.993000,-144.0,-219.0,478.0,-578.0,151.0,-119.0,676.0,-258.0,-3.0
19:31:07.998000,-149.0,-219.0,488.0,-586.0,150.0,-124.0,676.0,-258.0,-3.0
19:31:08.002000,-154.0,-217.0,506.0,-581.0,153.0,-131.0,667.0,-262.0,10.0
19:31:08.008000,-159.0,-217.0,529.0,-564.0,160.0,-138.0,667.0,-262.0,10.0
19:31:08.012000,-164.0,-220.0,553.0,-543.0,175.0,-145.0,667.0,-262.0,10.0
19:31:08.017000,-171.0,-225.0,580.0,-523.0,192.0,-148.0,667.0,-273.0,-10.0
19:31:08.022000,-179.0,-228.0,611.0,-523.0,192.0,-148.0,667.0,-273.0,-10.0
19:31:08.026000,-185.0,-232.0,655.0,-500.0,195.0,-152.0,664.0,-277.0,-10.0
19:31:08.031000,-184.0,-240.0,707.0,-475.0,173.0,-157.0,664.0,-277.0,-10.0
19:31:08.035000,-175.0,-251.0,755.0,-458.0,143.0,-160.0,664.0,-277.0,-10.0
19:31:08.040000,-163.0,-261.0,788.0,-459.0,133.0,-157.0,667.0,-274.0,-4.0
19:31:08.045000,-154.0,-271.0,815.0,-474.0,141.0,-149.0,667.0,-274.0,-4.0
19:31:08.050000,-144.0,-282.0,845.0,-482.0,140.0,-142.0,670.0,-288.0,-15.0
19:31:08.055000,-136.0,-293.0,874.0,-488.0,135.0,-136.0,670.0,-288.0,-15.0
19:31:08.059000,-135.0,-301.0,895.0,-502.0,145.0,-132.0,667.0,-289.0,-18.0
19:31:08.064000,-141.0,-305.0,908.0,-521.0,167.0,-126.0,667.0,-289.0,-18.0
19:31:08.068000,-141.0,-305.0,908.0,-540.0,188.0,-115.0,667.0,-289.0,-18.0
19:31:08.073000,-156.0,-306.0,919.0,-553.0,190.0,-106.0,672.0,-303.0,-19.0
19:31:08.078000,-173.0,-306.0,929.0,-563.0,178.0,-102.0,672.0,-303.0,-19.0
19:31:08.083000,-191.0,-306.0,934.0,-586.0,173.0,-99.0,670.0,-303.0,-21.0
19:31:08.087000,-210.0,-304.0,927.0,-619.0,173.0,-97.0,670.0,-303.0,-21.0
19:31:08.092000,-228.0,-302.0,916.0,-652.0,167.0,-100.0,670.0,-303.0,-21.0
19:31:08.097000,-247.0,-299.0,907.0,-688.0,162.0,-109.0,655.0,-310.0,-6.0
19:31:08.102000,-264.0,-293.0,893.0,-726.0,162.0,-117.0,655.0,-310.0,-6.0
19:31:08.106000,-284.0,-284.0,872.0,-756.0,153.0,-122.0,672.0,-325.0,-24.0
19:31:08.111000,-303.0,-273.0,853.0,-768.0,123.0,-132.0,672.0,-325.0,-24.0
19:31:08.115000,-316.0,-261.0,837.0,-780.0,90.0,-141.0,672.0,-325.0,-24.0
19:31:08.120000,-326.0,-249.0,808.0,-803.0,72.0,-149.0,669.0,-330.0,-27.0
19:31:08.125000,-333.0,-237.0,768.0,-832.0,70.0,-158.0,669.0,-330.0,-27.0
19:31:08.130000,-337.0,-220.0,725.0,-832.0,70.0,-158.0,669.0,-331.0,-25.0
19:31:08.134000,-343.0,-198.0,683.0,-918.0,84.0,-180.0,669.0,-331.0,-25.0
19:31:08.139000,-352.0,-170.0,647.0,-918.0,84.0,-180.0,669.0,-331.0,-25.0
19:31:08.144000,-357.0,-137.0,625.0,-969.0,76.0,-190.0,673.0,-327.0,-16.0
19:31:08.149000,-352.0,-108.0,616.0,-1013.0,35.0,-199.0,673.0,-327.0,-16.0
19:31:08.153000,-336.0,-85.0,607.0,-1053.0,-23.0,-206.0,664.0,-343.0,-33.0
19:31:08.158000,-311.0,-65.0,591.0,-1088.0,-69.0,-208.0,664.0,-343.0,-33.0
19:31:08.162000,-286.0,-65.0,571.0,-1111.0,-93.0,-204.0,664.0,-343.0,-33.0
19:31:08.167000,-259.0,-34.0,553.0,-1117.0,-100.0,-200.0,663.0,-336.0,-30.0
19:31:08.172000,-237.0,-21.0,536.0,-1111.0,-97.0,-200.0,663.0,-336.0,-30.0
19:31:08.177000,-237.0,-21.0,536.0,-1114.0,-74.0,-206.0,663.0,-352.0,-33.0
19:31:08.181000,-224.0,-4.0,515.0,-1131.0,-29.0,-213.0,663.0,-352.0,-33.0
19:31:08.186000,-221.0,13.0,485.0,-1150.0,22.0,-216.0,663.0,-352.0,-33.0
