hh:mm:ss.ms,gyroX[mdps],gyroY[mdps],gyroZ[mdps],accX[mg],accY[mg],accZ[mg],magX[mG],magY[mG],magZ[mG]
19:30:57.335000,-18.0,-33.0,212.0,-1576.0,-17.0,-181.0,654.0,-378.0,91.0
19:30:57.339000,0.0,4.0,170.0,-1564.0,-26.0,-203.0,661.0,-382.0,85.0
19:30:57.344000,3.0,49.0,142.0,-1547.0,-45.0,-224.0,661.0,-382.0,85.0
19:30:57.348000,20.0,77.0,131.0,-1514.0,-60.0,-249.0,661.0,-382.0,85.0
19:30:57.353000,46.0,101.0,108.0,-1469.0,-55.0,-274.0,666.0,-372.0,93.0
19:30:57.358000,62.0,128.0,62.0,-1421.0,-50.0,-296.0,666.0,-372.0,93.0
19:30:57.363000,79.0,146.0,48.0,-1382.0,-47.0,-313.0,657.0,-381.0,85.0
19:30:57.367000,92.0,158.0,59.0,-1373.0,-33.0,-326.0,657.0,-381.0,85.0
19:30:57.372000,111.0,168.0,7.0,-1360.0,-43.0,-335.0,657.0,-381.0,85.0
19:30:57.377000,128.0,175.0,-39.0,-1331.0,-65.0,-344.0,669.0,-387.0,91.0
19:30:57.381000,145.0,182.0,-76.0,-1321.0,-40.0,-349.0,669.0,-387.0,91.0
19:30:57.386000,152.0,184.0,-137.0,-1321.0,-40.0,-349.0,669.0,-373.0,105.0
19:30:57.391000,182.0,168.0,-142.0,-1276.0,-15.0,-343.0,669.0,-373.0,105.0
19:30:57.395000,202.0,155.0,-101.0,-1191.0,1.0,-343.0,669.0,-373.0,105.0
19:30:57.400000,198.0,147.0,-86.0,-1150.0,81.0,-340.0,655.0,-378.0,91.0
19:30:57.405000,196.0,109.0,-87.0,-1129.0,158.0,-326.0,655.0,-378.0,91.0
19:30:57.410000,204.0,81.0,-133.0,-1108.0,185.0,-316.0,666.0,-394.0,91.0
19:30:57.414000,189.0,79.0,-224.0,-1119.0,186.0,-313.0,666.0,-394.0,91.0
19:30:57.419000,179.0,56.0,-253.0,-1089.0,168.0,-290.0,666.0,-394.0,91.0
19:30:57.424000,170.0,23.0,-224.0,-908.0,225.0,-259.0,661.0,-381.0,97.0
19:30:57.429000,172.0,-27.0,-228.0,-763.0,423.0,-218.0,661.0,-381.0,97.0
19:30:57.433000,79.0,-27.0,-49.0,-959.0,282.0,-218.0,649.0,-384.0,105.0
19:30:57.438000,79.0,-57.0,-172.0,-1084.0,-137.0,-243.0,649.0,-384.0,105.0
19:30:57.442000,61.0,-72.0,-63.0,-1096.0,-164.0,-247.0,649.0,-384.0,105.0
19:30:57.447000,61.0,-89.0,-78.0,-1126.0,67.0,-232.0,663.0,-378.0,99.0
19:30:57.452000,0.0,-74.0,-76.0,-1042.0,291.0,-228.0,663.0,-378.0,99.0
19:30:57.457000,-4.0,-64.0,-85.0,-1016.0,416.0,-234.0,657.0,-375.0,93.0
19:30:57.461000,2.0,-65.0,-156.0,-1033.0,337.0,-215.0,657.0,-375.0,93.0
19:30:57.466000,10.0,-74.0,-289.0,-1040.0,132.0,-199.0,657.0,-375.0,93.0
19:30:57.471000,-16.0,-61.0,-332.0,-1071.0,7.0,-189.0,663.0,-373.0,94.0
19:30:57.476000,9.0,-60.0,-259.0,-1147.0,-1.0,-191.0,663.0,-373.0,94.0
19:30:57.480000,18.0,-56.0,-189.0,-1198.0,14.0,-197.0,663.0,-369.0,90.0
19:30:57.485000,16.0,-30.0,-205.0,-1193.0,47.0,-197.0,663.0,-369.0,90.0
19:30:57.489000,29.0,-21.0,-251.0,-1124.0,65.0,-189.0,663.0,-369.0,90.0
19:30:57.494000,38.0,-24.0,-240.0,-1048.0,62.0,-190.0,664.0,-367.0,88.0
19:30:57.499000,51.0,-27.0,-213.0,-1048.0,62.0,-190.0,664.0,-367.0,88.0
19:30:57.504000,73.0,-21.0,-249.0,-1031.0,110.0,-193.0,657.0,-364.0,87.0
19:30:57.508000,52.0,-23.0,-231.0,-1027.0,148.0,-181.0,657.0,-364.0,87.0
19:30:57.513000,31.0,-14.0,-195.0,-1040.0,91.0,-179.0,657.0,-364.0,87.0
19:30:57.518000,63.0,-14.0,-199.0,-1127.0,71.0,-205.0,652.0,-363.0,93.0
19:30:57.523000,70.0,-15.0,-195.0,-1182.0,97.0,-221.0,652.0,-363.0,93.0
19:30:57.527000,67.0,-16.0,-210.0,-1135.0,78.0,-216.0,660.0,-360.0,93.0
19:30:57.532000,51.0,-16.0,-193.0,-1071.0,83.0,-209.0,660.0,-360.0,93.0
19:30:57.536000,51.0,-16.0,-193.0,-1023.0,189.0,-215.0,660.0,-360.0,93.0
19:30:57.541000,37.0,-7.0,-275.0,-981.0,276.0,-230.0,664.0,-355.0,99.0
19:30:57.546000,37.0,-7.0,-275.0,-950.0,249.0,-235.0,664.0,-355.0,99.0
19:30:57.551000,35.0,-13.0,-273.0,-956.0,175.0,-227.0,657.0,-364.0,90.0
19:30:57.555000,12.0,-11.0,-232.0,-990.0,149.0,-219.0,657.0,-364.0,90.0
19:30:57.559000,-10.0,-4.0,-205.0,-1003.0,175.0,-211.0,657.0,-364.0,90.0
19:30:57.565000,-35.0,-2.0,-192.0,-1001.0,196.0,-208.0,664.0,-355.0,88.0
19:30:57.570000,-32.0,0.0,-224.0,-985.0,178.0,-216.0,664.0,-355.0,88.0
19:30:57.574000,-22.0,2.0,-236.0,-978.0,122.0,-220.0,663.0,-351.0,96.0
19:30:57.579000,-15.0,2.0,-210.0,-983.0,77.0,-219.0,663.0,-351.0,96.0
19:30:57.583000,-35.0,13.0,-186.0,-989.0,102.0,-219.0,663.0,-351.0,96.0
19:30:57.588000,-70.0,31.0,-165.0,-981.0,173.0,-229.0,654.0,-360.0,96.0
19:30:57.593000,-73.0,39.0,-173.0,-926.0,200.0,-232.0,654.0,-360.0,96.0
19:30:57.598000,-74.0,37.0,-182.0,-926.0,200.0,-232.0,657.0,-354.0,88.0
19:30:57.602000,-84.0,37.0,-174.0,-866.0,116.0,-244.0,657.0,-354.0,88.0
19:30:57.606000,-81.0,37.0,-165.0,-866.0,116.0,-244.0,657.0,-354.0,88.0
19:30:57.612000,-67.0,31.0,-174.0,-863.0,136.0,-248.0,663.0,-355.0,88.0
19:30:57.617000,-61.0,20.0,-186.0,-852.0,168.0,-249.0,663.0,-355.0,88.0
19:30:57.621000,-58.0,11.0,-179.0,-822.0,169.0,-251.0,651.0,-352.0,99.0
19:30:57.626000,-46.0,1.0,-175.0,-816.0,159.0,-254.0,651.0,-352.0,99.0
19:30:57.630000,-25.0,-12.0,-164.0,-864.0,148.0,-258.0,651.0,-352.0,99.0
19:30:57.635000,-11.0,-19.0,-172.0,-907.0,132.0,-258.0,669.0,-343.0,96.0
19:30:57.640000,-2.0,-23.0,-197.0,-920.0,112.0,-260.0,669.0,-343.0,96.0
19:30:57.645000,21.0,-34.0,-210.0,-913.0,115.0,-261.0,661.0,-345.0,82.0
19:30:57.649000,40.0,-45.0,-189.0,-901.0,136.0,-263.0,661.0,-345.0,82.0
19:30:57.653000,40.0,-45.0,-189.0,-912.0,142.0,-263.0,661.0,-345.0,82.0
19:30:57.659000,50.0,-50.0,-161.0,-944.0,144.0,-258.0,654.0,-349.0,90.0
19:30:57.664000,48.0,-44.0,-159.0,-993.0,160.0,-263.0,654.0,-349.0,90.0
19:30:57.668000,56.0,-37.0,-210.0,-1029.0,153.0,-259.0,654.0,-351.0,87.0
19:30:57.673000,46.0,-30.0,-239.0,-1034.0,117.0,-254.0,654.0,-351.0,87.0
19:30:57.677000,46.0,-26.0,-238.0,-1053.0,108.0,-253.0,654.0,-351.0,87.0
19:30:57.682000,38.0,-18.0,-242.0,-1059.0,115.0,-237.0,661.0,-339.0,91.0
19:30:57.687000,29.0,-7.0,-249.0,-1063.0,129.0,-244.0,661.0,-339.0,91.0
19:30:57.692000,20.0,5.0,-273.0,-1077.0,161.0,-255.0,654.0,-340.0,82.0
19:30:57.696000,2.0,26.0,-303.0,-1036.0,178.0,-238.0,654.0,-340.0,82.0
19:30:57.700000,-7.0,41.0,-305.0,-1001.0,189.0,-242.0,654.0,-340.0,82.0
19:30:57.706000,-11.0,53.0,-304.0,-1008.0,223.0,-256.0,667.0,-336.0,99.0
19:30:57.710000,-16.0,72.0,-335.0,-1024.0,239.0,-249.0,667.0,-336.0,99.0
19:30:57.715000,-27.0,93.0,-386.0,-1024.0,239.0,-249.0,667.0,-336.0,94.0
19:30:57.720000,-19.0,114.0,-426.0,-1029.0,213.0,-240.0,667.0,-336.0,94.0
19:30:57.724000,-17.0,128.0,-448.0,-1031.0,174.0,-240.0,667.0,-336.0,94.0
19:30:57.729000,-15.0,143.0,-456.0,-1033.0,155.0,-242.0,661.0,-322.0,93.0
19:30:57.734000,-4.0,156.0,-462.0,-1025.0,153.0,-252.0,661.0,-322.0,93.0
19:30:57.739000,15.0,167.0,-478.0,-1016.0,155.0,-261.0,651.0,-328.0,96.0
19:30:57.743000,35.0,172.0,-479.0,-1029.0,184.0,-268.0,651.0,-328.0,96.0
19:30:57.747000,37.0,184.0,-506.0,-1059.0,234.0,-277.0,651.0,-328.0,96.0
19:30:57.753000,34.0,196.0,-538.0,-1080.0,276.0,-282.0,664.0,-316.0,93.0
19:30:57.757000,35.0,206.0,-536.0,-1077.0,291.0,-288.0,664.0,-316.0,93.0
19:30:57.762000,35.0,206.0,-536.0,-1067.0,305.0,-296.0,655.0,-319.0,94.0
19:30:57.767000,33.0,212.0,-524.0,-1072.0,324.0,-300.0,655.0,-319.0,94.0
19:30:57.771000,29.0,214.0,-525.0,-1082.0,330.0,-307.0,655.0,-319.0,94.0
19:30:57.776000,33.0,220.0,-524.0,-1094.0,331.0,-315.0,664.0,-309.0,99.0
19:30:57.781000,33.0,226.0,-516.0,-1102.0,344.0,-313.0,664.0,-309.0,99.0
19:30:57.786000,30.0,235.0,-507.0,-1115.0,376.0,-314.0,657.0,-309.0,96.0
19:30:57.790000,26.0,245.0,-503.0,-1121.0,402.0,-309.0,657.0,-309.0,96.0
19:30:57.798000,-3.0,277.0,-482.0,-1103.0,418.0,-308.0,660.0,-300.0,108.0
19:30:57.800000,-3.0,277.0,-482.0,-1103.0,418.0,-308.0,660.0,-300.0,108.0
19:30:57.804000,-18.0,294.0,-468.0,-1111.0,418.0,-305.0,660.0,-300.0,108.0
19:30:57.809000,-37.0,308.0,-462.0,-1125.0,418.0,-307.0,661.0,-301.0,97.0
19:30:57.814000,-39.0,311.0,-481.0,-1116.0,418.0,-308.0,661.0,-301.0,97.0
19:30:57.819000,-44.0,315.0,-511.0,-1116.0,418.0,-308.0,639.0,-292.0,94.0
19:30:57.823000,-31.0,314.0,-520.0,-1042.0,397.0,-317.0,639.0,-292.0,94.0
19:30:57.827000,-23.0,307.0,-494.0,-1042.0,397.0,-317.0,639.0,-292.0,94.0
19:30:57.833000,-36.0,305.0,-478.0,-1031.0,392.0,-316.0,657.0,-286.0,100.0
19:30:57.837000,-4.0,297.0,-499.0,-1029.0,411.0,-322.0,657.0,-286.0,100.0
19:30:57.842000,26.0,282.0,-514.0,-1004.0,376.0,-325.0,655.0,-286.0,105.0
19:30:57.847000,58.0,258.0,-492.0,-958.0,376.0,-328.0,655.0,-286.0,105.0
19:30:57.851000,66.0,244.0,-455.0,-925.0,334.0,-326.0,655.0,-286.0,105.0
19:30:57.856000,99.0,231.0,-435.0,-932.0,330.0,-332.0,663.0,-280.0,118.0
19:30:57.861000,129.0,221.0,-436.0,-952.0,372.0,-341.0,663.0,-280.0,118.0
19:30:57.866000,146.0,211.0,-419.0,-945.0,393.0,-351.0,654.0,-276.0,108.0
19:30:57.870000,180.0,184.0,-378.0,-926.0,396.0,-361.0,654.0,-276.0,108.0
19:30:57.874000,180.0,184.0,-378.0,-924.0,413.0,-354.0,654.0,-276.0,108.0
19:30:57.880000,163.0,188.0,-357.0,-933.0,454.0,-352.0,646.0,-277.0,109.0
19:30:57.884000,174.0,169.0,-375.0,-934.0,504.0,-372.0,646.0,-277.0,109.0
19:30:57.889000,195.0,151.0,-396.0,-907.0,532.0,-380.0,670.0,-273.0,132.0
19:30:57.894000,159.0,151.0,-407.0,-879.0,565.0,-375.0,670.0,-273.0,132.0
19:30:57.898000,158.0,139.0,-415.0,-883.0,590.0,-376.0,670.0,-273.0,132.0
19:30:57.903000,152.0,120.0,-411.0,-894.0,568.0,-373.0,661.0,-271.0,112.0
19:30:57.908000,140.0,104.0,-404.0,-896.0,537.0,-378.0,661.0,-271.0,112.0
19:30:57.913000,123.0,102.0,-413.0,-907.0,537.0,-386.0,657.0,-267.0,109.0
19:30:57.917000,132.0,86.0,-417.0,-934.0,561.0,-391.0,657.0,-267.0,109.0
19:30:57.921000,138.0,71.0,-420.0,-979.0,585.0,-385.0,657.0,-267.0,109.0
19:30:57.927000,112.0,65.0,-438.0,-1031.0,603.0,-372.0,661.0,-255.0,120.0
19:30:57.931000,79.0,68.0,-464.0,-1059.0,622.0,-378.0,661.0,-255.0,120.0
19:30:57.936000,63.0,79.0,-477.0,-1059.0,622.0,-378.0,636.0,-259.0,115.0
19:30:57.941000,35.0,87.0,-442.0,-1066.0,610.0,-374.0,636.0,-259.0,115.0
19:30:57.945000,4.0,106.0,-357.0,-1072.0,561.0,-350.0,636.0,-259.0,115.0
19:30:57.950000,-15.0,129.0,-300.0,-1064.0,534.0,-343.0,660.0,-252.0,112.0
19:30:57.955000,-17.0,157.0,-282.0,-1054.0,558.0,-350.0,660.0,-252.0,112.0
19:30:57.960000,-24.0,190.0,-327.0,-1033.0,588.0,-357.0,661.0,-255.0,114.0
19:30:57.964000,0.0,216.0,-431.0,-959.0,623.0,-368.0,661.0,-255.0,114.0
19:30:57.968000,0.0,216.0,-431.0,-894.0,626.0,-373.0,661.0,-255.0,114.0
19:30:57.974000,27.0,226.0,-393.0,-899.0,567.0,-373.0,651.0,-253.0,120.0
19:30:57.978000,56.0,221.0,-329.0,-956.0,519.0,-385.0,651.0,-253.0,120.0
19:30:57.983000,56.0,221.0,-329.0,-998.0,523.0,-394.0,646.0,-241.0,130.0
19:30:57.988000,86.0,207.0,-295.0,-994.0,559.0,-404.0,646.0,-241.0,130.0
19:30:57.992000,111.0,189.0,-237.0,-974.0,596.0,-414.0,646.0,-241.0,130.0
19:30:57.997000,143.0,163.0,-231.0,-924.0,644.0,-427.0,658.0,-238.0,123.0
19:30:58.002000,161.0,144.0,-252.0,-867.0,672.0,-433.0,658.0,-238.0,123.0
19:30:58.007000,169.0,112.0,-215.0,-839.0,666.0,-436.0,661.0,-234.0,127.0
19:30:58.011000,179.0,81.0,-144.0,-835.0,651.0,-445.0,661.0,-234.0,127.0
19:30:58.015000,178.0,56.0,-62.0,-852.0,674.0,-444.0,661.0,-234.0,127.0
19:30:58.021000,175.0,21.0,-10.0,-858.0,711.0,-435.0,652.0,-241.0,121.0
19:30:58.025000,164.0,-11.0,37.0,-837.0,706.0,-421.0,652.0,-241.0,121.0
19:30:58.030000,150.0,-43.0,91.0,-837.0,689.0,-421.0,655.0,-234.0,121.0
19:30:58.035000,141.0,-72.0,149.0,-806.0,682.0,-400.0,655.0,-234.0,121.0
19:30:58.039000,126.0,-99.0,180.0,-797.0,668.0,-390.0,655.0,-234.0,121.0
19:30:58.044000,109.0,-124.0,198.0,-797.0,668.0,-390.0,651.0,-250.0,118.0
19:30:58.049000,82.0,-146.0,242.0,-764.0,626.0,-382.0,651.0,-250.0,118.0
19:30:58.054000,74.0,-172.0,251.0,-760.0,607.0,-378.0,658.0,-246.0,108.0
19:30:58.058000,69.0,-195.0,235.0,-774.0,605.0,-375.0,658.0,-246.0,108.0
19:30:58.062000,60.0,-212.0,228.0,-784.0,568.0,-364.0,658.0,-246.0,108.0
19:30:58.068000,46.0,-228.0,249.0,-786.0,513.0,-342.0,651.0,-243.0,118.0
19:30:58.072000,47.0,-245.0,274.0,-763.0,456.0,-330.0,651.0,-243.0,118.0
19:30:58.077000,54.0,-258.0,260.0,-743.0,434.0,-328.0,655.0,-241.0,105.0
19:30:58.082000,50.0,-265.0,231.0,-737.0,448.0,-324.0,655.0,-241.0,105.0
19:30:58.086000,50.0,-265.0,231.0,-728.0,461.0,-314.0,655.0,-241.0,105.0
19:30:58.091000,30.0,-265.0,221.0,-739.0,484.0,-303.0,660.0,-243.0,102.0
19:30:58.096000,10.0,-260.0,211.0,-750.0,485.0,-293.0,660.0,-243.0,102.0
19:30:58.101000,-12.0,-252.0,221.0,-748.0,455.0,-286.0,661.0,-253.0,111.0
19:30:58.105000,-36.0,-240.0,238.0,-746.0,443.0,-281.0,661.0,-253.0,111.0
19:30:58.109000,-53.0,-227.0,235.0,-741.0,465.0,-278.0,666.0,-244.0,106.0
19:30:58.115000,-70.0,-211.0,196.0,-738.0,499.0,-277.0,666.0,-244.0,106.0
19:30:58.119000,-91.0,-193.0,140.0,-733.0,511.0,-273.0,666.0,-244.0,106.0
19:30:58.124000,-111.0,-179.0,100.0,-721.0,494.0,-267.0,663.0,-256.0,106.0
19:30:58.129000,-131.0,-168.0,86.0,-704.0,458.0,-259.0,663.0,-256.0,106.0
19:30:58.133000,-147.0,-163.0,86.0,-672.0,415.0,-247.0,660.0,-246.0,102.0
19:30:58.138000,-154.0,-163.0,90.0,-619.0,370.0,-234.0,660.0,-246.0,102.0
19:30:58.142000,-151.0,-173.0,99.0,-559.0,333.0,-221.0,660.0,-246.0,102.0
19:30:58.148000,-142.0,-189.0,116.0,-504.0,309.0,-209.0,652.0,-241.0,100.0
19:30:58.152000,-129.0,-207.0,146.0,-465.0,294.0,-196.0,652.0,-241.0,100.0
19:30:58.157000,-119.0,-224.0,181.0,-443.0,283.0,-178.0,661.0,-247.0,100.0
19:30:58.162000,-110.0,-238.0,210.0,-443.0,283.0,-178.0,661.0,-247.0,100.0
19:30:58.166000,-105.0,-249.0,238.0,-430.0,264.0,-158.0,661.0,-247.0,100.0
19:30:58.171000,-98.0,-259.0,275.0,-421.0,224.0,-141.0,667.0,-253.0,91.0
19:30:58.176000,-88.0,-264.0,303.0,-425.0,181.0,-129.0,667.0,-253.0,91.0
19:30:58.180000,-79.0,-263.0,316.0,-446.0,155.0,-120.0,666.0,-247.0,87.0
19:30:58.185000,-68.0,-253.0,312.0,-478.0,150.0,-113.0,666.0,-247.0,87.0
19:30:58.189000,-68.0,-253.0,312.0,-515.0,156.0,-109.0,666.0,-247.0,87.0
19:30:58.195000,-49.0,-211.0,270.0,-554.0,162.0,-111.0,664.0,-247.0,91.0
19:30:58.199000,-37.0,-182.0,234.0,-590.0,162.0,-115.0,664.0,-247.0,91.0
19:30:58.204000,-37.0,-182.0,234.0,-620.0,157.0,-120.0,672.0,-256.0,90.0
19:30:58.209000,-23.0,-153.0,194.0,-639.0,150.0,-125.0,672.0,-256.0,90.0
19:30:58.213000,-10.0,-120.0,165.0,-643.0,137.0,-128.0,672.0,-256.0,90.0
19:30:58.218000,2.0,-88.0,149.0,-638.0,129.0,-133.0,658.0,-259.0,91.0
19:30:58.223000,17.0,-58.0,138.0,-630.0,130.0,-138.0,658.0,-259.0,91.0
19:30:58.227000,32.0,-28.0,128.0,-620.0,140.0,-141.0,657.0,-261.0,85.0
19:30:58.232000,45.0,0.0,119.0,-610.0,161.0,-143.0,657.0,-261.0,85.0
19:30:58.236000,55.0,25.0,109.0,-597.0,180.0,-144.0,657.0,-261.0,85.0
19:30:58.242000,61.0,46.0,106.0,-581.0,193.0,-145.0,667.0,-252.0,88.0
19:30:58.246000,63.0,62.0,110.0,-562.0,203.0,-145.0,667.0,-252.0,88.0
19:30:58.251000,62.0,74.0,117.0,-562.0,203.0,-145.0,672.0,-256.0,97.0
19:30:58.256000,58.0,83.0,121.0,-528.0,229.0,-148.0,672.0,-256.0,97.0
19:30:58.260000,48.0,87.0,121.0,-514.0,244.0,-149.0,672.0,-256.0,97.0
19:30:58.265000,32.0,88.0,121.0,-514.0,244.0,-149.0,669.0,-264.0,91.0
19:30:58.270000,11.0,88.0,123.0,-499.0,253.0,-150.0,669.0,-264.0,91.0
19:30:58.274000,-7.0,89.0,125.0,-483.0,258.0,-149.0,667.0,-267.0,78.0
19:30:58.279000,-24.0,86.0,121.0,-474.0,261.0,-147.0,667.0,-267.0,78.0
19:30:58.283000,-38.0,82.0,120.0,-472.0,258.0,-143.0,667.0,-267.0,78.0
19:30:58.289000,-42.0,74.0,120.0,-474.0,238.0,-138.0,669.0,-255.0,87.0
19:30:58.293000,-32.0,62.0,121.0,-477.0,203.0,-135.0,669.0,-255.0,87.0
19:30:58.298000,-16.0,48.0,131.0,-481.0,166.0,-131.0,655.0,-267.0,100.0
19:30:58.303000,0.0,35.0,153.0,-488.0,139.0,-124.0,655.0,-267.0,100.0
19:30:58.307000,0.0,35.0,153.0,-503.0,126.0,-116.0,655.0,-267.0,100.0
19:30:58.312000,18.0,24.0,177.0,-515.0,122.0,-112.0,670.0,-268.0,85.0
19:30:58.317000,35.0,17.0,201.0,-529.0,122.0,-111.0,670.0,-268.0,85.0
19:30:58.321000,50.0,14.0,226.0,-552.0,132.0,-112.0,672.0,-264.0,88.0
19:30:58.326000,59.0,18.0,251.0,-581.0,145.0,-111.0,672.0,-264.0,88.0
19:30:58.330000,60.0,28.0,275.0,-603.0,150.0,-108.0,672.0,-264.0,88.0
19:30:58.336000,56.0,40.0,301.0,-611.0,139.0,-107.0,660.0,-268.0,91.0
19:30:58.340000,51.0,51.0,330.0,-608.0,120.0,-107.0,660.0,-268.0,91.0
19:30:58.345000,44.0,60.0,354.0,-601.0,109.0,-107.0,664.0,-268.0,91.0
19:30:58.350000,34.0,63.0,370.0,-591.0,104.0,-109.0,664.0,-268.0,91.0
19:30:58.354000,26.0,60.0,382.0,-580.0,95.0,-111.0,664.0,-268.0,91.0
19:30:58.359000,14.0,54.0,393.0,-578.0,82.0,-115.0,673.0,-264.0,90.0
19:30:58.364000,4.0,44.0,393.0,-578.0,72.0,-122.0,673.0,-264.0,90.0
19:30:58.368000,-3.0,29.0,385.0,-578.0,72.0,-122.0,669.0,-279.0,81.0
19:30:58.373000,-9.0,9.0,375.0,-571.0,61.0,-129.0,669.0,-279.0,81.0
19:30:58.377000,-17.0,-8.0,359.0,-561.0,52.0,-135.0,669.0,-279.0,81.0
19:30:58.383000,-18.0,-30.0,335.0,-552.0,50.0,-140.0,673.0,-282.0,96.0
19:30:58.387000,-18.0,-51.0,306.0,-550.0,45.0,-144.0,673.0,-282.0,96.0
19:30:58.392000,-11.0,-73.0,272.0,-552.0,37.0,-151.0,679.0,-276.0,99.0
19:30:58.397000,-2.0,-95.0,233.0,-560.0,38.0,-159.0,679.0,-276.0,99.0
19:30:58.401000,3.0,-115.0,205.0,-573.0,47.0,-165.0,679.0,-276.0,99.0
19:30:58.406000,4.0,-131.0,189.0,-584.0,58.0,-167.0,679.0,-285.0,91.0
19:30:58.411000,4.0,-145.0,174.0,-590.0,71.0,-167.0,679.0,-285.0,91.0
19:30:58.415000,2.0,-156.0,165.0,-590.0,83.0,-164.0,676.0,-280.0,87.0
19:30:58.420000,2.0,-156.0,165.0,-586.0,92.0,-159.0,676.0,-280.0,87.0
19:30:58.424000,0.0,-165.0,161.0,-593.0,102.0,-155.0,676.0,-280.0,87.0
19:30:58.430000,-6.0,-168.0,153.0,-616.0,112.0,-150.0,676.0,-292.0,82.0
19:30:58.434000,-14.0,-165.0,139.0,-648.0,119.0,-143.0,676.0,-292.0,82.0
19:30:58.439000,-24.0,-158.0,128.0,-677.0,111.0,-135.0,669.0,-292.0,88.0
19:30:58.444000,-30.0,-151.0,119.0,-695.0,90.0,-127.0,669.0,-292.0,88.0
19:30:58.448000,-30.0,-145.0,110.0,-704.0,69.0,-120.0,669.0,-292.0,88.0
19:30:58.453000,-21.0,-141.0,101.0,-708.0,62.0,-114.0,669.0,-286.0,85.0
19:30:58.458000,-8.0,-137.0,89.0,-710.0,67.0,-107.0,669.0,-286.0,85.0
19:30:58.462000,3.0,-131.0,83.0,-709.0,77.0,-101.0,670.0,-283.0,84.0
19:30:58.467000,11.0,-126.0,78.0,-705.0,90.0,-95.0,670.0,-283.0,84.0
19:30:58.471000,17.0,-119.0,75.0,-697.0,102.0,-94.0,670.0,-283.0,84.0
19:30:58.477000,18.0,-110.0,74.0,-688.0,118.0,-96.0,673.0,-280.0,85.0
19:30:58.481000,19.0,-97.0,75.0,-682.0,136.0,-102.0,673.0,-280.0,85.0
19:30:58.485000,15.0,-81.0,76.0,-679.0,152.0,-111.0,667.0,-294.0,79.0
19:30:58.491000,7.0,-67.0,74.0,-679.0,152.0,-111.0,667.0,-294.0,79.0
19:30:58.495000,0.0,-52.0,67.0,-676.0,164.0,-121.0,667.0,-294.0,79.0
19:30:58.500000,-6.0,-42.0,63.0,-667.0,166.0,-129.0,658.0,-285.0,93.0
19:30:58.505000,-7.0,-37.0,61.0,-649.0,161.0,-135.0,658.0,-285.0,93.0
19:30:58.509000,-7.0,-38.0,63.0,-623.0,156.0,-141.0,666.0,-282.0,78.0
19:30:58.514000,-6.0,-43.0,60.0,-600.0,161.0,-146.0,666.0,-282.0,78.0
19:30:58.518000,-6.0,-43.0,60.0,-583.0,180.0,-147.0,666.0,-282.0,78.0
19:30:58.524000,-14.0,-59.0,60.0,-570.0,196.0,-147.0,661.0,-288.0,78.0
19:30:58.528000,-18.0,-71.0,70.0,-567.0,202.0,-152.0,661.0,-288.0,78.0
19:30:58.532000,-18.0,-71.0,70.0,-586.0,213.0,-162.0,673.0,-300.0,81.0
19:30:58.538000,-25.0,-81.0,80.0,-620.0,232.0,-174.0,673.0,-300.0,81.0
19:30:58.542000,-42.0,-87.0,94.0,-653.0,243.0,-186.0,673.0,-300.0,81.0
19:30:58.547000,-67.0,-90.0,115.0,-671.0,227.0,-196.0,673.0,-295.0,81.0
19:30:58.552000,-92.0,-90.0,142.0,-676.0,197.0,-207.0,673.0,-295.0,81.0
19:30:58.556000,-108.0,-91.0,161.0,-677.0,172.0,-220.0,670.0,-294.0,73.0
19:30:58.561000,-116.0,-94.0,173.0,-685.0,165.0,-231.0,670.0,-294.0,73.0
19:30:58.565000,-120.0,-98.0,179.0,-702.0,176.0,-240.0,670.0,-294.0,73.0
19:30:58.571000,-122.0,-101.0,179.0,-722.0,193.0,-253.0,666.0,-300.0,79.0
19:30:58.575000,-120.0,-105.0,175.0,-737.0,208.0,-268.0,666.0,-300.0,79.0
19:30:58.579000,-117.0,-108.0,173.0,-757.0,234.0,-282.0,670.0,-297.0,87.0
19:30:58.585000,-119.0,-109.0,173.0,-782.0,278.0,-294.0,670.0,-297.0,87.0
19:30:58.589000,-130.0,-105.0,172.0,-804.0,329.0,-303.0,670.0,-297.0,87.0
19:30:58.594000,-149.0,-99.0,175.0,-804.0,329.0,-303.0,670.0,-298.0,79.0
19:30:58.599000,-172.0,-92.0,191.0,-821.0,364.0,-310.0,670.0,-298.0,79.0
19:30:58.603000,-199.0,-84.0,222.0,-831.0,373.0,-314.0,666.0,-300.0,84.0
19:30:58.608000,-220.0,-74.0,262.0,-841.0,360.0,-320.0,666.0,-300.0,84.0
19:30:58.612000,-240.0,-61.0,305.0,-859.0,341.0,-324.0,666.0,-300.0,84.0
19:30:58.618000,-257.0,-51.0,352.0,-883.0,320.0,-328.0,673.0,-292.0,75.0
19:30:58.622000,-266.0,-46.0,394.0,-909.0,289.0,-332.0,673.0,-292.0,75.0
19:30:58.626000,-266.0,-46.0,394.0,-934.0,269.0,-335.0,664.0,-295.0,75.0
19:30:58.632000,-278.0,-47.0,443.0,-943.0,260.0,-333.0,664.0,-295.0,75.0
19:30:58.636000,-278.0,-47.0,443.0,-930.0,251.0,-328.0,664.0,-295.0,75.0
19:30:58.641000,-275.0,-56.0,467.0,-901.0,250.0,-323.0,657.0,-307.0,87.0
19:30:58.646000,-265.0,-63.0,480.0,-870.0,271.0,-321.0,657.0,-307.0,87.0
19:30:58.650000,-244.0,-68.0,471.0,-844.0,307.0,-323.0,670.0,-298.0,76.0
19:30:58.655000,-220.0,-73.0,453.0,-834.0,353.0,-335.0,670.0,-298.0,76.0
19:30:58.659000,-186.0,-79.0,419.0,-842.0,414.0,-353.0,670.0,-298.0,76.0
19:30:58.665000,-154.0,-82.0,373.0,-857.0,482.0,-374.0,663.0,-315.0,73.0
19:30:58.669000,-119.0,-86.0,329.0,-875.0,559.0,-395.0,663.0,-315.0,73.0
19:30:58.674000,-91.0,-83.0,288.0,-894.0,647.0,-410.0,678.0,-313.0,78.0
19:30:58.679000,-74.0,-83.0,255.0,-905.0,746.0,-421.0,678.0,-313.0,78.0
19:30:58.683000,-67.0,-81.0,226.0,-903.0,837.0,-436.0,666.0,-313.0,75.0
19:30:58.688000,-77.0,-74.0,210.0,-886.0,906.0,-448.0,666.0,-313.0,75.0
19:30:58.692000,-90.0,-80.0,224.0,-852.0,950.0,-449.0,666.0,-313.0,75.0
19:30:58.697000,-115.0,-91.0,270.0,-811.0,970.0,-448.0,663.0,-309.0,73.0
19:30:58.702000,-145.0,-102.0,343.0,-811.0,970.0,-448.0,663.0,-309.0,73.0
19:30:58.707000,-169.0,-123.0,396.0,-782.0,998.0,-437.0,669.0,-322.0,78.0
19:30:58.712000,-203.0,-135.0,459.0,-710.0,1015.0,-416.0,669.0,-322.0,78.0
19:30:58.716000,-211.0,-156.0,548.0,-521.0,939.0,-382.0,669.0,-322.0,78.0
19:30:58.721000,-196.0,-182.0,612.0,-521.0,939.0,-382.0,672.0,-312.0,73.0
19:30:58.726000,-167.0,-202.0,641.0,-484.0,875.0,-363.0,672.0,-312.0,73.0
19:30:58.730000,-114.0,-224.0,653.0,-482.0,816.0,-347.0,664.0,-330.0,67.0
19:30:58.735000,-65.0,-234.0,656.0,-507.0,772.0,-325.0,664.0,-330.0,67.0
19:30:58.739000,-65.0,-234.0,656.0,-556.0,731.0,-299.0,664.0,-330.0,67.0
19:30:58.744000,36.0,-240.0,638.0,-649.0,697.0,-273.0,675.0,-333.0,63.0
19:30:58.749000,36.0,-240.0,638.0,-732.0,703.0,-246.0,675.0,-333.0,63.0
19:30:58.754000,82.0,-256.0,570.0,-775.0,739.0,-218.0,672.0,-333.0,64.0
19:30:58.759000,64.0,-249.0,487.0,-981.0,800.0,-220.0,672.0,-333.0,64.0
19:30:58.766000,-12.0,-172.0,613.0,-1090.0,872.0,-216.0,664.0,-340.0,67.0
19:30:58.768000,-12.0,-172.0,613.0,-1090.0,872.0,-216.0,664.0,-340.0,67.0
19:30:58.772000,16.0,-144.0,560.0,-697.0,1062.0,-238.0,664.0,-340.0,67.0
19:30:58.777000,-2.0,-116.0,422.0,-650.0,1110.0,-204.0,672.0,-345.0,67.0
19:30:58.782000,-72.0,-123.0,396.0,-753.0,999.0,-203.0,672.0,-345.0,67.0
19:30:58.787000,-99.0,-122.0,407.0,-894.0,886.0,-224.0,670.0,-349.0,63.0
19:30:58.791000,-137.0,-114.0,277.0,-1037.0,838.0,-241.0,670.0,-349.0,63.0
19:30:58.796000,-142.0,-104.0,161.0,-992.0,768.0,-270.0,670.0,-349.0,63.0
19:30:58.801000,-156.0,-103.0,305.0,-875.0,671.0,-271.0,669.0,-354.0,55.0
19:30:58.806000,-163.0,-113.0,509.0,-903.0,674.0,-275.0,669.0,-354.0,55.0
19:30:58.810000,-166.0,-117.0,522.0,-903.0,674.0,-275.0,654.0,-360.0,58.0
19:30:58.815000,-164.0,-123.0,455.0,-1008.0,681.0,-287.0,654.0,-360.0,58.0
19:30:58.819000,-140.0,-125.0,424.0,-1059.0,573.0,-298.0,654.0,-360.0,58.0
19:30:58.824000,-121.0,-123.0,395.0,-1099.0,466.0,-301.0,670.0,-355.0,55.0
19:30:58.829000,-97.0,-116.0,358.0,-1135.0,416.0,-296.0,670.0,-355.0,55.0
19:30:58.834000,-100.0,-100.0,326.0,-1124.0,401.0,-285.0,664.0,-361.0,60.0
19:30:58.838000,-99.0,-87.0,297.0,-1067.0,362.0,-271.0,664.0,-361.0,60.0
19:30:58.843000,-87.0,-74.0,228.0,-1033.0,317.0,-265.0,664.0,-361.0,60.0
19:30:58.848000,-75.0,-63.0,153.0,-1037.0,287.0,-256.0,660.0,-369.0,58.0
19:30:58.852000,-75.0,-63.0,153.0,-1046.0,256.0,-244.0,660.0,-369.0,58.0
19:30:58.857000,-60.0,-51.0,70.0,-1047.0,228.0,-238.0,661.0,-358.0,67.0
19:30:58.862000,-60.0,-51.0,70.0,-1046.0,196.0,-232.0,661.0,-358.0,67.0
19:30:58.866000,-55.0,-47.0,73.0,-1059.0,187.0,-222.0,661.0,-358.0,67.0
19:30:58.871000,-62.0,-41.0,62.0,-1071.0,192.0,-214.0,657.0,-354.0,58.0
19:30:58.876000,-65.0,-40.0,62.0,-1055.0,165.0,-204.0,657.0,-354.0,58.0
19:30:58.881000,-71.0,-40.0,91.0,-1023.0,97.0,-193.0,655.0,-369.0,58.0
19:30:58.885000,-74.0,-42.0,151.0,-999.0,37.0,-190.0,655.0,-369.0,58.0
19:30:58.890000,-63.0,-47.0,225.0,-1000.0,28.0,-192.0,655.0,-369.0,58.0
19:30:58.895000,-57.0,-45.0,270.0,-1011.0,51.0,-197.0,664.0,-361.0,57.0
19:30:58.900000,-53.0,-41.0,291.0,-1029.0,75.0,-205.0,664.0,-361.0,57.0
19:30:58.904000,-44.0,-35.0,295.0,-1075.0,91.0,-214.0,658.0,-366.0,57.0
19:30:58.909000,-40.0,-26.0,290.0,-1129.0,101.0,-218.0,658.0,-366.0,57.0
19:30:58.913000,-45.0,-13.0,261.0,-1167.0,99.0,-219.0,658.0,-366.0,57.0
19:30:58.918000,-40.0,-3.0,221.0,-1174.0,72.0,-221.0,661.0,-363.0,60.0
19:30:58.923000,-24.0,0.0,190.0,-1174.0,72.0,-221.0,661.0,-363.0,60.0
19:30:58.928000,-10.0,10.0,151.0,-1167.0,40.0,-227.0,661.0,-370.0,51.0
19:30:58.932000,4.0,18.0,88.0,-1185.0,34.0,-238.0,661.0,-370.0,51.0
19:30:58.937000,21.0,23.0,7.0,-1228.0,68.0,-255.0,661.0,-370.0,51.0
19:30:58.942000,23.0,38.0,-72.0,-1266.0,129.0,-272.0,658.0,-366.0,64.0
19:30:58.947000,23.0,51.0,-133.0,-1290.0,171.0,-284.0,658.0,-366.0,64.0
19:30:58.951000,17.0,68.0,-170.0,-1302.0,186.0,-296.0,664.0,-358.0,60.0
19:30:58.956000,2.0,79.0,-186.0,-1309.0,188.0,-305.0,664.0,-358.0,60.0
19:30:58.960000,2.0,79.0,-186.0,-1294.0,173.0,-310.0,664.0,-358.0,60.0
19:30:58.965000,-23.0,85.0,-97.0,-1251.0,138.0,-316.0,660.0,-370.0,60.0
19:30:58.970000,-23.0,85.0,-97.0,-1238.0,96.0,-326.0,660.0,-370.0,60.0
19:30:58.975000,-28.0,93.0,-72.0,-1249.0,69.0,-331.0,672.0,-355.0,55.0
19:30:58.979000,-32.0,94.0,-64.0,-1246.0,47.0,-334.0,672.0,-355.0,55.0
19:30:58.984000,-25.0,89.0,-33.0,-1246.0,21.0,-337.0,672.0,-355.0,55.0
19:30:58.989000,-14.0,89.0,-4.0,-1257.0,-15.0,-342.0,660.0,-358.0,61.0
19:30:58.994000,-4.0,96.0,0.0,-1269.0,-42.0,-353.0,660.0,-358.0,61.0
19:30:58.998000,19.0,97.0,-11.0,-1255.0,-37.0,-358.0,648.0,-361.0,72.0
19:30:59.003000,30.0,89.0,12.0,-1223.0,-27.0,-359.0,648.0,-361.0,72.0
19:30:59.007000,16.0,98.0,37.0,-1224.0,0.0,-370.0,648.0,-361.0,72.0
19:30:59.012000,37.0,96.0,12.0,-1223.0,6.0,-371.0,657.0,-360.0,66.0
19:30:59.017000,46.0,89.0,3.0,-1199.0,12.0,-372.0,657.0,-360.0,66.0
19:30:59.022000,90.0,59.0,17.0,-1199.0,12.0,-372.0,645.0,-364.0,57.0
19:30:59.026000,93.0,52.0,-10.0,-1287.0,85.0,-368.0,645.0,-364.0,57.0
19:30:59.031000,72.0,72.0,-103.0,-1287.0,85.0,-368.0,645.0,-364.0,57.0
19:30:59.036000,94.0,58.0,-119.0,-1278.0,46.0,-357.0,660.0,-355.0,61.0
19:30:59.041000,106.0,46.0,-39.0,-1108.0,-16.0,-316.0,660.0,-355.0,61.0
19:30:59.045000,86.0,46.0,21.0,-1108.0,-16.0,-316.0,657.0,-358.0,79.0
19:30:59.050000,140.0,18.0,38.0,-1075.0,-20.0,-300.0,657.0,-358.0,79.0
19:30:59.054000,196.0,-14.0,-24.0,-1054.0,43.0,-293.0,657.0,-358.0,79.0
19:30:59.059000,186.0,-21.0,-69.0,-1071.0,176.0,-265.0,652.0,-361.0,58.0
19:30:59.064000,137.0,-17.0,-57.0,-1070.0,160.0,-237.0,652.0,-361.0,58.0
19:30:59.069000,113.0,-18.0,-46.0,-1098.0,49.0,-230.0,660.0,-358.0,58.0
19:30:59.073000,113.0,-32.0,-63.0,-1150.0,80.0,-238.0,660.0,-358.0,58.0
19:30:59.078000,113.0,-32.0,-63.0,-1154.0,153.0,-249.0,660.0,-358.0,58.0
19:30:59.083000,79.0,-24.0,-49.0,-1143.0,179.0,-230.0,663.0,-358.0,54.0
19:30:59.088000,44.0,-23.0,-39.0,-1150.0,169.0,-226.0,663.0,-358.0,54.0
19:30:59.092000,15.0,-25.0,-49.0,-1158.0,126.0,-239.0,649.0,-358.0,58.0
19:30:59.097000,-7.0,-28.0,-57.0,-1175.0,117.0,-232.0,649.0,-358.0,58.0
19:30:59.101000,-18.0,-29.0,-70.0,-1162.0,107.0,-222.0,649.0,-358.0,58.0
19:30:59.106000,-42.0,-23.0,-60.0,-1133.0,88.0,-217.0,655.0,-355.0,60.0
19:30:59.111000,-55.0,-21.0,-67.0,-1124.0,101.0,-219.0,655.0,-355.0,60.0
19:30:59.116000,-48.0,-24.0,-76.0,-1108.0,133.0,-218.0,663.0,-358.0,52.0
19:30:59.120000,-42.0,-34.0,-17.0,-1111.0,111.0,-209.0,663.0,-358.0,52.0
19:30:59.125000,-71.0,-20.0,-30.0,-1150.0,53.0,-234.0,663.0,-358.0,52.0
19:30:59.130000,-44.0,-18.0,-91.0,-1160.0,42.0,-248.0,646.0,-351.0,58.0
19:30:59.135000,-37.0,-10.0,-112.0,-1151.0,71.0,-238.0,646.0,-351.0,58.0
19:30:59.139000,-48.0,0.0,-105.0,-1151.0,71.0,-238.0,648.0,-352.0,72.0
19:30:59.144000,-79.0,16.0,-72.0,-1172.0,74.0,-238.0,648.0,-352.0,72.0
19:30:59.148000,-101.0,38.0,-42.0,-1200.0,5.0,-233.0,648.0,-352.0,72.0
19:30:59.153000,-89.0,53.0,-63.0,-1206.0,-3.0,-242.0,645.0,-354.0,66.0
19:30:59.158000,-91.0,65.0,-124.0,-1186.0,103.0,-251.0,645.0,-354.0,66.0
19:30:59.163000,-109.0,78.0,-122.0,-1147.0,114.0,-244.0,655.0,-361.0,52.0
19:30:59.167000,-87.0,79.0,-123.0,-1110.0,5.0,-241.0,655.0,-361.0,52.0
19:30:59.171000,-71.0,89.0,-140.0,-1090.0,-80.0,-240.0,655.0,-361.0,52.0
19:30:59.177000,-21.0,90.0,-149.0,-1096.0,-92.0,-247.0,655.0,-358.0,60.0
19:30:59.182000,18.0,88.0,-193.0,-1126.0,-65.0,-255.0,655.0,-358.0,60.0
19:30:59.186000,21.0,107.0,-250.0,-1135.0,-67.0,-249.0,657.0,-355.0,52.0
19:30:59.191000,21.0,107.0,-250.0,-1137.0,-68.0,-258.0,657.0,-355.0,52.0
19:30:59.195000,67.0,111.0,-287.0,-1133.0,-73.0,-264.0,657.0,-355.0,52.0
19:30:59.200000,76.0,123.0,-315.0,-1113.0,-58.0,-261.0,651.0,-355.0,58.0
19:30:59.205000,94.0,137.0,-348.0,-1086.0,-13.0,-256.0,651.0,-355.0,58.0
19:30:59.210000,99.0,147.0,-413.0,-1039.0,-1.0,-260.0,660.0,-348.0,67.0
19:30:59.214000,138.0,136.0,-447.0,-1002.0,0.0,-261.0,660.0,-348.0,67.0
19:30:59.218000,154.0,132.0,-427.0,-1009.0,16.0,-260.0,660.0,-348.0,67.0
19:30:59.224000,161.0,128.0,-441.0,-1021.0,45.0,-276.0,655.0,-331.0,72.0
19:30:59.229000,175.0,128.0,-481.0,-1011.0,87.0,-280.0,655.0,-331.0,72.0
19:30:59.233000,194.0,112.0,-487.0,-999.0,144.0,-278.0,654.0,-324.0,61.0
19:30:59.238000,197.0,101.0,-499.0,-984.0,190.0,-282.0,654.0,-324.0,61.0
19:30:59.242000,201.0,86.0,-515.0,-977.0,210.0,-285.0,654.0,-324.0,61.0
19:30:59.247000,210.0,65.0,-505.0,-982.0,206.0,-283.0,657.0,-337.0,58.0
19:30:59.252000,195.0,61.0,-491.0,-982.0,206.0,-283.0,657.0,-337.0,58.0
19:30:59.257000,195.0,44.0,-485.0,-993.0,203.0,-276.0,655.0,-325.0,58.0
19:30:59.261000,189.0,32.0,-492.0,-1009.0,212.0,-272.0,655.0,-325.0,58.0
19:30:59.265000,181.0,28.0,-501.0,-1031.0,224.0,-273.0,655.0,-325.0,58.0
19:30:59.271000,170.0,22.0,-514.0,-1060.0,242.0,-270.0,646.0,-330.0,63.0
19:30:59.276000,145.0,23.0,-518.0,-1080.0,236.0,-264.0,646.0,-330.0,63.0
19:30:59.280000,129.0,21.0,-510.0,-1097.0,213.0,-260.0,640.0,-321.0,73.0
19:30:59.285000,110.0,23.0,-501.0,-1116.0,204.0,-254.0,640.0,-321.0,73.0
19:30:59.289000,110.0,23.0,-501.0,-1134.0,201.0,-248.0,640.0,-321.0,73.0
19:30:59.294000,70.0,42.0,-562.0,-1140.0,190.0,-244.0,651.0,-313.0,63.0
19:30:59.299000,70.0,42.0,-562.0,-1123.0,184.0,-241.0,651.0,-313.0,63.0
19:30:59.304000,63.0,54.0,-590.0,-1104.0,214.0,-239.0,636.0,-309.0,58.0
19:30:59.308000,71.0,66.0,-625.0,-1091.0,249.0,-236.0,636.0,-309.0,58.0
19:30:59.312000,80.0,77.0,-644.0,-1096.0,241.0,-233.0,636.0,-309.0,58.0
19:30:59.318000,82.0,89.0,-658.0,-1114.0,196.0,-230.0,646.0,-301.0,67.0
19:30:59.322000,84.0,107.0,-679.0,-1130.0,187.0,-233.0,646.0,-301.0,67.0
19:30:59.327000,109.0,119.0,-715.0,-1128.0,224.0,-234.0,648.0,-309.0,58.0
19:30:59.332000,133.0,131.0,-728.0,-1106.0,255.0,-230.0,648.0,-309.0,58.0
19:30:59.336000,155.0,139.0,-721.0,-1090.0,257.0,-229.0,648.0,-309.0,58.0
19:30:59.341000,167.0,144.0,-714.0,-1075.0,240.0,-230.0,651.0,-303.0,57.0
19:30:59.346000,184.0,150.0,-723.0,-1055.0,264.0,-236.0,651.0,-303.0,57.0
19:30:59.351000,220.0,145.0,-740.0,-1055.0,264.0,-236.0,646.0,-295.0,61.0
19:30:59.355000,228.0,138.0,-735.0,-1029.0,326.0,-250.0,646.0,-295.0,61.0
19:30:59.359000,252.0,140.0,-714.0,-1025.0,394.0,-256.0,645.0,-291.0,61.0
19:30:59.365000,253.0,137.0,-691.0,-1025.0,394.0,-256.0,645.0,-291.0,61.0
19:30:59.369000,240.0,138.0,-679.0,-1037.0,446.0,-257.0,645.0,-291.0,61.0
19:30:59.374000,233.0,140.0,-681.0,-1053.0,479.0,-265.0,631.0,-285.0,72.0
19:30:59.379000,219.0,142.0,-688.0,-1056.0,511.0,-263.0,631.0,-285.0,72.0
19:30:59.384000,196.0,144.0,-684.0,-1047.0,525.0,-259.0,639.0,-276.0,64.0
19:30:59.388000,178.0,143.0,-646.0,-1029.0,514.0,-257.0,639.0,-276.0,64.0
19:30:59.392000,162.0,143.0,-646.0,-1023.0,504.0,-260.0,639.0,-276.0,64.0
19:30:59.398000,143.0,134.0,-616.0,-1035.0,510.0,-263.0,648.0,-274.0,63.0
19:30:59.402000,130.0,131.0,-613.0,-1026.0,507.0,-261.0,648.0,-274.0,63.0
19:30:59.406000,130.0,131.0,-613.0,-997.0,490.0,-258.0,640.0,-277.0,61.0
19:30:59.412000,107.0,132.0,-584.0,-981.0,493.0,-253.0,640.0,-277.0,61.0
19:30:59.416000,89.0,130.0,-566.0,-978.0,506.0,-241.0,640.0,-277.0,61.0
19:30:59.421000,65.0,133.0,-597.0,-956.0,478.0,-237.0,646.0,-264.0,64.0
19:30:59.426000,50.0,135.0,-623.0,-926.0,440.0,-238.0,646.0,-264.0,64.0
19:30:59.431000,49.0,131.0,-622.0,-908.0,421.0,-233.0,633.0,-265.0,72.0
19:30:59.435000,53.0,128.0,-620.0,-897.0,406.0,-239.0,633.0,-265.0,72.0
19:30:59.439000,69.0,126.0,-592.0,-912.0,404.0,-237.0,633.0,-265.0,72.0
19:30:59.445000,65.0,120.0,-590.0,-945.0,394.0,-233.0,637.0,-258.0,64.0
19:30:59.449000,72.0,119.0,-609.0,-964.0,387.0,-242.0,637.0,-258.0,64.0
19:30:59.454000,91.0,114.0,-619.0,-975.0,410.0,-248.0,633.0,-244.0,72.0
19:30:59.459000,99.0,114.0,-629.0,-986.0,434.0,-252.0,633.0,-244.0,72.0
19:30:59.463000,98.0,117.0,-635.0,-1001.0,443.0,-259.0,633.0,-244.0,72.0
19:30:59.468000,102.0,119.0,-629.0,-1001.0,465.0,-268.0,639.0,-241.0,64.0
19:30:59.473000,112.0,119.0,-634.0,-1016.0,465.0,-268.0,639.0,-241.0,64.0
19:30:59.477000,116.0,121.0,-618.0,-1006.0,495.0,-275.0,637.0,-247.0,63.0
19:30:59.482000,113.0,124.0,-590.0,-971.0,516.0,-278.0,637.0,-247.0,63.0
19:30:59.486000,115.0,126.0,-564.0,-948.0,546.0,-284.0,637.0,-247.0,63.0
19:30:59.492000,116.0,130.0,-524.0,-948.0,575.0,-296.0,642.0,-235.0,61.0
19:30:59.496000,113.0,134.0,-497.0,-976.0,598.0,-304.0,642.0,-235.0,61.0
19:30:59.501000,116.0,137.0,-543.0,-1004.0,631.0,-309.0,633.0,-238.0,63.0
19:30:59.506000,119.0,140.0,-527.0,-1010.0,651.0,-314.0,633.0,-238.0,63.0
19:30:59.510000,109.0,146.0,-460.0,-1019.0,635.0,-316.0,634.0,-231.0,69.0
19:30:59.515000,117.0,143.0,-417.0,-1063.0,621.0,-312.0,634.0,-231.0,69.0
19:30:59.519000,117.0,143.0,-417.0,-1064.0,647.0,-311.0,634.0,-231.0,69.0
19:30:59.525000,107.0,152.0,-406.0,-987.0,646.0,-310.0,636.0,-217.0,66.0
19:30:59.529000,102.0,156.0,-323.0,-928.0,638.0,-313.0,636.0,-217.0,66.0
19:30:59.534000,124.0,147.0,-268.0,-915.0,688.0,-320.0,630.0,-228.0,73.0
19:30:59.539000,130.0,149.0,-271.0,-910.0,718.0,-321.0,630.0,-228.0,73.0
19:30:59.543000,131.0,152.0,-263.0,-931.0,736.0,-322.0,630.0,-228.0,73.0
19:30:59.548000,130.0,154.0,-265.0,-927.0,731.0,-322.0,634.0,-220.0,81.0
19:30:59.553000,121.0,154.0,-206.0,-881.0,686.0,-324.0,634.0,-220.0,81.0
19:30:59.557000,119.0,149.0,-119.0,-886.0,686.0,-332.0,633.0,-217.0,75.0
19:30:59.562000,115.0,147.0,-95.0,-909.0,722.0,-338.0,633.0,-217.0,75.0
19:30:59.566000,103.0,144.0,-88.0,-895.0,733.0,-338.0,633.0,-217.0,75.0
19:30:59.572000,98.0,133.0,-53.0,-868.0,723.0,-339.0,627.0,-213.0,75.0
19:30:59.576000,82.0,119.0,6.0,-857.0,727.0,-342.0,627.0,-213.0,75.0
19:30:59.581000,70.0,103.0,42.0,-857.0,727.0,-342.0,630.0,-214.0,78.0
19:30:59.585000,56.0,85.0,79.0,-827.0,743.0,-345.0,630.0,-214.0,78.0
19:30:59.590000,45.0,68.0,135.0,-827.0,743.0,-345.0,630.0,-214.0,78.0
19:30:59.595000,29.0,60.0,193.0,-821.0,737.0,-346.0,630.0,-223.0,78.0
19:30:59.600000,13.0,54.0,239.0,-835.0,739.0,-350.0,630.0,-223.0,78.0
19:30:59.604000,-3.0,49.0,276.0,-854.0,739.0,-351.0,627.0,-228.0,75.0
19:30:59.609000,-11.0,39.0,321.0,-852.0,710.0,-351.0,627.0,-228.0,75.0
19:30:59.613000,-11.0,39.0,321.0,-851.0,670.0,-349.0,627.0,-228.0,75.0
19:30:59.619000,-20.0,12.0,417.0,-852.0,629.0,-342.0,631.0,-220.0,72.0
19:30:59.623000,-12.0,-4.0,464.0,-845.0,584.0,-331.0,631.0,-220.0,72.0
19:30:59.628000,-12.0,-4.0,464.0,-830.0,544.0,-317.0,636.0,-220.0,75.0
19:30:59.633000,6.0,-25.0,483.0,-788.0,497.0,-298.0,636.0,-220.0,75.0
19:30:59.640000,53.0,-70.0,551.0,-688.0,387.0,-262.0,642.0,-231.0,69.0
19:30:59.642000,53.0,-70.0,551.0,-688.0,387.0,-262.0,642.0,-231.0,69.0
19:30:59.646000,78.0,-88.0,563.0,-664.0,368.0,-251.0,642.0,-231.0,69.0
19:30:59.651000,95.0,-99.0,556.0,-645.0,368.0,-244.0,645.0,-235.0,72.0
19:30:59.656000,106.0,-103.0,543.0,-637.0,381.0,-234.0,645.0,-235.0,72.0
19:30:59.661000,98.0,-98.0,527.0,-640.0,398.0,-227.0,636.0,-231.0,81.0
19:30:59.666000,77.0,-84.0,497.0,-647.0,411.0,-225.0,636.0,-231.0,81.0
19:30:59.670000,47.0,-69.0,453.0,-649.0,418.0,-225.0,636.0,-231.0,81.0
19:30:59.675000,15.0,-50.0,395.0,-647.0,431.0,-228.0,646.0,-226.0,66.0
19:30:59.680000,-16.0,-32.0,329.0,-650.0,458.0,-232.0,646.0,-226.0,66.0
19:30:59.684000,-51.0,-17.0,256.0,-655.0,482.0,-233.0,648.0,-243.0,90.0
19:30:59.689000,-88.0,-7.0,189.0,-655.0,482.0,-233.0,648.0,-243.0,90.0
19:30:59.693000,-126.0,-2.0,140.0,-651.0,484.0,-230.0,648.0,-243.0,90.0
19:30:59.698000,-158.0,-7.0,111.0,-634.0,464.0,-223.0,636.0,-253.0,78.0
19:30:59.703000,-185.0,-18.0,106.0,-597.0,426.0,-214.0,636.0,-253.0,78.0
19:30:59.708000,-205.0,-40.0,122.0,-543.0,387.0,-199.0,655.0,-240.0,63.0
19:30:59.713000,-219.0,-62.0,154.0,-488.0,358.0,-195.0,655.0,-240.0,63.0
19:30:59.717000,-229.0,-89.0,195.0,-449.0,340.0,-184.0,655.0,-240.0,63.0
19:30:59.722000,-236.0,-121.0,239.0,-428.0,325.0,-162.0,654.0,-247.0,72.0
19:30:59.727000,-236.0,-150.0,290.0,-416.0,292.0,-143.0,654.0,-247.0,72.0
19:30:59.731000,-228.0,-183.0,356.0,-407.0,229.0,-120.0,652.0,-246.0,73.0
19:30:59.736000,-228.0,-183.0,356.0,-408.0,154.0,-99.0,652.0,-246.0,73.0
19:30:59.740000,-209.0,-214.0,413.0,-417.0,90.0,-79.0,652.0,-246.0,73.0
19:30:59.745000,-182.0,-241.0,455.0,-430.0,45.0,-63.0,657.0,-250.0,58.0
19:30:59.750000,-149.0,-261.0,480.0,-449.0,22.0,-55.0,657.0,-250.0,58.0
19:30:59.755000,-116.0,-270.0,476.0,-479.0,28.0,-52.0,651.0,-247.0,69.0
19:30:59.760000,-85.0,-270.0,442.0,-517.0,60.0,-54.0,651.0,-247.0,69.0
19:30:59.764000,-60.0,-260.0,381.0,-553.0,102.0,-56.0,651.0,-247.0,69.0
19:30:59.769000,-42.0,-242.0,306.0,-582.0,135.0,-59.0,649.0,-255.0,63.0
19:30:59.774000,-33.0,-217.0,234.0,-602.0,153.0,-63.0,649.0,-255.0,63.0
19:30:59.778000,-25.0,-189.0,163.0,-612.0,163.0,-69.0,648.0,-258.0,75.0
19:30:59.783000,-21.0,-158.0,100.0,-613.0,171.0,-76.0,648.0,-258.0,75.0
19:30:59.787000,-22.0,-131.0,55.0,-608.0,190.0,-83.0,648.0,-258.0,75.0
19:30:59.792000,-26.0,-103.0,21.0,-595.0,219.0,-89.0,664.0,-256.0,61.0
19:30:59.797000,-45.0,-75.0,4.0,-595.0,244.0,-96.0,664.0,-256.0,61.0
19:30:59.802000,-69.0,-50.0,10.0,-574.0,244.0,-96.0,661.0,-252.0,60.0
19:30:59.807000,-100.0,-27.0,26.0,-554.0,264.0,-104.0,661.0,-252.0,60.0
19:30:59.811000,-135.0,-6.0,46.0,-537.0,277.0,-111.0,661.0,-252.0,60.0
19:30:59.816000,-175.0,11.0,73.0,-521.0,278.0,-118.0,651.0,-253.0,58.0
19:30:59.821000,-204.0,22.0,102.0,-506.0,264.0,-126.0,651.0,-253.0,58.0
19:30:59.825000,-224.0,26.0,128.0,-493.0,236.0,-135.0,663.0,-258.0,64.0
19:30:59.830000,-240.0,31.0,144.0,-485.0,201.0,-145.0,663.0,-258.0,64.0
19:30:59.834000,-240.0,31.0,144.0,-488.0,181.0,-159.0,663.0,-258.0,64.0
19:30:59.839000,-244.0,31.0,125.0,-493.0,169.0,-172.0,651.0,-256.0,58.0
19:30:59.844000,-245.0,31.0,116.0,-496.0,152.0,-182.0,651.0,-256.0,58.0
19:30:59.849000,-245.0,31.0,116.0,-496.0,129.0,-189.0,652.0,-250.0,63.0
19:30:59.854000,-245.0,30.0,109.0,-488.0,104.0,-195.0,652.0,-250.0,63.0
19:30:59.858000,-242.0,27.0,105.0,-474.0,82.0,-203.0,652.0,-250.0,63.0
19:30:59.863000,-231.0,21.0,92.0,-465.0,73.0,-213.0,651.0,-253.0,61.0
19:30:59.868000,-216.0,14.0,72.0,-463.0,77.0,-218.0,651.0,-253.0,61.0
19:30:59.872000,-199.0,7.0,53.0,-465.0,80.0,-219.0,658.0,-262.0,64.0
19:30:59.877000,-182.0,-1.0,43.0,-461.0,65.0,-217.0,658.0,-262.0,64.0
19:30:59.881000,-160.0,-13.0,46.0,-450.0,37.0,-212.0,658.0,-262.0,64.0
19:30:59.886000,-128.0,-27.0,58.0,-439.0,6.0,-207.0,649.0,-255.0,60.0
19:30:59.891000,-89.0,-44.0,77.0,-438.0,-11.0,-199.0,649.0,-255.0,60.0
19:30:59.896000,-49.0,-62.0,97.0,-438.0,-11.0,-199.0,655.0,-253.0,64.0
19:30:59.901000,-11.0,-79.0,116.0,-469.0,-12.0,-188.0,655.0,-253.0,64.0
19:30:59.905000,21.0,-92.0,138.0,-485.0,-6.0,-180.0,655.0,-253.0,64.0
19:30:59.910000,42.0,-102.0,159.0,-485.0,-6.0,-180.0,649.0,-246.0,61.0
19:30:59.915000,58.0,-109.0,177.0,-502.0,5.0,-167.0,649.0,-246.0,61.0
19:30:59.919000,69.0,-116.0,191.0,-502.0,5.0,-167.0,639.0,-256.0,69.0
19:30:59.924000,79.0,-121.0,195.0,-500.0,9.0,-163.0,639.0,-256.0,69.0
19:30:59.928000,84.0,-126.0,185.0,-500.0,25.0,-160.0,639.0,-256.0,69.0
19:30:59.933000,85.0,-131.0,167.0,-500.0,48.0,-156.0,655.0,-262.0,67.0
19:30:59.938000,81.0,-138.0,151.0,-498.0,67.0,-150.0,655.0,-262.0,67.0
19:30:59.943000,72.0,-147.0,142.0,-498.0,78.0,-142.0,663.0,-267.0,60.0
19:30:59.948000,59.0,-156.0,140.0,-498.0,86.0,-135.0,663.0,-267.0,60.0
19:30:59.952000,59.0,-156.0,140.0,-498.0,94.0,-129.0,663.0,-267.0,60.0
19:30:59.957000,42.0,-165.0,142.0,-498.0,100.0,-122.0,654.0,-261.0,55.0
19:30:59.961000,25.0,-177.0,147.0,-497.0,106.0,-115.0,654.0,-261.0,55.0
19:30:59.966000,7.0,-190.0,151.0,-496.0,107.0,-105.0,645.0,-255.0,60.0
19:30:59.971000,-8.0,-206.0,160.0,-494.0,102.0,-96.0,645.0,-255.0,60.0
19:30:59.975000,-17.0,-222.0,170.0,-499.0,96.0,-90.0,645.0,-255.0,60.0
19:30:59.980000,-22.0,-238.0,179.0,-518.0,98.0,-85.0,658.0,-262.0,52.0
19:30:59.985000,-24.0,-250.0,177.0,-540.0,102.0,-79.0,658.0,-262.0,52.0
19:30:59.990000,-25.0,-257.0,174.0,-559.0,96.0,-73.0,658.0,-262.0,51.0
19:30:59.995000,-23.0,-262.0,177.0,-580.0,95.0,-70.0,658.0,-262.0,51.0
19:30:59.999000,-20.0,-264.0,177.0,-602.0,107.0,-69.0,658.0,-262.0,51.0
19:31:00.004000,-18.0,-262.0,174.0,-620.0,124.0,-69.0,658.0,-262.0,51.0
19:31:00.009000,-16.0,-258.0,174.0,-627.0,135.0,-70.0,658.0,-262.0,51.0
19:31:00.013000,-18.0,-251.0,185.0,-627.0,135.0,-70.0,652.0,-267.0,42.0
19:31:00.018000,-22.0,-241.0,201.0,-626.0,146.0,-70.0,652.0,-267.0,42.0
19:31:00.022000,-28.0,-232.0,218.0,-621.0,159.0,-72.0,652.0,-267.0,42.0
19:31:00.027000,-35.0,-222.0,233.0,-615.0,173.0,-76.0,649.0,-279.0,45.0
19:31:00.032000,-44.0,-213.0,244.0,-612.0,187.0,-77.0,649.0,-279.0,45.0
19:31:00.037000,-51.0,-207.0,256.0,-610.0,187.0,-77.0,652.0,-280.0,42.0
19:31:00.042000,-52.0,-205.0,272.0,-605.0,165.0,-76.0,652.0,-280.0,42.0
19:31:00.046000,-46.0,-207.0,287.0,-603.0,132.0,-77.0,652.0,-280.0,42.0
19:31:00.051000,-38.0,-210.0,295.0,-605.0,108.0,-80.0,651.0,-268.0,37.0
19:31:00.056000,-32.0,-212.0,300.0,-612.0,108.0,-85.0,651.0,-268.0,37.0
19:31:00.060000,-32.0,-214.0,303.0,-622.0,131.0,-91.0,639.0,-273.0,63.0
19:31:00.065000,-32.0,-214.0,303.0,-634.0,161.0,-95.0,639.0,-273.0,63.0
19:31:00.069000,-39.0,-212.0,308.0,-645.0,183.0,-98.0,639.0,-273.0,63.0
19:31:00.074000,-50.0,-207.0,319.0,-652.0,188.0,-103.0,646.0,-276.0,30.0
19:31:00.079000,-57.0,-199.0,338.0,-657.0,179.0,-110.0,646.0,-276.0,30.0
19:31:00.084000,-60.0,-193.0,363.0,-668.0,169.0,-114.0,642.0,-282.0,31.0
19:31:00.089000,-64.0,-182.0,391.0,-680.0,152.0,-113.0,642.0,-282.0,31.0
19:31:00.093000,-67.0,-164.0,422.0,-684.0,119.0,-112.0,642.0,-282.0,31.0
19:31:00.098000,-63.0,-149.0,456.0,-681.0,74.0,-119.0,649.0,-285.0,34.0
19:31:00.103000,-47.0,-142.0,480.0,-682.0,45.0,-125.0,649.0,-285.0,34.0
19:31:00.107000,-23.0,-140.0,484.0,-694.0,47.0,-124.0,649.0,-294.0,36.0
19:31:00.112000,0.0,-140.0,476.0,-711.0,67.0,-121.0,649.0,-294.0,36.0
19:31:00.116000,21.0,-139.0,468.0,-728.0,90.0,-116.0,649.0,-294.0,36.0
19:31:00.121000,33.0,-138.0,461.0,-746.0,115.0,-111.0,640.0,-292.0,33.0
19:31:00.126000,33.0,-134.0,455.0,-746.0,144.0,-115.0,640.0,-292.0,33.0
19:31:00.131000,23.0,-126.0,445.0,-763.0,144.0,-115.0,646.0,-298.0,27.0
19:31:00.136000,-7.0,-114.0,430.0,-779.0,179.0,-117.0,646.0,-298.0,27.0
19:31:00.140000,-44.0,-105.0,413.0,-790.0,209.0,-119.0,646.0,-298.0,27.0
19:31:00.145000,-78.0,-96.0,389.0,-792.0,220.0,-129.0,643.0,-303.0,30.0
19:31:00.150000,-111.0,-86.0,357.0,-805.0,220.0,-139.0,643.0,-303.0,30.0
19:31:00.154000,-140.0,-74.0,327.0,-830.0,220.0,-151.0,654.0,-300.0,30.0
19:31:00.159000,-164.0,-68.0,308.0,-860.0,209.0,-164.0,654.0,-300.0,30.0
19:31:00.163000,-164.0,-68.0,308.0,-889.0,188.0,-179.0,654.0,-300.0,30.0
19:31:00.168000,-189.0,-53.0,273.0,-916.0,173.0,-192.0,645.0,-313.0,31.0
19:31:00.173000,-194.0,-47.0,259.0,-937.0,162.0,-202.0,645.0,-313.0,31.0
19:31:00.178000,-194.0,-47.0,259.0,-948.0,145.0,-211.0,640.0,-304.0,36.0
