hh:mm:ss.ms,gyroX[mdps],gyroY[mdps],gyroZ[mdps],accX[mg],accY[mg],accZ[mg],magX[mG],magY[mG],magZ[mG]
19:31:00.469000,-122.0,37.0,277.0,-1214.0,111.0,-285.0,630.0,-349.0,37.0
19:31:00.474000,-115.0,32.0,268.0,-1214.0,111.0,-285.0,630.0,-349.0,37.0
19:31:00.478000,-112.0,35.0,244.0,-1226.0,43.0,-268.0,630.0,-349.0,37.0
19:31:00.483000,-116.0,46.0,235.0,-1218.0,-25.0,-244.0,622.0,-355.0,21.0
19:31:00.488000,-108.0,53.0,226.0,-1183.0,-68.0,-220.0,622.0,-355.0,21.0
19:31:00.493000,-56.0,35.0,219.0,-1150.0,-87.0,-201.0,628.0,-352.0,22.0
19:31:00.497000,-6.0,27.0,200.0,-1165.0,-82.0,-193.0,628.0,-352.0,22.0
19:31:00.502000,-6.0,27.0,200.0,-1246.0,-64.0,-194.0,628.0,-352.0,22.0
19:31:00.507000,-14.0,50.0,134.0,-1294.0,-73.0,-196.0,630.0,-364.0,21.0
19:31:00.512000,-13.0,64.0,82.0,-1293.0,-52.0,-203.0,630.0,-364.0,21.0
19:31:00.516000,-23.0,84.0,28.0,-1292.0,11.0,-213.0,624.0,-363.0,25.0
19:31:00.521000,-16.0,91.0,-38.0,-1293.0,64.0,-220.0,624.0,-363.0,25.0
19:31:00.525000,-33.0,112.0,-113.0,-1286.0,86.0,-220.0,624.0,-363.0,25.0
19:31:00.530000,-11.0,108.0,-149.0,-1283.0,63.0,-223.0,610.0,-355.0,24.0
19:31:00.535000,-37.0,127.0,-164.0,-1301.0,22.0,-245.0,610.0,-355.0,24.0
19:31:00.540000,-42.0,162.0,-214.0,-1283.0,-8.0,-246.0,631.0,-355.0,28.0
19:31:00.544000,-36.0,178.0,-254.0,-1236.0,8.0,-261.0,631.0,-355.0,28.0
19:31:00.549000,8.0,180.0,-256.0,-1243.0,72.0,-271.0,631.0,-355.0,28.0
19:31:00.554000,-2.0,197.0,-282.0,-1224.0,49.0,-256.0,630.0,-346.0,24.0
19:31:00.559000,-21.0,213.0,-247.0,-1182.0,20.0,-274.0,630.0,-346.0,24.0
19:31:00.563000,41.0,193.0,-196.0,-1197.0,84.0,-280.0,630.0,-357.0,27.0
19:31:00.568000,34.0,200.0,-191.0,-1197.0,84.0,-280.0,630.0,-357.0,27.0
19:31:00.572000,28.0,214.0,-198.0,-1218.0,144.0,-287.0,630.0,-357.0,27.0
19:31:00.577000,27.0,221.0,-185.0,-1199.0,183.0,-300.0,625.0,-345.0,25.0
19:31:00.582000,41.0,216.0,-165.0,-1099.0,227.0,-288.0,625.0,-345.0,25.0
19:31:00.587000,21.0,202.0,-159.0,-1149.0,208.0,-284.0,627.0,-352.0,28.0
19:31:00.591000,-32.0,229.0,-49.0,-1247.0,51.0,-303.0,627.0,-352.0,28.0
19:31:00.596000,-24.0,228.0,11.0,-1218.0,-60.0,-323.0,627.0,-352.0,28.0
19:31:00.601000,-14.0,182.0,-21.0,-1168.0,-19.0,-322.0,619.0,-346.0,25.0
19:31:00.606000,14.0,149.0,-49.0,-1052.0,101.0,-327.0,619.0,-346.0,25.0
19:31:00.610000,14.0,149.0,-49.0,-989.0,214.0,-342.0,628.0,-342.0,43.0
19:31:00.615000,33.0,121.0,-121.0,-1027.0,214.0,-352.0,628.0,-342.0,43.0
19:31:00.619000,42.0,102.0,-200.0,-1051.0,107.0,-362.0,628.0,-342.0,43.0
19:31:00.624000,29.0,88.0,-187.0,-1062.0,15.0,-364.0,627.0,-348.0,30.0
19:31:00.629000,14.0,63.0,-123.0,-1068.0,50.0,-370.0,627.0,-348.0,30.0
19:31:00.634000,21.0,35.0,-101.0,-1049.0,145.0,-371.0,628.0,-345.0,34.0
19:31:00.638000,18.0,-2.0,-103.0,-1002.0,164.0,-370.0,628.0,-345.0,34.0
19:31:00.643000,-7.0,-23.0,-81.0,-969.0,116.0,-372.0,628.0,-345.0,34.0
19:31:00.648000,-16.0,-46.0,-62.0,-976.0,78.0,-362.0,625.0,-349.0,36.0
19:31:00.653000,-24.0,-72.0,-54.0,-985.0,93.0,-344.0,625.0,-349.0,36.0
19:31:00.657000,-15.0,-102.0,-37.0,-981.0,107.0,-335.0,636.0,-348.0,31.0
19:31:00.662000,-25.0,-121.0,-33.0,-946.0,65.0,-333.0,636.0,-348.0,31.0
19:31:00.666000,-19.0,-142.0,-2.0,-968.0,10.0,-332.0,636.0,-348.0,31.0
19:31:00.671000,-4.0,-163.0,55.0,-1071.0,19.0,-320.0,627.0,-352.0,31.0
19:31:00.676000,-4.0,-172.0,65.0,-1071.0,19.0,-320.0,627.0,-352.0,31.0
19:31:00.681000,3.0,-164.0,-1.0,-1141.0,66.0,-321.0,625.0,-352.0,40.0
19:31:00.685000,29.0,-172.0,-25.0,-1147.0,78.0,-323.0,625.0,-352.0,40.0
19:31:00.690000,26.0,-177.0,7.0,-1101.0,41.0,-293.0,625.0,-352.0,40.0
19:31:00.695000,26.0,-170.0,37.0,-1060.0,-10.0,-274.0,622.0,-349.0,24.0
19:31:00.699000,53.0,-174.0,33.0,-1134.0,31.0,-266.0,622.0,-349.0,24.0
19:31:00.704000,62.0,-172.0,-15.0,-1134.0,31.0,-266.0,613.0,-340.0,36.0
19:31:00.709000,79.0,-175.0,-21.0,-1120.0,0.0,-257.0,613.0,-340.0,36.0
19:31:00.713000,79.0,-175.0,-21.0,-1108.0,-61.0,-240.0,613.0,-340.0,36.0
19:31:00.718000,147.0,-191.0,0.0,-1115.0,-64.0,-240.0,633.0,-352.0,21.0
19:31:00.723000,147.0,-191.0,0.0,-1119.0,-13.0,-242.0,633.0,-352.0,21.0
19:31:00.728000,165.0,-191.0,-28.0,-1101.0,20.0,-233.0,628.0,-343.0,19.0
19:31:00.732000,177.0,-187.0,-33.0,-1087.0,49.0,-222.0,628.0,-343.0,19.0
19:31:00.736000,178.0,-187.0,-58.0,-1065.0,61.0,-211.0,628.0,-343.0,19.0
19:31:00.742000,169.0,-182.0,-78.0,-1044.0,79.0,-203.0,622.0,-345.0,22.0
19:31:00.747000,166.0,-179.0,-91.0,-1055.0,119.0,-193.0,622.0,-345.0,22.0
19:31:00.751000,154.0,-172.0,-94.0,-1042.0,119.0,-183.0,618.0,-355.0,15.0
19:31:00.756000,145.0,-165.0,-88.0,-1048.0,91.0,-171.0,618.0,-355.0,15.0
19:31:00.760000,135.0,-158.0,-72.0,-1113.0,96.0,-163.0,618.0,-355.0,15.0
19:31:00.765000,137.0,-147.0,-94.0,-1120.0,71.0,-157.0,619.0,-342.0,18.0
19:31:00.770000,120.0,-126.0,-98.0,-1099.0,47.0,-155.0,619.0,-342.0,18.0
19:31:00.775000,123.0,-113.0,-126.0,-1099.0,47.0,-155.0,618.0,-348.0,7.0
19:31:00.779000,123.0,-100.0,-144.0,-1092.0,107.0,-155.0,618.0,-348.0,7.0
19:31:00.783000,112.0,-84.0,-134.0,-1092.0,134.0,-156.0,618.0,-348.0,7.0
19:31:00.789000,119.0,-78.0,-156.0,-1088.0,134.0,-156.0,619.0,-354.0,10.0
19:31:00.794000,123.0,-67.0,-200.0,-1065.0,73.0,-163.0,619.0,-354.0,10.0
19:31:00.798000,126.0,-60.0,-214.0,-1065.0,73.0,-163.0,628.0,-346.0,7.0
19:31:00.803000,127.0,-53.0,-191.0,-1054.0,93.0,-164.0,628.0,-346.0,7.0
19:31:00.807000,112.0,-39.0,-174.0,-1053.0,114.0,-161.0,628.0,-346.0,7.0
19:31:00.812000,100.0,-24.0,-173.0,-1087.0,149.0,-157.0,618.0,-345.0,4.0
19:31:00.817000,88.0,-1.0,-196.0,-1118.0,187.0,-159.0,618.0,-345.0,4.0
19:31:00.822000,74.0,10.0,-203.0,-1113.0,165.0,-158.0,631.0,-343.0,7.0
19:31:00.826000,65.0,20.0,-202.0,-1097.0,136.0,-152.0,631.0,-343.0,7.0
19:31:00.830000,65.0,20.0,-202.0,-1077.0,157.0,-149.0,631.0,-343.0,7.0
19:31:00.836000,46.0,26.0,-217.0,-1053.0,193.0,-151.0,616.0,-345.0,4.0
19:31:00.841000,22.0,37.0,-242.0,-1033.0,209.0,-155.0,616.0,-345.0,4.0
19:31:00.845000,9.0,37.0,-252.0,-1028.0,208.0,-158.0,597.0,-352.0,22.0
19:31:00.850000,3.0,37.0,-266.0,-1050.0,214.0,-165.0,597.0,-352.0,22.0
19:31:00.854000,-4.0,32.0,-287.0,-1069.0,234.0,-167.0,597.0,-352.0,22.0
19:31:00.859000,-32.0,39.0,-305.0,-1064.0,244.0,-163.0,625.0,-336.0,9.0
19:31:00.864000,-58.0,46.0,-330.0,-1067.0,241.0,-172.0,625.0,-336.0,9.0
19:31:00.869000,-77.0,53.0,-340.0,-1078.0,235.0,-176.0,618.0,-336.0,10.0
19:31:00.873000,-112.0,65.0,-345.0,-1086.0,248.0,-176.0,618.0,-336.0,10.0
19:31:00.877000,-130.0,72.0,-349.0,-1073.0,258.0,-176.0,618.0,-336.0,10.0
19:31:00.883000,-158.0,80.0,-338.0,-1034.0,246.0,-172.0,615.0,-334.0,19.0
19:31:00.888000,-176.0,87.0,-343.0,-1036.0,247.0,-176.0,615.0,-334.0,19.0
19:31:00.892000,-182.0,92.0,-359.0,-1036.0,247.0,-176.0,624.0,-327.0,18.0
19:31:00.897000,-192.0,105.0,-369.0,-1042.0,235.0,-177.0,624.0,-327.0,18.0
19:31:00.901000,-191.0,118.0,-378.0,-1052.0,213.0,-184.0,624.0,-327.0,18.0
19:31:00.906000,-196.0,133.0,-368.0,-1081.0,207.0,-193.0,622.0,-327.0,12.0
19:31:00.911000,-196.0,154.0,-359.0,-1090.0,191.0,-194.0,622.0,-327.0,12.0
19:31:00.916000,-187.0,172.0,-367.0,-1100.0,168.0,-203.0,622.0,-327.0,13.0
19:31:00.920000,-170.0,186.0,-371.0,-1101.0,153.0,-214.0,622.0,-327.0,13.0
19:31:00.924000,-144.0,189.0,-371.0,-1070.0,141.0,-222.0,622.0,-327.0,13.0
19:31:00.930000,-119.0,193.0,-373.0,-1050.0,143.0,-232.0,624.0,-327.0,15.0
19:31:00.934000,-99.0,201.0,-357.0,-1042.0,142.0,-238.0,624.0,-327.0,15.0
19:31:00.939000,-72.0,207.0,-327.0,-1037.0,126.0,-242.0,604.0,-324.0,21.0
19:31:00.944000,-72.0,207.0,-327.0,-1054.0,115.0,-253.0,604.0,-324.0,21.0
19:31:00.948000,-41.0,211.0,-313.0,-1069.0,119.0,-266.0,604.0,-324.0,21.0
19:31:00.953000,-13.0,217.0,-315.0,-1091.0,134.0,-276.0,618.0,-327.0,13.0
19:31:00.958000,14.0,215.0,-329.0,-1093.0,162.0,-278.0,618.0,-327.0,13.0
19:31:00.963000,30.0,214.0,-342.0,-1083.0,182.0,-286.0,619.0,-310.0,13.0
19:31:00.967000,39.0,214.0,-355.0,-1081.0,183.0,-297.0,619.0,-310.0,13.0
19:31:00.971000,57.0,212.0,-372.0,-1068.0,166.0,-297.0,619.0,-310.0,13.0
19:31:00.977000,70.0,207.0,-362.0,-1067.0,154.0,-295.0,624.0,-312.0,39.0
19:31:00.981000,77.0,207.0,-335.0,-1076.0,177.0,-291.0,624.0,-312.0,39.0
19:31:00.986000,76.0,214.0,-332.0,-1087.0,193.0,-289.0,615.0,-309.0,15.0
19:31:00.991000,78.0,224.0,-348.0,-1099.0,186.0,-292.0,615.0,-309.0,15.0
19:31:00.995000,85.0,233.0,-373.0,-1105.0,175.0,-293.0,615.0,-309.0,15.0
19:31:01.000000,100.0,237.0,-408.0,-1087.0,167.0,-289.0,625.0,-309.0,25.0
19:31:01.005000,108.0,240.0,-445.0,-1087.0,167.0,-289.0,625.0,-309.0,25.0
19:31:01.010000,112.0,242.0,-480.0,-1057.0,173.0,-285.0,630.0,-289.0,21.0
19:31:01.014000,123.0,243.0,-506.0,-1018.0,190.0,-285.0,630.0,-289.0,21.0
19:31:01.022000,130.0,243.0,-525.0,-998.0,236.0,-291.0,631.0,-303.0,27.0
19:31:01.024000,137.0,245.0,-557.0,-998.0,236.0,-291.0,631.0,-303.0,27.0
19:31:01.028000,147.0,242.0,-581.0,-1005.0,250.0,-293.0,631.0,-303.0,27.0
19:31:01.033000,155.0,239.0,-593.0,-1007.0,234.0,-296.0,612.0,-301.0,25.0
19:31:01.038000,171.0,233.0,-613.0,-1016.0,220.0,-304.0,612.0,-301.0,25.0
19:31:01.043000,182.0,228.0,-632.0,-1023.0,229.0,-310.0,622.0,-285.0,33.0
19:31:01.047000,189.0,223.0,-648.0,-1021.0,256.0,-312.0,622.0,-285.0,33.0
19:31:01.051000,189.0,223.0,-648.0,-1014.0,299.0,-317.0,622.0,-285.0,33.0
19:31:01.057000,196.0,221.0,-667.0,-992.0,340.0,-325.0,624.0,-286.0,37.0
19:31:01.061000,205.0,224.0,-671.0,-979.0,368.0,-326.0,624.0,-286.0,37.0
19:31:01.066000,194.0,233.0,-670.0,-993.0,392.0,-329.0,609.0,-283.0,46.0
19:31:01.071000,184.0,244.0,-686.0,-1007.0,405.0,-337.0,609.0,-283.0,46.0
19:31:01.075000,180.0,257.0,-711.0,-1017.0,411.0,-343.0,609.0,-283.0,46.0
19:31:01.080000,173.0,269.0,-732.0,-1024.0,425.0,-350.0,624.0,-271.0,36.0
19:31:01.085000,171.0,279.0,-751.0,-1025.0,434.0,-360.0,624.0,-271.0,36.0
19:31:01.090000,175.0,278.0,-758.0,-1018.0,429.0,-367.0,622.0,-273.0,40.0
19:31:01.094000,182.0,271.0,-746.0,-1008.0,431.0,-377.0,622.0,-273.0,40.0
19:31:01.098000,192.0,263.0,-739.0,-997.0,452.0,-382.0,622.0,-273.0,40.0
19:31:01.104000,198.0,256.0,-758.0,-978.0,467.0,-388.0,631.0,-274.0,39.0
19:31:01.108000,201.0,253.0,-764.0,-951.0,467.0,-397.0,631.0,-274.0,39.0
19:31:01.113000,223.0,240.0,-748.0,-951.0,467.0,-397.0,625.0,-273.0,45.0
19:31:01.118000,242.0,226.0,-737.0,-935.0,477.0,-403.0,625.0,-273.0,45.0
19:31:01.122000,244.0,219.0,-732.0,-926.0,488.0,-408.0,625.0,-273.0,45.0
19:31:01.127000,261.0,211.0,-732.0,-911.0,504.0,-414.0,615.0,-249.0,31.0
19:31:01.132000,279.0,194.0,-717.0,-901.0,524.0,-423.0,615.0,-249.0,31.0
19:31:01.137000,289.0,176.0,-692.0,-901.0,542.0,-428.0,628.0,-250.0,39.0
19:31:01.141000,299.0,160.0,-681.0,-906.0,564.0,-433.0,628.0,-250.0,39.0
19:31:01.145000,301.0,147.0,-676.0,-906.0,588.0,-438.0,628.0,-250.0,39.0
19:31:01.151000,296.0,138.0,-662.0,-888.0,608.0,-437.0,634.0,-246.0,45.0
19:31:01.155000,301.0,130.0,-658.0,-871.0,636.0,-440.0,634.0,-246.0,45.0
19:31:01.160000,308.0,119.0,-662.0,-880.0,667.0,-449.0,618.0,-240.0,43.0
19:31:01.165000,308.0,119.0,-662.0,-918.0,682.0,-448.0,618.0,-240.0,43.0
19:31:01.169000,296.0,112.0,-656.0,-973.0,693.0,-448.0,618.0,-240.0,43.0
19:31:01.174000,287.0,114.0,-642.0,-998.0,705.0,-450.0,616.0,-234.0,45.0
19:31:01.179000,279.0,117.0,-607.0,-988.0,690.0,-438.0,616.0,-234.0,45.0
19:31:01.184000,246.0,123.0,-540.0,-942.0,687.0,-436.0,630.0,-235.0,36.0
19:31:01.188000,231.0,129.0,-564.0,-983.0,707.0,-430.0,630.0,-235.0,36.0
19:31:01.192000,235.0,123.0,-592.0,-1051.0,699.0,-416.0,630.0,-235.0,36.0
19:31:01.198000,212.0,123.0,-513.0,-1045.0,705.0,-418.0,616.0,-240.0,37.0
19:31:01.202000,191.0,126.0,-418.0,-1027.0,747.0,-417.0,616.0,-240.0,37.0
19:31:01.207000,172.0,136.0,-377.0,-1017.0,801.0,-412.0,622.0,-229.0,34.0
19:31:01.212000,166.0,140.0,-390.0,-1035.0,832.0,-402.0,622.0,-229.0,34.0
19:31:01.216000,144.0,150.0,-343.0,-1052.0,828.0,-388.0,622.0,-229.0,34.0
19:31:01.221000,117.0,163.0,-287.0,-1037.0,816.0,-371.0,622.0,-231.0,39.0
19:31:01.226000,88.0,177.0,-275.0,-1037.0,816.0,-371.0,622.0,-231.0,39.0
19:31:01.231000,67.0,176.0,-247.0,-994.0,796.0,-348.0,624.0,-228.0,42.0
19:31:01.235000,58.0,175.0,-198.0,-971.0,774.0,-330.0,624.0,-228.0,42.0
19:31:01.239000,70.0,168.0,-116.0,-970.0,703.0,-324.0,624.0,-228.0,42.0
19:31:01.245000,99.0,149.0,-57.0,-991.0,598.0,-315.0,621.0,-231.0,61.0
19:31:01.249000,135.0,132.0,-11.0,-986.0,547.0,-302.0,621.0,-231.0,61.0
19:31:01.254000,154.0,105.0,33.0,-943.0,534.0,-284.0,627.0,-220.0,46.0
19:31:01.259000,174.0,79.0,28.0,-908.0,525.0,-272.0,627.0,-220.0,46.0
19:31:01.263000,174.0,79.0,28.0,-869.0,550.0,-274.0,627.0,-220.0,46.0
19:31:01.268000,213.0,17.0,98.0,-809.0,550.0,-264.0,618.0,-226.0,45.0
19:31:01.273000,213.0,17.0,98.0,-778.0,540.0,-256.0,618.0,-226.0,45.0
19:31:01.278000,211.0,-5.0,161.0,-799.0,600.0,-268.0,622.0,-228.0,48.0
19:31:01.282000,212.0,-25.0,167.0,-788.0,618.0,-266.0,622.0,-228.0,48.0
19:31:01.286000,162.0,-25.0,219.0,-753.0,596.0,-262.0,622.0,-228.0,48.0
19:31:01.292000,130.0,-22.0,278.0,-740.0,608.0,-267.0,631.0,-223.0,43.0
19:31:01.296000,99.0,-7.0,285.0,-708.0,608.0,-263.0,631.0,-223.0,43.0
19:31:01.301000,44.0,13.0,312.0,-683.0,597.0,-263.0,615.0,-226.0,54.0
19:31:01.306000,16.0,28.0,319.0,-684.0,589.0,-271.0,615.0,-226.0,54.0
19:31:01.310000,-21.0,51.0,285.0,-682.0,556.0,-272.0,615.0,-226.0,54.0
19:31:01.315000,-49.0,65.0,262.0,-683.0,503.0,-274.0,628.0,-220.0,49.0
19:31:01.320000,-56.0,70.0,252.0,-676.0,430.0,-272.0,628.0,-220.0,49.0
19:31:01.325000,-65.0,71.0,256.0,-676.0,430.0,-272.0,636.0,-229.0,51.0
19:31:01.329000,-50.0,63.0,259.0,-628.0,329.0,-259.0,636.0,-229.0,51.0
19:31:01.333000,-32.0,51.0,259.0,-628.0,329.0,-259.0,636.0,-229.0,51.0
19:31:01.339000,-2.0,29.0,273.0,-556.0,236.0,-243.0,633.0,-232.0,40.0
19:31:01.343000,42.0,-2.0,273.0,-556.0,236.0,-243.0,633.0,-232.0,40.0
19:31:01.348000,83.0,-30.0,277.0,-525.0,220.0,-235.0,630.0,-241.0,52.0
19:31:01.353000,114.0,-56.0,291.0,-489.0,215.0,-226.0,630.0,-241.0,52.0
19:31:01.357000,144.0,-76.0,289.0,-475.0,238.0,-214.0,630.0,-241.0,52.0
19:31:01.362000,154.0,-88.0,297.0,-466.0,262.0,-198.0,640.0,-241.0,49.0
19:31:01.367000,163.0,-95.0,293.0,-462.0,273.0,-183.0,640.0,-241.0,49.0
19:31:01.372000,167.0,-95.0,257.0,-470.0,285.0,-171.0,642.0,-237.0,48.0
19:31:01.376000,162.0,-91.0,207.0,-479.0,286.0,-157.0,642.0,-237.0,48.0
19:31:01.380000,162.0,-91.0,207.0,-491.0,278.0,-147.0,642.0,-237.0,48.0
19:31:01.386000,157.0,-85.0,156.0,-507.0,274.0,-143.0,640.0,-240.0,67.0
19:31:01.390000,147.0,-77.0,100.0,-531.0,286.0,-143.0,640.0,-240.0,67.0
19:31:01.395000,130.0,-69.0,42.0,-559.0,308.0,-145.0,634.0,-250.0,51.0
19:31:01.400000,107.0,-59.0,-3.0,-581.0,331.0,-147.0,634.0,-250.0,51.0
19:31:01.404000,81.0,-47.0,-37.0,-589.0,343.0,-146.0,634.0,-250.0,51.0
19:31:01.409000,53.0,-36.0,-60.0,-582.0,338.0,-145.0,639.0,-241.0,46.0
19:31:01.414000,28.0,-29.0,-69.0,-566.0,329.0,-146.0,639.0,-241.0,46.0
19:31:01.419000,9.0,-28.0,-74.0,-540.0,320.0,-144.0,633.0,-247.0,58.0
19:31:01.423000,-9.0,-30.0,-65.0,-511.0,320.0,-145.0,633.0,-247.0,58.0
19:31:01.427000,-25.0,-37.0,-47.0,-493.0,331.0,-147.0,633.0,-247.0,58.0
19:31:01.433000,-44.0,-44.0,-21.0,-482.0,336.0,-149.0,639.0,-240.0,39.0
19:31:01.437000,-65.0,-50.0,20.0,-478.0,329.0,-153.0,639.0,-240.0,39.0
19:31:01.442000,-87.0,-55.0,67.0,-478.0,329.0,-153.0,634.0,-235.0,55.0
19:31:01.447000,-106.0,-60.0,107.0,-478.0,316.0,-159.0,634.0,-235.0,55.0
19:31:01.451000,-124.0,-64.0,137.0,-480.0,306.0,-163.0,634.0,-235.0,55.0
19:31:01.456000,-143.0,-66.0,164.0,-475.0,298.0,-167.0,642.0,-243.0,43.0
19:31:01.461000,-161.0,-67.0,189.0,-460.0,282.0,-169.0,642.0,-243.0,43.0
19:31:01.466000,-172.0,-66.0,207.0,-442.0,258.0,-172.0,643.0,-238.0,51.0
19:31:01.470000,-177.0,-65.0,209.0,-430.0,236.0,-175.0,643.0,-238.0,51.0
19:31:01.474000,-176.0,-61.0,199.0,-427.0,218.0,-178.0,643.0,-238.0,51.0
19:31:01.480000,-168.0,-58.0,185.0,-430.0,195.0,-182.0,645.0,-246.0,36.0
19:31:01.484000,-150.0,-57.0,174.0,-435.0,161.0,-185.0,645.0,-246.0,36.0
19:31:01.489000,-123.0,-62.0,164.0,-438.0,123.0,-186.0,642.0,-241.0,51.0
19:31:01.494000,-123.0,-62.0,164.0,-435.0,91.0,-185.0,642.0,-241.0,51.0
19:31:01.498000,-88.0,-68.0,154.0,-432.0,75.0,-183.0,642.0,-241.0,51.0
19:31:01.503000,-49.0,-79.0,146.0,-429.0,74.0,-178.0,649.0,-246.0,49.0
19:31:01.508000,-14.0,-92.0,147.0,-428.0,85.0,-174.0,649.0,-246.0,49.0
19:31:01.513000,18.0,-104.0,158.0,-438.0,106.0,-170.0,651.0,-246.0,49.0
19:31:01.517000,44.0,-114.0,173.0,-456.0,131.0,-164.0,651.0,-246.0,49.0
19:31:01.521000,58.0,-122.0,191.0,-472.0,150.0,-155.0,651.0,-246.0,49.0
19:31:01.527000,66.0,-129.0,214.0,-483.0,158.0,-147.0,645.0,-246.0,58.0
19:31:01.531000,68.0,-135.0,244.0,-495.0,162.0,-140.0,645.0,-246.0,58.0
19:31:01.536000,67.0,-137.0,272.0,-512.0,175.0,-135.0,649.0,-252.0,45.0
19:31:01.541000,60.0,-138.0,290.0,-526.0,191.0,-128.0,649.0,-252.0,45.0
19:31:01.545000,48.0,-137.0,305.0,-533.0,199.0,-120.0,649.0,-252.0,45.0
19:31:01.550000,32.0,-137.0,325.0,-533.0,195.0,-113.0,651.0,-253.0,43.0
19:31:01.555000,18.0,-137.0,342.0,-533.0,195.0,-113.0,651.0,-253.0,43.0
19:31:01.560000,4.0,-140.0,351.0,-532.0,189.0,-107.0,643.0,-256.0,37.0
19:31:01.564000,-7.0,-143.0,357.0,-530.0,181.0,-103.0,643.0,-256.0,37.0
19:31:01.568000,-17.0,-149.0,364.0,-514.0,156.0,-97.0,643.0,-256.0,37.0
19:31:01.574000,-30.0,-157.0,373.0,-514.0,156.0,-97.0,654.0,-256.0,39.0
19:31:01.578000,-41.0,-165.0,379.0,-503.0,144.0,-95.0,654.0,-256.0,39.0
19:31:01.583000,-49.0,-175.0,382.0,-495.0,132.0,-93.0,649.0,-261.0,42.0
19:31:01.588000,-50.0,-189.0,384.0,-488.0,112.0,-94.0,649.0,-261.0,42.0
19:31:01.592000,-50.0,-189.0,384.0,-487.0,91.0,-96.0,649.0,-261.0,42.0
19:31:01.597000,-42.0,-217.0,366.0,-497.0,85.0,-100.0,657.0,-259.0,39.0
19:31:01.602000,-42.0,-217.0,366.0,-510.0,91.0,-105.0,657.0,-259.0,39.0
19:31:01.607000,-42.0,-226.0,352.0,-519.0,104.0,-111.0,649.0,-268.0,36.0
19:31:01.611000,-46.0,-234.0,340.0,-528.0,123.0,-118.0,649.0,-268.0,36.0
19:31:01.619000,-80.0,-238.0,317.0,-554.0,178.0,-129.0,645.0,-270.0,51.0
19:31:01.621000,-80.0,-238.0,317.0,-554.0,178.0,-129.0,645.0,-270.0,51.0
19:31:01.625000,-108.0,-233.0,305.0,-556.0,193.0,-132.0,645.0,-270.0,51.0
19:31:01.630000,-139.0,-226.0,300.0,-545.0,187.0,-134.0,657.0,-262.0,34.0
19:31:01.635000,-164.0,-221.0,299.0,-528.0,161.0,-137.0,657.0,-262.0,34.0
19:31:01.639000,-177.0,-219.0,295.0,-519.0,138.0,-143.0,645.0,-276.0,25.0
19:31:01.644000,-182.0,-220.0,282.0,-520.0,125.0,-147.0,645.0,-276.0,25.0
19:31:01.648000,-182.0,-222.0,268.0,-525.0,119.0,-148.0,645.0,-276.0,25.0
19:31:01.654000,-180.0,-221.0,260.0,-532.0,117.0,-148.0,652.0,-276.0,31.0
19:31:01.658000,-179.0,-221.0,258.0,-534.0,113.0,-149.0,652.0,-276.0,31.0
19:31:01.662000,-176.0,-223.0,263.0,-532.0,112.0,-150.0,648.0,-271.0,28.0
19:31:01.668000,-172.0,-225.0,266.0,-532.0,112.0,-150.0,648.0,-271.0,28.0
19:31:01.672000,-171.0,-224.0,263.0,-532.0,128.0,-150.0,648.0,-271.0,28.0
19:31:01.677000,-172.0,-221.0,259.0,-532.0,149.0,-151.0,634.0,-265.0,31.0
19:31:01.682000,-172.0,-221.0,257.0,-526.0,164.0,-154.0,634.0,-265.0,31.0
19:31:01.686000,-172.0,-219.0,256.0,-525.0,177.0,-158.0,654.0,-279.0,16.0
19:31:01.691000,-171.0,-215.0,259.0,-533.0,188.0,-163.0,654.0,-279.0,16.0
19:31:01.695000,-171.0,-215.0,259.0,-550.0,191.0,-169.0,654.0,-279.0,16.0
19:31:01.701000,-170.0,-203.0,284.0,-577.0,191.0,-176.0,646.0,-274.0,21.0
19:31:01.705000,-171.0,-191.0,303.0,-607.0,188.0,-181.0,646.0,-274.0,21.0
19:31:01.710000,-171.0,-191.0,303.0,-625.0,176.0,-184.0,627.0,-285.0,24.0
19:31:01.715000,-168.0,-178.0,329.0,-630.0,148.0,-189.0,627.0,-285.0,24.0
19:31:01.719000,-160.0,-167.0,355.0,-631.0,117.0,-193.0,627.0,-285.0,24.0
19:31:01.724000,-143.0,-154.0,373.0,-636.0,99.0,-196.0,649.0,-282.0,10.0
19:31:01.729000,-124.0,-140.0,383.0,-644.0,95.0,-200.0,649.0,-282.0,10.0
19:31:01.733000,-101.0,-129.0,388.0,-652.0,103.0,-204.0,640.0,-285.0,22.0
19:31:01.738000,-78.0,-119.0,388.0,-666.0,127.0,-207.0,640.0,-285.0,22.0
19:31:01.742000,-60.0,-110.0,382.0,-675.0,157.0,-209.0,640.0,-285.0,22.0
19:31:01.748000,-44.0,-105.0,379.0,-673.0,183.0,-209.0,651.0,-295.0,22.0
19:31:01.752000,-35.0,-103.0,385.0,-670.0,212.0,-209.0,651.0,-295.0,22.0
19:31:01.757000,-34.0,-102.0,397.0,-670.0,245.0,-210.0,654.0,-295.0,21.0
19:31:01.762000,-45.0,-101.0,419.0,-649.0,272.0,-209.0,654.0,-295.0,21.0
19:31:01.766000,-66.0,-101.0,454.0,-636.0,291.0,-209.0,654.0,-295.0,21.0
19:31:01.771000,-97.0,-102.0,495.0,-636.0,323.0,-209.0,646.0,-300.0,10.0
19:31:01.776000,-130.0,-103.0,528.0,-633.0,314.0,-214.0,646.0,-300.0,10.0
19:31:01.780000,-167.0,-104.0,544.0,-644.0,339.0,-220.0,648.0,-300.0,13.0
19:31:01.785000,-203.0,-101.0,550.0,-664.0,355.0,-227.0,648.0,-300.0,13.0
19:31:01.789000,-230.0,-98.0,553.0,-688.0,350.0,-237.0,648.0,-300.0,13.0
19:31:01.795000,-247.0,-95.0,553.0,-715.0,327.0,-252.0,648.0,-304.0,7.0
19:31:01.799000,-256.0,-92.0,546.0,-751.0,305.0,-266.0,648.0,-304.0,7.0
19:31:01.804000,-263.0,-87.0,537.0,-793.0,292.0,-272.0,630.0,-309.0,18.0
19:31:01.809000,-261.0,-84.0,532.0,-827.0,275.0,-279.0,630.0,-309.0,18.0
19:31:01.813000,-261.0,-84.0,532.0,-851.0,252.0,-282.0,630.0,-309.0,18.0
19:31:01.818000,-240.0,-73.0,547.0,-869.0,219.0,-279.0,648.0,-310.0,10.0
19:31:01.823000,-240.0,-73.0,547.0,-880.0,182.0,-278.0,648.0,-310.0,10.0
19:31:01.827000,-217.0,-76.0,568.0,-886.0,161.0,-280.0,643.0,-309.0,10.0
19:31:01.832000,-193.0,-84.0,588.0,-893.0,170.0,-280.0,643.0,-309.0,10.0
19:31:01.836000,-177.0,-93.0,609.0,-902.0,205.0,-276.0,643.0,-309.0,10.0
19:31:01.842000,-175.0,-98.0,632.0,-910.0,247.0,-270.0,636.0,-321.0,6.0
19:31:01.846000,-184.0,-102.0,664.0,-910.0,277.0,-263.0,636.0,-321.0,6.0
19:31:01.851000,-200.0,-105.0,701.0,-905.0,297.0,-260.0,645.0,-319.0,4.0
19:31:01.856000,-216.0,-107.0,724.0,-900.0,328.0,-264.0,645.0,-319.0,4.0
19:31:01.860000,-226.0,-109.0,713.0,-895.0,375.0,-275.0,645.0,-319.0,4.0
19:31:01.865000,-229.0,-107.0,671.0,-897.0,444.0,-294.0,630.0,-322.0,7.0
19:31:01.870000,-228.0,-100.0,604.0,-915.0,530.0,-319.0,630.0,-322.0,7.0
19:31:01.874000,-225.0,-87.0,523.0,-915.0,530.0,-319.0,645.0,-328.0,-3.0
19:31:01.879000,-218.0,-66.0,431.0,-973.0,708.0,-374.0,645.0,-328.0,-3.0
19:31:01.883000,-207.0,-44.0,337.0,-973.0,708.0,-374.0,645.0,-328.0,-3.0
19:31:01.889000,-191.0,-25.0,259.0,-993.0,808.0,-399.0,646.0,-324.0,19.0
19:31:01.893000,-173.0,-19.0,210.0,-998.0,808.0,-414.0,646.0,-324.0,19.0
19:31:01.898000,-154.0,-17.0,196.0,-980.0,820.0,-417.0,642.0,-333.0,10.0
19:31:01.903000,-135.0,-18.0,217.0,-938.0,812.0,-418.0,642.0,-333.0,10.0
19:31:01.907000,-115.0,-23.0,263.0,-885.0,799.0,-420.0,642.0,-333.0,10.0
19:31:01.912000,-98.0,-37.0,318.0,-836.0,804.0,-419.0,642.0,-328.0,4.0
19:31:01.917000,-98.0,-60.0,381.0,-785.0,827.0,-404.0,642.0,-328.0,4.0
19:31:01.921000,-107.0,-82.0,464.0,-718.0,836.0,-374.0,627.0,-345.0,1.0
19:31:01.926000,-114.0,-92.0,513.0,-684.0,839.0,-348.0,627.0,-345.0,1.0
19:31:01.930000,-114.0,-92.0,513.0,-704.0,841.0,-336.0,627.0,-345.0,1.0
19:31:01.936000,-116.0,-97.0,516.0,-680.0,751.0,-331.0,643.0,-348.0,-1.0
19:31:01.940000,-108.0,-100.0,559.0,-649.0,641.0,-334.0,643.0,-348.0,-1.0
19:31:01.945000,-86.0,-101.0,558.0,-692.0,641.0,-332.0,622.0,-349.0,-3.0
19:31:01.950000,-78.0,-95.0,476.0,-750.0,684.0,-325.0,622.0,-349.0,-3.0
19:31:01.954000,-67.0,-91.0,405.0,-801.0,692.0,-331.0,622.0,-349.0,-3.0
19:31:01.959000,-37.0,-95.0,356.0,-849.0,664.0,-334.0,640.0,-340.0,3.0
19:31:01.964000,-12.0,-100.0,293.0,-885.0,651.0,-329.0,640.0,-340.0,3.0
19:31:01.968000,2.0,-104.0,229.0,-914.0,682.0,-330.0,651.0,-364.0,-9.0
19:31:01.973000,1.0,-98.0,179.0,-946.0,740.0,-347.0,651.0,-364.0,-9.0
19:31:01.977000,17.0,-107.0,146.0,-958.0,798.0,-358.0,651.0,-364.0,-9.0
19:31:01.983000,12.0,-143.0,63.0,-1280.0,726.0,-368.0,639.0,-357.0,7.0
19:31:01.987000,-74.0,-147.0,425.0,-1650.0,727.0,-371.0,639.0,-357.0,7.0
19:31:01.992000,-30.0,-166.0,691.0,-1650.0,727.0,-371.0,639.0,-352.0,-7.0
19:31:01.997000,-53.0,-74.0,193.0,-1454.0,976.0,-387.0,639.0,-352.0,-7.0
19:31:02.001000,-39.0,-64.0,-64.0,-789.0,1118.0,-382.0,639.0,-352.0,-7.0
19:31:02.006000,-40.0,-93.0,28.0,-179.0,1030.0,-324.0,642.0,-357.0,-15.0
19:31:02.011000,-44.0,-130.0,231.0,-72.0,898.0,-287.0,642.0,-357.0,-15.0
19:31:02.015000,-10.0,-156.0,322.0,-376.0,813.0,-289.0,642.0,-355.0,-9.0
19:31:02.020000,-9.0,-163.0,337.0,-803.0,734.0,-294.0,642.0,-355.0,-9.0
19:31:02.027000,-25.0,-162.0,378.0,-1368.0,485.0,-289.0,633.0,-364.0,-12.0
19:31:02.030000,-37.0,-150.0,450.0,-1368.0,485.0,-289.0,633.0,-364.0,-12.0
19:31:02.034000,-37.0,-150.0,450.0,-1445.0,411.0,-296.0,633.0,-364.0,-12.0
19:31:02.039000,-38.0,-136.0,471.0,-1412.0,388.0,-298.0,624.0,-364.0,-12.0
19:31:02.044000,-38.0,-115.0,487.0,-1302.0,326.0,-284.0,624.0,-364.0,-12.0
19:31:02.048000,-58.0,-90.0,565.0,-1230.0,314.0,-276.0,628.0,-369.0,-24.0
19:31:02.053000,-44.0,-67.0,478.0,-1186.0,386.0,-265.0,628.0,-369.0,-24.0
19:31:02.057000,-63.0,-38.0,291.0,-1134.0,414.0,-244.0,628.0,-369.0,-24.0
19:31:02.062000,-93.0,-13.0,149.0,-1052.0,353.0,-239.0,624.0,-370.0,-21.0
19:31:02.067000,-108.0,-2.0,153.0,-942.0,276.0,-232.0,624.0,-370.0,-21.0
19:31:02.071000,-130.0,3.0,151.0,-935.0,274.0,-229.0,628.0,-369.0,-15.0
19:31:02.077000,-127.0,-11.0,94.0,-1015.0,265.0,-223.0,628.0,-369.0,-15.0
19:31:02.081000,-149.0,-16.0,38.0,-1123.0,202.0,-223.0,628.0,-369.0,-15.0
19:31:02.086000,-165.0,-9.0,-7.0,-1144.0,131.0,-225.0,621.0,-372.0,-18.0
19:31:02.091000,-154.0,-24.0,25.0,-1029.0,106.0,-217.0,621.0,-372.0,-18.0
19:31:02.095000,-157.0,-33.0,85.0,-1029.0,106.0,-217.0,633.0,-363.0,-27.0
19:31:02.100000,-180.0,-42.0,105.0,-975.0,64.0,-198.0,633.0,-363.0,-27.0
19:31:02.104000,-206.0,-43.0,105.0,-1031.0,81.0,-176.0,633.0,-363.0,-27.0
19:31:02.109000,-172.0,-77.0,158.0,-1064.0,-15.0,-164.0,631.0,-372.0,-18.0
19:31:02.114000,-132.0,-125.0,288.0,-1005.0,-146.0,-145.0,631.0,-372.0,-18.0
19:31:02.119000,-137.0,-140.0,334.0,-1005.0,-146.0,-145.0,630.0,-366.0,-22.0
19:31:02.124000,-152.0,-135.0,228.0,-1071.0,-109.0,-130.0,630.0,-366.0,-22.0
19:31:02.128000,-116.0,-158.0,106.0,-1157.0,-54.0,-129.0,630.0,-366.0,-22.0
19:31:02.133000,-90.0,-169.0,86.0,-1181.0,-66.0,-134.0,627.0,-375.0,-27.0
19:31:02.138000,-74.0,-166.0,95.0,-1189.0,-91.0,-137.0,627.0,-375.0,-27.0
19:31:02.142000,-60.0,-164.0,105.0,-1232.0,-51.0,-149.0,622.0,-376.0,-39.0
19:31:02.147000,-49.0,-156.0,85.0,-1254.0,16.0,-168.0,622.0,-376.0,-39.0
19:31:02.151000,-49.0,-156.0,85.0,-1281.0,80.0,-191.0,622.0,-376.0,-39.0
19:31:02.156000,-44.0,-127.0,-11.0,-1326.0,112.0,-208.0,622.0,-376.0,-30.0
19:31:02.161000,-44.0,-95.0,-91.0,-1351.0,90.0,-216.0,622.0,-376.0,-30.0
19:31:02.166000,-29.0,-75.0,-112.0,-1375.0,51.0,-222.0,610.0,-375.0,-30.0
19:31:02.171000,-16.0,-51.0,-94.0,-1407.0,31.0,-229.0,610.0,-375.0,-30.0
19:31:02.175000,-16.0,-21.0,-58.0,-1422.0,22.0,-234.0,610.0,-375.0,-30.0
19:31:02.180000,-12.0,2.0,2.0,-1399.0,-6.0,-243.0,624.0,-369.0,-24.0
19:31:02.185000,-16.0,36.0,57.0,-1396.0,-40.0,-254.0,624.0,-369.0,-24.0
19:31:02.189000,-19.0,75.0,51.0,-1436.0,-59.0,-263.0,621.0,-372.0,-28.0
19:31:02.194000,-8.0,109.0,-4.0,-1440.0,-90.0,-271.0,621.0,-372.0,-28.0
19:31:02.198000,13.0,128.0,-70.0,-1423.0,-112.0,-275.0,621.0,-372.0,-28.0
19:31:02.203000,14.0,158.0,-148.0,-1383.0,-132.0,-282.0,613.0,-369.0,-25.0
19:31:02.208000,52.0,161.0,-155.0,-1297.0,-153.0,-286.0,613.0,-369.0,-25.0
19:31:02.213000,53.0,182.0,-118.0,-1297.0,-153.0,-286.0,621.0,-375.0,-21.0
19:31:02.218000,49.0,182.0,-113.0,-1235.0,-143.0,-282.0,621.0,-375.0,-21.0
19:31:02.222000,155.0,116.0,-22.0,-1174.0,-96.0,-296.0,621.0,-375.0,-21.0
19:31:02.227000,156.0,101.0,41.0,-1146.0,-30.0,-309.0,615.0,-379.0,-24.0
19:31:02.232000,148.0,100.0,-36.0,-1246.0,31.0,-312.0,615.0,-379.0,-24.0
19:31:02.236000,146.0,85.0,-147.0,-1347.0,61.0,-316.0,627.0,-367.0,-25.0
19:31:02.241000,126.0,82.0,-217.0,-1347.0,72.0,-316.0,627.0,-367.0,-25.0
19:31:02.245000,126.0,82.0,-217.0,-1270.0,80.0,-327.0,627.0,-367.0,-25.0
19:31:02.250000,78.0,43.0,-221.0,-1151.0,103.0,-320.0,625.0,-372.0,-15.0
19:31:02.255000,37.0,12.0,-188.0,-1063.0,116.0,-304.0,625.0,-372.0,-15.0
19:31:02.260000,37.0,12.0,-188.0,-1048.0,99.0,-298.0,618.0,-366.0,-28.0
19:31:02.265000,18.0,-6.0,-198.0,-1060.0,75.0,-279.0,618.0,-366.0,-28.0
19:31:02.269000,24.0,-43.0,-202.0,-1060.0,50.0,-285.0,618.0,-366.0,-28.0
19:31:02.274000,53.0,-65.0,-190.0,-1108.0,88.0,-279.0,627.0,-363.0,-21.0
19:31:02.279000,50.0,-77.0,-222.0,-1136.0,104.0,-249.0,627.0,-363.0,-21.0
19:31:02.283000,30.0,-86.0,-239.0,-1048.0,86.0,-233.0,615.0,-366.0,-28.0
19:31:02.288000,26.0,-98.0,-219.0,-1047.0,105.0,-201.0,615.0,-366.0,-28.0
19:31:02.292000,0.0,-120.0,-221.0,-1080.0,13.0,-194.0,615.0,-366.0,-28.0
19:31:02.297000,-29.0,-128.0,-175.0,-973.0,-61.0,-199.0,622.0,-370.0,-43.0
19:31:02.302000,-4.0,-149.0,-94.0,-927.0,78.0,-176.0,622.0,-370.0,-43.0
19:31:02.307000,20.0,-173.0,-92.0,-975.0,84.0,-162.0,618.0,-364.0,-31.0
19:31:02.312000,-29.0,-174.0,-100.0,-942.0,-51.0,-150.0,618.0,-364.0,-31.0
19:31:02.316000,-8.0,-191.0,-73.0,-913.0,-5.0,-146.0,618.0,-364.0,-31.0
19:31:02.321000,33.0,-196.0,-70.0,-913.0,-5.0,-146.0,634.0,-364.0,-33.0
19:31:02.326000,44.0,-194.0,-158.0,-984.0,111.0,-138.0,634.0,-364.0,-33.0
19:31:02.330000,48.0,-179.0,-189.0,-1048.0,95.0,-134.0,624.0,-366.0,-40.0
19:31:02.335000,72.0,-170.0,-123.0,-1073.0,42.0,-130.0,624.0,-366.0,-40.0
19:31:02.342000,65.0,-153.0,-80.0,-1163.0,20.0,-136.0,613.0,-364.0,-22.0
19:31:02.344000,74.0,-135.0,-84.0,-1163.0,20.0,-136.0,613.0,-364.0,-22.0
19:31:02.348000,79.0,-116.0,-69.0,-1157.0,112.0,-138.0,613.0,-364.0,-22.0
19:31:02.354000,63.0,-92.0,-60.0,-1122.0,171.0,-138.0,627.0,-369.0,-36.0
19:31:02.359000,46.0,-74.0,-78.0,-1121.0,174.0,-132.0,627.0,-369.0,-36.0
19:31:02.363000,41.0,-59.0,-98.0,-1111.0,118.0,-130.0,619.0,-363.0,-40.0
19:31:02.368000,41.0,-59.0,-98.0,-1115.0,61.0,-124.0,619.0,-363.0,-40.0
19:31:02.372000,21.0,-44.0,-122.0,-1168.0,35.0,-131.0,619.0,-363.0,-40.0
19:31:02.377000,25.0,-29.0,-125.0,-1179.0,35.0,-144.0,618.0,-370.0,-46.0
19:31:02.382000,35.0,-18.0,-48.0,-1139.0,20.0,-140.0,618.0,-370.0,-46.0
19:31:02.387000,18.0,0.0,39.0,-1149.0,5.0,-146.0,612.0,-360.0,-42.0
19:31:02.391000,25.0,14.0,46.0,-1156.0,30.0,-152.0,612.0,-360.0,-42.0
19:31:02.395000,24.0,35.0,-7.0,-1129.0,42.0,-149.0,612.0,-360.0,-42.0
19:31:02.401000,26.0,58.0,-74.0,-1090.0,20.0,-145.0,621.0,-360.0,-31.0
19:31:02.406000,33.0,71.0,-86.0,-1064.0,-18.0,-147.0,621.0,-360.0,-31.0
19:31:02.410000,39.0,77.0,-81.0,-1091.0,-31.0,-155.0,622.0,-360.0,-40.0
19:31:02.415000,35.0,89.0,-84.0,-1146.0,8.0,-163.0,622.0,-360.0,-40.0
19:31:02.419000,45.0,102.0,-105.0,-1166.0,16.0,-162.0,622.0,-360.0,-40.0
19:31:02.424000,39.0,116.0,-132.0,-1134.0,-49.0,-162.0,622.0,-364.0,-34.0
19:31:02.429000,60.0,120.0,-153.0,-1134.0,-49.0,-162.0,622.0,-364.0,-34.0
19:31:02.434000,114.0,119.0,-144.0,-1081.0,55.0,-168.0,631.0,-355.0,-31.0
19:31:02.438000,87.0,132.0,-142.0,-1081.0,55.0,-168.0,631.0,-355.0,-31.0
19:31:02.442000,84.0,144.0,-209.0,-1069.0,33.0,-160.0,631.0,-355.0,-31.0
19:31:02.448000,84.0,154.0,-262.0,-1088.0,27.0,-172.0,627.0,-367.0,-34.0
19:31:02.453000,105.0,152.0,-281.0,-1095.0,58.0,-173.0,627.0,-367.0,-34.0
19:31:02.457000,100.0,157.0,-305.0,-1088.0,100.0,-171.0,628.0,-366.0,-36.0
19:31:02.462000,91.0,173.0,-311.0,-1080.0,77.0,-170.0,628.0,-366.0,-36.0
19:31:02.466000,91.0,173.0,-311.0,-1064.0,0.0,-180.0,628.0,-366.0,-36.0
19:31:02.471000,120.0,191.0,-310.0,-1070.0,-19.0,-193.0,619.0,-355.0,-30.0
19:31:02.476000,123.0,191.0,-304.0,-1093.0,16.0,-200.0,619.0,-355.0,-30.0
19:31:02.481000,123.0,201.0,-304.0,-1098.0,36.0,-203.0,630.0,-364.0,-34.0
19:31:02.485000,121.0,214.0,-302.0,-1101.0,41.0,-211.0,630.0,-364.0,-34.0
19:31:02.489000,121.0,225.0,-311.0,-1103.0,46.0,-216.0,630.0,-364.0,-34.0
19:31:02.495000,112.0,238.0,-354.0,-1087.0,64.0,-219.0,625.0,-354.0,-34.0
19:31:02.500000,108.0,252.0,-413.0,-1053.0,82.0,-221.0,625.0,-354.0,-34.0
19:31:02.504000,111.0,259.0,-435.0,-1028.0,80.0,-224.0,627.0,-352.0,-31.0
19:31:02.509000,112.0,260.0,-438.0,-1035.0,71.0,-230.0,627.0,-352.0,-31.0
19:31:02.513000,107.0,263.0,-439.0,-1054.0,71.0,-237.0,627.0,-352.0,-31.0
19:31:02.518000,95.0,270.0,-457.0,-1059.0,92.0,-245.0,637.0,-352.0,-21.0
19:31:02.523000,88.0,273.0,-488.0,-1020.0,109.0,-253.0,637.0,-352.0,-21.0
19:31:02.528000,89.0,268.0,-493.0,-1020.0,109.0,-253.0,625.0,-345.0,-18.0
19:31:02.532000,90.0,266.0,-476.0,-970.0,109.0,-263.0,625.0,-345.0,-18.0
19:31:02.536000,95.0,267.0,-483.0,-997.0,141.0,-267.0,625.0,-345.0,-18.0
19:31:02.542000,94.0,273.0,-518.0,-997.0,141.0,-267.0,637.0,-343.0,-16.0
19:31:02.546000,85.0,279.0,-547.0,-1019.0,171.0,-271.0,637.0,-343.0,-16.0
19:31:02.551000,71.0,289.0,-565.0,-1010.0,188.0,-280.0,630.0,-348.0,-21.0
19:31:02.556000,71.0,297.0,-586.0,-989.0,197.0,-282.0,630.0,-348.0,-21.0
19:31:02.560000,57.0,303.0,-589.0,-983.0,192.0,-278.0,630.0,-348.0,-21.0
19:31:02.565000,49.0,314.0,-609.0,-999.0,174.0,-279.0,642.0,-339.0,-25.0
19:31:02.570000,61.0,320.0,-618.0,-998.0,160.0,-284.0,642.0,-339.0,-25.0
19:31:02.575000,74.0,317.0,-616.0,-979.0,152.0,-290.0,643.0,-330.0,-21.0
19:31:02.579000,81.0,317.0,-630.0,-966.0,172.0,-298.0,643.0,-330.0,-21.0
19:31:02.583000,81.0,317.0,-630.0,-952.0,204.0,-305.0,643.0,-330.0,-21.0
19:31:02.589000,99.0,315.0,-636.0,-948.0,218.0,-310.0,642.0,-330.0,-16.0
19:31:02.593000,116.0,310.0,-621.0,-966.0,227.0,-316.0,642.0,-330.0,-16.0
19:31:02.598000,138.0,301.0,-608.0,-994.0,227.0,-323.0,640.0,-315.0,-13.0
19:31:02.603000,150.0,302.0,-611.0,-1005.0,228.0,-330.0,640.0,-315.0,-13.0
19:31:02.607000,170.0,294.0,-618.0,-998.0,246.0,-333.0,640.0,-315.0,-13.0
19:31:02.612000,193.0,280.0,-624.0,-990.0,280.0,-334.0,642.0,-312.0,9.0
19:31:02.617000,212.0,270.0,-618.0,-985.0,308.0,-333.0,642.0,-312.0,9.0
19:31:02.622000,224.0,263.0,-601.0,-988.0,324.0,-328.0,642.0,-310.0,-13.0
19:31:02.626000,235.0,254.0,-595.0,-999.0,336.0,-321.0,642.0,-310.0,-13.0
19:31:02.630000,237.0,252.0,-593.0,-1003.0,344.0,-309.0,642.0,-310.0,-13.0
19:31:02.636000,226.0,250.0,-587.0,-997.0,368.0,-298.0,640.0,-312.0,-4.0
19:31:02.640000,217.0,248.0,-585.0,-984.0,406.0,-290.0,640.0,-312.0,-4.0
19:31:02.645000,198.0,250.0,-585.0,-984.0,406.0,-290.0,643.0,-300.0,-10.0
19:31:02.650000,174.0,254.0,-582.0,-970.0,427.0,-281.0,643.0,-300.0,-10.0
19:31:02.654000,158.0,253.0,-572.0,-937.0,396.0,-264.0,643.0,-300.0,-10.0
19:31:02.659000,153.0,252.0,-544.0,-937.0,396.0,-264.0,648.0,-292.0,1.0
19:31:02.664000,143.0,255.0,-534.0,-925.0,406.0,-259.0,648.0,-292.0,1.0
19:31:02.669000,142.0,259.0,-566.0,-950.0,426.0,-256.0,649.0,-297.0,-12.0
19:31:02.673000,140.0,259.0,-604.0,-971.0,411.0,-255.0,649.0,-297.0,-12.0
19:31:02.677000,147.0,259.0,-620.0,-961.0,382.0,-255.0,649.0,-297.0,-12.0
19:31:02.683000,158.0,257.0,-640.0,-939.0,388.0,-256.0,643.0,-285.0,6.0
19:31:02.687000,162.0,251.0,-669.0,-937.0,422.0,-257.0,643.0,-285.0,6.0
19:31:02.692000,157.0,247.0,-693.0,-948.0,441.0,-262.0,651.0,-291.0,-4.0
19:31:02.697000,157.0,247.0,-693.0,-953.0,449.0,-269.0,651.0,-291.0,-4.0
19:31:02.704000,163.0,234.0,-649.0,-997.0,489.0,-281.0,640.0,-277.0,24.0
19:31:02.706000,163.0,234.0,-649.0,-997.0,489.0,-281.0,640.0,-277.0,24.0
19:31:02.710000,149.0,229.0,-604.0,-1057.0,517.0,-285.0,640.0,-277.0,24.0
19:31:02.716000,139.0,231.0,-608.0,-1093.0,554.0,-297.0,652.0,-274.0,6.0
19:31:02.720000,144.0,223.0,-617.0,-1080.0,548.0,-297.0,652.0,-274.0,6.0
19:31:02.725000,123.0,217.0,-588.0,-1043.0,493.0,-299.0,654.0,-280.0,1.0
19:31:02.730000,105.0,214.0,-499.0,-1015.0,462.0,-316.0,654.0,-280.0,1.0
19:31:02.734000,98.0,210.0,-386.0,-1038.0,482.0,-344.0,654.0,-280.0,1.0
19:31:02.739000,104.0,198.0,-323.0,-1031.0,520.0,-376.0,651.0,-273.0,3.0
19:31:02.744000,93.0,222.0,-432.0,-972.0,645.0,-378.0,651.0,-273.0,3.0
19:31:02.748000,76.0,233.0,-585.0,-913.0,730.0,-371.0,643.0,-271.0,9.0
19:31:02.753000,65.0,228.0,-588.0,-825.0,685.0,-376.0,643.0,-271.0,9.0
19:31:02.757000,61.0,218.0,-522.0,-825.0,685.0,-376.0,643.0,-271.0,9.0
19:31:02.763000,82.0,195.0,-469.0,-788.0,602.0,-401.0,640.0,-258.0,16.0
19:31:02.767000,88.0,192.0,-524.0,-831.0,516.0,-456.0,640.0,-258.0,16.0
19:31:02.772000,77.0,188.0,-574.0,-868.0,531.0,-482.0,649.0,-262.0,16.0
19:31:02.777000,62.0,177.0,-487.0,-885.0,582.0,-464.0,649.0,-262.0,16.0
19:31:02.781000,95.0,148.0,-369.0,-931.0,573.0,-463.0,649.0,-262.0,16.0
19:31:02.786000,113.0,129.0,-331.0,-944.0,528.0,-477.0,645.0,-249.0,6.0
19:31:02.791000,134.0,112.0,-333.0,-901.0,508.0,-487.0,645.0,-249.0,6.0
19:31:02.795000,134.0,112.0,-333.0,-855.0,550.0,-489.0,660.0,-244.0,12.0
19:31:02.800000,191.0,65.0,-313.0,-831.0,583.0,-475.0,660.0,-244.0,12.0
19:31:02.804000,191.0,65.0,-313.0,-819.0,582.0,-474.0,660.0,-244.0,12.0
19:31:02.810000,199.0,51.0,-261.0,-836.0,608.0,-481.0,652.0,-247.0,12.0
19:31:02.814000,202.0,39.0,-224.0,-889.0,653.0,-482.0,652.0,-247.0,12.0
19:31:02.819000,210.0,28.0,-216.0,-926.0,665.0,-475.0,646.0,-240.0,22.0
19:31:02.824000,200.0,16.0,-188.0,-939.0,662.0,-461.0,646.0,-240.0,22.0
19:31:02.828000,191.0,9.0,-149.0,-940.0,673.0,-454.0,646.0,-240.0,22.0
19:31:02.833000,173.0,9.0,-108.0,-927.0,673.0,-439.0,661.0,-246.0,15.0
19:31:02.838000,162.0,1.0,-58.0,-914.0,662.0,-422.0,661.0,-246.0,15.0
19:31:02.843000,154.0,-9.0,-18.0,-902.0,642.0,-404.0,651.0,-244.0,16.0
19:31:02.847000,151.0,-18.0,20.0,-894.0,617.0,-386.0,651.0,-244.0,16.0
19:31:02.851000,148.0,-25.0,57.0,-901.0,595.0,-366.0,651.0,-244.0,16.0
19:31:02.857000,151.0,-38.0,90.0,-911.0,581.0,-343.0,651.0,-253.0,19.0
19:31:02.861000,157.0,-54.0,130.0,-910.0,568.0,-320.0,651.0,-253.0,19.0
19:31:02.866000,168.0,-72.0,176.0,-910.0,568.0,-320.0,652.0,-252.0,15.0
19:31:02.871000,177.0,-88.0,221.0,-901.0,550.0,-299.0,652.0,-252.0,15.0
19:31:02.875000,187.0,-103.0,271.0,-889.0,525.0,-279.0,652.0,-252.0,15.0
19:31:02.880000,200.0,-123.0,308.0,-890.0,504.0,-259.0,655.0,-249.0,21.0
19:31:02.894000,219.0,-178.0,394.0,-787.0,426.0,-187.0,651.0,-258.0,37.0
19:31:02.899000,230.0,-197.0,385.0,-732.0,398.0,-175.0,651.0,-258.0,37.0
19:31:02.904000,238.0,-209.0,345.0,-693.0,385.0,-168.0,651.0,-258.0,37.0
19:31:02.908000,238.0,-209.0,345.0,-681.0,388.0,-162.0,651.0,-258.0,37.0
19:31:02.913000,235.0,-220.0,242.0,-691.0,396.0,-156.0,658.0,-264.0,10.0
19:31:02.918000,235.0,-220.0,242.0,-703.0,404.0,-154.0,658.0,-264.0,10.0
19:31:02.922000,223.0,-216.0,196.0,-710.0,409.0,-157.0,652.0,-252.0,7.0
19:31:02.927000,206.0,-208.0,151.0,-717.0,416.0,-164.0,652.0,-252.0,7.0
19:31:02.931000,185.0,-198.0,104.0,-723.0,434.0,-171.0,652.0,-252.0,7.0
19:31:02.937000,162.0,-189.0,44.0,-723.0,464.0,-174.0,664.0,-259.0,7.0
19:31:02.941000,137.0,-182.0,-18.0,-706.0,490.0,-175.0,664.0,-259.0,7.0
19:31:02.946000,107.0,-175.0,-69.0,-676.0,507.0,-172.0,639.0,-258.0,19.0
19:31:02.951000,74.0,-169.0,-101.0,-644.0,510.0,-165.0,639.0,-258.0,19.0
19:31:02.955000,39.0,-164.0,-115.0,-607.0,497.0,-159.0,639.0,-258.0,19.0
19:31:02.960000,5.0,-162.0,-111.0,-568.0,475.0,-156.0,652.0,-265.0,-1.0
19:31:02.965000,-26.0,-163.0,-91.0,-534.0,457.0,-157.0,652.0,-265.0,-1.0
19:31:02.969000,-59.0,-164.0,-56.0,-534.0,457.0,-157.0,664.0,-247.0,9.0
19:31:02.974000,-96.0,-168.0,-13.0,-503.0,456.0,-157.0,664.0,-247.0,9.0
19:31:02.978000,-137.0,-168.0,40.0,-503.0,456.0,-157.0,664.0,-247.0,9.0
19:31:02.984000,-178.0,-168.0,107.0,-498.0,449.0,-154.0,660.0,-264.0,-1.0
19:31:02.988000,-218.0,-167.0,177.0,-489.0,371.0,-142.0,660.0,-264.0,-1.0
19:31:02.993000,-252.0,-168.0,240.0,-489.0,371.0,-142.0,663.0,-247.0,0.0
19:31:02.998000,-277.0,-169.0,285.0,-478.0,317.0,-134.0,663.0,-247.0,0.0
19:31:03.002000,-288.0,-170.0,308.0,-457.0,262.0,-128.0,663.0,-247.0,0.0
19:31:03.007000,-287.0,-168.0,305.0,-437.0,214.0,-129.0,655.0,-259.0,13.0
19:31:03.012000,-281.0,-162.0,272.0,-433.0,186.0,-133.0,655.0,-259.0,13.0
19:31:03.016000,-269.0,-154.0,217.0,-448.0,176.0,-139.0,660.0,-253.0,10.0
19:31:03.021000,-256.0,-144.0,151.0,-474.0,176.0,-147.0,660.0,-253.0,10.0
19:31:03.025000,-256.0,-144.0,151.0,-502.0,177.0,-152.0,660.0,-253.0,10.0
19:31:03.031000,-243.0,-130.0,81.0,-525.0,178.0,-157.0,655.0,-262.0,1.0
19:31:03.035000,-228.0,-115.0,15.0,-538.0,177.0,-162.0,655.0,-262.0,1.0
19:31:03.040000,-214.0,-102.0,-42.0,-542.0,178.0,-165.0,664.0,-258.0,-1.0
19:31:03.045000,-200.0,-90.0,-84.0,-539.0,184.0,-168.0,664.0,-258.0,-1.0
19:31:03.049000,-188.0,-80.0,-110.0,-531.0,194.0,-168.0,664.0,-258.0,-1.0
19:31:03.054000,-183.0,-70.0,-118.0,-518.0,212.0,-166.0,669.0,-255.0,6.0
19:31:03.059000,-182.0,-64.0,-116.0,-497.0,228.0,-165.0,669.0,-255.0,6.0
19:31:03.063000,-183.0,-58.0,-100.0,-476.0,237.0,-169.0,661.0,-258.0,1.0
19:31:03.068000,-187.0,-53.0,-72.0,-469.0,250.0,-172.0,661.0,-258.0,1.0
19:31:03.072000,-199.0,-46.0,-35.0,-473.0,262.0,-177.0,661.0,-258.0,1.0
19:31:03.078000,-216.0,-38.0,9.0,-482.0,263.0,-183.0,655.0,-253.0,1.0
19:31:03.082000,-232.0,-27.0,54.0,-494.0,254.0,-189.0,655.0,-253.0,1.0
19:31:03.087000,-243.0,-14.0,87.0,-494.0,254.0,-189.0,666.0,-252.0,6.0
19:31:03.092000,-246.0,-3.0,113.0,-499.0,234.0,-196.0,666.0,-252.0,6.0
19:31:03.096000,-241.0,3.0,131.0,-495.0,203.0,-204.0,666.0,-252.0,6.0
19:31:03.101000,-225.0,6.0,142.0,-486.0,169.0,-212.0,657.0,-252.0,10.0
19:31:03.106000,-202.0,6.0,149.0,-475.0,142.0,-223.0,657.0,-252.0,10.0
19:31:03.110000,-176.0,3.0,154.0,-471.0,130.0,-232.0,663.0,-253.0,4.0
19:31:03.115000,-150.0,-2.0,161.0,-475.0,132.0,-235.0,663.0,-253.0,4.0
19:31:03.119000,-122.0,-11.0,173.0,-481.0,132.0,-234.0,663.0,-253.0,4.0
19:31:03.125000,-93.0,-23.0,186.0,-490.0,126.0,-229.0,654.0,-246.0,27.0
19:31:03.129000,-60.0,-38.0,212.0,-488.0,103.0,-222.0,654.0,-246.0,27.0
19:31:03.134000,-60.0,-38.0,212.0,-472.0,65.0,-212.0,654.0,-246.0,27.0
19:31:03.139000,-24.0,-56.0,247.0,-458.0,38.0,-202.0,654.0,-246.0,27.0
19:31:03.143000,14.0,-75.0,284.0,-454.0,29.0,-195.0,654.0,-246.0,27.0
19:31:03.148000,51.0,-94.0,313.0,-460.0,36.0,-187.0,658.0,-256.0,7.0
19:31:03.153000,84.0,-109.0,331.0,-472.0,48.0,-179.0,658.0,-256.0,7.0
19:31:03.157000,112.0,-121.0,343.0,-486.0,55.0,-171.0,664.0,-252.0,7.0
19:31:03.162000,134.0,-132.0,356.0,-505.0,57.0,-164.0,664.0,-252.0,7.0
19:31:03.166000,150.0,-140.0,365.0,-531.0,65.0,-158.0,664.0,-252.0,7.0
19:31:03.172000,160.0,-144.0,367.0,-560.0,79.0,-151.0,661.0,-256.0,6.0
19:31:03.176000,161.0,-149.0,364.0,-585.0,93.0,-143.0,661.0,-256.0,6.0
19:31:03.181000,158.0,-152.0,361.0,-602.0,103.0,-133.0,655.0,-264.0,6.0
19:31:03.186000,150.0,-156.0,360.0,-611.0,108.0,-122.0,655.0,-264.0,6.0
19:31:03.190000,140.0,-162.0,358.0,-612.0,109.0,-114.0,655.0,-264.0,6.0
19:31:03.195000,130.0,-168.0,357.0,-608.0,113.0,-107.0,667.0,-268.0,3.0
19:31:03.200000,116.0,-174.0,354.0,-608.0,113.0,-107.0,667.0,-268.0,3.0
19:31:03.204000,102.0,-178.0,350.0,-604.0,120.0,-101.0,661.0,-274.0,0.0
19:31:03.209000,86.0,-180.0,343.0,-602.0,126.0,-97.0,661.0,-274.0,0.0
19:31:03.213000,70.0,-184.0,333.0,-600.0,125.0,-94.0,661.0,-274.0,0.0
19:31:03.219000,57.0,-187.0,319.0,-595.0,118.0,-91.0,658.0,-285.0,-3.0
19:31:03.223000,48.0,-193.0,304.0,-585.0,114.0,-90.0,658.0,-285.0,-3.0
19:31:03.228000,41.0,-197.0,287.0,-577.0,115.0,-92.0,678.0,-286.0,-1.0
19:31:03.233000,34.0,-200.0,270.0,-571.0,122.0,-95.0,678.0,-286.0,-1.0
19:31:03.237000,34.0,-200.0,270.0,-565.0,134.0,-98.0,678.0,-286.0,-1.0
19:31:03.242000,15.0,-203.0,246.0,-556.0,142.0,-98.0,664.0,-279.0,1.0
19:31:03.247000,15.0,-203.0,246.0,-543.0,142.0,-101.0,664.0,-279.0,1.0
19:31:03.251000,8.0,-203.0,240.0,-531.0,138.0,-103.0,664.0,-289.0,-3.0
19:31:03.256000,2.0,-203.0,239.0,-527.0,137.0,-101.0,664.0,-289.0,-3.0
19:31:03.260000,-2.0,-202.0,240.0,-528.0,137.0,-100.0,664.0,-289.0,-3.0
19:31:03.266000,-3.0,-199.0,243.0,-536.0,137.0,-99.0,660.0,-289.0,9.0
19:31:03.270000,-2.0,-196.0,244.0,-551.0,136.0,-99.0,660.0,-289.0,9.0
19:31:03.275000,0.0,-192.0,242.0,-570.0,132.0,-97.0,660.0,-289.0,9.0
19:31:03.280000,5.0,-190.0,239.0,-589.0,133.0,-92.0,660.0,-289.0,9.0
19:31:03.284000,9.0,-190.0,238.0,-602.0,138.0,-89.0,660.0,-289.0,9.0
19:31:03.289000,12.0,-190.0,244.0,-609.0,151.0,-86.0,663.0,-288.0,-16.0
19:31:03.294000,11.0,-190.0,254.0,-614.0,173.0,-78.0,663.0,-288.0,-16.0
19:31:03.298000,4.0,-189.0,269.0,-614.0,173.0,-78.0,655.0,-304.0,-15.0
19:31:03.303000,-6.0,-189.0,291.0,-597.0,195.0,-64.0,655.0,-304.0,-15.0
19:31:03.307000,-15.0,-187.0,322.0,-597.0,195.0,-64.0,655.0,-304.0,-15.0
19:31:03.313000,-22.0,-186.0,350.0,-581.0,193.0,-61.0,663.0,-295.0,-19.0
19:31:03.317000,-25.0,-185.0,377.0,-574.0,190.0,-63.0,663.0,-295.0,-19.0
19:31:03.322000,-23.0,-183.0,407.0,-577.0,185.0,-69.0,645.0,-306.0,-19.0
