hh:mm:ss.ms,gyroX[mdps],gyroY[mdps],gyroZ[mdps],accX[mg],accY[mg],accZ[mg],magX[mG],magY[mG],magZ[mG]
19:31:03.731000,-26.0,-42.0,186.0,-1149.0,-67.0,-168.0,643.0,-372.0,-63.0
19:31:03.736000,-19.0,-63.0,166.0,-1058.0,-76.0,-164.0,643.0,-372.0,-63.0
19:31:03.740000,3.0,-97.0,123.0,-1052.0,-50.0,-156.0,643.0,-372.0,-63.0
19:31:03.745000,-6.0,-114.0,65.0,-1052.0,-50.0,-156.0,636.0,-375.0,-66.0
19:31:03.750000,-11.0,-141.0,32.0,-1044.0,-13.0,-151.0,636.0,-375.0,-66.0
19:31:03.754000,-16.0,-168.0,-11.0,-1044.0,20.0,-147.0,640.0,-376.0,-64.0
19:31:03.759000,-32.0,-186.0,-74.0,-1050.0,55.0,-145.0,640.0,-376.0,-64.0
19:31:03.763000,-49.0,-199.0,-142.0,-1111.0,152.0,-149.0,640.0,-376.0,-64.0
19:31:03.768000,-65.0,-210.0,-213.0,-1111.0,152.0,-149.0,628.0,-366.0,-64.0
19:31:03.773000,-86.0,-218.0,-257.0,-1150.0,189.0,-152.0,628.0,-366.0,-64.0
19:31:03.778000,-109.0,-214.0,-291.0,-1153.0,210.0,-153.0,631.0,-367.0,-64.0
19:31:03.783000,-167.0,-186.0,-345.0,-1150.0,249.0,-145.0,631.0,-367.0,-64.0
19:31:03.787000,-167.0,-186.0,-345.0,-1169.0,298.0,-139.0,631.0,-367.0,-64.0
19:31:03.792000,-205.0,-163.0,-430.0,-1164.0,294.0,-144.0,640.0,-360.0,-69.0
19:31:03.797000,-212.0,-146.0,-441.0,-1149.0,246.0,-154.0,640.0,-360.0,-69.0
19:31:03.801000,-217.0,-116.0,-418.0,-1180.0,233.0,-155.0,628.0,-361.0,-72.0
19:31:03.806000,-233.0,-89.0,-403.0,-1193.0,236.0,-152.0,628.0,-361.0,-72.0
19:31:03.810000,-260.0,-49.0,-363.0,-1162.0,195.0,-162.0,628.0,-361.0,-72.0
19:31:03.815000,-265.0,-6.0,-277.0,-1132.0,133.0,-172.0,624.0,-354.0,-73.0
19:31:03.820000,-248.0,27.0,-178.0,-1142.0,97.0,-187.0,624.0,-354.0,-73.0
19:31:03.825000,-221.0,58.0,-121.0,-1192.0,52.0,-210.0,628.0,-355.0,-67.0
19:31:03.830000,-191.0,105.0,-144.0,-1240.0,-3.0,-208.0,628.0,-355.0,-67.0
19:31:03.834000,-178.0,141.0,-163.0,-1227.0,-19.0,-220.0,628.0,-355.0,-67.0
19:31:03.839000,-136.0,177.0,-155.0,-1171.0,-12.0,-246.0,637.0,-360.0,-67.0
19:31:03.844000,-96.0,208.0,-157.0,-1126.0,16.0,-247.0,637.0,-360.0,-67.0
19:31:03.848000,-24.0,221.0,-151.0,-1114.0,49.0,-254.0,633.0,-352.0,-43.0
19:31:03.853000,11.0,224.0,-95.0,-1114.0,64.0,-261.0,633.0,-352.0,-43.0
19:31:03.857000,29.0,233.0,-42.0,-1128.0,64.0,-261.0,633.0,-352.0,-43.0
19:31:03.862000,47.0,251.0,-67.0,-1171.0,94.0,-272.0,639.0,-360.0,-69.0
19:31:03.867000,58.0,254.0,-90.0,-1199.0,99.0,-281.0,639.0,-360.0,-69.0
19:31:03.872000,51.0,253.0,-89.0,-1183.0,87.0,-285.0,639.0,-355.0,-60.0
19:31:03.877000,20.0,244.0,-53.0,-1141.0,86.0,-294.0,639.0,-355.0,-60.0
19:31:03.881000,-4.0,223.0,39.0,-1055.0,102.0,-300.0,639.0,-355.0,-60.0
19:31:03.886000,-30.0,201.0,105.0,-991.0,130.0,-309.0,643.0,-348.0,-66.0
19:31:03.891000,-44.0,182.0,69.0,-997.0,149.0,-303.0,643.0,-348.0,-66.0
19:31:03.895000,-44.0,182.0,69.0,-980.0,144.0,-291.0,637.0,-343.0,-66.0
19:31:03.900000,-37.0,110.0,0.0,-929.0,140.0,-289.0,637.0,-343.0,-66.0
19:31:03.904000,-37.0,110.0,0.0,-908.0,111.0,-284.0,637.0,-343.0,-66.0
19:31:03.909000,-36.0,71.0,25.0,-922.0,79.0,-290.0,628.0,-348.0,-63.0
19:31:03.914000,-21.0,39.0,23.0,-948.0,96.0,-289.0,628.0,-348.0,-63.0
19:31:03.919000,-37.0,19.0,-11.0,-942.0,106.0,-272.0,651.0,-346.0,-64.0
19:31:03.924000,-49.0,-7.0,-30.0,-876.0,80.0,-248.0,651.0,-346.0,-64.0
19:31:03.928000,-60.0,-30.0,-15.0,-842.0,98.0,-231.0,651.0,-346.0,-64.0
19:31:03.933000,-32.0,-73.0,11.0,-855.0,126.0,-229.0,634.0,-345.0,-58.0
19:31:03.938000,-29.0,-93.0,-6.0,-895.0,76.0,-223.0,634.0,-345.0,-58.0
19:31:03.942000,-18.0,-110.0,-35.0,-954.0,-7.0,-223.0,636.0,-352.0,-61.0
19:31:03.947000,-2.0,-119.0,-44.0,-1023.0,0.0,-225.0,636.0,-352.0,-61.0
19:31:03.951000,33.0,-138.0,-100.0,-1056.0,87.0,-215.0,636.0,-352.0,-61.0
19:31:03.956000,57.0,-151.0,-85.0,-1012.0,87.0,-202.0,643.0,-337.0,-52.0
19:31:03.961000,56.0,-142.0,-30.0,-1008.0,49.0,-197.0,643.0,-337.0,-52.0
19:31:03.966000,58.0,-127.0,-19.0,-1008.0,49.0,-197.0,631.0,-354.0,-63.0
19:31:03.971000,90.0,-119.0,-60.0,-1069.0,73.0,-191.0,631.0,-354.0,-63.0
19:31:03.975000,100.0,-112.0,-63.0,-1117.0,101.0,-183.0,631.0,-354.0,-63.0
19:31:03.980000,98.0,-95.0,-12.0,-1123.0,84.0,-173.0,639.0,-346.0,-61.0
19:31:03.985000,99.0,-63.0,11.0,-1142.0,98.0,-168.0,639.0,-346.0,-61.0
19:31:03.989000,79.0,-37.0,2.0,-1148.0,106.0,-159.0,633.0,-355.0,-42.0
19:31:03.994000,78.0,-23.0,21.0,-1148.0,106.0,-159.0,633.0,-355.0,-42.0
19:31:03.999000,70.0,-3.0,42.0,-1123.0,112.0,-164.0,633.0,-355.0,-42.0
19:31:04.003000,65.0,16.0,25.0,-1120.0,107.0,-167.0,633.0,-355.0,-42.0
19:31:04.007000,65.0,16.0,25.0,-1133.0,86.0,-163.0,633.0,-355.0,-42.0
19:31:04.013000,62.0,28.0,2.0,-1096.0,61.0,-163.0,648.0,-342.0,-64.0
19:31:04.018000,74.0,30.0,-27.0,-1021.0,67.0,-169.0,648.0,-342.0,-64.0
19:31:04.022000,81.0,31.0,-26.0,-982.0,65.0,-175.0,645.0,-348.0,-60.0
19:31:04.027000,93.0,25.0,-2.0,-1001.0,100.0,-180.0,645.0,-348.0,-60.0
19:31:04.031000,90.0,28.0,2.0,-1044.0,219.0,-185.0,645.0,-348.0,-60.0
19:31:04.036000,77.0,36.0,-7.0,-1054.0,217.0,-180.0,642.0,-354.0,-67.0
19:31:04.041000,33.0,55.0,-33.0,-1044.0,157.0,-175.0,642.0,-354.0,-67.0
19:31:04.046000,60.0,53.0,-51.0,-1028.0,184.0,-171.0,645.0,-354.0,-63.0
19:31:04.050000,42.0,64.0,-71.0,-986.0,179.0,-154.0,645.0,-354.0,-63.0
19:31:04.054000,37.0,63.0,-100.0,-956.0,141.0,-146.0,645.0,-354.0,-63.0
19:31:04.060000,32.0,60.0,-71.0,-962.0,112.0,-144.0,648.0,-352.0,-63.0
19:31:04.065000,27.0,58.0,-65.0,-999.0,125.0,-143.0,648.0,-352.0,-63.0
19:31:04.069000,32.0,58.0,-94.0,-999.0,125.0,-143.0,642.0,-343.0,-64.0
19:31:04.074000,27.0,58.0,-95.0,-1033.0,147.0,-143.0,642.0,-343.0,-64.0
19:31:04.078000,28.0,63.0,-111.0,-1047.0,132.0,-144.0,642.0,-343.0,-64.0
19:31:04.083000,28.0,70.0,-151.0,-1047.0,123.0,-146.0,642.0,-349.0,-60.0
19:31:04.088000,11.0,76.0,-178.0,-1042.0,137.0,-145.0,642.0,-349.0,-60.0
19:31:04.093000,9.0,84.0,-184.0,-1023.0,142.0,-147.0,646.0,-346.0,-61.0
19:31:04.097000,20.0,81.0,-178.0,-1030.0,168.0,-153.0,646.0,-346.0,-61.0
19:31:04.101000,27.0,87.0,-173.0,-1048.0,243.0,-153.0,646.0,-346.0,-61.0
19:31:04.107000,0.0,96.0,-183.0,-1033.0,199.0,-144.0,634.0,-340.0,-61.0
19:31:04.111000,35.0,91.0,-204.0,-1031.0,107.0,-152.0,634.0,-340.0,-61.0
19:31:04.116000,42.0,86.0,-201.0,-1040.0,145.0,-156.0,649.0,-348.0,-51.0
19:31:04.121000,42.0,86.0,-201.0,-1047.0,185.0,-147.0,649.0,-348.0,-51.0
19:31:04.125000,30.0,93.0,-185.0,-1050.0,184.0,-156.0,649.0,-348.0,-51.0
19:31:04.130000,39.0,100.0,-172.0,-1063.0,188.0,-165.0,637.0,-336.0,-36.0
19:31:04.135000,41.0,107.0,-163.0,-1087.0,204.0,-163.0,637.0,-336.0,-36.0
19:31:04.140000,28.0,119.0,-178.0,-1092.0,213.0,-165.0,637.0,-336.0,-36.0
19:31:04.144000,30.0,130.0,-198.0,-1072.0,199.0,-165.0,637.0,-336.0,-36.0
19:31:04.148000,33.0,131.0,-205.0,-1046.0,171.0,-167.0,637.0,-336.0,-36.0
19:31:04.154000,53.0,136.0,-214.0,-1077.0,161.0,-173.0,645.0,-337.0,-54.0
19:31:04.158000,49.0,150.0,-232.0,-1137.0,164.0,-182.0,645.0,-337.0,-54.0
19:31:04.163000,63.0,167.0,-228.0,-1137.0,122.0,-189.0,649.0,-343.0,-49.0
19:31:04.168000,75.0,178.0,-220.0,-1127.0,77.0,-190.0,649.0,-343.0,-49.0
19:31:04.172000,105.0,186.0,-237.0,-1158.0,78.0,-197.0,649.0,-343.0,-49.0
19:31:04.177000,129.0,195.0,-265.0,-1185.0,72.0,-206.0,652.0,-337.0,-40.0
19:31:04.182000,147.0,212.0,-284.0,-1185.0,63.0,-214.0,652.0,-337.0,-40.0
19:31:04.187000,179.0,218.0,-301.0,-1183.0,63.0,-214.0,645.0,-340.0,-51.0
19:31:04.191000,207.0,222.0,-321.0,-1159.0,46.0,-219.0,645.0,-340.0,-51.0
19:31:04.195000,237.0,229.0,-366.0,-1142.0,57.0,-226.0,645.0,-340.0,-51.0
19:31:04.201000,250.0,237.0,-413.0,-1132.0,123.0,-233.0,654.0,-331.0,-51.0
19:31:04.205000,254.0,242.0,-446.0,-1114.0,177.0,-237.0,654.0,-331.0,-51.0
19:31:04.210000,258.0,247.0,-468.0,-1100.0,195.0,-242.0,646.0,-333.0,-52.0
19:31:04.215000,267.0,254.0,-488.0,-1093.0,205.0,-253.0,646.0,-333.0,-52.0
19:31:04.222000,266.0,263.0,-508.0,-1101.0,260.0,-269.0,655.0,-328.0,-45.0
19:31:04.224000,263.0,273.0,-531.0,-1101.0,260.0,-269.0,655.0,-328.0,-45.0
19:31:04.228000,263.0,273.0,-531.0,-1096.0,276.0,-268.0,655.0,-328.0,-45.0
19:31:04.234000,249.0,278.0,-544.0,-1102.0,279.0,-268.0,667.0,-321.0,-42.0
19:31:04.238000,233.0,280.0,-555.0,-1103.0,297.0,-271.0,667.0,-321.0,-42.0
19:31:04.243000,207.0,287.0,-555.0,-1086.0,309.0,-273.0,661.0,-325.0,-46.0
19:31:04.248000,184.0,295.0,-557.0,-1074.0,325.0,-277.0,661.0,-325.0,-46.0
19:31:04.252000,163.0,303.0,-569.0,-1057.0,320.0,-278.0,661.0,-325.0,-46.0
19:31:04.257000,138.0,311.0,-585.0,-1045.0,311.0,-285.0,658.0,-316.0,-31.0
19:31:04.262000,144.0,308.0,-582.0,-1039.0,311.0,-285.0,658.0,-316.0,-31.0
19:31:04.266000,134.0,316.0,-564.0,-1047.0,305.0,-283.0,663.0,-318.0,-27.0
19:31:04.271000,141.0,317.0,-557.0,-1060.0,288.0,-285.0,663.0,-318.0,-27.0
19:31:04.275000,123.0,323.0,-567.0,-1059.0,293.0,-286.0,663.0,-318.0,-27.0
19:31:04.281000,128.0,317.0,-600.0,-1035.0,315.0,-289.0,660.0,-312.0,-30.0
19:31:04.285000,130.0,310.0,-638.0,-998.0,317.0,-288.0,660.0,-312.0,-30.0
19:31:04.290000,131.0,303.0,-663.0,-998.0,317.0,-288.0,660.0,-313.0,-33.0
19:31:04.295000,137.0,299.0,-690.0,-971.0,320.0,-294.0,660.0,-313.0,-33.0
19:31:04.299000,147.0,292.0,-714.0,-964.0,317.0,-298.0,660.0,-313.0,-33.0
19:31:04.304000,153.0,286.0,-729.0,-969.0,317.0,-302.0,658.0,-295.0,-24.0
19:31:04.309000,155.0,281.0,-725.0,-976.0,346.0,-307.0,658.0,-295.0,-24.0
19:31:04.314000,148.0,270.0,-698.0,-971.0,388.0,-307.0,664.0,-294.0,-16.0
19:31:04.318000,126.0,266.0,-662.0,-966.0,403.0,-310.0,664.0,-294.0,-16.0
19:31:04.322000,119.0,258.0,-660.0,-974.0,421.0,-320.0,664.0,-294.0,-16.0
19:31:04.328000,113.0,252.0,-684.0,-981.0,462.0,-330.0,669.0,-289.0,-27.0
19:31:04.332000,98.0,251.0,-677.0,-965.0,477.0,-338.0,669.0,-289.0,-27.0
19:31:04.337000,95.0,244.0,-648.0,-950.0,496.0,-344.0,666.0,-283.0,-22.0
19:31:04.342000,95.0,244.0,-648.0,-959.0,549.0,-347.0,666.0,-283.0,-22.0
19:31:04.346000,81.0,239.0,-637.0,-981.0,568.0,-344.0,666.0,-283.0,-22.0
19:31:04.351000,39.0,247.0,-622.0,-1006.0,546.0,-348.0,654.0,-270.0,-1.0
19:31:04.356000,21.0,253.0,-615.0,-1008.0,559.0,-359.0,654.0,-270.0,-1.0
19:31:04.361000,34.0,251.0,-599.0,-982.0,591.0,-360.0,654.0,-270.0,-1.0
19:31:04.365000,9.0,256.0,-590.0,-967.0,585.0,-363.0,654.0,-270.0,-1.0
19:31:04.369000,6.0,252.0,-588.0,-986.0,544.0,-380.0,654.0,-270.0,-1.0
19:31:04.375000,18.0,248.0,-599.0,-1028.0,501.0,-399.0,661.0,-276.0,-12.0
19:31:04.379000,9.0,261.0,-588.0,-1108.0,553.0,-397.0,661.0,-276.0,-12.0
19:31:04.384000,-4.0,274.0,-563.0,-1148.0,604.0,-399.0,660.0,-261.0,-9.0
19:31:04.389000,8.0,271.0,-495.0,-1105.0,536.0,-423.0,660.0,-261.0,-9.0
19:31:04.393000,19.0,282.0,-453.0,-1077.0,542.0,-430.0,660.0,-261.0,-9.0
19:31:04.398000,37.0,291.0,-454.0,-1024.0,575.0,-461.0,666.0,-264.0,-9.0
19:31:04.403000,80.0,280.0,-466.0,-1024.0,575.0,-461.0,666.0,-264.0,-9.0
19:31:04.408000,91.0,284.0,-536.0,-966.0,579.0,-472.0,664.0,-261.0,-1.0
19:31:04.412000,113.0,281.0,-562.0,-987.0,642.0,-463.0,664.0,-261.0,-1.0
19:31:04.416000,126.0,256.0,-499.0,-1040.0,683.0,-459.0,664.0,-261.0,-1.0
19:31:04.422000,147.0,233.0,-334.0,-1051.0,607.0,-441.0,679.0,-247.0,-4.0
19:31:04.426000,165.0,214.0,-207.0,-1055.0,512.0,-436.0,679.0,-247.0,-4.0
19:31:04.431000,212.0,191.0,-191.0,-1099.0,545.0,-433.0,672.0,-244.0,4.0
19:31:04.436000,222.0,169.0,-201.0,-1103.0,622.0,-425.0,672.0,-244.0,4.0
19:31:04.443000,232.0,155.0,-174.0,-898.0,652.0,-408.0,673.0,-244.0,13.0
19:31:04.445000,238.0,131.0,-144.0,-898.0,652.0,-408.0,673.0,-244.0,13.0
19:31:04.449000,238.0,131.0,-144.0,-865.0,687.0,-387.0,673.0,-244.0,13.0
19:31:04.455000,217.0,113.0,-99.0,-889.0,708.0,-370.0,672.0,-241.0,7.0
19:31:04.459000,182.0,105.0,-35.0,-931.0,706.0,-352.0,672.0,-241.0,7.0
19:31:04.464000,153.0,96.0,-3.0,-915.0,681.0,-331.0,670.0,-235.0,13.0
19:31:04.469000,110.0,95.0,12.0,-851.0,631.0,-306.0,670.0,-235.0,13.0
19:31:04.473000,53.0,94.0,48.0,-827.0,624.0,-283.0,670.0,-235.0,13.0
19:31:04.478000,17.0,88.0,47.0,-853.0,658.0,-260.0,673.0,-246.0,7.0
19:31:04.483000,-46.0,97.0,2.0,-882.0,645.0,-235.0,673.0,-246.0,7.0
19:31:04.487000,-96.0,106.0,-24.0,-900.0,611.0,-215.0,670.0,-232.0,10.0
19:31:04.492000,-133.0,111.0,-58.0,-902.0,565.0,-194.0,670.0,-232.0,10.0
19:31:04.496000,-174.0,121.0,-72.0,-895.0,503.0,-177.0,670.0,-232.0,10.0
19:31:04.502000,-196.0,130.0,-74.0,-877.0,442.0,-167.0,682.0,-243.0,16.0
19:31:04.506000,-209.0,136.0,-68.0,-838.0,374.0,-163.0,682.0,-243.0,16.0
19:31:04.511000,-197.0,136.0,-68.0,-838.0,374.0,-163.0,682.0,-231.0,22.0
19:31:04.516000,-165.0,131.0,-63.0,-780.0,317.0,-170.0,682.0,-231.0,22.0
19:31:04.520000,-121.0,123.0,-59.0,-715.0,281.0,-185.0,682.0,-231.0,22.0
19:31:04.525000,-61.0,111.0,-63.0,-675.0,277.0,-205.0,669.0,-246.0,21.0
19:31:04.530000,-4.0,100.0,-52.0,-660.0,299.0,-226.0,669.0,-246.0,21.0
19:31:04.534000,39.0,91.0,-24.0,-659.0,330.0,-241.0,676.0,-235.0,25.0
19:31:04.539000,71.0,88.0,15.0,-666.0,353.0,-255.0,676.0,-235.0,25.0
19:31:04.543000,91.0,88.0,49.0,-694.0,381.0,-265.0,676.0,-235.0,25.0
19:31:04.549000,99.0,92.0,105.0,-705.0,385.0,-268.0,679.0,-249.0,16.0
19:31:04.553000,103.0,93.0,164.0,-677.0,356.0,-267.0,679.0,-249.0,16.0
19:31:04.558000,98.0,96.0,212.0,-640.0,331.0,-267.0,685.0,-238.0,22.0
19:31:04.563000,98.0,96.0,212.0,-594.0,305.0,-270.0,685.0,-238.0,22.0
19:31:04.567000,93.0,96.0,254.0,-557.0,288.0,-274.0,685.0,-238.0,22.0
19:31:04.572000,91.0,91.0,275.0,-529.0,283.0,-277.0,684.0,-247.0,25.0
19:31:04.577000,84.0,88.0,277.0,-510.0,281.0,-284.0,684.0,-247.0,25.0
19:31:04.581000,82.0,82.0,266.0,-501.0,281.0,-293.0,685.0,-241.0,25.0
19:31:04.586000,82.0,78.0,240.0,-493.0,273.0,-299.0,685.0,-241.0,25.0
19:31:04.590000,84.0,69.0,214.0,-486.0,254.0,-307.0,685.0,-241.0,25.0
19:31:04.596000,91.0,58.0,191.0,-482.0,232.0,-312.0,693.0,-246.0,30.0
19:31:04.600000,99.0,45.0,169.0,-476.0,212.0,-311.0,693.0,-246.0,30.0
19:31:04.605000,111.0,30.0,148.0,-465.0,204.0,-306.0,691.0,-250.0,28.0
19:31:04.610000,126.0,11.0,119.0,-445.0,206.0,-301.0,691.0,-250.0,28.0
19:31:04.614000,140.0,-10.0,91.0,-418.0,213.0,-294.0,691.0,-250.0,28.0
19:31:04.619000,156.0,-35.0,68.0,-403.0,229.0,-285.0,691.0,-247.0,24.0
19:31:04.624000,166.0,-58.0,52.0,-403.0,229.0,-285.0,691.0,-247.0,24.0
19:31:04.628000,169.0,-75.0,49.0,-416.0,267.0,-266.0,690.0,-243.0,37.0
19:31:04.633000,165.0,-88.0,46.0,-416.0,267.0,-266.0,690.0,-243.0,37.0
19:31:04.637000,154.0,-95.0,46.0,-432.0,276.0,-256.0,690.0,-243.0,37.0
19:31:04.643000,144.0,-99.0,44.0,-440.0,276.0,-248.0,681.0,-244.0,25.0
19:31:04.647000,133.0,-100.0,32.0,-445.0,279.0,-240.0,681.0,-244.0,25.0
19:31:04.652000,123.0,-100.0,21.0,-452.0,281.0,-230.0,697.0,-247.0,25.0
19:31:04.657000,116.0,-100.0,15.0,-456.0,274.0,-223.0,697.0,-247.0,25.0
19:31:04.661000,116.0,-100.0,15.0,-463.0,266.0,-219.0,697.0,-247.0,25.0
19:31:04.666000,107.0,-99.0,9.0,-481.0,264.0,-213.0,693.0,-256.0,21.0
19:31:04.671000,107.0,-99.0,9.0,-499.0,268.0,-205.0,693.0,-256.0,21.0
19:31:04.675000,101.0,-98.0,13.0,-508.0,274.0,-200.0,687.0,-249.0,24.0
19:31:04.680000,94.0,-95.0,23.0,-514.0,278.0,-195.0,687.0,-249.0,24.0
19:31:04.684000,85.0,-91.0,37.0,-515.0,279.0,-188.0,687.0,-249.0,24.0
19:31:04.690000,74.0,-89.0,58.0,-514.0,276.0,-182.0,691.0,-249.0,33.0
19:31:04.694000,63.0,-89.0,77.0,-516.0,270.0,-176.0,691.0,-249.0,33.0
19:31:04.699000,49.0,-88.0,98.0,-519.0,260.0,-173.0,696.0,-259.0,28.0
19:31:04.704000,37.0,-90.0,119.0,-524.0,252.0,-171.0,696.0,-259.0,28.0
19:31:04.708000,23.0,-89.0,136.0,-531.0,242.0,-170.0,696.0,-259.0,28.0
19:31:04.713000,5.0,-84.0,152.0,-537.0,228.0,-170.0,679.0,-249.0,24.0
19:31:04.718000,-7.0,-78.0,158.0,-537.0,208.0,-169.0,679.0,-249.0,24.0
19:31:04.722000,-16.0,-70.0,156.0,-537.0,208.0,-169.0,688.0,-253.0,24.0
19:31:04.727000,-19.0,-63.0,149.0,-528.0,147.0,-165.0,688.0,-253.0,24.0
19:31:04.731000,-17.0,-56.0,142.0,-528.0,147.0,-165.0,688.0,-253.0,24.0
19:31:04.737000,-10.0,-50.0,131.0,-523.0,120.0,-165.0,690.0,-252.0,24.0
19:31:04.741000,-1.0,-46.0,119.0,-525.0,103.0,-167.0,690.0,-252.0,24.0
19:31:04.746000,8.0,-42.0,103.0,-530.0,97.0,-169.0,693.0,-247.0,34.0
19:31:04.751000,12.0,-38.0,92.0,-535.0,98.0,-170.0,693.0,-247.0,34.0
19:31:04.755000,14.0,-36.0,89.0,-531.0,98.0,-168.0,693.0,-247.0,34.0
19:31:04.760000,11.0,-34.0,90.0,-520.0,93.0,-164.0,688.0,-253.0,22.0
19:31:04.765000,9.0,-35.0,89.0,-501.0,79.0,-160.0,688.0,-253.0,22.0
19:31:04.769000,14.0,-42.0,83.0,-485.0,65.0,-158.0,702.0,-258.0,25.0
19:31:04.774000,23.0,-49.0,67.0,-484.0,57.0,-156.0,702.0,-258.0,25.0
19:31:04.778000,23.0,-49.0,67.0,-496.0,61.0,-157.0,702.0,-258.0,25.0
19:31:04.784000,30.0,-56.0,43.0,-515.0,72.0,-161.0,687.0,-258.0,48.0
19:31:04.788000,40.0,-63.0,27.0,-541.0,80.0,-165.0,687.0,-258.0,48.0
19:31:04.793000,51.0,-74.0,17.0,-565.0,92.0,-170.0,691.0,-256.0,22.0
19:31:04.798000,57.0,-84.0,11.0,-584.0,111.0,-174.0,691.0,-256.0,22.0
19:31:04.802000,56.0,-93.0,15.0,-593.0,140.0,-177.0,691.0,-256.0,22.0
19:31:04.807000,48.0,-103.0,28.0,-593.0,174.0,-177.0,690.0,-255.0,27.0
19:31:04.812000,32.0,-114.0,48.0,-583.0,200.0,-175.0,690.0,-255.0,27.0
19:31:04.816000,9.0,-125.0,76.0,-569.0,208.0,-173.0,684.0,-258.0,19.0
19:31:04.821000,-12.0,-140.0,112.0,-554.0,203.0,-172.0,684.0,-258.0,19.0
19:31:04.825000,-32.0,-159.0,148.0,-544.0,192.0,-173.0,684.0,-258.0,19.0
19:31:04.831000,-50.0,-179.0,178.0,-543.0,183.0,-178.0,690.0,-262.0,15.0
19:31:04.835000,-65.0,-199.0,200.0,-546.0,178.0,-183.0,690.0,-262.0,15.0
19:31:04.840000,-79.0,-219.0,214.0,-546.0,178.0,-183.0,691.0,-261.0,25.0
19:31:04.845000,-85.0,-239.0,222.0,-551.0,171.0,-189.0,691.0,-261.0,25.0
19:31:04.849000,-87.0,-257.0,224.0,-553.0,157.0,-195.0,691.0,-261.0,25.0
19:31:04.854000,-83.0,-275.0,226.0,-551.0,137.0,-200.0,697.0,-270.0,13.0
19:31:04.859000,-70.0,-294.0,228.0,-548.0,111.0,-204.0,697.0,-270.0,13.0
19:31:04.863000,-53.0,-310.0,231.0,-550.0,92.0,-209.0,676.0,-268.0,12.0
19:31:04.868000,-37.0,-321.0,232.0,-558.0,90.0,-209.0,676.0,-268.0,12.0
19:31:04.872000,-23.0,-326.0,233.0,-566.0,103.0,-206.0,676.0,-268.0,12.0
19:31:04.878000,-11.0,-324.0,238.0,-574.0,117.0,-200.0,685.0,-270.0,15.0
19:31:04.882000,-1.0,-319.0,252.0,-581.0,122.0,-192.0,685.0,-270.0,15.0
19:31:04.887000,7.0,-310.0,270.0,-594.0,120.0,-186.0,693.0,-262.0,6.0
19:31:04.892000,7.0,-310.0,270.0,-615.0,125.0,-182.0,693.0,-262.0,6.0
19:31:04.896000,13.0,-297.0,283.0,-643.0,142.0,-178.0,693.0,-262.0,6.0
19:31:04.901000,12.0,-279.0,294.0,-670.0,169.0,-177.0,684.0,-270.0,-4.0
19:31:04.906000,2.0,-259.0,302.0,-687.0,192.0,-176.0,684.0,-270.0,-4.0
19:31:04.910000,-13.0,-240.0,311.0,-693.0,203.0,-174.0,694.0,-265.0,0.0
19:31:04.915000,-28.0,-228.0,322.0,-686.0,207.0,-171.0,694.0,-265.0,0.0
19:31:04.919000,-45.0,-220.0,336.0,-672.0,214.0,-165.0,694.0,-265.0,0.0
19:31:04.925000,-62.0,-214.0,347.0,-657.0,224.0,-159.0,685.0,-277.0,22.0
19:31:04.929000,-77.0,-214.0,360.0,-643.0,235.0,-152.0,685.0,-277.0,22.0
19:31:04.934000,-95.0,-214.0,369.0,-633.0,247.0,-147.0,691.0,-273.0,-6.0
19:31:04.939000,-121.0,-215.0,375.0,-625.0,251.0,-145.0,691.0,-273.0,-6.0
19:31:04.943000,-147.0,-213.0,386.0,-620.0,242.0,-149.0,691.0,-273.0,-6.0
19:31:04.948000,-171.0,-211.0,396.0,-621.0,228.0,-157.0,688.0,-285.0,3.0
19:31:04.953000,-188.0,-211.0,402.0,-621.0,228.0,-157.0,688.0,-285.0,3.0
19:31:04.957000,-198.0,-211.0,403.0,-630.0,194.0,-173.0,684.0,-285.0,-1.0
19:31:04.962000,-201.0,-212.0,401.0,-630.0,194.0,-173.0,684.0,-285.0,-1.0
19:31:04.966000,-199.0,-213.0,399.0,-634.0,178.0,-180.0,684.0,-285.0,-1.0
19:31:04.972000,-199.0,-215.0,396.0,-635.0,163.0,-185.0,687.0,-292.0,-9.0
19:31:04.976000,-201.0,-217.0,392.0,-628.0,153.0,-192.0,687.0,-292.0,-9.0
19:31:04.981000,-202.0,-220.0,384.0,-617.0,155.0,-201.0,688.0,-286.0,-6.0
19:31:04.986000,-207.0,-222.0,366.0,-614.0,182.0,-216.0,688.0,-286.0,-6.0
19:31:04.990000,-207.0,-222.0,366.0,-629.0,233.0,-232.0,688.0,-286.0,-6.0
19:31:04.995000,-245.0,-212.0,322.0,-652.0,277.0,-241.0,693.0,-289.0,-13.0
19:31:05.000000,-245.0,-212.0,322.0,-668.0,282.0,-246.0,693.0,-289.0,-13.0
19:31:05.004000,-261.0,-210.0,311.0,-676.0,253.0,-251.0,673.0,-297.0,-19.0
19:31:05.009000,-264.0,-209.0,308.0,-691.0,219.0,-252.0,673.0,-297.0,-19.0
19:31:05.013000,-259.0,-205.0,305.0,-714.0,201.0,-247.0,673.0,-297.0,-19.0
19:31:05.019000,-248.0,-197.0,304.0,-737.0,184.0,-244.0,675.0,-294.0,-12.0
19:31:05.023000,-233.0,-189.0,312.0,-771.0,165.0,-243.0,675.0,-294.0,-12.0
19:31:05.028000,-214.0,-180.0,320.0,-817.0,155.0,-240.0,685.0,-298.0,-19.0
19:31:05.033000,-198.0,-169.0,327.0,-858.0,144.0,-236.0,685.0,-298.0,-19.0
19:31:05.037000,-177.0,-157.0,338.0,-887.0,133.0,-231.0,685.0,-298.0,-19.0
19:31:05.042000,-154.0,-147.0,352.0,-909.0,136.0,-227.0,666.0,-300.0,-21.0
19:31:05.047000,-128.0,-141.0,365.0,-923.0,159.0,-223.0,666.0,-300.0,-21.0
19:31:05.051000,-107.0,-133.0,375.0,-923.0,159.0,-223.0,682.0,-306.0,-13.0
19:31:05.056000,-94.0,-123.0,386.0,-921.0,237.0,-206.0,682.0,-306.0,-13.0
19:31:05.060000,-88.0,-115.0,401.0,-921.0,237.0,-206.0,682.0,-306.0,-13.0
19:31:05.066000,-85.0,-115.0,424.0,-901.0,260.0,-194.0,676.0,-304.0,-25.0
19:31:05.070000,-84.0,-122.0,452.0,-874.0,272.0,-183.0,676.0,-304.0,-25.0
19:31:05.075000,-86.0,-139.0,476.0,-846.0,286.0,-172.0,676.0,-303.0,-24.0
19:31:05.080000,-92.0,-161.0,494.0,-821.0,309.0,-163.0,676.0,-303.0,-24.0
19:31:05.084000,-105.0,-182.0,508.0,-798.0,340.0,-154.0,676.0,-303.0,-24.0
19:31:05.089000,-130.0,-203.0,513.0,-787.0,382.0,-146.0,682.0,-310.0,-36.0
19:31:05.093000,-130.0,-203.0,513.0,-791.0,431.0,-140.0,682.0,-310.0,-36.0
19:31:05.098000,-214.0,-233.0,502.0,-804.0,477.0,-140.0,657.0,-321.0,-18.0
19:31:05.103000,-260.0,-242.0,486.0,-821.0,509.0,-145.0,657.0,-321.0,-18.0
19:31:05.107000,-260.0,-242.0,486.0,-843.0,528.0,-160.0,657.0,-321.0,-18.0
19:31:05.113000,-297.0,-243.0,456.0,-876.0,550.0,-187.0,666.0,-324.0,-30.0
19:31:05.117000,-321.0,-236.0,403.0,-923.0,588.0,-221.0,666.0,-324.0,-30.0
19:31:05.122000,-334.0,-221.0,326.0,-975.0,642.0,-258.0,675.0,-327.0,-31.0
19:31:05.127000,-336.0,-200.0,229.0,-1018.0,695.0,-293.0,675.0,-327.0,-31.0
19:31:05.131000,-326.0,-175.0,132.0,-1041.0,734.0,-327.0,675.0,-327.0,-31.0
19:31:05.136000,-303.0,-148.0,43.0,-1048.0,762.0,-357.0,670.0,-322.0,-40.0
19:31:05.141000,-267.0,-121.0,-32.0,-1046.0,782.0,-383.0,670.0,-322.0,-40.0
19:31:05.145000,-227.0,-95.0,-79.0,-1036.0,801.0,-399.0,655.0,-324.0,-25.0
19:31:05.150000,-186.0,-77.0,-93.0,-1016.0,832.0,-406.0,655.0,-324.0,-25.0
19:31:05.154000,-156.0,-60.0,-91.0,-983.0,872.0,-409.0,655.0,-324.0,-25.0
19:31:05.160000,-135.0,-50.0,-66.0,-916.0,909.0,-408.0,664.0,-318.0,-40.0
19:31:05.164000,-128.0,-45.0,-18.0,-810.0,939.0,-399.0,664.0,-318.0,-40.0
19:31:05.169000,-137.0,-45.0,54.0,-810.0,939.0,-399.0,676.0,-318.0,-34.0
19:31:05.174000,-135.0,-53.0,138.0,-706.0,937.0,-391.0,676.0,-318.0,-34.0
19:31:05.178000,-121.0,-70.0,189.0,-567.0,886.0,-391.0,676.0,-318.0,-34.0
19:31:05.183000,-108.0,-91.0,257.0,-567.0,886.0,-391.0,667.0,-319.0,-34.0
19:31:05.188000,-81.0,-124.0,345.0,-490.0,855.0,-383.0,667.0,-319.0,-34.0
19:31:05.192000,-49.0,-161.0,400.0,-465.0,855.0,-372.0,681.0,-322.0,-42.0
19:31:05.197000,-13.0,-205.0,411.0,-490.0,867.0,-366.0,681.0,-322.0,-42.0
19:31:05.201000,12.0,-238.0,387.0,-537.0,877.0,-363.0,681.0,-322.0,-42.0
19:31:05.207000,11.0,-240.0,332.0,-635.0,946.0,-371.0,664.0,-330.0,-49.0
19:31:05.211000,6.0,-261.0,332.0,-776.0,1016.0,-372.0,664.0,-330.0,-49.0
19:31:05.216000,-23.0,-262.0,345.0,-853.0,1012.0,-367.0,663.0,-328.0,-49.0
19:31:05.221000,-23.0,-262.0,345.0,-1479.0,987.0,-364.0,663.0,-328.0,-49.0
19:31:05.228000,-179.0,-198.0,560.0,-1325.0,738.0,-370.0,657.0,-333.0,-42.0
19:31:05.230000,-179.0,-198.0,560.0,-1325.0,738.0,-370.0,657.0,-333.0,-42.0
19:31:05.234000,-169.0,-133.0,781.0,-981.0,835.0,-322.0,657.0,-333.0,-42.0
19:31:05.239000,-123.0,-93.0,715.0,-596.0,929.0,-292.0,663.0,-342.0,-51.0
19:31:05.244000,-121.0,-51.0,647.0,-346.0,884.0,-269.0,663.0,-342.0,-51.0
19:31:05.249000,-123.0,-42.0,565.0,-551.0,776.0,-276.0,651.0,-343.0,-52.0
19:31:05.254000,-76.0,-49.0,426.0,-911.0,667.0,-301.0,651.0,-343.0,-52.0
19:31:05.258000,-56.0,-35.0,319.0,-1197.0,586.0,-339.0,651.0,-343.0,-52.0
19:31:05.263000,-44.0,-26.0,283.0,-1448.0,555.0,-358.0,661.0,-345.0,-45.0
19:31:05.268000,-40.0,-21.0,249.0,-1588.0,559.0,-370.0,661.0,-345.0,-45.0
19:31:05.272000,-60.0,-2.0,255.0,-1588.0,559.0,-370.0,664.0,-340.0,-31.0
19:31:05.277000,-95.0,26.0,300.0,-1441.0,542.0,-392.0,664.0,-340.0,-31.0
19:31:05.281000,-147.0,48.0,396.0,-1441.0,542.0,-392.0,664.0,-340.0,-31.0
19:31:05.286000,-158.0,44.0,499.0,-1288.0,510.0,-385.0,658.0,-351.0,-48.0
19:31:05.291000,-182.0,51.0,496.0,-1206.0,454.0,-374.0,658.0,-351.0,-48.0
19:31:05.296000,-166.0,44.0,436.0,-1239.0,379.0,-363.0,651.0,-352.0,-45.0
19:31:05.301000,-135.0,33.0,325.0,-1260.0,349.0,-357.0,651.0,-352.0,-45.0
19:31:05.305000,-149.0,41.0,270.0,-1225.0,358.0,-348.0,651.0,-352.0,-45.0
19:31:05.310000,-159.0,39.0,305.0,-1147.0,328.0,-336.0,667.0,-355.0,-48.0
19:31:05.315000,-168.0,36.0,319.0,-1081.0,277.0,-312.0,667.0,-355.0,-48.0
19:31:05.319000,-156.0,44.0,228.0,-1144.0,286.0,-294.0,643.0,-354.0,-46.0
19:31:05.324000,-150.0,42.0,235.0,-1161.0,264.0,-270.0,643.0,-354.0,-46.0
19:31:05.328000,-150.0,42.0,235.0,-1034.0,90.0,-254.0,643.0,-354.0,-46.0
19:31:05.333000,-123.0,35.0,312.0,-985.0,-31.0,-234.0,660.0,-360.0,-43.0
19:31:05.338000,-109.0,35.0,358.0,-1037.0,-58.0,-203.0,660.0,-360.0,-43.0
19:31:05.343000,-81.0,35.0,361.0,-1097.0,-85.0,-195.0,661.0,-354.0,-46.0
19:31:05.348000,-36.0,32.0,364.0,-1113.0,-100.0,-189.0,661.0,-354.0,-46.0
19:31:05.352000,-13.0,45.0,366.0,-1133.0,-105.0,-182.0,661.0,-354.0,-46.0
19:31:05.357000,-4.0,68.0,325.0,-1165.0,-111.0,-179.0,663.0,-357.0,-48.0
19:31:05.362000,9.0,85.0,263.0,-1150.0,-136.0,-183.0,663.0,-357.0,-48.0
19:31:05.366000,35.0,98.0,203.0,-1117.0,-152.0,-185.0,646.0,-364.0,-33.0
19:31:05.371000,51.0,102.0,146.0,-1104.0,-128.0,-192.0,646.0,-364.0,-33.0
19:31:05.375000,65.0,114.0,86.0,-1107.0,-73.0,-209.0,646.0,-364.0,-33.0
19:31:05.380000,76.0,126.0,35.0,-1131.0,-1.0,-232.0,666.0,-363.0,-43.0
19:31:05.385000,77.0,134.0,-14.0,-1162.0,62.0,-256.0,666.0,-363.0,-43.0
19:31:05.390000,77.0,133.0,-73.0,-1162.0,62.0,-256.0,660.0,-369.0,-49.0
19:31:05.395000,72.0,128.0,-131.0,-1182.0,96.0,-275.0,660.0,-369.0,-49.0
19:31:05.399000,52.0,118.0,-183.0,-1189.0,114.0,-286.0,660.0,-369.0,-49.0
19:31:05.404000,42.0,98.0,-212.0,-1181.0,123.0,-294.0,667.0,-369.0,-40.0
19:31:05.409000,31.0,74.0,-195.0,-1157.0,106.0,-298.0,667.0,-369.0,-40.0
19:31:05.413000,16.0,56.0,-185.0,-1141.0,87.0,-295.0,661.0,-364.0,-46.0
19:31:05.418000,-2.0,45.0,-211.0,-1155.0,93.0,-295.0,661.0,-364.0,-46.0
19:31:05.422000,-2.0,45.0,-211.0,-1156.0,106.0,-293.0,661.0,-364.0,-46.0
19:31:05.427000,-11.0,0.0,-205.0,-1143.0,91.0,-283.0,661.0,-366.0,-42.0
19:31:05.432000,-23.0,-19.0,-176.0,-1142.0,46.0,-274.0,661.0,-366.0,-42.0
19:31:05.437000,-23.0,-19.0,-176.0,-1153.0,11.0,-268.0,660.0,-360.0,-43.0
19:31:05.442000,-49.0,-23.0,-193.0,-1177.0,0.0,-269.0,660.0,-360.0,-43.0
19:31:05.446000,-46.0,-35.0,-247.0,-1146.0,11.0,-269.0,660.0,-360.0,-43.0
19:31:05.451000,-15.0,-84.0,-203.0,-1100.0,36.0,-266.0,670.0,-354.0,-43.0
19:31:05.456000,-33.0,-93.0,-190.0,-1142.0,64.0,-261.0,670.0,-354.0,-43.0
19:31:05.460000,-42.0,-91.0,-268.0,-1199.0,108.0,-279.0,660.0,-355.0,-51.0
19:31:05.465000,4.0,-115.0,-336.0,-1228.0,123.0,-280.0,660.0,-355.0,-51.0
19:31:05.469000,-61.0,-97.0,-358.0,-1263.0,90.0,-277.0,660.0,-355.0,-51.0
19:31:05.474000,-64.0,-86.0,-371.0,-1239.0,56.0,-294.0,661.0,-352.0,-51.0
19:31:05.479000,-42.0,-97.0,-273.0,-1178.0,63.0,-280.0,661.0,-352.0,-51.0
19:31:05.484000,-65.0,-86.0,-171.0,-1178.0,87.0,-269.0,658.0,-354.0,-51.0
19:31:05.489000,-94.0,-55.0,-238.0,-1232.0,44.0,-265.0,658.0,-354.0,-51.0
19:31:05.493000,-70.0,-40.0,-324.0,-1125.0,-23.0,-273.0,658.0,-354.0,-51.0
19:31:05.498000,-4.0,-43.0,-325.0,-1125.0,-30.0,-273.0,660.0,-346.0,-46.0
19:31:05.503000,43.0,-70.0,-237.0,-988.0,-30.0,-247.0,660.0,-346.0,-46.0
19:31:05.507000,50.0,-68.0,-165.0,-952.0,43.0,-207.0,655.0,-343.0,-39.0
19:31:05.512000,51.0,-64.0,-174.0,-1013.0,109.0,-200.0,655.0,-343.0,-39.0
19:31:05.516000,53.0,-35.0,-210.0,-1093.0,107.0,-204.0,655.0,-343.0,-39.0
19:31:05.521000,74.0,-31.0,-173.0,-1127.0,96.0,-218.0,652.0,-340.0,-48.0
19:31:05.526000,52.0,-19.0,-93.0,-1085.0,119.0,-201.0,652.0,-340.0,-48.0
19:31:05.531000,46.0,-8.0,-64.0,-1024.0,158.0,-184.0,655.0,-342.0,-40.0
19:31:05.536000,31.0,-3.0,-50.0,-995.0,155.0,-177.0,655.0,-342.0,-40.0
19:31:05.543000,32.0,2.0,-31.0,-982.0,179.0,-175.0,654.0,-340.0,-40.0
19:31:05.545000,17.0,15.0,-31.0,-982.0,179.0,-175.0,654.0,-340.0,-40.0
19:31:05.549000,17.0,15.0,-31.0,-1034.0,174.0,-193.0,654.0,-340.0,-40.0
19:31:05.554000,44.0,11.0,-32.0,-1042.0,125.0,-200.0,657.0,-340.0,-49.0
19:31:05.559000,23.0,32.0,-17.0,-1048.0,96.0,-196.0,657.0,-340.0,-49.0
19:31:05.564000,46.0,29.0,20.0,-1029.0,159.0,-170.0,660.0,-337.0,-49.0
19:31:05.568000,14.0,30.0,-53.0,-989.0,176.0,-160.0,660.0,-337.0,-49.0
19:31:05.572000,23.0,31.0,-125.0,-961.0,136.0,-173.0,660.0,-337.0,-49.0
19:31:05.578000,27.0,26.0,-140.0,-972.0,60.0,-180.0,654.0,-340.0,-46.0
19:31:05.583000,33.0,20.0,-119.0,-990.0,-6.0,-177.0,654.0,-340.0,-46.0
19:31:05.587000,39.0,7.0,-89.0,-998.0,3.0,-178.0,655.0,-351.0,-45.0
19:31:05.592000,38.0,13.0,-115.0,-1004.0,74.0,-190.0,655.0,-351.0,-45.0
19:31:05.596000,74.0,-9.0,-116.0,-1003.0,125.0,-184.0,655.0,-351.0,-45.0
19:31:05.601000,83.0,-26.0,-110.0,-985.0,102.0,-183.0,649.0,-340.0,-45.0
19:31:05.606000,52.0,-25.0,-141.0,-953.0,82.0,-183.0,649.0,-340.0,-45.0
19:31:05.611000,52.0,-32.0,-140.0,-953.0,82.0,-183.0,658.0,-337.0,-48.0
19:31:05.615000,56.0,-46.0,-153.0,-958.0,129.0,-175.0,658.0,-337.0,-48.0
19:31:05.619000,36.0,-45.0,-168.0,-987.0,142.0,-171.0,658.0,-337.0,-48.0
19:31:05.625000,52.0,-51.0,-177.0,-1012.0,93.0,-173.0,652.0,-331.0,-39.0
19:31:05.630000,58.0,-51.0,-196.0,-1044.0,67.0,-178.0,652.0,-331.0,-39.0
19:31:05.634000,60.0,-46.0,-218.0,-1056.0,93.0,-179.0,657.0,-337.0,-39.0
19:31:05.639000,81.0,-44.0,-233.0,-1060.0,180.0,-183.0,657.0,-337.0,-39.0
19:31:05.643000,81.0,-44.0,-233.0,-1059.0,206.0,-181.0,657.0,-337.0,-39.0
19:31:05.648000,62.0,-21.0,-249.0,-1041.0,127.0,-180.0,655.0,-337.0,-48.0
19:31:05.653000,84.0,-13.0,-235.0,-1039.0,76.0,-187.0,655.0,-337.0,-48.0
19:31:05.658000,84.0,-13.0,-235.0,-1067.0,99.0,-192.0,669.0,-328.0,-46.0
19:31:05.662000,100.0,-2.0,-257.0,-1103.0,120.0,-188.0,669.0,-328.0,-46.0
19:31:05.666000,74.0,15.0,-292.0,-1122.0,123.0,-197.0,669.0,-328.0,-46.0
19:31:05.672000,67.0,28.0,-308.0,-1103.0,134.0,-212.0,661.0,-327.0,-42.0
19:31:05.677000,65.0,36.0,-312.0,-1052.0,136.0,-219.0,661.0,-327.0,-42.0
19:31:05.681000,65.0,42.0,-319.0,-997.0,155.0,-233.0,636.0,-328.0,-45.0
19:31:05.686000,69.0,49.0,-335.0,-973.0,208.0,-243.0,636.0,-328.0,-45.0
19:31:05.690000,65.0,55.0,-345.0,-974.0,251.0,-248.0,636.0,-328.0,-45.0
19:31:05.695000,60.0,63.0,-347.0,-994.0,249.0,-256.0,658.0,-324.0,-45.0
19:31:05.700000,39.0,73.0,-356.0,-1026.0,231.0,-267.0,658.0,-324.0,-45.0
19:31:05.705000,32.0,86.0,-378.0,-1026.0,231.0,-267.0,660.0,-318.0,-43.0
19:31:05.709000,23.0,86.0,-380.0,-1027.0,217.0,-281.0,660.0,-318.0,-43.0
19:31:05.713000,16.0,83.0,-386.0,-1006.0,220.0,-292.0,660.0,-318.0,-43.0
19:31:05.719000,12.0,77.0,-385.0,-1006.0,220.0,-292.0,658.0,-316.0,-39.0
19:31:05.723000,12.0,75.0,-364.0,-918.0,274.0,-297.0,658.0,-316.0,-39.0
19:31:05.728000,12.0,70.0,-362.0,-918.0,274.0,-297.0,654.0,-315.0,-49.0
19:31:05.733000,-4.0,69.0,-390.0,-938.0,254.0,-298.0,654.0,-315.0,-49.0
19:31:05.737000,7.0,68.0,-415.0,-975.0,223.0,-300.0,654.0,-315.0,-49.0
19:31:05.742000,37.0,62.0,-441.0,-993.0,245.0,-302.0,652.0,-312.0,-40.0
19:31:05.747000,41.0,52.0,-449.0,-1001.0,293.0,-295.0,652.0,-312.0,-40.0
19:31:05.752000,47.0,58.0,-438.0,-995.0,299.0,-292.0,667.0,-303.0,-46.0
19:31:05.756000,64.0,57.0,-445.0,-994.0,288.0,-294.0,667.0,-303.0,-46.0
19:31:05.760000,64.0,57.0,-445.0,-1009.0,259.0,-287.0,667.0,-303.0,-46.0
19:31:05.766000,51.0,70.0,-456.0,-1027.0,196.0,-278.0,648.0,-306.0,-42.0
19:31:05.770000,67.0,72.0,-459.0,-1057.0,151.0,-272.0,648.0,-306.0,-42.0
19:31:05.775000,81.0,74.0,-460.0,-1103.0,154.0,-272.0,657.0,-297.0,-24.0
19:31:05.780000,98.0,75.0,-456.0,-1124.0,199.0,-276.0,657.0,-297.0,-24.0
19:31:05.784000,112.0,84.0,-476.0,-1119.0,231.0,-275.0,657.0,-297.0,-24.0
19:31:05.789000,102.0,98.0,-492.0,-1111.0,261.0,-272.0,652.0,-292.0,-37.0
19:31:05.794000,95.0,109.0,-487.0,-1082.0,307.0,-259.0,652.0,-292.0,-37.0
19:31:05.799000,84.0,122.0,-463.0,-1027.0,334.0,-250.0,661.0,-294.0,-37.0
19:31:05.803000,104.0,121.0,-459.0,-932.0,275.0,-275.0,661.0,-294.0,-37.0
19:31:05.807000,123.0,121.0,-475.0,-926.0,206.0,-278.0,661.0,-294.0,-37.0
19:31:05.813000,128.0,121.0,-503.0,-1042.0,264.0,-252.0,652.0,-288.0,-36.0
19:31:05.817000,123.0,127.0,-563.0,-1098.0,350.0,-247.0,652.0,-288.0,-36.0
19:31:05.822000,107.0,141.0,-579.0,-1098.0,350.0,-247.0,652.0,-289.0,-40.0
19:31:05.827000,92.0,160.0,-555.0,-1097.0,368.0,-243.0,652.0,-289.0,-40.0
19:31:05.831000,98.0,164.0,-522.0,-1094.0,368.0,-235.0,652.0,-289.0,-40.0
19:31:05.836000,126.0,158.0,-473.0,-1087.0,342.0,-229.0,655.0,-286.0,-39.0
19:31:05.841000,142.0,155.0,-411.0,-1074.0,314.0,-214.0,655.0,-286.0,-39.0
19:31:05.846000,175.0,148.0,-364.0,-1039.0,316.0,-202.0,655.0,-277.0,-34.0
19:31:05.850000,244.0,117.0,-484.0,-926.0,319.0,-235.0,655.0,-277.0,-34.0
19:31:05.854000,252.0,127.0,-705.0,-823.0,228.0,-307.0,655.0,-277.0,-34.0
19:31:05.860000,191.0,139.0,-908.0,-915.0,367.0,-307.0,663.0,-274.0,-27.0
19:31:05.864000,85.0,185.0,-899.0,-1013.0,617.0,-257.0,663.0,-274.0,-27.0
19:31:05.869000,57.0,199.0,-683.0,-1023.0,615.0,-261.0,640.0,-268.0,-22.0
19:31:05.874000,54.0,204.0,-529.0,-1100.0,551.0,-280.0,640.0,-268.0,-22.0
19:31:05.878000,54.0,204.0,-529.0,-1173.0,468.0,-283.0,640.0,-268.0,-22.0
19:31:05.883000,50.0,202.0,-507.0,-1159.0,344.0,-279.0,649.0,-262.0,-24.0
19:31:05.888000,44.0,198.0,-479.0,-1122.0,281.0,-279.0,649.0,-262.0,-24.0
19:31:05.893000,51.0,208.0,-476.0,-1107.0,359.0,-293.0,658.0,-252.0,-24.0
19:31:05.897000,115.0,194.0,-503.0,-1071.0,444.0,-295.0,658.0,-252.0,-24.0
19:31:05.901000,91.0,205.0,-516.0,-1022.0,477.0,-284.0,658.0,-252.0,-24.0
19:31:05.907000,70.0,221.0,-569.0,-984.0,549.0,-297.0,660.0,-259.0,-22.0
19:31:05.911000,88.0,234.0,-705.0,-903.0,593.0,-299.0,660.0,-259.0,-22.0
19:31:05.916000,67.0,242.0,-704.0,-845.0,553.0,-308.0,663.0,-250.0,-16.0
19:31:05.921000,70.0,251.0,-575.0,-914.0,508.0,-330.0,663.0,-250.0,-16.0
19:31:05.925000,80.0,248.0,-515.0,-1039.0,510.0,-335.0,663.0,-250.0,-16.0
19:31:05.930000,79.0,250.0,-575.0,-1103.0,559.0,-354.0,654.0,-247.0,-25.0
19:31:05.935000,77.0,265.0,-659.0,-1086.0,588.0,-366.0,654.0,-247.0,-25.0
19:31:05.940000,81.0,262.0,-674.0,-1086.0,588.0,-366.0,655.0,-244.0,-18.0
19:31:05.944000,81.0,261.0,-625.0,-1027.0,569.0,-367.0,655.0,-244.0,-18.0
19:31:05.952000,92.0,260.0,-551.0,-994.0,549.0,-389.0,658.0,-235.0,-15.0
19:31:05.954000,86.0,268.0,-490.0,-994.0,549.0,-389.0,658.0,-235.0,-15.0
19:31:05.958000,86.0,280.0,-450.0,-1040.0,573.0,-397.0,658.0,-235.0,-15.0
19:31:05.963000,124.0,287.0,-440.0,-1035.0,604.0,-414.0,657.0,-232.0,-9.0
19:31:05.968000,139.0,291.0,-364.0,-993.0,640.0,-421.0,657.0,-232.0,-9.0
19:31:05.973000,157.0,294.0,-281.0,-982.0,651.0,-415.0,658.0,-220.0,-4.0
19:31:05.977000,162.0,296.0,-332.0,-972.0,686.0,-396.0,658.0,-220.0,-4.0
19:31:05.981000,162.0,296.0,-332.0,-918.0,720.0,-385.0,658.0,-220.0,-4.0
19:31:05.987000,170.0,293.0,-392.0,-850.0,743.0,-395.0,658.0,-229.0,-12.0
19:31:05.991000,177.0,290.0,-380.0,-893.0,827.0,-395.0,658.0,-229.0,-12.0
19:31:05.996000,195.0,289.0,-323.0,-1009.0,853.0,-404.0,661.0,-220.0,9.0
19:31:06.001000,203.0,284.0,-237.0,-1093.0,798.0,-429.0,661.0,-220.0,9.0
19:31:06.005000,224.0,271.0,-252.0,-1112.0,771.0,-457.0,661.0,-220.0,9.0
19:31:06.010000,200.0,272.0,-272.0,-1078.0,768.0,-463.0,649.0,-222.0,-10.0
19:31:06.015000,165.0,259.0,-198.0,-1058.0,800.0,-463.0,649.0,-222.0,-10.0
19:31:06.020000,147.0,233.0,-67.0,-1075.0,840.0,-464.0,663.0,-222.0,-9.0
19:31:06.024000,106.0,215.0,28.0,-1104.0,837.0,-443.0,663.0,-222.0,-9.0
19:31:06.028000,56.0,202.0,51.0,-1091.0,787.0,-415.0,663.0,-222.0,-9.0
19:31:06.034000,51.0,177.0,46.0,-1009.0,660.0,-388.0,664.0,-220.0,0.0
19:31:06.038000,54.0,142.0,97.0,-939.0,512.0,-374.0,664.0,-220.0,0.0
19:31:06.043000,91.0,107.0,116.0,-939.0,512.0,-374.0,651.0,-223.0,7.0
19:31:06.048000,135.0,79.0,44.0,-960.0,483.0,-367.0,651.0,-223.0,7.0
19:31:06.052000,154.0,60.0,-22.0,-1020.0,501.0,-350.0,651.0,-223.0,7.0
19:31:06.057000,184.0,40.0,-41.0,-1053.0,485.0,-339.0,666.0,-222.0,3.0
19:31:06.062000,199.0,29.0,-44.0,-1070.0,485.0,-337.0,666.0,-222.0,3.0
19:31:06.067000,210.0,13.0,-80.0,-1088.0,532.0,-334.0,658.0,-220.0,-3.0
19:31:06.071000,195.0,9.0,-91.0,-1076.0,579.0,-330.0,658.0,-220.0,-3.0
19:31:06.075000,193.0,-4.0,-95.0,-1050.0,604.0,-332.0,658.0,-220.0,-3.0
19:31:06.081000,181.0,-18.0,-102.0,-1031.0,622.0,-332.0,658.0,-223.0,3.0
19:31:06.085000,169.0,-39.0,-113.0,-996.0,630.0,-326.0,658.0,-223.0,3.0
19:31:06.090000,149.0,-57.0,-112.0,-950.0,645.0,-319.0,664.0,-223.0,3.0
19:31:06.095000,149.0,-57.0,-112.0,-895.0,651.0,-309.0,664.0,-223.0,3.0
19:31:06.099000,119.0,-70.0,-82.0,-853.0,649.0,-298.0,664.0,-223.0,3.0
19:31:06.104000,96.0,-85.0,-42.0,-813.0,626.0,-285.0,663.0,-226.0,6.0
19:31:06.109000,71.0,-91.0,0.0,-764.0,587.0,-269.0,663.0,-226.0,6.0
19:31:06.114000,46.0,-91.0,38.0,-712.0,530.0,-252.0,664.0,-220.0,-3.0
19:31:06.118000,24.0,-87.0,81.0,-668.0,463.0,-243.0,664.0,-220.0,-3.0
19:31:06.122000,12.0,-84.0,111.0,-656.0,423.0,-243.0,664.0,-220.0,-3.0
19:31:06.128000,6.0,-80.0,106.0,-671.0,411.0,-242.0,673.0,-216.0,12.0
19:31:06.132000,7.0,-77.0,72.0,-682.0,402.0,-234.0,673.0,-216.0,12.0
19:31:06.137000,7.0,-75.0,41.0,-673.0,370.0,-219.0,673.0,-223.0,19.0
19:31:06.142000,9.0,-72.0,39.0,-642.0,317.0,-200.0,673.0,-223.0,19.0
19:31:06.146000,21.0,-75.0,55.0,-603.0,261.0,-180.0,673.0,-223.0,19.0
19:31:06.151000,43.0,-85.0,74.0,-560.0,209.0,-162.0,673.0,-214.0,10.0
19:31:06.156000,74.0,-97.0,98.0,-560.0,172.0,-162.0,673.0,-214.0,10.0
19:31:06.161000,112.0,-114.0,122.0,-519.0,172.0,-147.0,666.0,-213.0,1.0
19:31:06.165000,151.0,-134.0,147.0,-491.0,159.0,-135.0,666.0,-213.0,1.0
19:31:06.169000,189.0,-152.0,177.0,-471.0,164.0,-126.0,666.0,-213.0,1.0
19:31:06.175000,219.0,-167.0,216.0,-455.0,175.0,-118.0,676.0,-228.0,3.0
19:31:06.179000,243.0,-181.0,252.0,-445.0,211.0,-110.0,676.0,-228.0,3.0
19:31:06.184000,259.0,-191.0,285.0,-445.0,211.0,-110.0,660.0,-220.0,7.0
19:31:06.189000,268.0,-196.0,309.0,-444.0,231.0,-108.0,660.0,-220.0,7.0
19:31:06.193000,268.0,-196.0,309.0,-447.0,259.0,-106.0,660.0,-220.0,7.0
19:31:06.198000,256.0,-184.0,309.0,-450.0,286.0,-103.0,672.0,-217.0,-3.0
19:31:06.203000,244.0,-172.0,289.0,-457.0,307.0,-101.0,672.0,-217.0,-3.0
19:31:06.208000,244.0,-172.0,289.0,-466.0,330.0,-100.0,675.0,-231.0,-1.0
19:31:06.212000,225.0,-156.0,249.0,-472.0,349.0,-99.0,675.0,-231.0,-1.0
19:31:06.216000,205.0,-137.0,206.0,-478.0,365.0,-99.0,675.0,-231.0,-1.0
19:31:06.222000,179.0,-118.0,165.0,-485.0,376.0,-98.0,672.0,-228.0,9.0
19:31:06.226000,147.0,-98.0,140.0,-496.0,381.0,-99.0,672.0,-228.0,9.0
19:31:06.231000,114.0,-75.0,130.0,-507.0,381.0,-102.0,672.0,-240.0,-6.0
19:31:06.236000,74.0,-58.0,131.0,-512.0,382.0,-99.0,672.0,-240.0,-6.0
19:31:06.240000,33.0,-43.0,140.0,-506.0,387.0,-94.0,672.0,-240.0,-6.0
19:31:06.245000,-9.0,-32.0,152.0,-481.0,386.0,-94.0,676.0,-237.0,-4.0
19:31:06.250000,-52.0,-19.0,173.0,-450.0,371.0,-96.0,676.0,-237.0,-4.0
19:31:06.255000,-93.0,-12.0,203.0,-450.0,371.0,-96.0,676.0,-228.0,-6.0
19:31:06.259000,-128.0,-7.0,226.0,-425.0,347.0,-102.0,676.0,-228.0,-6.0
19:31:06.263000,-161.0,1.0,240.0,-432.0,335.0,-107.0,676.0,-228.0,-6.0
19:31:06.269000,-191.0,11.0,245.0,-432.0,335.0,-107.0,669.0,-240.0,-9.0
19:31:06.273000,-214.0,21.0,243.0,-450.0,272.0,-114.0,669.0,-240.0,-9.0
19:31:06.278000,-223.0,28.0,235.0,-450.0,272.0,-114.0,678.0,-237.0,12.0
19:31:06.283000,-216.0,30.0,231.0,-446.0,215.0,-119.0,678.0,-237.0,12.0
19:31:06.287000,-196.0,30.0,225.0,-432.0,157.0,-123.0,678.0,-237.0,12.0
19:31:06.292000,-163.0,23.0,217.0,-421.0,108.0,-128.0,672.0,-240.0,6.0
19:31:06.297000,-119.0,11.0,204.0,-417.0,70.0,-133.0,672.0,-240.0,6.0
19:31:06.302000,-73.0,-2.0,194.0,-416.0,46.0,-134.0,678.0,-243.0,3.0
19:31:06.306000,-28.0,-17.0,191.0,-416.0,37.0,-135.0,678.0,-243.0,3.0
19:31:06.310000,-28.0,-17.0,191.0,-420.0,48.0,-137.0,678.0,-243.0,3.0
19:31:06.316000,8.0,-30.0,196.0,-433.0,79.0,-138.0,676.0,-238.0,7.0
19:31:06.320000,32.0,-37.0,201.0,-451.0,120.0,-138.0,676.0,-238.0,7.0
19:31:06.325000,41.0,-40.0,211.0,-471.0,153.0,-137.0,669.0,-232.0,10.0
19:31:06.330000,40.0,-41.0,225.0,-488.0,165.0,-138.0,669.0,-232.0,10.0
19:31:06.334000,32.0,-36.0,245.0,-497.0,156.0,-138.0,669.0,-232.0,10.0
19:31:06.339000,18.0,-32.0,272.0,-500.0,147.0,-137.0,681.0,-237.0,3.0
19:31:06.344000,7.0,-31.0,298.0,-501.0,143.0,-139.0,681.0,-237.0,3.0
19:31:06.349000,-1.0,-32.0,322.0,-503.0,142.0,-138.0,681.0,-249.0,0.0
19:31:06.353000,-8.0,-33.0,340.0,-509.0,145.0,-136.0,681.0,-249.0,0.0
19:31:06.357000,-13.0,-35.0,354.0,-517.0,137.0,-133.0,681.0,-249.0,0.0
19:31:06.363000,-11.0,-42.0,368.0,-527.0,120.0,-131.0,682.0,-243.0,-4.0
19:31:06.367000,-10.0,-44.0,382.0,-544.0,109.0,-131.0,682.0,-243.0,-4.0
19:31:06.372000,-12.0,-48.0,392.0,-544.0,109.0,-131.0,687.0,-247.0,-3.0
19:31:06.377000,-20.0,-49.0,404.0,-562.0,110.0,-132.0,687.0,-247.0,-3.0
19:31:06.381000,-31.0,-50.0,416.0,-573.0,119.0,-136.0,687.0,-247.0,-3.0
19:31:06.386000,-44.0,-51.0,421.0,-574.0,128.0,-139.0,694.0,-264.0,-1.0
19:31:06.391000,-59.0,-56.0,417.0,-566.0,132.0,-143.0,694.0,-264.0,-1.0
19:31:06.396000,-72.0,-65.0,411.0,-550.0,126.0,-144.0,694.0,-262.0,6.0
19:31:06.400000,-80.0,-79.0,405.0,-521.0,110.0,-143.0,694.0,-262.0,6.0
19:31:06.404000,-84.0,-100.0,399.0,-484.0,90.0,-141.0,694.0,-262.0,6.0
19:31:06.410000,-85.0,-124.0,390.0,-447.0,81.0,-138.0,682.0,-261.0,-7.0
19:31:06.414000,-84.0,-150.0,379.0,-417.0,87.0,-135.0,682.0,-261.0,-7.0
19:31:06.419000,-83.0,-175.0,371.0,-398.0,99.0,-135.0,694.0,-256.0,13.0
19:31:06.424000,-83.0,-175.0,371.0,-388.0,106.0,-135.0,694.0,-256.0,13.0
19:31:06.428000,-80.0,-199.0,370.0,-396.0,110.0,-135.0,694.0,-256.0,13.0
19:31:06.433000,-81.0,-219.0,368.0,-422.0,117.0,-137.0,685.0,-271.0,6.0
19:31:06.438000,-84.0,-234.0,368.0,-450.0,115.0,-137.0,685.0,-271.0,6.0
19:31:06.443000,-88.0,-245.0,373.0,-474.0,100.0,-137.0,688.0,-274.0,-4.0
19:31:06.447000,-88.0,-254.0,379.0,-493.0,80.0,-136.0,688.0,-274.0,-4.0
19:31:06.451000,-78.0,-262.0,382.0,-512.0,74.0,-135.0,688.0,-274.0,-4.0
19:31:06.457000,-65.0,-267.0,375.0,-534.0,96.0,-131.0,684.0,-271.0,-7.0
19:31:06.461000,-56.0,-270.0,361.0,-550.0,129.0,-123.0,684.0,-271.0,-7.0
19:31:06.466000,-53.0,-271.0,354.0,-556.0,159.0,-119.0,664.0,-277.0,-3.0
19:31:06.471000,-53.0,-269.0,357.0,-552.0,182.0,-116.0,664.0,-277.0,-3.0
19:31:06.475000,-58.0,-263.0,369.0,-548.0,206.0,-111.0,664.0,-277.0,-3.0
19:31:06.480000,-69.0,-252.0,385.0,-543.0,227.0,-103.0,681.0,-277.0,-9.0
19:31:06.485000,-83.0,-239.0,408.0,-543.0,227.0,-103.0,681.0,-277.0,-9.0
19:31:06.490000,-96.0,-224.0,436.0,-536.0,235.0,-95.0,682.0,-286.0,-22.0
19:31:06.494000,-104.0,-209.0,462.0,-533.0,229.0,-89.0,682.0,-286.0,-22.0
19:31:06.498000,-106.0,-193.0,487.0,-539.0,214.0,-85.0,682.0,-286.0,-22.0
19:31:06.504000,-103.0,-177.0,513.0,-556.0,199.0,-82.0,676.0,-274.0,-18.0
19:31:06.508000,-99.0,-161.0,534.0,-584.0,192.0,-80.0,676.0,-274.0,-18.0
19:31:06.513000,-97.0,-143.0,555.0,-610.0,184.0,-79.0,681.0,-295.0,-22.0
19:31:06.518000,-92.0,-128.0,578.0,-623.0,163.0,-80.0,681.0,-295.0,-22.0
19:31:06.522000,-92.0,-128.0,578.0,-624.0,139.0,-82.0,681.0,-295.0,-22.0
19:31:06.527000,-75.0,-104.0,601.0,-622.0,130.0,-83.0,688.0,-291.0,-18.0
19:31:06.532000,-72.0,-95.0,593.0,-619.0,145.0,-83.0,688.0,-291.0,-18.0
19:31:06.537000,-72.0,-95.0,593.0,-613.0,172.0,-85.0,678.0,-294.0,-21.0
19:31:06.541000,-74.0,-84.0,581.0,-601.0,189.0,-88.0,678.0,-294.0,-21.0
19:31:06.545000,-77.0,-77.0,573.0,-586.0,187.0,-90.0,678.0,-294.0,-21.0
19:31:06.551000,-81.0,-72.0,569.0,-571.0,172.0,-92.0,670.0,-301.0,-25.0
19:31:06.555000,-84.0,-70.0,568.0,-560.0,156.0,-100.0,670.0,-301.0,-25.0
19:31:06.560000,-83.0,-70.0,564.0,-561.0,156.0,-110.0,669.0,-303.0,-27.0
19:31:06.565000,-87.0,-70.0,549.0,-572.0,168.0,-119.0,669.0,-303.0,-27.0
19:31:06.569000,-95.0,-71.0,531.0,-587.0,175.0,-129.0,669.0,-303.0,-27.0
19:31:06.574000,-109.0,-69.0,513.0,-610.0,173.0,-142.0,679.0,-319.0,-27.0
