hh:mm:ss.ms,gyroX[mdps],gyroY[mdps],gyroZ[mdps],accX[mg],accY[mg],accZ[mg],magX[mG],magY[mG],magZ[mG]
19:30:49.298000,49.0,48.0,-66.0,-1299.0,171.0,-220.0,598.0,-277.0,411.0
19:30:49.303000,72.0,53.0,-98.0,-1296.0,184.0,-242.0,582.0,-276.0,420.0
19:30:49.307000,84.0,76.0,-135.0,-1301.0,205.0,-260.0,582.0,-276.0,420.0
19:30:49.312000,84.0,76.0,-135.0,-1342.0,238.0,-274.0,582.0,-276.0,420.0
19:30:49.317000,74.0,120.0,-184.0,-1380.0,247.0,-276.0,588.0,-274.0,426.0
19:30:49.322000,74.0,120.0,-184.0,-1355.0,223.0,-268.0,588.0,-274.0,426.0
19:30:49.326000,66.0,126.0,-175.0,-1292.0,203.0,-257.0,588.0,-270.0,432.0
19:30:49.331000,40.0,150.0,-181.0,-1263.0,221.0,-249.0,588.0,-270.0,432.0
19:30:49.335000,38.0,154.0,-193.0,-1223.0,224.0,-241.0,588.0,-270.0,432.0
19:30:49.340000,51.0,142.0,-140.0,-1164.0,204.0,-235.0,583.0,-274.0,421.0
19:30:49.345000,17.0,156.0,-70.0,-1139.0,189.0,-248.0,583.0,-274.0,421.0
19:30:49.350000,5.0,154.0,-32.0,-1117.0,194.0,-239.0,588.0,-270.0,418.0
19:30:49.354000,0.0,156.0,21.0,-1144.0,214.0,-227.0,588.0,-270.0,418.0
19:30:49.359000,-21.0,173.0,-4.0,-1213.0,193.0,-245.0,588.0,-270.0,418.0
19:30:49.364000,-25.0,163.0,-76.0,-1217.0,106.0,-259.0,583.0,-270.0,417.0
19:30:49.369000,-35.0,170.0,-122.0,-1184.0,0.0,-270.0,583.0,-270.0,417.0
19:30:49.373000,-35.0,177.0,-179.0,-1184.0,0.0,-270.0,580.0,-279.0,421.0
19:30:49.378000,-9.0,170.0,-203.0,-1057.0,-9.0,-273.0,580.0,-279.0,421.0
19:30:49.382000,3.0,156.0,-177.0,-1057.0,53.0,-273.0,580.0,-279.0,421.0
19:30:49.387000,10.0,135.0,-172.0,-997.0,40.0,-288.0,573.0,-265.0,430.0
19:30:49.392000,37.0,119.0,-212.0,-969.0,109.0,-289.0,573.0,-265.0,430.0
19:30:49.397000,63.0,91.0,-220.0,-936.0,143.0,-289.0,568.0,-277.0,426.0
19:30:49.401000,72.0,70.0,-192.0,-923.0,144.0,-304.0,568.0,-277.0,426.0
19:30:49.406000,67.0,50.0,-227.0,-948.0,188.0,-301.0,568.0,-277.0,426.0
19:30:49.411000,68.0,28.0,-197.0,-962.0,185.0,-310.0,579.0,-262.0,417.0
19:30:49.415000,57.0,3.0,-92.0,-915.0,139.0,-313.0,579.0,-262.0,417.0
19:30:49.420000,64.0,-14.0,-53.0,-922.0,192.0,-308.0,579.0,-258.0,435.0
19:30:49.425000,4.0,-13.0,-85.0,-967.0,230.0,-310.0,579.0,-258.0,435.0
19:30:49.429000,4.0,-13.0,-85.0,-970.0,170.0,-312.0,579.0,-258.0,435.0
19:30:49.434000,-27.0,-25.0,-91.0,-935.0,171.0,-315.0,571.0,-267.0,418.0
19:30:49.439000,18.0,-70.0,-40.0,-918.0,268.0,-306.0,571.0,-267.0,418.0
19:30:49.444000,34.0,-105.0,-6.0,-903.0,266.0,-283.0,562.0,-264.0,421.0
19:30:49.448000,-120.0,-77.0,-35.0,-847.0,174.0,-279.0,562.0,-264.0,421.0
19:30:49.453000,-121.0,-102.0,-53.0,-870.0,133.0,-313.0,562.0,-264.0,421.0
19:30:49.458000,-49.0,-150.0,-72.0,-926.0,115.0,-320.0,570.0,-256.0,429.0
19:30:49.463000,-58.0,-160.0,-71.0,-957.0,124.0,-303.0,570.0,-256.0,429.0
19:30:49.467000,-77.0,-175.0,-51.0,-977.0,160.0,-303.0,562.0,-262.0,427.0
19:30:49.472000,-93.0,-179.0,-12.0,-973.0,158.0,-312.0,562.0,-262.0,427.0
19:30:49.476000,-112.0,-183.0,0.0,-986.0,162.0,-324.0,562.0,-262.0,427.0
19:30:49.481000,-62.0,-192.0,-43.0,-1000.0,187.0,-314.0,579.0,-271.0,418.0
19:30:49.486000,-77.0,-189.0,-126.0,-977.0,131.0,-301.0,579.0,-271.0,418.0
19:30:49.491000,-107.0,-170.0,-130.0,-977.0,131.0,-301.0,577.0,-264.0,426.0
19:30:49.495000,-77.0,-179.0,-66.0,-953.0,38.0,-304.0,577.0,-264.0,426.0
19:30:49.500000,-16.0,-196.0,-13.0,-1018.0,21.0,-309.0,577.0,-264.0,426.0
19:30:49.505000,-19.0,-182.0,-37.0,-1096.0,43.0,-308.0,576.0,-270.0,418.0
19:30:49.510000,-13.0,-170.0,-83.0,-1104.0,70.0,-299.0,576.0,-270.0,418.0
19:30:49.514000,-11.0,-166.0,-108.0,-1083.0,96.0,-292.0,571.0,-262.0,433.0
19:30:49.519000,13.0,-165.0,-105.0,-1025.0,102.0,-287.0,571.0,-262.0,433.0
19:30:49.523000,37.0,-168.0,-60.0,-955.0,108.0,-280.0,571.0,-262.0,433.0
19:30:49.528000,56.0,-170.0,-43.0,-935.0,117.0,-272.0,585.0,-274.0,421.0
19:30:49.533000,66.0,-169.0,-44.0,-984.0,120.0,-267.0,585.0,-274.0,421.0
19:30:49.538000,63.0,-158.0,-19.0,-1025.0,91.0,-253.0,579.0,-259.0,412.0
19:30:49.542000,63.0,-158.0,-19.0,-1034.0,73.0,-237.0,579.0,-259.0,412.0
19:30:49.546000,77.0,-158.0,7.0,-1058.0,77.0,-231.0,579.0,-259.0,412.0
19:30:49.552000,79.0,-148.0,11.0,-1072.0,81.0,-221.0,576.0,-256.0,417.0
19:30:49.557000,87.0,-142.0,7.0,-1047.0,86.0,-211.0,576.0,-256.0,417.0
19:30:49.561000,102.0,-133.0,-19.0,-1010.0,90.0,-205.0,580.0,-259.0,403.0
19:30:49.566000,107.0,-121.0,-63.0,-1002.0,106.0,-199.0,580.0,-259.0,403.0
19:30:49.570000,112.0,-105.0,-95.0,-1012.0,120.0,-195.0,580.0,-259.0,403.0
19:30:49.575000,112.0,-93.0,-136.0,-1018.0,148.0,-188.0,583.0,-259.0,415.0
19:30:49.580000,115.0,-89.0,-156.0,-1011.0,149.0,-182.0,583.0,-259.0,415.0
19:30:49.585000,99.0,-77.0,-113.0,-1009.0,164.0,-187.0,589.0,-256.0,414.0
19:30:49.589000,114.0,-67.0,-97.0,-1020.0,177.0,-186.0,589.0,-256.0,414.0
19:30:49.593000,86.0,-49.0,-102.0,-1023.0,133.0,-188.0,589.0,-256.0,414.0
19:30:49.599000,104.0,-37.0,-110.0,-1019.0,106.0,-201.0,562.0,-255.0,417.0
19:30:49.604000,133.0,-35.0,-71.0,-1019.0,106.0,-201.0,562.0,-255.0,417.0
19:30:49.608000,124.0,-23.0,-51.0,-1042.0,119.0,-200.0,580.0,-256.0,403.0
19:30:49.613000,114.0,-4.0,-98.0,-1085.0,158.0,-200.0,580.0,-256.0,403.0
19:30:49.617000,108.0,13.0,-137.0,-1102.0,203.0,-208.0,580.0,-256.0,403.0
19:30:49.622000,109.0,16.0,-156.0,-1061.0,249.0,-206.0,571.0,-258.0,409.0
19:30:49.627000,89.0,23.0,-157.0,-1012.0,278.0,-200.0,571.0,-258.0,409.0
19:30:49.632000,107.0,26.0,-133.0,-972.0,292.0,-202.0,586.0,-253.0,403.0
19:30:49.636000,102.0,30.0,-112.0,-961.0,302.0,-203.0,586.0,-253.0,403.0
19:30:49.644000,71.0,40.0,-94.0,-1023.0,189.0,-191.0,580.0,-252.0,414.0
19:30:49.646000,60.0,44.0,-111.0,-1023.0,189.0,-191.0,580.0,-252.0,414.0
19:30:49.650000,60.0,44.0,-111.0,-1062.0,170.0,-201.0,580.0,-252.0,414.0
19:30:49.655000,67.0,44.0,-137.0,-1054.0,206.0,-204.0,580.0,-255.0,400.0
19:30:49.660000,66.0,49.0,-154.0,-1038.0,227.0,-207.0,580.0,-255.0,400.0
19:30:49.665000,50.0,58.0,-164.0,-1023.0,214.0,-210.0,580.0,-256.0,397.0
19:30:49.669000,45.0,63.0,-175.0,-1020.0,191.0,-217.0,580.0,-256.0,397.0
19:30:49.673000,28.0,71.0,-181.0,-1033.0,191.0,-221.0,580.0,-256.0,397.0
19:30:49.679000,10.0,81.0,-204.0,-1048.0,237.0,-223.0,576.0,-259.0,415.0
19:30:49.683000,-1.0,90.0,-252.0,-1051.0,268.0,-221.0,576.0,-259.0,415.0
19:30:49.687000,-16.0,100.0,-270.0,-1048.0,262.0,-224.0,555.0,-250.0,417.0
19:30:49.693000,-18.0,112.0,-275.0,-1064.0,240.0,-229.0,555.0,-250.0,417.0
19:30:49.697000,-32.0,123.0,-288.0,-1071.0,228.0,-233.0,555.0,-250.0,417.0
19:30:49.702000,-31.0,130.0,-305.0,-1065.0,241.0,-233.0,573.0,-252.0,411.0
19:30:49.707000,-39.0,133.0,-326.0,-1043.0,257.0,-226.0,573.0,-252.0,411.0
19:30:49.712000,-39.0,132.0,-350.0,-1043.0,257.0,-226.0,577.0,-247.0,412.0
19:30:49.716000,-35.0,134.0,-354.0,-1008.0,249.0,-224.0,577.0,-247.0,412.0
19:30:49.720000,-34.0,137.0,-345.0,-993.0,227.0,-224.0,577.0,-247.0,412.0
19:30:49.726000,-30.0,141.0,-338.0,-997.0,218.0,-222.0,571.0,-250.0,405.0
19:30:49.730000,-23.0,147.0,-348.0,-1006.0,245.0,-221.0,571.0,-250.0,405.0
19:30:49.735000,-11.0,153.0,-354.0,-1006.0,245.0,-221.0,573.0,-249.0,414.0
19:30:49.740000,-8.0,161.0,-354.0,-1020.0,269.0,-227.0,573.0,-249.0,414.0
19:30:49.744000,-8.0,171.0,-365.0,-1043.0,292.0,-233.0,558.0,-235.0,412.0
19:30:49.749000,-21.0,190.0,-366.0,-1067.0,310.0,-241.0,558.0,-235.0,412.0
19:30:49.753000,-21.0,190.0,-366.0,-1080.0,335.0,-249.0,558.0,-235.0,412.0
19:30:49.759000,-24.0,230.0,-366.0,-1100.0,372.0,-260.0,567.0,-247.0,411.0
19:30:49.763000,-24.0,230.0,-366.0,-1134.0,391.0,-266.0,567.0,-247.0,411.0
19:30:49.768000,-21.0,252.0,-375.0,-1144.0,377.0,-265.0,559.0,-238.0,423.0
19:30:49.772000,-16.0,273.0,-378.0,-1134.0,344.0,-265.0,559.0,-238.0,423.0
19:30:49.777000,-9.0,288.0,-365.0,-1107.0,308.0,-264.0,559.0,-238.0,423.0
19:30:49.782000,4.0,296.0,-345.0,-1081.0,283.0,-267.0,555.0,-237.0,418.0
19:30:49.787000,26.0,296.0,-326.0,-1123.0,296.0,-264.0,555.0,-237.0,418.0
19:30:49.791000,55.0,298.0,-328.0,-1141.0,282.0,-264.0,558.0,-229.0,430.0
19:30:49.796000,35.0,319.0,-317.0,-1088.0,249.0,-264.0,558.0,-229.0,430.0
19:30:49.800000,51.0,305.0,-315.0,-1059.0,236.0,-259.0,558.0,-229.0,430.0
19:30:49.806000,53.0,296.0,-292.0,-1049.0,233.0,-272.0,559.0,-240.0,415.0
19:30:49.810000,73.0,289.0,-303.0,-1040.0,236.0,-274.0,559.0,-240.0,415.0
19:30:49.815000,95.0,291.0,-331.0,-1040.0,236.0,-274.0,565.0,-228.0,423.0
19:30:49.820000,119.0,290.0,-342.0,-997.0,259.0,-256.0,565.0,-228.0,423.0
19:30:49.824000,122.0,289.0,-371.0,-997.0,259.0,-256.0,565.0,-228.0,423.0
19:30:49.829000,140.0,284.0,-417.0,-967.0,295.0,-256.0,550.0,-228.0,432.0
19:30:49.834000,147.0,282.0,-471.0,-938.0,319.0,-258.0,550.0,-228.0,432.0
19:30:49.838000,155.0,272.0,-522.0,-921.0,314.0,-257.0,549.0,-220.0,432.0
19:30:49.843000,172.0,263.0,-571.0,-913.0,304.0,-264.0,549.0,-220.0,432.0
19:30:49.847000,174.0,261.0,-620.0,-916.0,326.0,-269.0,549.0,-220.0,432.0
19:30:49.853000,176.0,257.0,-646.0,-929.0,371.0,-277.0,549.0,-217.0,432.0
19:30:49.857000,170.0,253.0,-653.0,-935.0,420.0,-290.0,549.0,-217.0,432.0
19:30:49.861000,170.0,253.0,-653.0,-930.0,462.0,-298.0,540.0,-214.0,433.0
19:30:49.867000,153.0,250.0,-641.0,-914.0,484.0,-300.0,540.0,-214.0,433.0
19:30:49.871000,153.0,250.0,-641.0,-906.0,490.0,-303.0,540.0,-214.0,433.0
19:30:49.876000,137.0,254.0,-605.0,-919.0,501.0,-310.0,546.0,-217.0,432.0
19:30:49.881000,137.0,251.0,-565.0,-940.0,518.0,-315.0,546.0,-217.0,432.0
19:30:49.885000,142.0,242.0,-538.0,-947.0,526.0,-320.0,528.0,-214.0,439.0
19:30:49.890000,149.0,238.0,-517.0,-942.0,525.0,-330.0,528.0,-214.0,439.0
19:30:49.894000,153.0,233.0,-508.0,-947.0,548.0,-339.0,528.0,-214.0,439.0
19:30:49.900000,160.0,221.0,-527.0,-957.0,584.0,-345.0,532.0,-208.0,442.0
19:30:49.904000,161.0,214.0,-532.0,-951.0,610.0,-348.0,532.0,-208.0,442.0
19:30:49.908000,151.0,212.0,-531.0,-943.0,640.0,-352.0,531.0,-202.0,451.0
19:30:49.914000,145.0,207.0,-529.0,-929.0,654.0,-353.0,531.0,-202.0,451.0
19:30:49.918000,129.0,197.0,-511.0,-924.0,643.0,-352.0,531.0,-202.0,451.0
19:30:49.923000,114.0,186.0,-488.0,-933.0,636.0,-356.0,528.0,-211.0,436.0
19:30:49.928000,112.0,179.0,-487.0,-942.0,649.0,-357.0,528.0,-211.0,436.0
19:30:49.932000,107.0,171.0,-499.0,-942.0,649.0,-357.0,522.0,-189.0,442.0
19:30:49.937000,96.0,161.0,-510.0,-954.0,656.0,-354.0,522.0,-189.0,442.0
19:30:49.941000,92.0,157.0,-513.0,-957.0,630.0,-353.0,522.0,-189.0,442.0
19:30:49.947000,114.0,147.0,-515.0,-951.0,617.0,-357.0,520.0,-198.0,444.0
19:30:49.951000,118.0,135.0,-506.0,-941.0,576.0,-353.0,520.0,-198.0,444.0
19:30:49.956000,126.0,121.0,-501.0,-938.0,576.0,-346.0,517.0,-196.0,435.0
19:30:49.961000,144.0,109.0,-488.0,-952.0,541.0,-347.0,517.0,-196.0,435.0
19:30:49.965000,144.0,109.0,-488.0,-999.0,542.0,-345.0,517.0,-196.0,435.0
19:30:49.970000,163.0,112.0,-567.0,-1089.0,578.0,-346.0,516.0,-189.0,439.0
19:30:49.975000,170.0,119.0,-525.0,-1059.0,573.0,-349.0,516.0,-189.0,439.0
19:30:49.979000,170.0,119.0,-525.0,-969.0,540.0,-332.0,516.0,-187.0,445.0
19:30:49.984000,154.0,122.0,-425.0,-971.0,577.0,-328.0,516.0,-187.0,445.0
19:30:49.988000,159.0,128.0,-407.0,-985.0,635.0,-336.0,516.0,-187.0,445.0
19:30:49.993000,161.0,134.0,-437.0,-975.0,622.0,-332.0,526.0,-183.0,447.0
19:30:49.998000,161.0,142.0,-413.0,-963.0,594.0,-334.0,526.0,-183.0,447.0
19:30:50.003000,181.0,139.0,-383.0,-964.0,603.0,-347.0,492.0,-178.0,462.0
19:30:50.008000,208.0,125.0,-399.0,-920.0,579.0,-379.0,492.0,-178.0,462.0
19:30:50.012000,209.0,136.0,-458.0,-874.0,594.0,-397.0,492.0,-178.0,462.0
19:30:50.017000,183.0,149.0,-536.0,-874.0,669.0,-389.0,498.0,-186.0,447.0
19:30:50.022000,161.0,153.0,-564.0,-892.0,698.0,-385.0,498.0,-186.0,447.0
19:30:50.026000,154.0,148.0,-486.0,-892.0,690.0,-384.0,499.0,-174.0,442.0
19:30:50.031000,156.0,139.0,-411.0,-1025.0,670.0,-378.0,499.0,-174.0,442.0
19:30:50.035000,158.0,132.0,-375.0,-1036.0,659.0,-375.0,499.0,-174.0,442.0
19:30:50.041000,172.0,127.0,-342.0,-978.0,627.0,-369.0,492.0,-166.0,439.0
19:30:50.045000,197.0,114.0,-294.0,-978.0,627.0,-369.0,492.0,-166.0,439.0
19:30:50.050000,222.0,94.0,-249.0,-908.0,575.0,-354.0,493.0,-171.0,453.0
19:30:50.055000,250.0,69.0,-241.0,-874.0,568.0,-347.0,493.0,-171.0,453.0
19:30:50.059000,262.0,47.0,-256.0,-869.0,616.0,-341.0,493.0,-171.0,453.0
19:30:50.064000,262.0,27.0,-219.0,-868.0,665.0,-335.0,502.0,-169.0,447.0
19:30:50.069000,245.0,10.0,-161.0,-878.0,700.0,-329.0,502.0,-169.0,447.0
19:30:50.073000,228.0,-2.0,-140.0,-919.0,743.0,-326.0,492.0,-159.0,438.0
19:30:50.078000,193.0,-17.0,-109.0,-952.0,749.0,-316.0,492.0,-159.0,438.0
19:30:50.082000,193.0,-17.0,-109.0,-945.0,701.0,-304.0,492.0,-159.0,438.0
19:30:50.088000,132.0,-46.0,-21.0,-906.0,665.0,-294.0,492.0,-162.0,439.0
19:30:50.092000,132.0,-46.0,-21.0,-853.0,653.0,-283.0,492.0,-162.0,439.0
19:30:50.097000,121.0,-65.0,36.0,-805.0,633.0,-269.0,489.0,-156.0,459.0
19:30:50.102000,98.0,-76.0,102.0,-776.0,596.0,-256.0,489.0,-156.0,459.0
19:30:50.106000,81.0,-90.0,159.0,-765.0,565.0,-248.0,489.0,-156.0,459.0
19:30:50.111000,79.0,-107.0,183.0,-747.0,528.0,-242.0,499.0,-157.0,439.0
19:30:50.116000,74.0,-121.0,214.0,-718.0,468.0,-236.0,499.0,-157.0,439.0
19:30:50.120000,77.0,-136.0,263.0,-700.0,439.0,-233.0,498.0,-162.0,442.0
19:30:50.125000,89.0,-154.0,270.0,-692.0,452.0,-232.0,498.0,-162.0,442.0
19:30:50.129000,92.0,-170.0,252.0,-677.0,465.0,-232.0,498.0,-162.0,442.0
19:30:50.135000,91.0,-184.0,235.0,-660.0,467.0,-232.0,508.0,-166.0,448.0
19:30:50.139000,85.0,-198.0,228.0,-655.0,477.0,-234.0,508.0,-166.0,448.0
19:30:50.144000,83.0,-212.0,219.0,-655.0,477.0,-234.0,505.0,-157.0,441.0
19:30:50.149000,72.0,-227.0,215.0,-674.0,469.0,-230.0,505.0,-157.0,441.0
19:30:50.153000,62.0,-244.0,214.0,-674.0,469.0,-230.0,505.0,-157.0,441.0
19:30:50.158000,56.0,-261.0,221.0,-660.0,464.0,-229.0,505.0,-156.0,433.0
19:30:50.163000,39.0,-277.0,242.0,-637.0,467.0,-227.0,505.0,-156.0,433.0
19:30:50.167000,17.0,-289.0,270.0,-619.0,471.0,-221.0,516.0,-160.0,435.0
19:30:50.172000,-6.0,-297.0,287.0,-608.0,476.0,-218.0,516.0,-160.0,435.0
19:30:50.179000,-39.0,-298.0,304.0,-590.0,458.0,-212.0,511.0,-162.0,442.0
19:30:50.182000,-70.0,-296.0,331.0,-590.0,458.0,-212.0,511.0,-162.0,442.0
19:30:50.186000,-70.0,-296.0,331.0,-580.0,438.0,-211.0,511.0,-162.0,442.0
19:30:50.191000,-136.0,-282.0,366.0,-572.0,412.0,-206.0,505.0,-163.0,445.0
19:30:50.196000,-160.0,-272.0,371.0,-559.0,376.0,-202.0,505.0,-163.0,445.0
19:30:50.200000,-160.0,-272.0,371.0,-542.0,330.0,-199.0,519.0,-169.0,444.0
19:30:50.205000,-179.0,-259.0,372.0,-530.0,289.0,-199.0,519.0,-169.0,444.0
19:30:50.209000,-186.0,-246.0,360.0,-528.0,258.0,-199.0,519.0,-169.0,444.0
19:30:50.214000,-193.0,-231.0,335.0,-537.0,236.0,-201.0,528.0,-168.0,436.0
19:30:50.219000,-188.0,-215.0,289.0,-550.0,225.0,-203.0,528.0,-168.0,436.0
19:30:50.224000,-180.0,-200.0,240.0,-557.0,214.0,-201.0,529.0,-175.0,462.0
19:30:50.229000,-168.0,-188.0,207.0,-560.0,208.0,-199.0,529.0,-175.0,462.0
19:30:50.233000,-152.0,-180.0,194.0,-562.0,208.0,-193.0,529.0,-175.0,462.0
19:30:50.238000,-140.0,-175.0,189.0,-549.0,212.0,-182.0,528.0,-184.0,438.0
19:30:50.243000,-126.0,-174.0,186.0,-515.0,216.0,-170.0,528.0,-184.0,438.0
19:30:50.247000,-110.0,-181.0,200.0,-515.0,216.0,-170.0,538.0,-172.0,444.0
19:30:50.252000,-98.0,-191.0,221.0,-441.0,252.0,-143.0,538.0,-172.0,444.0
19:30:50.256000,-91.0,-203.0,244.0,-419.0,273.0,-127.0,538.0,-172.0,444.0
19:30:50.261000,-88.0,-214.0,266.0,-419.0,273.0,-127.0,534.0,-183.0,436.0
19:30:50.266000,-87.0,-221.0,286.0,-403.0,261.0,-103.0,534.0,-183.0,436.0
19:30:50.271000,-81.0,-228.0,299.0,-403.0,261.0,-103.0,529.0,-184.0,441.0
19:30:50.276000,-71.0,-229.0,302.0,-415.0,234.0,-99.0,529.0,-184.0,441.0
19:30:50.280000,-63.0,-226.0,297.0,-441.0,216.0,-98.0,529.0,-184.0,441.0
19:30:50.285000,-59.0,-215.0,284.0,-476.0,216.0,-99.0,540.0,-187.0,435.0
19:30:50.290000,-58.0,-197.0,271.0,-509.0,224.0,-101.0,540.0,-187.0,435.0
19:30:50.294000,-58.0,-173.0,263.0,-529.0,220.0,-104.0,546.0,-178.0,441.0
19:30:50.299000,-58.0,-145.0,251.0,-538.0,207.0,-108.0,546.0,-178.0,441.0
19:30:50.303000,-58.0,-145.0,251.0,-539.0,193.0,-113.0,546.0,-178.0,441.0
19:30:50.308000,-58.0,-114.0,236.0,-531.0,185.0,-120.0,541.0,-190.0,435.0
19:30:50.313000,-58.0,-84.0,222.0,-519.0,181.0,-128.0,541.0,-190.0,435.0
19:30:50.318000,-60.0,-56.0,208.0,-503.0,179.0,-137.0,529.0,-187.0,441.0
19:30:50.323000,-68.0,-29.0,201.0,-484.0,183.0,-143.0,529.0,-187.0,441.0
19:30:50.327000,-79.0,-8.0,201.0,-460.0,188.0,-147.0,529.0,-187.0,441.0
19:30:50.332000,-90.0,8.0,205.0,-432.0,191.0,-151.0,544.0,-193.0,435.0
19:30:50.337000,-98.0,18.0,205.0,-409.0,194.0,-155.0,544.0,-193.0,435.0
19:30:50.341000,-105.0,23.0,197.0,-393.0,193.0,-160.0,555.0,-189.0,435.0
19:30:50.346000,-109.0,23.0,188.0,-382.0,184.0,-167.0,555.0,-189.0,435.0
19:30:50.350000,-110.0,16.0,184.0,-374.0,166.0,-173.0,555.0,-189.0,435.0
19:30:50.355000,-107.0,7.0,182.0,-370.0,145.0,-177.0,550.0,-195.0,435.0
19:30:50.360000,-101.0,-5.0,182.0,-369.0,124.0,-180.0,550.0,-195.0,435.0
19:30:50.365000,-91.0,-18.0,182.0,-369.0,124.0,-180.0,550.0,-204.0,435.0
19:30:50.370000,-79.0,-32.0,179.0,-370.0,110.0,-181.0,550.0,-204.0,435.0
19:30:50.374000,-63.0,-47.0,177.0,-375.0,103.0,-179.0,550.0,-204.0,435.0
19:30:50.379000,-48.0,-58.0,169.0,-390.0,106.0,-176.0,555.0,-211.0,435.0
19:30:50.384000,-37.0,-70.0,165.0,-416.0,117.0,-172.0,555.0,-211.0,435.0
19:30:50.388000,-29.0,-79.0,168.0,-445.0,125.0,-165.0,550.0,-205.0,427.0
19:30:50.393000,-23.0,-86.0,176.0,-469.0,130.0,-154.0,550.0,-205.0,427.0
19:30:50.397000,-16.0,-91.0,194.0,-487.0,129.0,-143.0,550.0,-205.0,427.0
19:30:50.402000,-9.0,-95.0,212.0,-497.0,124.0,-133.0,550.0,-199.0,445.0
19:30:50.407000,-1.0,-99.0,225.0,-502.0,117.0,-124.0,550.0,-199.0,445.0
19:30:50.412000,7.0,-102.0,233.0,-504.0,109.0,-116.0,546.0,-201.0,438.0
19:30:50.417000,14.0,-102.0,235.0,-507.0,102.0,-110.0,546.0,-201.0,438.0
19:30:50.421000,14.0,-106.0,235.0,-513.0,99.0,-104.0,546.0,-201.0,438.0
19:30:50.426000,20.0,-109.0,234.0,-523.0,96.0,-99.0,555.0,-207.0,432.0
19:30:50.431000,26.0,-109.0,228.0,-535.0,87.0,-92.0,555.0,-207.0,432.0
19:30:50.435000,31.0,-107.0,220.0,-550.0,73.0,-86.0,558.0,-210.0,435.0
19:30:50.440000,36.0,-105.0,204.0,-565.0,58.0,-82.0,558.0,-210.0,435.0
19:30:50.444000,44.0,-106.0,182.0,-579.0,52.0,-79.0,558.0,-210.0,435.0
19:30:50.449000,53.0,-107.0,149.0,-594.0,66.0,-77.0,549.0,-216.0,427.0
19:30:50.454000,59.0,-107.0,113.0,-603.0,91.0,-75.0,549.0,-216.0,427.0
19:30:50.459000,60.0,-106.0,81.0,-604.0,116.0,-72.0,550.0,-205.0,436.0
19:30:50.464000,57.0,-105.0,56.0,-593.0,134.0,-70.0,550.0,-205.0,436.0
19:30:50.468000,52.0,-102.0,37.0,-571.0,142.0,-70.0,550.0,-205.0,436.0
19:30:50.473000,44.0,-100.0,24.0,-545.0,144.0,-71.0,559.0,-213.0,433.0
19:30:50.478000,37.0,-102.0,15.0,-527.0,149.0,-73.0,559.0,-213.0,433.0
19:30:50.482000,29.0,-104.0,9.0,-527.0,149.0,-73.0,555.0,-213.0,429.0
19:30:50.487000,16.0,-107.0,2.0,-523.0,164.0,-75.0,555.0,-213.0,429.0
19:30:50.491000,0.0,-107.0,-6.0,-527.0,186.0,-79.0,555.0,-213.0,429.0
19:30:50.496000,-17.0,-109.0,-13.0,-536.0,206.0,-82.0,555.0,-210.0,427.0
19:30:50.501000,-35.0,-107.0,-21.0,-552.0,222.0,-86.0,555.0,-210.0,427.0
19:30:50.506000,-53.0,-105.0,-30.0,-567.0,227.0,-91.0,565.0,-202.0,429.0
19:30:50.511000,-63.0,-105.0,-34.0,-577.0,218.0,-96.0,565.0,-202.0,429.0
19:30:50.515000,-63.0,-105.0,-34.0,-583.0,205.0,-99.0,565.0,-202.0,429.0
19:30:50.520000,-58.0,-105.0,-37.0,-590.0,199.0,-102.0,558.0,-204.0,421.0
19:30:50.525000,-51.0,-102.0,-40.0,-604.0,213.0,-107.0,558.0,-204.0,421.0
19:30:50.529000,-51.0,-102.0,-40.0,-621.0,240.0,-107.0,564.0,-213.0,426.0
19:30:50.534000,-51.0,-97.0,-39.0,-628.0,255.0,-106.0,564.0,-213.0,426.0
19:30:50.538000,-56.0,-91.0,-25.0,-621.0,247.0,-106.0,564.0,-213.0,426.0
19:30:50.543000,-58.0,-87.0,-4.0,-612.0,235.0,-107.0,559.0,-201.0,421.0
19:30:50.548000,-60.0,-83.0,7.0,-604.0,230.0,-111.0,559.0,-201.0,421.0
19:30:50.553000,-62.0,-79.0,18.0,-595.0,225.0,-119.0,564.0,-207.0,426.0
19:30:50.558000,-63.0,-74.0,32.0,-591.0,220.0,-131.0,564.0,-207.0,426.0
19:30:50.562000,-60.0,-72.0,43.0,-596.0,227.0,-143.0,564.0,-207.0,426.0
19:30:50.567000,-58.0,-70.0,49.0,-604.0,242.0,-152.0,564.0,-213.0,418.0
19:30:50.572000,-58.0,-69.0,51.0,-601.0,245.0,-157.0,564.0,-213.0,418.0
19:30:50.576000,-54.0,-69.0,61.0,-601.0,228.0,-164.0,564.0,-198.0,424.0
19:30:50.581000,-48.0,-72.0,82.0,-590.0,212.0,-169.0,564.0,-198.0,424.0
19:30:50.588000,-38.0,-77.0,103.0,-600.0,211.0,-174.0,561.0,-211.0,418.0
19:30:50.590000,-30.0,-80.0,121.0,-600.0,211.0,-174.0,561.0,-211.0,418.0
19:30:50.595000,-24.0,-82.0,135.0,-616.0,225.0,-181.0,561.0,-211.0,418.0
19:30:50.600000,-23.0,-83.0,143.0,-636.0,248.0,-187.0,571.0,-210.0,418.0
19:30:50.605000,-30.0,-81.0,153.0,-653.0,271.0,-191.0,571.0,-210.0,418.0
19:30:50.609000,-38.0,-77.0,163.0,-667.0,287.0,-192.0,565.0,-219.0,420.0
19:30:50.614000,-46.0,-70.0,168.0,-682.0,297.0,-192.0,565.0,-219.0,420.0
19:30:50.618000,-53.0,-65.0,172.0,-700.0,299.0,-192.0,565.0,-219.0,420.0
19:30:50.623000,-58.0,-59.0,180.0,-722.0,298.0,-191.0,568.0,-210.0,415.0
19:30:50.628000,-63.0,-50.0,189.0,-748.0,301.0,-189.0,568.0,-210.0,415.0
19:30:50.633000,-74.0,-41.0,202.0,-775.0,316.0,-186.0,561.0,-214.0,430.0
19:30:50.637000,-74.0,-41.0,202.0,-798.0,339.0,-184.0,561.0,-214.0,430.0
19:30:50.642000,-88.0,-31.0,221.0,-813.0,361.0,-181.0,561.0,-214.0,430.0
19:30:50.647000,-102.0,-23.0,241.0,-819.0,375.0,-174.0,558.0,-225.0,427.0
19:30:50.652000,-117.0,-17.0,263.0,-819.0,374.0,-167.0,558.0,-225.0,427.0
19:30:50.656000,-131.0,-14.0,287.0,-828.0,355.0,-160.0,567.0,-220.0,412.0
19:30:50.661000,-140.0,-14.0,312.0,-855.0,331.0,-152.0,567.0,-220.0,412.0
19:30:50.665000,-147.0,-21.0,338.0,-880.0,320.0,-144.0,567.0,-220.0,412.0
19:30:50.670000,-151.0,-30.0,361.0,-892.0,329.0,-134.0,559.0,-229.0,417.0
19:30:50.675000,-157.0,-33.0,372.0,-888.0,347.0,-125.0,559.0,-229.0,417.0
19:30:50.680000,-166.0,-34.0,380.0,-872.0,359.0,-119.0,576.0,-223.0,418.0
19:30:50.684000,-175.0,-31.0,383.0,-853.0,361.0,-118.0,576.0,-223.0,418.0
19:30:50.689000,-180.0,-32.0,378.0,-830.0,354.0,-121.0,576.0,-223.0,418.0
19:30:50.694000,-184.0,-37.0,370.0,-807.0,347.0,-134.0,565.0,-228.0,423.0
19:30:50.699000,-184.0,-45.0,368.0,-807.0,347.0,-134.0,565.0,-228.0,423.0
19:30:50.703000,-179.0,-52.0,354.0,-806.0,367.0,-155.0,567.0,-231.0,412.0
19:30:50.708000,-183.0,-52.0,329.0,-829.0,415.0,-173.0,567.0,-231.0,412.0
19:30:50.712000,-185.0,-49.0,313.0,-855.0,461.0,-193.0,567.0,-231.0,412.0
19:30:50.717000,-191.0,-42.0,290.0,-877.0,510.0,-216.0,576.0,-240.0,414.0
19:30:50.722000,-195.0,-30.0,259.0,-889.0,575.0,-242.0,576.0,-240.0,414.0
19:30:50.727000,-191.0,-23.0,220.0,-884.0,648.0,-272.0,559.0,-243.0,427.0
19:30:50.731000,-182.0,-25.0,188.0,-859.0,707.0,-297.0,559.0,-243.0,427.0
19:30:50.736000,-182.0,-25.0,188.0,-822.0,739.0,-316.0,559.0,-243.0,427.0
19:30:50.741000,-144.0,-49.0,123.0,-804.0,763.0,-331.0,564.0,-243.0,412.0
19:30:50.746000,-144.0,-49.0,123.0,-806.0,792.0,-342.0,564.0,-243.0,412.0
19:30:50.750000,-120.0,-68.0,102.0,-812.0,837.0,-347.0,567.0,-250.0,411.0
19:30:50.755000,-102.0,-87.0,97.0,-810.0,908.0,-342.0,567.0,-250.0,411.0
19:30:50.759000,-100.0,-100.0,106.0,-794.0,992.0,-338.0,567.0,-250.0,411.0
19:30:50.764000,-109.0,-103.0,116.0,-779.0,1062.0,-329.0,567.0,-246.0,430.0
19:30:50.769000,-128.0,-102.0,126.0,-772.0,1086.0,-309.0,567.0,-246.0,430.0
19:30:50.774000,-147.0,-111.0,149.0,-744.0,1061.0,-293.0,562.0,-249.0,415.0
19:30:50.778000,-166.0,-121.0,198.0,-703.0,1024.0,-279.0,562.0,-249.0,415.0
19:30:50.783000,-176.0,-118.0,247.0,-703.0,995.0,-274.0,562.0,-249.0,415.0
19:30:50.788000,-169.0,-112.0,258.0,-743.0,953.0,-264.0,565.0,-243.0,409.0
19:30:50.793000,-154.0,-123.0,241.0,-755.0,920.0,-249.0,565.0,-243.0,409.0
19:30:50.797000,-139.0,-131.0,232.0,-755.0,920.0,-249.0,564.0,-252.0,414.0
19:30:50.802000,-123.0,-126.0,224.0,-811.0,988.0,-245.0,564.0,-252.0,414.0
19:30:50.806000,-109.0,-113.0,195.0,-877.0,999.0,-252.0,564.0,-252.0,414.0
19:30:50.811000,-101.0,-86.0,168.0,-971.0,960.0,-271.0,574.0,-261.0,409.0
19:30:50.816000,-89.0,-65.0,154.0,-971.0,960.0,-271.0,574.0,-261.0,409.0
19:30:50.821000,-84.0,-58.0,168.0,-1081.0,925.0,-275.0,556.0,-258.0,409.0
19:30:50.825000,-109.0,-21.0,252.0,-1100.0,905.0,-268.0,556.0,-258.0,409.0
19:30:50.830000,-159.0,-38.0,522.0,-1312.0,821.0,-242.0,556.0,-258.0,409.0
19:30:50.835000,-212.0,60.0,171.0,-1967.0,871.0,-291.0,580.0,-255.0,406.0
19:30:50.840000,-137.0,144.0,-55.0,-1872.0,928.0,-342.0,580.0,-255.0,406.0
19:30:50.844000,-135.0,184.0,223.0,-820.0,815.0,-274.0,576.0,-267.0,412.0
19:30:50.849000,-114.0,160.0,304.0,-319.0,860.0,-245.0,576.0,-267.0,412.0
19:30:50.853000,-114.0,160.0,304.0,-585.0,928.0,-250.0,576.0,-267.0,412.0
19:30:50.858000,-84.0,154.0,95.0,-1032.0,831.0,-272.0,570.0,-264.0,430.0
19:30:50.863000,-61.0,165.0,-23.0,-1271.0,709.0,-301.0,570.0,-264.0,430.0
19:30:50.868000,-58.0,172.0,15.0,-1273.0,674.0,-318.0,568.0,-261.0,409.0
19:30:50.872000,-44.0,168.0,130.0,-1316.0,717.0,-348.0,568.0,-261.0,409.0
19:30:50.877000,-53.0,184.0,200.0,-1361.0,786.0,-365.0,568.0,-261.0,409.0
19:30:50.882000,-65.0,194.0,142.0,-1346.0,818.0,-377.0,559.0,-268.0,406.0
19:30:50.887000,-86.0,216.0,78.0,-1313.0,823.0,-397.0,559.0,-268.0,406.0
19:30:50.891000,-99.0,239.0,9.0,-1214.0,785.0,-401.0,577.0,-265.0,411.0
19:30:50.896000,-109.0,261.0,29.0,-1142.0,678.0,-390.0,577.0,-265.0,411.0
19:30:50.900000,-126.0,277.0,70.0,-1102.0,604.0,-392.0,570.0,-268.0,406.0
19:30:50.905000,-126.0,291.0,126.0,-994.0,532.0,-381.0,570.0,-268.0,406.0
19:30:50.909000,-149.0,298.0,149.0,-1288.0,534.0,-390.0,570.0,-268.0,406.0
19:30:50.915000,-99.0,290.0,-85.0,-1281.0,482.0,-389.0,558.0,-268.0,420.0
19:30:50.919000,-92.0,285.0,55.0,-1281.0,482.0,-389.0,558.0,-268.0,420.0
19:30:50.924000,-116.0,300.0,135.0,-860.0,400.0,-375.0,564.0,-270.0,409.0
19:30:50.929000,-144.0,322.0,5.0,-890.0,480.0,-388.0,564.0,-270.0,409.0
19:30:50.933000,-138.0,306.0,-70.0,-987.0,482.0,-385.0,564.0,-270.0,409.0
19:30:50.938000,-102.0,260.0,0.0,-977.0,316.0,-379.0,561.0,-277.0,414.0
19:30:50.943000,-65.0,231.0,51.0,-965.0,195.0,-383.0,561.0,-277.0,414.0
19:30:50.948000,-73.0,219.0,89.0,-961.0,215.0,-381.0,549.0,-277.0,433.0
19:30:50.952000,-100.0,196.0,138.0,-916.0,207.0,-342.0,549.0,-277.0,433.0
19:30:50.956000,-100.0,196.0,138.0,-955.0,137.0,-345.0,549.0,-277.0,433.0
19:30:50.962000,-61.0,152.0,129.0,-1050.0,177.0,-373.0,559.0,-280.0,417.0
19:30:50.966000,-61.0,152.0,129.0,-1035.0,236.0,-356.0,559.0,-280.0,417.0
19:30:50.971000,-73.0,140.0,170.0,-1004.0,221.0,-343.0,564.0,-276.0,414.0
19:30:50.976000,-69.0,129.0,166.0,-1038.0,255.0,-338.0,564.0,-276.0,414.0
19:30:50.980000,-65.0,114.0,124.0,-1050.0,240.0,-330.0,564.0,-276.0,414.0
19:30:50.985000,-73.0,113.0,107.0,-1059.0,188.0,-325.0,553.0,-273.0,415.0
19:30:50.990000,-79.0,113.0,74.0,-1091.0,187.0,-329.0,553.0,-273.0,415.0
19:30:50.995000,-69.0,105.0,19.0,-1105.0,200.0,-340.0,549.0,-279.0,418.0
19:30:50.999000,-41.0,93.0,-28.0,-1118.0,221.0,-350.0,549.0,-279.0,418.0
19:30:51.003000,-18.0,86.0,-61.0,-1145.0,257.0,-361.0,549.0,-279.0,418.0
19:30:51.009000,-4.0,77.0,-86.0,-1166.0,303.0,-376.0,555.0,-279.0,424.0
19:30:51.013000,7.0,72.0,-125.0,-1170.0,349.0,-391.0,555.0,-279.0,424.0
19:30:51.018000,3.0,79.0,-161.0,-1170.0,349.0,-391.0,549.0,-279.0,418.0
19:30:51.023000,12.0,70.0,-158.0,-1139.0,393.0,-383.0,549.0,-279.0,418.0
19:30:51.027000,16.0,66.0,-125.0,-1139.0,393.0,-383.0,549.0,-279.0,418.0
19:30:51.032000,27.0,67.0,-104.0,-1170.0,404.0,-373.0,549.0,-285.0,423.0
19:30:51.037000,18.0,77.0,-94.0,-1170.0,404.0,-373.0,549.0,-285.0,423.0
19:30:51.042000,14.0,96.0,-100.0,-1179.0,343.0,-365.0,544.0,-285.0,424.0
19:30:51.046000,21.0,104.0,-74.0,-1205.0,261.0,-365.0,544.0,-285.0,424.0
19:30:51.050000,23.0,113.0,-58.0,-1226.0,206.0,-358.0,544.0,-285.0,424.0
19:30:51.056000,31.0,137.0,-79.0,-1229.0,208.0,-353.0,561.0,-289.0,421.0
19:30:51.060000,45.0,135.0,-114.0,-1203.0,223.0,-344.0,561.0,-289.0,421.0
19:30:51.065000,46.0,144.0,-123.0,-1122.0,214.0,-335.0,553.0,-288.0,432.0
19:30:51.070000,51.0,136.0,-84.0,-1026.0,192.0,-339.0,553.0,-288.0,432.0
19:30:51.074000,51.0,136.0,-84.0,-970.0,213.0,-347.0,553.0,-288.0,432.0
19:30:51.079000,67.0,124.0,-41.0,-978.0,276.0,-348.0,556.0,-283.0,421.0
19:30:51.084000,65.0,132.0,-84.0,-985.0,283.0,-341.0,556.0,-283.0,421.0
19:30:51.089000,94.0,96.0,-94.0,-930.0,271.0,-346.0,547.0,-280.0,426.0
19:30:51.093000,121.0,65.0,-44.0,-898.0,304.0,-358.0,547.0,-280.0,426.0
19:30:51.097000,132.0,49.0,-20.0,-930.0,355.0,-355.0,547.0,-280.0,426.0
19:30:51.103000,141.0,38.0,-53.0,-935.0,392.0,-335.0,547.0,-280.0,420.0
19:30:51.107000,103.0,36.0,-77.0,-909.0,395.0,-325.0,547.0,-280.0,420.0
19:30:51.112000,113.0,9.0,-72.0,-970.0,272.0,-329.0,549.0,-283.0,426.0
19:30:51.117000,56.0,17.0,35.0,-1025.0,146.0,-333.0,549.0,-283.0,426.0
19:30:51.121000,43.0,6.0,101.0,-993.0,199.0,-324.0,549.0,-283.0,426.0
19:30:51.126000,60.0,-16.0,69.0,-941.0,329.0,-316.0,546.0,-280.0,433.0
19:30:51.131000,69.0,-24.0,30.0,-909.0,424.0,-312.0,546.0,-280.0,433.0
19:30:51.136000,61.0,-52.0,16.0,-909.0,424.0,-312.0,547.0,-285.0,420.0
19:30:51.140000,26.0,-55.0,16.0,-900.0,432.0,-296.0,547.0,-285.0,420.0
19:30:51.144000,41.0,-53.0,42.0,-940.0,393.0,-288.0,547.0,-285.0,420.0
19:30:51.150000,13.0,-63.0,78.0,-995.0,321.0,-291.0,553.0,-276.0,421.0
19:30:51.154000,-15.0,-49.0,68.0,-1015.0,249.0,-294.0,553.0,-276.0,421.0
19:30:51.159000,47.0,-76.0,27.0,-1049.0,294.0,-303.0,535.0,-283.0,420.0
19:30:51.164000,36.0,-90.0,13.0,-1081.0,382.0,-292.0,535.0,-283.0,420.0
19:30:51.168000,-49.0,-65.0,70.0,-1086.0,310.0,-277.0,535.0,-283.0,420.0
19:30:51.173000,-12.0,-75.0,127.0,-1049.0,222.0,-289.0,546.0,-283.0,411.0
19:30:51.178000,14.0,-86.0,107.0,-1081.0,252.0,-307.0,546.0,-283.0,411.0
19:30:51.183000,-51.0,-60.0,-7.0,-1094.0,239.0,-294.0,540.0,-291.0,417.0
19:30:51.187000,-51.0,-60.0,-7.0,-1004.0,224.0,-299.0,540.0,-291.0,417.0
19:30:51.191000,-16.0,-86.0,-71.0,-961.0,257.0,-315.0,540.0,-291.0,417.0
19:30:51.197000,-6.0,-108.0,-61.0,-1010.0,294.0,-319.0,552.0,-286.0,414.0
19:30:51.201000,2.0,-123.0,-7.0,-1088.0,250.0,-311.0,552.0,-286.0,414.0
19:30:51.206000,-102.0,-77.0,-46.0,-1134.0,206.0,-326.0,546.0,-283.0,423.0
19:30:51.211000,-40.0,-88.0,-49.0,-1149.0,212.0,-335.0,546.0,-283.0,423.0
19:30:51.224000,-31.0,-91.0,-64.0,-1058.0,162.0,-306.0,543.0,-283.0,427.0
19:30:51.230000,-27.0,-78.0,-73.0,-1084.0,197.0,-310.0,543.0,-289.0,429.0
19:30:51.234000,-4.0,-71.0,-159.0,-1101.0,273.0,-308.0,543.0,-289.0,429.0
19:30:51.239000,9.0,-67.0,-214.0,-1101.0,273.0,-308.0,556.0,-280.0,417.0
19:30:51.244000,8.0,-60.0,-195.0,-1029.0,176.0,-291.0,556.0,-280.0,417.0
19:30:51.248000,30.0,-65.0,-191.0,-1029.0,176.0,-291.0,556.0,-280.0,417.0
19:30:51.253000,47.0,-57.0,-186.0,-1077.0,209.0,-298.0,553.0,-291.0,409.0
19:30:51.258000,56.0,-46.0,-132.0,-1115.0,221.0,-285.0,553.0,-291.0,409.0
19:30:51.263000,51.0,-37.0,-109.0,-1111.0,208.0,-280.0,553.0,-288.0,414.0
19:30:51.267000,51.0,-18.0,-134.0,-1111.0,222.0,-284.0,553.0,-288.0,414.0
19:30:51.271000,71.0,-8.0,-168.0,-1113.0,271.0,-279.0,553.0,-288.0,414.0
19:30:51.277000,59.0,5.0,-189.0,-1132.0,298.0,-279.0,552.0,-286.0,418.0
19:30:51.281000,43.0,32.0,-224.0,-1104.0,276.0,-265.0,552.0,-286.0,418.0
19:30:51.286000,65.0,47.0,-262.0,-1052.0,272.0,-267.0,544.0,-289.0,411.0
19:30:51.291000,75.0,57.0,-278.0,-1060.0,322.0,-267.0,544.0,-289.0,411.0
19:30:51.295000,75.0,57.0,-278.0,-1055.0,332.0,-237.0,544.0,-289.0,411.0
19:30:51.300000,53.0,82.0,-270.0,-1077.0,296.0,-248.0,547.0,-282.0,415.0
19:30:51.305000,48.0,99.0,-253.0,-1133.0,269.0,-257.0,547.0,-282.0,415.0
19:30:51.309000,35.0,113.0,-252.0,-1116.0,263.0,-237.0,555.0,-279.0,420.0
19:30:51.314000,37.0,131.0,-282.0,-1096.0,294.0,-257.0,555.0,-279.0,420.0
19:30:51.322000,43.0,164.0,-300.0,-1060.0,350.0,-250.0,549.0,-277.0,408.0
19:30:51.324000,43.0,164.0,-300.0,-1060.0,350.0,-250.0,549.0,-277.0,408.0
19:30:51.328000,44.0,179.0,-319.0,-1048.0,353.0,-266.0,549.0,-277.0,408.0
19:30:51.333000,44.0,190.0,-322.0,-1080.0,349.0,-277.0,552.0,-280.0,415.0
19:30:51.338000,48.0,196.0,-307.0,-1094.0,347.0,-273.0,552.0,-280.0,415.0
19:30:51.342000,52.0,199.0,-312.0,-1094.0,358.0,-273.0,552.0,-273.0,417.0
19:30:51.347000,56.0,200.0,-331.0,-1036.0,368.0,-280.0,552.0,-273.0,417.0
19:30:51.351000,67.0,195.0,-330.0,-1019.0,374.0,-284.0,552.0,-273.0,417.0
19:30:51.356000,64.0,192.0,-317.0,-1019.0,374.0,-284.0,553.0,-286.0,415.0
19:30:51.361000,47.0,198.0,-298.0,-1022.0,374.0,-278.0,553.0,-286.0,415.0
19:30:51.366000,42.0,203.0,-295.0,-1022.0,374.0,-278.0,547.0,-279.0,417.0
19:30:51.371000,35.0,212.0,-305.0,-1021.0,382.0,-278.0,547.0,-279.0,417.0
19:30:51.375000,35.0,221.0,-306.0,-1025.0,390.0,-291.0,547.0,-279.0,417.0
19:30:51.380000,35.0,226.0,-294.0,-1051.0,384.0,-296.0,546.0,-280.0,418.0
19:30:51.385000,44.0,229.0,-304.0,-1077.0,369.0,-295.0,546.0,-280.0,418.0
19:30:51.389000,34.0,245.0,-342.0,-1085.0,362.0,-303.0,553.0,-279.0,418.0
19:30:51.394000,55.0,252.0,-378.0,-1087.0,381.0,-320.0,553.0,-279.0,418.0
19:30:51.398000,55.0,252.0,-378.0,-1075.0,383.0,-326.0,553.0,-279.0,418.0
19:30:51.403000,54.0,259.0,-389.0,-1053.0,364.0,-325.0,538.0,-271.0,423.0
19:30:51.408000,56.0,263.0,-382.0,-1042.0,373.0,-330.0,538.0,-271.0,423.0
19:30:51.413000,67.0,261.0,-377.0,-1032.0,382.0,-333.0,538.0,-265.0,423.0
19:30:51.418000,70.0,263.0,-369.0,-1018.0,374.0,-337.0,538.0,-265.0,423.0
19:30:51.422000,77.0,264.0,-353.0,-1005.0,379.0,-355.0,538.0,-265.0,423.0
19:30:51.427000,126.0,259.0,-361.0,-998.0,427.0,-367.0,534.0,-270.0,423.0
19:30:51.432000,151.0,245.0,-429.0,-989.0,459.0,-361.0,534.0,-270.0,423.0
19:30:51.436000,137.0,238.0,-507.0,-964.0,439.0,-370.0,532.0,-267.0,423.0
19:30:51.441000,170.0,219.0,-511.0,-943.0,459.0,-388.0,532.0,-267.0,423.0
19:30:51.445000,204.0,196.0,-457.0,-960.0,514.0,-386.0,532.0,-267.0,423.0
19:30:51.450000,185.0,181.0,-414.0,-1003.0,568.0,-385.0,532.0,-268.0,421.0
19:30:51.455000,175.0,172.0,-413.0,-1031.0,615.0,-394.0,532.0,-268.0,421.0
19:30:51.460000,156.0,168.0,-422.0,-1031.0,615.0,-394.0,528.0,-261.0,430.0
19:30:51.465000,127.0,170.0,-399.0,-1026.0,659.0,-385.0,528.0,-261.0,430.0
19:30:51.469000,97.0,173.0,-364.0,-1026.0,659.0,-385.0,528.0,-261.0,430.0
19:30:51.474000,79.0,186.0,-373.0,-1026.0,661.0,-383.0,535.0,-264.0,429.0
19:30:51.479000,72.0,198.0,-383.0,-1029.0,641.0,-384.0,535.0,-264.0,429.0
19:30:51.483000,67.0,214.0,-360.0,-1036.0,598.0,-375.0,531.0,-262.0,418.0
19:30:51.488000,67.0,221.0,-332.0,-1049.0,551.0,-367.0,531.0,-262.0,418.0
19:30:51.492000,83.0,214.0,-319.0,-1071.0,482.0,-363.0,531.0,-262.0,418.0
19:30:51.497000,113.0,212.0,-336.0,-1094.0,434.0,-371.0,525.0,-262.0,432.0
19:30:51.502000,135.0,215.0,-373.0,-1131.0,419.0,-382.0,525.0,-262.0,432.0
19:30:51.507000,149.0,219.0,-403.0,-1142.0,408.0,-382.0,522.0,-259.0,430.0
19:30:51.512000,162.0,226.0,-422.0,-1153.0,425.0,-388.0,522.0,-259.0,430.0
19:30:51.516000,162.0,226.0,-422.0,-1186.0,482.0,-402.0,522.0,-259.0,430.0
19:30:51.521000,188.0,231.0,-405.0,-1186.0,539.0,-408.0,528.0,-256.0,432.0
19:30:51.526000,203.0,225.0,-354.0,-1158.0,561.0,-415.0,528.0,-256.0,432.0
19:30:51.530000,207.0,228.0,-310.0,-1130.0,579.0,-431.0,531.0,-256.0,424.0
19:30:51.535000,234.0,217.0,-250.0,-1113.0,614.0,-450.0,531.0,-256.0,424.0
19:30:51.542000,233.0,244.0,-345.0,-1037.0,718.0,-465.0,519.0,-249.0,435.0
19:30:51.544000,233.0,244.0,-345.0,-1037.0,718.0,-465.0,519.0,-249.0,435.0
19:30:51.549000,222.0,244.0,-266.0,-1002.0,633.0,-465.0,519.0,-249.0,435.0
19:30:51.554000,219.0,254.0,-94.0,-1037.0,616.0,-483.0,528.0,-250.0,445.0
19:30:51.559000,238.0,251.0,-95.0,-1081.0,668.0,-490.0,528.0,-250.0,445.0
19:30:51.563000,228.0,259.0,-151.0,-1081.0,668.0,-490.0,514.0,-238.0,430.0
19:30:51.568000,237.0,253.0,-151.0,-1015.0,627.0,-490.0,514.0,-238.0,430.0
19:30:51.572000,242.0,234.0,-65.0,-977.0,583.0,-487.0,514.0,-238.0,430.0
19:30:51.577000,235.0,224.0,-11.0,-977.0,583.0,-487.0,535.0,-244.0,436.0
19:30:51.581000,249.0,213.0,32.0,-979.0,517.0,-485.0,535.0,-244.0,436.0
19:30:51.587000,248.0,195.0,51.0,-979.0,517.0,-485.0,517.0,-247.0,436.0
19:30:51.591000,265.0,166.0,16.0,-976.0,500.0,-481.0,517.0,-247.0,436.0
19:30:51.596000,282.0,132.0,-7.0,-922.0,500.0,-480.0,517.0,-247.0,436.0
19:30:51.601000,291.0,90.0,-40.0,-872.0,532.0,-469.0,535.0,-246.0,436.0
19:30:51.606000,296.0,45.0,-63.0,-854.0,572.0,-456.0,535.0,-246.0,436.0
19:30:51.610000,300.0,2.0,-70.0,-834.0,575.0,-448.0,538.0,-243.0,439.0
19:30:51.615000,295.0,-47.0,-86.0,-832.0,585.0,-437.0,538.0,-243.0,439.0
19:30:51.619000,295.0,-47.0,-86.0,-838.0,613.0,-421.0,538.0,-243.0,439.0
19:30:51.624000,275.0,-87.0,-109.0,-820.0,631.0,-414.0,528.0,-243.0,433.0
19:30:51.629000,256.0,-126.0,-107.0,-791.0,641.0,-405.0,528.0,-243.0,433.0
19:30:51.634000,219.0,-151.0,-84.0,-759.0,642.0,-389.0,538.0,-238.0,451.0
19:30:51.638000,178.0,-173.0,-59.0,-722.0,631.0,-386.0,538.0,-238.0,451.0
19:30:51.643000,150.0,-182.0,-46.0,-688.0,607.0,-385.0,538.0,-238.0,451.0
19:30:51.648000,120.0,-190.0,-18.0,-663.0,585.0,-383.0,543.0,-237.0,432.0
19:30:51.653000,88.0,-194.0,18.0,-630.0,561.0,-379.0,543.0,-237.0,432.0
19:30:51.657000,47.0,-192.0,79.0,-597.0,529.0,-373.0,532.0,-234.0,427.0
19:30:51.662000,29.0,-196.0,135.0,-578.0,506.0,-374.0,532.0,-234.0,427.0
19:30:51.666000,23.0,-197.0,158.0,-550.0,462.0,-367.0,532.0,-234.0,427.0
19:30:51.671000,11.0,-196.0,207.0,-530.0,424.0,-366.0,552.0,-232.0,438.0
19:30:51.676000,22.0,-202.0,246.0,-527.0,428.0,-364.0,552.0,-232.0,438.0
19:30:51.681000,29.0,-204.0,245.0,-527.0,428.0,-364.0,537.0,-244.0,439.0
19:30:51.685000,35.0,-207.0,277.0,-517.0,440.0,-350.0,537.0,-244.0,439.0
19:30:51.690000,49.0,-212.0,306.0,-517.0,447.0,-332.0,537.0,-244.0,439.0
19:30:51.695000,57.0,-215.0,335.0,-519.0,445.0,-309.0,549.0,-238.0,438.0
19:30:51.700000,65.0,-220.0,378.0,-499.0,420.0,-286.0,549.0,-238.0,438.0
19:30:51.704000,71.0,-222.0,409.0,-471.0,397.0,-266.0,549.0,-240.0,426.0
19:30:51.709000,74.0,-226.0,439.0,-443.0,391.0,-246.0,549.0,-240.0,426.0
19:30:51.713000,66.0,-230.0,473.0,-412.0,399.0,-228.0,549.0,-240.0,426.0
19:30:51.718000,51.0,-232.0,518.0,-386.0,421.0,-214.0,561.0,-237.0,439.0
19:30:51.723000,24.0,-231.0,554.0,-378.0,448.0,-203.0,561.0,-237.0,439.0
19:30:51.728000,-9.0,-228.0,579.0,-383.0,473.0,-192.0,561.0,-237.0,439.0
19:30:51.732000,-9.0,-228.0,579.0,-380.0,482.0,-181.0,561.0,-237.0,439.0
19:30:51.737000,-53.0,-221.0,603.0,-368.0,469.0,-173.0,561.0,-237.0,439.0
19:30:51.742000,-97.0,-214.0,630.0,-358.0,443.0,-170.0,571.0,-255.0,435.0
19:30:51.747000,-140.0,-210.0,648.0,-350.0,417.0,-170.0,571.0,-255.0,435.0
19:30:51.751000,-179.0,-207.0,655.0,-340.0,394.0,-171.0,580.0,-252.0,427.0
19:30:51.756000,-215.0,-207.0,648.0,-329.0,376.0,-173.0,580.0,-252.0,427.0
19:30:51.760000,-245.0,-207.0,628.0,-316.0,362.0,-178.0,580.0,-252.0,427.0
19:30:51.765000,-274.0,-205.0,599.0,-306.0,355.0,-186.0,583.0,-262.0,426.0
19:30:51.770000,-296.0,-206.0,560.0,-301.0,364.0,-193.0,583.0,-262.0,426.0
19:30:51.775000,-326.0,-205.0,504.0,-295.0,378.0,-197.0,583.0,-265.0,423.0
19:30:51.779000,-352.0,-207.0,450.0,-282.0,381.0,-200.0,583.0,-265.0,423.0
19:30:51.784000,-377.0,-208.0,404.0,-266.0,362.0,-204.0,583.0,-265.0,423.0
19:30:51.789000,-385.0,-214.0,366.0,-248.0,319.0,-210.0,579.0,-267.0,430.0
19:30:51.794000,-380.0,-228.0,332.0,-232.0,266.0,-213.0,579.0,-267.0,430.0
19:30:51.798000,-358.0,-245.0,302.0,-232.0,266.0,-213.0,588.0,-279.0,426.0
19:30:51.803000,-321.0,-263.0,276.0,-228.0,224.0,-214.0,588.0,-279.0,426.0
19:30:51.807000,-275.0,-282.0,253.0,-258.0,208.0,-203.0,588.0,-279.0,426.0
19:30:51.812000,-228.0,-303.0,244.0,-258.0,208.0,-203.0,594.0,-280.0,436.0
19:30:51.817000,-180.0,-322.0,253.0,-281.0,222.0,-192.0,594.0,-280.0,436.0
19:30:51.822000,-136.0,-336.0,279.0,-313.0,238.0,-179.0,600.0,-277.0,423.0
19:30:51.826000,-99.0,-345.0,313.0,-356.0,251.0,-163.0,600.0,-277.0,423.0
19:30:51.831000,-99.0,-345.0,313.0,-401.0,256.0,-147.0,600.0,-277.0,423.0
19:30:51.836000,-46.0,-339.0,417.0,-445.0,255.0,-132.0,615.0,-282.0,414.0
19:30:51.841000,-30.0,-326.0,476.0,-486.0,249.0,-119.0,615.0,-282.0,414.0
19:30:51.845000,-30.0,-326.0,476.0,-522.0,236.0,-110.0,607.0,-294.0,417.0
19:30:51.850000,-18.0,-310.0,530.0,-553.0,218.0,-106.0,607.0,-294.0,417.0
19:30:51.854000,-9.0,-291.0,574.0,-577.0,199.0,-108.0,607.0,-294.0,417.0
19:30:51.859000,-2.0,-272.0,611.0,-599.0,186.0,-114.0,619.0,-289.0,427.0
19:30:51.864000,0.0,-251.0,631.0,-618.0,188.0,-122.0,619.0,-289.0,427.0
19:30:51.869000,-5.0,-231.0,632.0,-628.0,200.0,-131.0,601.0,-298.0,409.0
19:30:51.873000,-20.0,-212.0,622.0,-620.0,208.0,-137.0,601.0,-298.0,409.0
19:30:51.878000,-42.0,-196.0,609.0,-594.0,205.0,-141.0,601.0,-298.0,409.0
19:30:51.883000,-66.0,-186.0,592.0,-554.0,196.0,-142.0,610.0,-309.0,414.0
19:30:51.888000,-88.0,-182.0,569.0,-506.0,182.0,-141.0,610.0,-309.0,414.0
19:30:51.892000,-105.0,-182.0,541.0,-506.0,157.0,-137.0,628.0,-313.0,406.0
19:30:51.897000,-116.0,-187.0,517.0,-405.0,122.0,-132.0,628.0,-313.0,406.0
19:30:51.901000,-115.0,-197.0,497.0,-379.0,85.0,-127.0,628.0,-313.0,406.0
19:30:51.906000,-105.0,-207.0,480.0,-379.0,85.0,-127.0,610.0,-316.0,418.0
19:30:51.911000,-88.0,-217.0,458.0,-386.0,56.0,-123.0,610.0,-316.0,418.0
19:30:51.916000,-71.0,-222.0,429.0,-423.0,42.0,-122.0,636.0,-321.0,405.0
19:30:51.920000,-57.0,-223.0,398.0,-475.0,41.0,-117.0,636.0,-321.0,405.0
19:30:51.925000,-47.0,-215.0,368.0,-534.0,49.0,-113.0,636.0,-321.0,405.0
19:30:51.930000,-44.0,-200.0,336.0,-592.0,71.0,-112.0,631.0,-324.0,402.0
19:30:51.935000,-50.0,-178.0,296.0,-642.0,103.0,-110.0,631.0,-324.0,402.0
19:30:51.939000,-63.0,-149.0,261.0,-673.0,127.0,-106.0,634.0,-328.0,399.0
19:30:51.943000,-63.0,-149.0,261.0,-679.0,126.0,-104.0,634.0,-328.0,399.0
19:30:51.948000,-74.0,-120.0,234.0,-674.0,116.0,-106.0,634.0,-328.0,399.0
19:30:51.953000,-79.0,-91.0,200.0,-671.0,118.0,-113.0,639.0,-337.0,391.0
19:30:51.958000,-81.0,-63.0,157.0,-671.0,131.0,-120.0,639.0,-337.0,391.0
19:30:51.963000,-77.0,-39.0,109.0,-666.0,136.0,-126.0,648.0,-343.0,403.0
19:30:51.967000,-72.0,-21.0,70.0,-653.0,123.0,-129.0,648.0,-343.0,403.0
19:30:51.972000,-65.0,-7.0,47.0,-632.0,106.0,-130.0,648.0,-343.0,403.0
19:30:51.977000,-55.0,1.0,35.0,-607.0,106.0,-131.0,643.0,-339.0,405.0
19:30:51.982000,-49.0,6.0,21.0,-580.0,133.0,-131.0,643.0,-339.0,405.0
19:30:51.986000,-51.0,8.0,7.0,-555.0,175.0,-132.0,646.0,-343.0,391.0
19:30:51.991000,-63.0,9.0,-5.0,-539.0,214.0,-133.0,646.0,-343.0,391.0
19:30:51.995000,-83.0,10.0,-17.0,-534.0,235.0,-132.0,646.0,-343.0,391.0
19:30:52.000000,-106.0,11.0,-25.0,-540.0,230.0,-132.0,637.0,-346.0,399.0
19:30:52.005000,-127.0,11.0,-35.0,-556.0,206.0,-137.0,637.0,-346.0,399.0
19:30:52.010000,-141.0,13.0,-49.0,-556.0,206.0,-137.0,634.0,-348.0,400.0
19:30:52.014000,-146.0,16.0,-70.0,-578.0,173.0,-148.0,634.0,-348.0,400.0
19:30:52.019000,-144.0,26.0,-100.0,-604.0,145.0,-160.0,634.0,-348.0,400.0
19:30:52.024000,-135.0,37.0,-128.0,-627.0,121.0,-171.0,651.0,-351.0,387.0
19:30:52.029000,-120.0,49.0,-156.0,-647.0,96.0,-177.0,651.0,-351.0,387.0
19:30:52.033000,-101.0,60.0,-179.0,-660.0,36.0,-179.0,654.0,-355.0,394.0
19:30:52.038000,-75.0,69.0,-200.0,-660.0,36.0,-179.0,654.0,-355.0,394.0
19:30:52.042000,-49.0,75.0,-223.0,-659.0,17.0,-183.0,654.0,-355.0,394.0
19:30:52.047000,-25.0,83.0,-251.0,-658.0,20.0,-188.0,643.0,-349.0,388.0
19:30:52.052000,-11.0,92.0,-276.0,-661.0,42.0,-192.0,643.0,-349.0,388.0
19:30:52.057000,-7.0,102.0,-296.0,-664.0,67.0,-195.0,651.0,-360.0,400.0
19:30:52.061000,-7.0,102.0,-296.0,-665.0,83.0,-195.0,651.0,-360.0,400.0
19:30:52.066000,-8.0,111.0,-311.0,-661.0,87.0,-191.0,651.0,-360.0,400.0
19:30:52.071000,-12.0,117.0,-331.0,-655.0,85.0,-183.0,652.0,-355.0,391.0
19:30:52.076000,-16.0,117.0,-357.0,-643.0,77.0,-172.0,652.0,-355.0,391.0
19:30:52.080000,-14.0,112.0,-389.0,-625.0,62.0,-160.0,649.0,-363.0,408.0
19:30:52.085000,-7.0,100.0,-422.0,-610.0,52.0,-149.0,649.0,-363.0,408.0
19:30:52.089000,0.0,88.0,-457.0,-601.0,52.0,-138.0,649.0,-363.0,408.0
19:30:52.094000,5.0,78.0,-488.0,-599.0,47.0,-130.0,646.0,-360.0,391.0
19:30:52.099000,14.0,67.0,-515.0,-604.0,34.0,-126.0,646.0,-360.0,391.0
19:30:52.104000,25.0,59.0,-538.0,-620.0,18.0,-123.0,642.0,-354.0,385.0
19:30:52.108000,37.0,55.0,-557.0,-646.0,4.0,-121.0,642.0,-354.0,385.0
19:30:52.113000,51.0,54.0,-573.0,-678.0,-8.0,-119.0,642.0,-354.0,385.0
19:30:52.118000,67.0,57.0,-584.0,-712.0,-17.0,-122.0,654.0,-354.0,385.0
19:30:52.123000,84.0,60.0,-597.0,-743.0,-13.0,-128.0,654.0,-354.0,385.0
19:30:52.127000,101.0,67.0,-614.0,-771.0,9.0,-135.0,648.0,-367.0,400.0
19:30:52.132000,114.0,77.0,-630.0,-771.0,9.0,-135.0,648.0,-367.0,400.0
19:30:52.136000,122.0,88.0,-639.0,-797.0,43.0,-141.0,648.0,-367.0,400.0
19:30:52.141000,126.0,105.0,-634.0,-822.0,71.0,-143.0,642.0,-357.0,396.0
19:30:52.146000,129.0,122.0,-614.0,-848.0,80.0,-143.0,642.0,-357.0,396.0
19:30:52.151000,135.0,142.0,-585.0,-874.0,64.0,-140.0,648.0,-346.0,393.0
