hh:mm:ss.ms,gyroX[mdps],gyroY[mdps],gyroZ[mdps],accX[mg],accY[mg],accZ[mg],magX[mG],magY[mG],magZ[mG]
19:45:08.058000,-401.0,-177.0,-299.0,-1145.0,-446.0,117.0,0.0,0.0,0.0
19:45:08.063000,-443.0,-119.0,-347.0,-1271.0,-518.0,60.0,0.0,0.0,0.0
19:45:08.068000,-472.0,-80.0,-340.0,-1271.0,-518.0,60.0,0.0,0.0,0.0
19:45:08.072000,-466.0,-34.0,-345.0,-1497.0,-425.0,37.0,0.0,0.0,0.0
19:45:08.077000,-438.0,12.0,-434.0,-1497.0,-425.0,37.0,0.0,0.0,0.0
19:45:08.082000,-438.0,12.0,-434.0,-1539.0,-393.0,-38.0,0.0,0.0,0.0
19:45:08.086000,-423.0,58.0,-527.0,-1539.0,-393.0,-38.0,0.0,0.0,0.0
19:45:08.091000,-430.0,83.0,-625.0,-1429.0,-486.0,-126.0,0.0,0.0,0.0
19:45:08.096000,-403.0,97.0,-687.0,-1429.0,-486.0,-126.0,0.0,0.0,0.0
19:45:08.101000,-410.0,82.0,-649.0,-1271.0,-459.0,-88.0,0.0,0.0,0.0
19:45:08.105000,-297.0,52.0,-529.0,-1271.0,-459.0,-88.0,0.0,0.0,0.0
19:45:08.110000,-215.0,14.0,-469.0,-1147.0,-290.0,-9.0,0.0,0.0,0.0
19:45:08.114000,-177.0,-35.0,-508.0,-1147.0,-290.0,-9.0,0.0,0.0,0.0
19:45:08.119000,-65.0,-64.0,-538.0,-957.0,-344.0,-10.0,0.0,0.0,0.0
19:45:08.124000,18.0,-59.0,-669.0,-957.0,-344.0,-10.0,0.0,0.0,0.0
19:45:08.129000,70.0,-37.0,-822.0,-733.0,-372.0,-36.0,0.0,0.0,0.0
19:45:08.133000,39.0,-30.0,-866.0,-733.0,-372.0,-36.0,0.0,0.0,0.0
19:45:08.138000,10.0,-65.0,-795.0,-736.0,-183.0,-34.0,0.0,0.0,0.0
19:45:08.143000,-31.0,-59.0,-693.0,-736.0,-183.0,-34.0,0.0,0.0,0.0
19:45:08.148000,-151.0,-79.0,-621.0,-736.0,-183.0,-34.0,0.0,0.0,0.0
19:45:08.152000,-208.0,-93.0,-575.0,-885.0,-3.0,-16.0,0.0,0.0,0.0
19:45:08.157000,-298.0,-93.0,-553.0,-885.0,-3.0,-16.0,0.0,0.0,0.0
19:45:08.162000,-349.0,-82.0,-594.0,-1042.0,103.0,-12.0,0.0,0.0,0.0
19:45:08.166000,-415.0,-61.0,-643.0,-1042.0,103.0,-12.0,0.0,0.0,0.0
19:45:08.171000,-431.0,-60.0,-654.0,-1095.0,114.0,-30.0,0.0,0.0,0.0
19:45:08.176000,-473.0,-48.0,-623.0,-1095.0,114.0,-30.0,0.0,0.0,0.0
19:45:08.180000,-520.0,-24.0,-645.0,-1102.0,78.0,-32.0,0.0,0.0,0.0
19:45:08.185000,-533.0,-18.0,-666.0,-1102.0,78.0,-32.0,0.0,0.0,0.0
19:45:08.190000,-533.0,-18.0,-666.0,-1119.0,-7.0,-38.0,0.0,0.0,0.0
19:45:08.195000,-544.0,-21.0,-646.0,-1119.0,-7.0,-38.0,0.0,0.0,0.0
19:45:08.199000,-576.0,-37.0,-653.0,-1098.0,-54.0,-29.0,0.0,0.0,0.0
19:45:08.204000,-571.0,-41.0,-690.0,-1098.0,-54.0,-29.0,0.0,0.0,0.0
19:45:08.209000,-560.0,-43.0,-738.0,-1027.0,-47.0,-28.0,0.0,0.0,0.0
19:45:08.213000,-556.0,-48.0,-745.0,-1027.0,-47.0,-28.0,0.0,0.0,0.0
19:45:08.218000,-556.0,-52.0,-718.0,-928.0,-30.0,-46.0,0.0,0.0,0.0
19:45:08.223000,-555.0,-62.0,-737.0,-928.0,-30.0,-46.0,0.0,0.0,0.0
19:45:08.227000,-553.0,-79.0,-774.0,-903.0,18.0,-52.0,0.0,0.0,0.0
19:45:08.232000,-561.0,-89.0,-803.0,-903.0,18.0,-52.0,0.0,0.0,0.0
19:45:08.237000,-562.0,-105.0,-820.0,-918.0,76.0,-67.0,0.0,0.0,0.0
19:45:08.242000,-570.0,-119.0,-833.0,-918.0,76.0,-67.0,0.0,0.0,0.0
19:45:08.246000,-587.0,-126.0,-866.0,-915.0,104.0,-93.0,0.0,0.0,0.0
19:45:08.251000,-595.0,-149.0,-891.0,-915.0,104.0,-93.0,0.0,0.0,0.0
19:45:08.256000,-604.0,-182.0,-883.0,-915.0,104.0,-93.0,0.0,0.0,0.0
19:45:08.260000,-624.0,-212.0,-870.0,-966.0,127.0,-94.0,0.0,0.0,0.0
19:45:08.265000,-646.0,-229.0,-882.0,-966.0,127.0,-94.0,0.0,0.0,0.0
19:45:08.270000,-679.0,-244.0,-885.0,-997.0,203.0,-79.0,0.0,0.0,0.0
19:45:08.274000,-721.0,-252.0,-857.0,-997.0,203.0,-79.0,0.0,0.0,0.0
19:45:08.279000,-767.0,-261.0,-833.0,-960.0,289.0,-71.0,0.0,0.0,0.0
19:45:08.284000,-812.0,-270.0,-816.0,-960.0,289.0,-71.0,0.0,0.0,0.0
19:45:08.289000,-856.0,-274.0,-791.0,-963.0,321.0,-47.0,0.0,0.0,0.0
19:45:08.293000,-903.0,-277.0,-752.0,-963.0,321.0,-47.0,0.0,0.0,0.0
19:45:08.298000,-903.0,-277.0,-752.0,-980.0,294.0,-20.0,0.0,0.0,0.0
19:45:08.303000,-935.0,-275.0,-734.0,-980.0,294.0,-20.0,0.0,0.0,0.0
19:45:08.307000,-964.0,-271.0,-713.0,-1002.0,231.0,0.0,0.0,0.0,0.0
19:45:08.312000,-991.0,-259.0,-681.0,-1002.0,231.0,0.0,0.0,0.0,0.0
19:45:08.317000,-1005.0,-239.0,-685.0,-1067.0,196.0,14.0,0.0,0.0,0.0
19:45:08.321000,-1015.0,-212.0,-716.0,-1067.0,196.0,14.0,0.0,0.0,0.0
19:45:08.326000,-1017.0,-184.0,-726.0,-1143.0,159.0,24.0,0.0,0.0,0.0
19:45:08.331000,-1009.0,-156.0,-707.0,-1143.0,159.0,24.0,0.0,0.0,0.0
19:45:08.335000,-994.0,-125.0,-706.0,-1176.0,110.0,30.0,0.0,0.0,0.0
19:45:08.340000,-970.0,-93.0,-714.0,-1176.0,110.0,30.0,0.0,0.0,0.0
19:45:08.345000,-946.0,-63.0,-702.0,-1145.0,79.0,27.0,0.0,0.0,0.0
19:45:08.350000,-913.0,-33.0,-687.0,-1145.0,79.0,27.0,0.0,0.0,0.0
19:45:08.354000,-883.0,-5.0,-676.0,-1092.0,89.0,19.0,0.0,0.0,0.0
19:45:08.359000,-856.0,19.0,-669.0,-1092.0,89.0,19.0,0.0,0.0,0.0
19:45:08.364000,-836.0,45.0,-646.0,-1092.0,89.0,19.0,0.0,0.0,0.0
19:45:08.368000,-819.0,70.0,-613.0,-1058.0,142.0,8.0,0.0,0.0,0.0
19:45:08.373000,-810.0,95.0,-597.0,-1058.0,142.0,8.0,0.0,0.0,0.0
19:45:08.378000,-801.0,116.0,-591.0,-1037.0,212.0,-5.0,0.0,0.0,0.0
19:45:08.382000,-795.0,135.0,-584.0,-1037.0,212.0,-5.0,0.0,0.0,0.0
19:45:08.387000,-793.0,148.0,-569.0,-1012.0,274.0,-18.0,0.0,0.0,0.0
19:45:08.392000,-793.0,161.0,-549.0,-1012.0,274.0,-18.0,0.0,0.0,0.0
19:45:08.397000,-795.0,175.0,-541.0,-982.0,306.0,-29.0,0.0,0.0,0.0
19:45:08.401000,-804.0,189.0,-532.0,-982.0,306.0,-29.0,0.0,0.0,0.0
19:45:08.406000,-819.0,205.0,-526.0,-965.0,340.0,-41.0,0.0,0.0,0.0
19:45:08.411000,-819.0,205.0,-526.0,-965.0,340.0,-41.0,0.0,0.0,0.0
19:45:08.415000,-834.0,217.0,-522.0,-948.0,381.0,-50.0,0.0,0.0,0.0
19:45:08.420000,-854.0,226.0,-513.0,-948.0,381.0,-50.0,0.0,0.0,0.0
19:45:08.425000,-877.0,233.0,-487.0,-919.0,395.0,-49.0,0.0,0.0,0.0
19:45:08.429000,-895.0,237.0,-469.0,-919.0,395.0,-49.0,0.0,0.0,0.0
19:45:08.434000,-911.0,236.0,-459.0,-888.0,386.0,-45.0,0.0,0.0,0.0
19:45:08.439000,-925.0,234.0,-449.0,-888.0,386.0,-45.0,0.0,0.0,0.0
19:45:08.444000,-937.0,225.0,-441.0,-849.0,379.0,-42.0,0.0,0.0,0.0
19:45:08.448000,-948.0,213.0,-435.0,-849.0,379.0,-42.0,0.0,0.0,0.0
19:45:08.453000,-963.0,200.0,-419.0,-820.0,386.0,-41.0,0.0,0.0,0.0
19:45:08.458000,-979.0,186.0,-408.0,-820.0,386.0,-41.0,0.0,0.0,0.0
19:45:08.462000,-1002.0,169.0,-399.0,-823.0,415.0,-41.0,0.0,0.0,0.0
19:45:08.467000,-1033.0,144.0,-385.0,-823.0,415.0,-41.0,0.0,0.0,0.0
19:45:08.472000,-1068.0,119.0,-365.0,-823.0,415.0,-41.0,0.0,0.0,0.0
19:45:08.476000,-1107.0,92.0,-336.0,-838.0,462.0,-33.0,0.0,0.0,0.0
19:45:08.481000,-1143.0,64.0,-301.0,-838.0,462.0,-33.0,0.0,0.0,0.0
19:45:08.486000,-1173.0,39.0,-273.0,-831.0,487.0,-25.0,0.0,0.0,0.0
19:45:08.491000,-1195.0,16.0,-259.0,-831.0,487.0,-25.0,0.0,0.0,0.0
19:45:08.495000,-1211.0,-10.0,-244.0,-825.0,482.0,-23.0,0.0,0.0,0.0
19:45:08.500000,-1219.0,-42.0,-228.0,-825.0,482.0,-23.0,0.0,0.0,0.0
19:45:08.505000,-1216.0,-73.0,-218.0,-836.0,442.0,-14.0,0.0,0.0,0.0
19:45:08.509000,-1204.0,-100.0,-212.0,-836.0,442.0,-14.0,0.0,0.0,0.0
19:45:08.514000,-1184.0,-124.0,-200.0,-832.0,366.0,5.0,0.0,0.0,0.0
19:45:08.519000,-1184.0,-124.0,-200.0,-832.0,366.0,5.0,0.0,0.0,0.0
19:45:08.523000,-1160.0,-144.0,-185.0,-817.0,295.0,26.0,0.0,0.0,0.0
19:45:08.528000,-1134.0,-161.0,-179.0,-817.0,295.0,26.0,0.0,0.0,0.0
19:45:08.533000,-1111.0,-170.0,-179.0,-823.0,264.0,48.0,0.0,0.0,0.0
19:45:08.538000,-1093.0,-168.0,-176.0,-823.0,264.0,48.0,0.0,0.0,0.0
19:45:08.542000,-1080.0,-157.0,-168.0,-865.0,274.0,61.0,0.0,0.0,0.0
19:45:08.547000,-1075.0,-137.0,-155.0,-865.0,274.0,61.0,0.0,0.0,0.0
19:45:08.552000,-1075.0,-107.0,-148.0,-940.0,306.0,57.0,0.0,0.0,0.0
19:45:08.556000,-1082.0,-67.0,-152.0,-940.0,306.0,57.0,0.0,0.0,0.0
19:45:08.561000,-1096.0,-16.0,-162.0,-1033.0,357.0,36.0,0.0,0.0,0.0
19:45:08.566000,-1117.0,40.0,-175.0,-1033.0,357.0,36.0,0.0,0.0,0.0
19:45:08.570000,-1141.0,104.0,-188.0,-1127.0,405.0,4.0,0.0,0.0,0.0
19:45:08.575000,-1165.0,170.0,-200.0,-1127.0,405.0,4.0,0.0,0.0,0.0
19:45:08.579000,-1192.0,232.0,-204.0,-1180.0,419.0,-27.0,0.0,0.0,0.0
19:45:08.585000,-1220.0,294.0,-201.0,-1180.0,419.0,-27.0,0.0,0.0,0.0
19:45:08.589000,-1246.0,350.0,-188.0,-1180.0,419.0,-27.0,0.0,0.0,0.0
19:45:08.594000,-1271.0,403.0,-163.0,-1151.0,405.0,-52.0,0.0,0.0,0.0
19:45:08.599000,-1292.0,455.0,-132.0,-1151.0,405.0,-52.0,0.0,0.0,0.0
19:45:08.603000,-1311.0,503.0,-102.0,-1066.0,373.0,-72.0,0.0,0.0,0.0
19:45:08.608000,-1330.0,548.0,-66.0,-1066.0,373.0,-72.0,0.0,0.0,0.0
19:45:08.613000,-1348.0,593.0,-22.0,-988.0,336.0,-93.0,0.0,0.0,0.0
19:45:08.617000,-1369.0,636.0,19.0,-988.0,336.0,-93.0,0.0,0.0,0.0
19:45:08.622000,-1390.0,675.0,54.0,-940.0,311.0,-110.0,0.0,0.0,0.0
19:45:08.627000,-1390.0,675.0,54.0,-940.0,311.0,-110.0,0.0,0.0,0.0
19:45:08.632000,-1413.0,709.0,83.0,-890.0,296.0,-117.0,0.0,0.0,0.0
19:45:08.636000,-1436.0,739.0,105.0,-890.0,296.0,-117.0,0.0,0.0,0.0
19:45:08.640000,-1458.0,765.0,116.0,-820.0,291.0,-119.0,0.0,0.0,0.0
19:45:08.646000,-1478.0,789.0,116.0,-820.0,291.0,-119.0,0.0,0.0,0.0
19:45:08.650000,-1491.0,809.0,105.0,-760.0,290.0,-123.0,0.0,0.0,0.0
19:45:08.655000,-1498.0,822.0,77.0,-760.0,290.0,-123.0,0.0,0.0,0.0
19:45:08.660000,-1493.0,827.0,40.0,-718.0,264.0,-134.0,0.0,0.0,0.0
19:45:08.664000,-1477.0,824.0,7.0,-718.0,264.0,-134.0,0.0,0.0,0.0
19:45:08.669000,-1446.0,819.0,-18.0,-681.0,195.0,-153.0,0.0,0.0,0.0
19:45:08.674000,-1407.0,810.0,-39.0,-681.0,195.0,-153.0,0.0,0.0,0.0
19:45:08.679000,-1365.0,798.0,-53.0,-657.0,122.0,-171.0,0.0,0.0,0.0
19:45:08.683000,-1323.0,786.0,-55.0,-657.0,122.0,-171.0,0.0,0.0,0.0
19:45:08.688000,-1284.0,776.0,-41.0,-657.0,91.0,-181.0,0.0,0.0,0.0
19:45:08.693000,-1255.0,770.0,-18.0,-643.0,91.0,-181.0,0.0,0.0,0.0
19:45:08.697000,-1234.0,766.0,7.0,-643.0,91.0,-181.0,0.0,0.0,0.0
19:45:08.702000,-1223.0,769.0,35.0,-635.0,106.0,-185.0,0.0,0.0,0.0
19:45:08.707000,-1222.0,780.0,63.0,-635.0,106.0,-185.0,0.0,0.0,0.0
19:45:08.711000,-1229.0,797.0,88.0,-628.0,145.0,-182.0,0.0,0.0,0.0
19:45:08.716000,-1240.0,822.0,109.0,-628.0,145.0,-182.0,0.0,0.0,0.0
19:45:08.721000,-1252.0,851.0,119.0,-614.0,178.0,-177.0,0.0,0.0,0.0
19:45:08.726000,-1262.0,881.0,126.0,-614.0,178.0,-177.0,0.0,0.0,0.0
19:45:08.730000,-1269.0,912.0,127.0,-607.0,193.0,-183.0,0.0,0.0,0.0
19:45:08.735000,-1269.0,912.0,127.0,-607.0,193.0,-183.0,0.0,0.0,0.0
19:45:08.740000,-1265.0,939.0,128.0,-596.0,172.0,-208.0,0.0,0.0,0.0
19:45:08.744000,-1250.0,959.0,127.0,-596.0,172.0,-208.0,0.0,0.0,0.0
19:45:08.749000,-1223.0,972.0,121.0,-552.0,114.0,-246.0,0.0,0.0,0.0
19:45:08.754000,-1187.0,982.0,121.0,-552.0,114.0,-246.0,0.0,0.0,0.0
19:45:08.758000,-1145.0,989.0,128.0,-475.0,49.0,-287.0,0.0,0.0,0.0
19:45:08.763000,-1099.0,999.0,136.0,-475.0,49.0,-287.0,0.0,0.0,0.0
19:45:08.768000,-1051.0,1006.0,143.0,-406.0,5.0,-333.0,0.0,0.0,0.0
19:45:08.773000,-1005.0,1012.0,150.0,-406.0,5.0,-333.0,0.0,0.0,0.0
19:45:08.777000,-961.0,1019.0,157.0,-387.0,-5.0,-389.0,0.0,0.0,0.0
19:45:08.782000,-922.0,1022.0,169.0,-387.0,-5.0,-389.0,0.0,0.0,0.0
19:45:08.787000,-888.0,1024.0,186.0,-399.0,-7.0,-445.0,0.0,0.0,0.0
19:45:08.791000,-862.0,1024.0,203.0,-399.0,-7.0,-445.0,0.0,0.0,0.0
19:45:08.796000,-846.0,1023.0,210.0,-388.0,14.0,-485.0,0.0,0.0,0.0
19:45:08.801000,-841.0,1019.0,210.0,-388.0,14.0,-485.0,0.0,0.0,0.0
19:45:08.805000,-846.0,1017.0,205.0,-388.0,14.0,-485.0,0.0,0.0,0.0
19:45:08.810000,-856.0,1016.0,195.0,-344.0,71.0,-507.0,0.0,0.0,0.0
19:45:08.815000,-868.0,1012.0,172.0,-344.0,71.0,-507.0,0.0,0.0,0.0
19:45:08.820000,-879.0,1003.0,137.0,-297.0,121.0,-516.0,0.0,0.0,0.0
19:45:08.824000,-885.0,989.0,98.0,-297.0,121.0,-516.0,0.0,0.0,0.0
19:45:08.829000,-879.0,973.0,65.0,-262.0,122.0,-517.0,0.0,0.0,0.0
19:45:08.834000,-857.0,954.0,40.0,-262.0,122.0,-517.0,0.0,0.0,0.0
19:45:08.838000,-825.0,940.0,21.0,-208.0,49.0,-522.0,0.0,0.0,0.0
19:45:08.843000,-785.0,930.0,6.0,-208.0,49.0,-522.0,0.0,0.0,0.0
19:45:08.848000,-785.0,930.0,6.0,-157.0,-41.0,-534.0,0.0,0.0,0.0
19:45:08.852000,-742.0,921.0,1.0,-157.0,-41.0,-534.0,0.0,0.0,0.0
19:45:08.857000,-700.0,915.0,5.0,-164.0,-82.0,-547.0,0.0,0.0,0.0
19:45:08.862000,-662.0,912.0,15.0,-164.0,-82.0,-547.0,0.0,0.0,0.0
19:45:08.867000,-630.0,912.0,29.0,-203.0,-74.0,-555.0,0.0,0.0,0.0
19:45:08.871000,-603.0,912.0,42.0,-203.0,-74.0,-555.0,0.0,0.0,0.0
19:45:08.875000,-583.0,916.0,49.0,-223.0,-31.0,-558.0,0.0,0.0,0.0
19:45:08.881000,-569.0,923.0,54.0,-223.0,-31.0,-558.0,0.0,0.0,0.0
19:45:08.885000,-560.0,935.0,62.0,-211.0,1.0,-567.0,0.0,0.0,0.0
19:45:08.890000,-555.0,955.0,74.0,-211.0,1.0,-567.0,0.0,0.0,0.0
19:45:08.895000,-555.0,980.0,88.0,-195.0,4.0,-594.0,0.0,0.0,0.0
19:45:08.899000,-560.0,1005.0,97.0,-195.0,4.0,-594.0,0.0,0.0,0.0
19:45:08.904000,-568.0,1030.0,105.0,-201.0,10.0,-637.0,0.0,0.0,0.0
19:45:08.909000,-578.0,1053.0,112.0,-201.0,10.0,-637.0,0.0,0.0,0.0
19:45:08.914000,-582.0,1075.0,119.0,-201.0,10.0,-637.0,0.0,0.0,0.0
19:45:08.918000,-578.0,1094.0,119.0,-208.0,-4.0,-698.0,0.0,0.0,0.0
19:45:08.923000,-564.0,1109.0,108.0,-208.0,-4.0,-698.0,0.0,0.0,0.0
19:45:08.928000,-548.0,1124.0,84.0,-174.0,-60.0,-779.0,0.0,0.0,0.0
19:45:08.932000,-527.0,1138.0,52.0,-174.0,-60.0,-779.0,0.0,0.0,0.0
19:45:08.937000,-499.0,1151.0,18.0,-125.0,-110.0,-903.0,0.0,0.0,0.0
19:45:08.942000,-459.0,1146.0,-18.0,-125.0,-110.0,-903.0,0.0,0.0,0.0
19:45:08.946000,-407.0,1127.0,-46.0,-70.0,-168.0,-1025.0,0.0,0.0,0.0
19:45:08.951000,-352.0,1108.0,-74.0,-70.0,-168.0,-1025.0,0.0,0.0,0.0
19:45:08.956000,-352.0,1108.0,-74.0,27.0,-248.0,-1110.0,0.0,0.0,0.0
19:45:08.961000,-303.0,1093.0,-109.0,27.0,-248.0,-1110.0,0.0,0.0,0.0
19:45:08.965000,-255.0,1072.0,-146.0,81.0,-250.0,-1169.0,0.0,0.0,0.0
19:45:08.970000,-203.0,1039.0,-177.0,81.0,-250.0,-1169.0,0.0,0.0,0.0
19:45:08.975000,-152.0,989.0,-199.0,90.0,-229.0,-1187.0,0.0,0.0,0.0
19:45:08.979000,-103.0,935.0,-204.0,90.0,-229.0,-1187.0,0.0,0.0,0.0
19:45:08.984000,-63.0,879.0,-202.0,172.0,-221.0,-1166.0,0.0,0.0,0.0
19:45:08.989000,-39.0,825.0,-207.0,172.0,-221.0,-1166.0,0.0,0.0,0.0
19:45:08.993000,-38.0,775.0,-212.0,256.0,-110.0,-1124.0,0.0,0.0,0.0
19:45:08.998000,-51.0,731.0,-204.0,256.0,-110.0,-1124.0,0.0,0.0,0.0
19:45:09.003000,-69.0,693.0,-172.0,235.0,5.0,-1077.0,0.0,0.0,0.0
19:45:09.008000,-86.0,667.0,-125.0,235.0,5.0,-1077.0,0.0,0.0,0.0
19:45:09.012000,-100.0,648.0,-88.0,90.0,-1.0,-1026.0,0.0,0.0,0.0
19:45:09.017000,-109.0,637.0,-79.0,90.0,-1.0,-1026.0,0.0,0.0,0.0
19:45:09.022000,-111.0,630.0,-92.0,90.0,-1.0,-1026.0,0.0,0.0,0.0
19:45:09.026000,-112.0,625.0,-114.0,-88.0,-54.0,-981.0,0.0,0.0,0.0
19:45:09.031000,-116.0,616.0,-139.0,-88.0,-54.0,-981.0,0.0,0.0,0.0
19:45:09.036000,-130.0,609.0,-156.0,-121.0,-62.0,-947.0,0.0,0.0,0.0
19:45:09.040000,-153.0,602.0,-160.0,-121.0,-62.0,-947.0,0.0,0.0,0.0
19:45:09.045000,-183.0,596.0,-163.0,-29.0,-11.0,-924.0,0.0,0.0,0.0
19:45:09.049000,-183.0,596.0,-163.0,-29.0,-11.0,-924.0,0.0,0.0,0.0
19:45:09.055000,-262.0,586.0,-198.0,-24.0,50.0,-916.0,0.0,0.0,0.0
19:45:09.059000,-305.0,576.0,-203.0,-24.0,50.0,-916.0,0.0,0.0,0.0
19:45:09.064000,-305.0,576.0,-203.0,-62.0,61.0,-919.0,0.0,0.0,0.0
19:45:09.069000,-350.0,563.0,-199.0,-62.0,61.0,-919.0,0.0,0.0,0.0
19:45:09.073000,-397.0,551.0,-206.0,-33.0,67.0,-930.0,0.0,0.0,0.0
19:45:09.078000,-450.0,536.0,-232.0,-33.0,67.0,-930.0,0.0,0.0,0.0
19:45:09.083000,-512.0,519.0,-266.0,-15.0,117.0,-942.0,0.0,0.0,0.0
19:45:09.087000,-581.0,499.0,-291.0,-15.0,117.0,-942.0,0.0,0.0,0.0
19:45:09.092000,-657.0,480.0,-292.0,0.0,171.0,-941.0,0.0,0.0,0.0
19:45:09.097000,-739.0,462.0,-285.0,0.0,171.0,-941.0,0.0,0.0,0.0
19:45:09.102000,-821.0,444.0,-291.0,25.0,204.0,-935.0,0.0,0.0,0.0
19:45:09.106000,-903.0,425.0,-303.0,25.0,204.0,-935.0,0.0,0.0,0.0
19:45:09.110000,-988.0,403.0,-303.0,33.0,213.0,-923.0,0.0,0.0,0.0
19:45:09.116000,-1077.0,378.0,-296.0,33.0,213.0,-923.0,0.0,0.0,0.0
19:45:09.120000,-1169.0,350.0,-282.0,46.0,214.0,-905.0,0.0,0.0,0.0
19:45:09.125000,-1267.0,321.0,-265.0,46.0,214.0,-905.0,0.0,0.0,0.0
19:45:09.130000,-1368.0,289.0,-251.0,46.0,214.0,-905.0,0.0,0.0,0.0
19:45:09.134000,-1472.0,256.0,-239.0,69.0,235.0,-888.0,0.0,0.0,0.0
19:45:09.139000,-1584.0,226.0,-224.0,69.0,235.0,-888.0,0.0,0.0,0.0
19:45:09.144000,-1705.0,196.0,-211.0,82.0,263.0,-876.0,0.0,0.0,0.0
19:45:09.149000,-1837.0,170.0,-205.0,82.0,263.0,-876.0,0.0,0.0,0.0
19:45:09.153000,-1965.0,130.0,-215.0,53.0,282.0,-857.0,0.0,0.0,0.0
19:45:09.158000,-2085.0,90.0,-217.0,53.0,282.0,-857.0,0.0,0.0,0.0
19:45:09.163000,-2202.0,51.0,-238.0,47.0,250.0,-831.0,0.0,0.0,0.0
19:45:09.167000,-2306.0,15.0,-267.0,47.0,250.0,-831.0,0.0,0.0,0.0
19:45:09.172000,-2402.0,-18.0,-287.0,94.0,160.0,-800.0,0.0,0.0,0.0
19:45:09.177000,-2402.0,-18.0,-287.0,94.0,160.0,-800.0,0.0,0.0,0.0
19:45:09.181000,-2485.0,-49.0,-308.0,107.0,65.0,-767.0,0.0,0.0,0.0
19:45:09.186000,-2561.0,-77.0,-341.0,107.0,65.0,-767.0,0.0,0.0,0.0
19:45:09.191000,-2627.0,-103.0,-371.0,80.0,-33.0,-739.0,0.0,0.0,0.0
19:45:09.196000,-2678.0,-133.0,-391.0,80.0,-33.0,-739.0,0.0,0.0,0.0
19:45:09.200000,-2714.0,-166.0,-415.0,55.0,-171.0,-716.0,0.0,0.0,0.0
19:45:09.205000,-2736.0,-195.0,-437.0,55.0,-171.0,-716.0,0.0,0.0,0.0
19:45:09.209000,-2744.0,-227.0,-467.0,27.0,-324.0,-708.0,0.0,0.0,0.0
19:45:09.214000,-2735.0,-261.0,-518.0,27.0,-324.0,-708.0,0.0,0.0,0.0
19:45:09.219000,-2725.0,-293.0,-547.0,12.0,-450.0,-713.0,0.0,0.0,0.0
19:45:09.224000,-2699.0,-329.0,-552.0,12.0,-450.0,-713.0,0.0,0.0,0.0
19:45:09.228000,-2667.0,-358.0,-586.0,4.0,-566.0,-728.0,0.0,0.0,0.0
19:45:09.233000,-2629.0,-382.0,-654.0,4.0,-566.0,-728.0,0.0,0.0,0.0
19:45:09.238000,-2599.0,-404.0,-702.0,4.0,-566.0,-728.0,0.0,0.0,0.0
19:45:09.243000,-2575.0,-422.0,-716.0,-37.0,-664.0,-742.0,0.0,0.0,0.0
19:45:09.247000,-2562.0,-434.0,-716.0,-37.0,-664.0,-742.0,0.0,0.0,0.0
19:45:09.252000,-2561.0,-436.0,-715.0,-91.0,-708.0,-744.0,0.0,0.0,0.0
19:45:09.257000,-2580.0,-434.0,-702.0,-91.0,-708.0,-744.0,0.0,0.0,0.0
19:45:09.261000,-2577.0,-441.0,-712.0,-105.0,-689.0,-734.0,0.0,0.0,0.0
19:45:09.266000,-2557.0,-448.0,-800.0,-105.0,-689.0,-734.0,0.0,0.0,0.0
19:45:09.271000,-2550.0,-457.0,-864.0,-167.0,-649.0,-723.0,0.0,0.0,0.0
19:45:09.275000,-2530.0,-465.0,-865.0,-167.0,-649.0,-723.0,0.0,0.0,0.0
19:45:09.280000,-2491.0,-462.0,-843.0,-257.0,-694.0,-721.0,0.0,0.0,0.0
19:45:09.285000,-2491.0,-462.0,-843.0,-257.0,-694.0,-721.0,0.0,0.0,0.0
19:45:09.290000,-2454.0,-462.0,-816.0,-266.0,-828.0,-729.0,0.0,0.0,0.0
19:45:09.294000,-2422.0,-455.0,-805.0,-266.0,-828.0,-729.0,0.0,0.0,0.0
19:45:09.299000,-2379.0,-455.0,-833.0,-283.0,-955.0,-744.0,0.0,0.0,0.0
19:45:09.304000,-2321.0,-471.0,-843.0,-283.0,-955.0,-744.0,0.0,0.0,0.0
19:45:09.308000,-2284.0,-490.0,-849.0,-342.0,-1085.0,-723.0,0.0,0.0,0.0
19:45:09.313000,-2266.0,-490.0,-921.0,-342.0,-1085.0,-723.0,0.0,0.0,0.0
19:45:09.318000,-2226.0,-494.0,-956.0,-456.0,-1056.0,-675.0,0.0,0.0,0.0
19:45:09.322000,-2257.0,-504.0,-910.0,-456.0,-1056.0,-675.0,0.0,0.0,0.0
19:45:09.327000,-2228.0,-513.0,-881.0,-457.0,-946.0,-660.0,0.0,0.0,0.0
19:45:09.332000,-2168.0,-501.0,-898.0,-457.0,-946.0,-660.0,0.0,0.0,0.0
19:45:09.337000,-2109.0,-490.0,-940.0,-376.0,-985.0,-662.0,0.0,0.0,0.0
19:45:09.341000,-2056.0,-466.0,-969.0,-376.0,-985.0,-662.0,0.0,0.0,0.0
19:45:09.345000,-1993.0,-450.0,-919.0,-376.0,-985.0,-662.0,0.0,0.0,0.0
19:45:09.351000,-1913.0,-433.0,-836.0,-447.0,-1043.0,-658.0,0.0,0.0,0.0
19:45:09.355000,-1857.0,-408.0,-781.0,-447.0,-1043.0,-658.0,0.0,0.0,0.0
19:45:09.360000,-1834.0,-381.0,-813.0,-589.0,-1025.0,-650.0,0.0,0.0,0.0
19:45:09.365000,-1847.0,-368.0,-847.0,-589.0,-1025.0,-650.0,0.0,0.0,0.0
19:45:09.369000,-1767.0,-366.0,-792.0,-659.0,-963.0,-625.0,0.0,0.0,0.0
19:45:09.374000,-1743.0,-361.0,-707.0,-659.0,-963.0,-625.0,0.0,0.0,0.0
19:45:09.379000,-1719.0,-350.0,-664.0,-625.0,-951.0,-604.0,0.0,0.0,0.0
19:45:09.384000,-1653.0,-331.0,-695.0,-625.0,-951.0,-604.0,0.0,0.0,0.0
19:45:09.388000,-1580.0,-317.0,-784.0,-603.0,-945.0,-613.0,0.0,0.0,0.0
19:45:09.393000,-1580.0,-317.0,-784.0,-603.0,-945.0,-613.0,0.0,0.0,0.0
19:45:09.398000,-1550.0,-312.0,-840.0,-621.0,-917.0,-594.0,0.0,0.0,0.0
19:45:09.402000,-1529.0,-304.0,-830.0,-621.0,-917.0,-594.0,0.0,0.0,0.0
19:45:09.407000,-1488.0,-296.0,-778.0,-654.0,-1020.0,-546.0,0.0,0.0,0.0
19:45:09.412000,-1442.0,-288.0,-776.0,-654.0,-1020.0,-546.0,0.0,0.0,0.0
19:45:09.416000,-1365.0,-278.0,-826.0,-649.0,-1120.0,-523.0,0.0,0.0,0.0
19:45:09.421000,-1322.0,-268.0,-892.0,-649.0,-1120.0,-523.0,0.0,0.0,0.0
19:45:09.426000,-1302.0,-268.0,-976.0,-492.0,-1016.0,-499.0,0.0,0.0,0.0
19:45:09.431000,-1268.0,-273.0,-1045.0,-492.0,-1016.0,-499.0,0.0,0.0,0.0
19:45:09.435000,-1220.0,-282.0,-1069.0,-373.0,-954.0,-467.0,0.0,0.0,0.0
19:45:09.440000,-1164.0,-291.0,-1052.0,-373.0,-954.0,-467.0,0.0,0.0,0.0
19:45:09.445000,-1096.0,-300.0,-1050.0,-429.0,-1040.0,-446.0,0.0,0.0,0.0
19:45:09.449000,-1035.0,-308.0,-1066.0,-429.0,-1040.0,-446.0,0.0,0.0,0.0
19:45:09.454000,-963.0,-312.0,-1078.0,-429.0,-1040.0,-446.0,0.0,0.0,0.0
19:45:09.459000,-919.0,-310.0,-1116.0,-529.0,-1046.0,-423.0,0.0,0.0,0.0
19:45:09.463000,-893.0,-299.0,-1123.0,-529.0,-1046.0,-423.0,0.0,0.0,0.0
19:45:09.468000,-865.0,-290.0,-1078.0,-630.0,-941.0,-389.0,0.0,0.0,0.0
19:45:09.473000,-851.0,-282.0,-1032.0,-630.0,-941.0,-389.0,0.0,0.0,0.0
19:45:09.478000,-834.0,-281.0,-1018.0,-683.0,-870.0,-349.0,0.0,0.0,0.0
19:45:09.482000,-803.0,-282.0,-1008.0,-683.0,-870.0,-349.0,0.0,0.0,0.0
19:45:09.487000,-772.0,-278.0,-975.0,-663.0,-849.0,-314.0,0.0,0.0,0.0
19:45:09.491000,-772.0,-278.0,-975.0,-663.0,-849.0,-314.0,0.0,0.0,0.0
19:45:09.496000,-738.0,-252.0,-890.0,-654.0,-806.0,-287.0,0.0,0.0,0.0
19:45:09.501000,-738.0,-252.0,-890.0,-654.0,-806.0,-287.0,0.0,0.0,0.0
19:45:09.506000,-724.0,-237.0,-846.0,-688.0,-778.0,-270.0,0.0,0.0,0.0
19:45:09.510000,-697.0,-226.0,-807.0,-688.0,-778.0,-270.0,0.0,0.0,0.0
19:45:09.515000,-669.0,-213.0,-779.0,-715.0,-786.0,-269.0,0.0,0.0,0.0
19:45:09.520000,-638.0,-197.0,-746.0,-715.0,-786.0,-269.0,0.0,0.0,0.0
19:45:09.525000,-623.0,-186.0,-755.0,-750.0,-744.0,-266.0,0.0,0.0,0.0
19:45:09.529000,-616.0,-183.0,-788.0,-750.0,-744.0,-266.0,0.0,0.0,0.0
19:45:09.534000,-597.0,-182.0,-749.0,-763.0,-698.0,-256.0,0.0,0.0,0.0
19:45:09.539000,-579.0,-182.0,-655.0,-763.0,-698.0,-256.0,0.0,0.0,0.0
19:45:09.543000,-564.0,-179.0,-564.0,-757.0,-699.0,-252.0,0.0,0.0,0.0
19:45:09.548000,-549.0,-174.0,-509.0,-757.0,-699.0,-252.0,0.0,0.0,0.0
19:45:09.553000,-533.0,-171.0,-532.0,-773.0,-683.0,-251.0,0.0,0.0,0.0
19:45:09.557000,-513.0,-170.0,-579.0,-773.0,-683.0,-251.0,0.0,0.0,0.0
19:45:09.562000,-491.0,-172.0,-579.0,-773.0,-641.0,-251.0,0.0,0.0,0.0
19:45:09.567000,-476.0,-172.0,-538.0,-742.0,-641.0,-251.0,0.0,0.0,0.0
19:45:09.572000,-466.0,-168.0,-512.0,-742.0,-641.0,-251.0,0.0,0.0,0.0
19:45:09.576000,-456.0,-165.0,-508.0,-734.0,-594.0,-251.0,0.0,0.0,0.0
19:45:09.580000,-440.0,-158.0,-478.0,-734.0,-594.0,-251.0,0.0,0.0,0.0
19:45:09.586000,-430.0,-149.0,-449.0,-789.0,-550.0,-253.0,0.0,0.0,0.0
19:45:09.590000,-429.0,-139.0,-464.0,-789.0,-550.0,-253.0,0.0,0.0,0.0
19:45:09.595000,-436.0,-130.0,-508.0,-827.0,-492.0,-246.0,0.0,0.0,0.0
19:45:09.600000,-460.0,-121.0,-539.0,-827.0,-492.0,-246.0,0.0,0.0,0.0
19:45:09.604000,-480.0,-121.0,-485.0,-886.0,-456.0,-222.0,0.0,0.0,0.0
19:45:09.609000,-462.0,-123.0,-259.0,-886.0,-456.0,-222.0,0.0,0.0,0.0
19:45:09.614000,-462.0,-123.0,-259.0,-996.0,-544.0,-192.0,0.0,0.0,0.0
19:45:09.619000,-419.0,-121.0,-179.0,-996.0,-544.0,-192.0,0.0,0.0,0.0
19:45:09.623000,-360.0,-123.0,-312.0,-959.0,-560.0,-189.0,0.0,0.0,0.0
19:45:09.628000,-331.0,-116.0,-430.0,-959.0,-560.0,-189.0,0.0,0.0,0.0
19:45:09.633000,-319.0,-110.0,-477.0,-763.0,-432.0,-197.0,0.0,0.0,0.0
19:45:09.637000,-321.0,-105.0,-471.0,-763.0,-432.0,-197.0,0.0,0.0,0.0
19:45:09.642000,-312.0,-102.0,-426.0,-719.0,-352.0,-204.0,0.0,0.0,0.0
19:45:09.647000,-294.0,-98.0,-397.0,-719.0,-352.0,-204.0,0.0,0.0,0.0
19:45:09.651000,-285.0,-90.0,-378.0,-872.0,-314.0,-226.0,0.0,0.0,0.0
19:45:09.656000,-287.0,-82.0,-370.0,-872.0,-314.0,-226.0,0.0,0.0,0.0
19:45:09.661000,-273.0,-78.0,-396.0,-1036.0,-275.0,-248.0,0.0,0.0,0.0
19:45:09.666000,-271.0,-69.0,-372.0,-1036.0,-275.0,-248.0,0.0,0.0,0.0
19:45:09.670000,-263.0,-66.0,-319.0,-1108.0,-268.0,-262.0,0.0,0.0,0.0
19:45:09.675000,-253.0,-63.0,-282.0,-1108.0,-268.0,-262.0,0.0,0.0,0.0
19:45:09.680000,-246.0,-56.0,-276.0,-1108.0,-268.0,-262.0,0.0,0.0,0.0
19:45:09.684000,-226.0,-51.0,-272.0,-1112.0,-276.0,-265.0,0.0,0.0,0.0
19:45:09.689000,-204.0,-48.0,-266.0,-1112.0,-276.0,-265.0,0.0,0.0,0.0
19:45:09.694000,-189.0,-42.0,-256.0,-1075.0,-269.0,-267.0,0.0,0.0,0.0
19:45:09.698000,-175.0,-34.0,-252.0,-1075.0,-269.0,-267.0,0.0,0.0,0.0
19:45:09.703000,-165.0,-24.0,-224.0,-1038.0,-259.0,-265.0,0.0,0.0,0.0
19:45:09.708000,-156.0,-18.0,-200.0,-1038.0,-259.0,-265.0,0.0,0.0,0.0
19:45:09.713000,-145.0,-12.0,-214.0,-1004.0,-259.0,-262.0,0.0,0.0,0.0
19:45:09.717000,-136.0,-3.0,-259.0,-1004.0,-259.0,-262.0,0.0,0.0,0.0
19:45:09.722000,-136.0,-3.0,-259.0,-1005.0,-257.0,-263.0,0.0,0.0,0.0
19:45:09.727000,-135.0,-2.0,-252.0,-1005.0,-257.0,-263.0,0.0,0.0,0.0
19:45:09.731000,-132.0,-3.0,-165.0,-1049.0,-264.0,-268.0,0.0,0.0,0.0
19:45:09.736000,-124.0,0.0,-122.0,-1049.0,-264.0,-268.0,0.0,0.0,0.0
19:45:09.741000,-107.0,-1.0,-167.0,-1060.0,-249.0,-279.0,0.0,0.0,0.0
19:45:09.745000,-96.0,-7.0,-221.0,-1060.0,-249.0,-279.0,0.0,0.0,0.0
19:45:09.750000,-97.0,-9.0,-243.0,-1039.0,-191.0,-286.0,0.0,0.0,0.0
19:45:09.755000,-95.0,-14.0,-247.0,-1039.0,-191.0,-286.0,0.0,0.0,0.0
19:45:09.760000,-83.0,-28.0,-268.0,-1034.0,-148.0,-287.0,0.0,0.0,0.0
19:45:09.764000,-84.0,-35.0,-297.0,-1034.0,-148.0,-287.0,0.0,0.0,0.0
19:45:09.769000,-113.0,-30.0,-242.0,-1088.0,-195.0,-278.0,0.0,0.0,0.0
19:45:09.774000,-126.0,-35.0,-46.0,-1088.0,-195.0,-278.0,0.0,0.0,0.0
19:45:09.778000,-111.0,-37.0,56.0,-1183.0,-272.0,-279.0,0.0,0.0,0.0
19:45:09.783000,-96.0,-46.0,-188.0,-1183.0,-272.0,-279.0,0.0,0.0,0.0
19:45:09.788000,-115.0,-41.0,-414.0,-1183.0,-272.0,-279.0,0.0,0.0,0.0
19:45:09.792000,-150.0,-35.0,-340.0,-1173.0,-167.0,-271.0,0.0,0.0,0.0
19:45:09.797000,-170.0,-36.0,-124.0,-1173.0,-167.0,-271.0,0.0,0.0,0.0
19:45:09.802000,-201.0,-35.0,-108.0,-1081.0,-146.0,-259.0,0.0,0.0,0.0
19:45:09.807000,-207.0,-42.0,-286.0,-1081.0,-146.0,-259.0,0.0,0.0,0.0
19:45:09.811000,-222.0,-42.0,-390.0,-1121.0,-194.0,-271.0,0.0,0.0,0.0
19:45:09.815000,-222.0,-42.0,-390.0,-1121.0,-194.0,-271.0,0.0,0.0,0.0
19:45:09.821000,-258.0,-51.0,-408.0,-1168.0,-130.0,-274.0,0.0,0.0,0.0
19:45:09.825000,-280.0,-47.0,-446.0,-1168.0,-130.0,-274.0,0.0,0.0,0.0
19:45:09.830000,-280.0,-47.0,-446.0,-1190.0,-112.0,-268.0,0.0,0.0,0.0
19:45:09.835000,-277.0,-44.0,-487.0,-1190.0,-112.0,-268.0,0.0,0.0,0.0
19:45:09.839000,-272.0,-40.0,-520.0,-1220.0,-149.0,-272.0,0.0,0.0,0.0
19:45:09.844000,-242.0,-39.0,-547.0,-1220.0,-149.0,-272.0,0.0,0.0,0.0
19:45:09.849000,-214.0,-37.0,-583.0,-1218.0,-157.0,-280.0,0.0,0.0,0.0
19:45:09.854000,-185.0,-39.0,-601.0,-1218.0,-157.0,-280.0,0.0,0.0,0.0
19:45:09.858000,-147.0,-48.0,-560.0,-1265.0,-125.0,-273.0,0.0,0.0,0.0
19:45:09.863000,-114.0,-56.0,-507.0,-1265.0,-125.0,-273.0,0.0,0.0,0.0
19:45:09.868000,-79.0,-68.0,-457.0,-1301.0,-118.0,-251.0,0.0,0.0,0.0
19:45:09.872000,-37.0,-86.0,-417.0,-1301.0,-118.0,-251.0,0.0,0.0,0.0
19:45:09.877000,1.0,-93.0,-343.0,-1277.0,-135.0,-235.0,0.0,0.0,0.0
19:45:09.882000,25.0,-102.0,-285.0,-1277.0,-135.0,-235.0,0.0,0.0,0.0
19:45:09.886000,68.0,-125.0,-292.0,-1278.0,-53.0,-228.0,0.0,0.0,0.0
19:45:09.891000,126.0,-151.0,-235.0,-1278.0,-53.0,-228.0,0.0,0.0,0.0
19:45:09.896000,150.0,-168.0,-146.0,-1278.0,-53.0,-228.0,0.0,0.0,0.0
19:45:09.901000,175.0,-182.0,-152.0,-1278.0,62.0,-216.0,0.0,0.0,0.0
19:45:09.905000,203.0,-198.0,-238.0,-1278.0,62.0,-216.0,0.0,0.0,0.0
19:45:09.910000,193.0,-199.0,-162.0,-1272.0,63.0,-201.0,0.0,0.0,0.0
19:45:09.915000,196.0,-208.0,-23.0,-1272.0,63.0,-201.0,0.0,0.0,0.0
19:45:09.919000,177.0,-233.0,14.0,-1312.0,157.0,-183.0,0.0,0.0,0.0
19:45:09.924000,92.0,-248.0,-4.0,-1312.0,157.0,-183.0,0.0,0.0,0.0
19:45:09.929000,9.0,-255.0,-98.0,-1304.0,372.0,-156.0,0.0,0.0,0.0
19:45:09.933000,-40.0,-249.0,-162.0,-1304.0,372.0,-156.0,0.0,0.0,0.0
19:45:09.938000,-40.0,-249.0,-162.0,-1318.0,452.0,-142.0,0.0,0.0,0.0
19:45:09.943000,-44.0,-257.0,-93.0,-1318.0,452.0,-142.0,0.0,0.0,0.0
19:45:09.947000,-67.0,-257.0,93.0,-1364.0,350.0,-145.0,0.0,0.0,0.0
19:45:09.952000,-60.0,-282.0,68.0,-1364.0,350.0,-145.0,0.0,0.0,0.0
19:45:09.957000,-70.0,-283.0,-5.0,-1344.0,255.0,-134.0,0.0,0.0,0.0
19:45:09.962000,-137.0,-272.0,49.0,-1344.0,255.0,-134.0,0.0,0.0,0.0
19:45:09.966000,-268.0,-261.0,210.0,-1310.0,134.0,-96.0,0.0,0.0,0.0
19:45:09.971000,-334.0,-225.0,219.0,-1310.0,134.0,-96.0,0.0,0.0,0.0
19:45:09.976000,-273.0,-168.0,-79.0,-1355.0,79.0,-114.0,0.0,0.0,0.0
19:45:09.980000,-79.0,-145.0,-63.0,-1355.0,79.0,-114.0,0.0,0.0,0.0
19:45:09.985000,-43.0,-87.0,385.0,-1502.0,-56.0,-145.0,0.0,0.0,0.0
19:45:09.990000,-40.0,-45.0,334.0,-1502.0,-56.0,-145.0,0.0,0.0,0.0
19:45:09.994000,-66.0,6.0,-327.0,-1643.0,-170.0,-132.0,0.0,0.0,0.0
19:45:09.999000,49.0,4.0,-629.0,-1643.0,-170.0,-132.0,0.0,0.0,0.0
19:45:10.004000,74.0,25.0,-596.0,-1643.0,-170.0,-132.0,0.0,0.0,0.0
19:45:10.009000,-46.0,20.0,-637.0,-1450.0,-159.0,-131.0,0.0,0.0,0.0
19:45:10.013000,-203.0,47.0,-274.0,-1450.0,-159.0,-131.0,0.0,0.0,0.0
19:45:10.018000,-255.0,56.0,33.0,-1113.0,-162.0,-129.0,0.0,0.0,0.0
19:45:10.023000,-261.0,82.0,150.0,-1113.0,-162.0,-129.0,0.0,0.0,0.0
19:45:10.027000,-282.0,62.0,319.0,-1105.0,-313.0,-135.0,0.0,0.0,0.0
19:45:10.032000,-233.0,4.0,281.0,-1105.0,-313.0,-135.0,0.0,0.0,0.0
19:45:10.037000,-140.0,-7.0,191.0,-1168.0,-599.0,-137.0,0.0,0.0,0.0
19:45:10.041000,2.0,-64.0,168.0,-1168.0,-599.0,-137.0,0.0,0.0,0.0
19:45:10.046000,88.0,-149.0,60.0,-862.0,-913.0,-124.0,0.0,0.0,0.0
19:45:10.051000,88.0,-149.0,60.0,-862.0,-913.0,-124.0,0.0,0.0,0.0
19:45:10.056000,9.0,-177.0,104.0,-453.0,-1081.0,-89.0,0.0,0.0,0.0
19:45:10.060000,-53.0,-201.0,206.0,-453.0,-1081.0,-89.0,0.0,0.0,0.0
19:45:10.065000,-28.0,-258.0,101.0,-260.0,-1095.0,-72.0,0.0,0.0,0.0
19:45:10.070000,46.0,-222.0,107.0,-260.0,-1095.0,-72.0,0.0,0.0,0.0
19:45:10.074000,80.0,-298.0,-89.0,-372.0,-1159.0,-61.0,0.0,0.0,0.0
19:45:10.079000,-65.0,-296.0,-267.0,-372.0,-1159.0,-61.0,0.0,0.0,0.0
19:45:10.084000,-110.0,-278.0,-267.0,-507.0,-909.0,-44.0,0.0,0.0,0.0
19:45:10.088000,-97.0,-315.0,-624.0,-507.0,-909.0,-44.0,0.0,0.0,0.0
19:45:10.093000,-179.0,-296.0,-841.0,-488.0,-753.0,-29.0,0.0,0.0,0.0
19:45:10.098000,-178.0,-266.0,-715.0,-488.0,-753.0,-29.0,0.0,0.0,0.0
19:45:10.103000,-182.0,-252.0,-630.0,-671.0,-862.0,-35.0,0.0,0.0,0.0
19:45:10.107000,-64.0,-223.0,-733.0,-671.0,-862.0,-35.0,0.0,0.0,0.0
19:45:10.112000,106.0,-226.0,-664.0,-671.0,-862.0,-35.0,0.0,0.0,0.0
19:45:10.117000,177.0,-271.0,-569.0,-852.0,-977.0,-104.0,0.0,0.0,0.0
19:45:10.121000,113.0,-256.0,-506.0,-852.0,-977.0,-104.0,0.0,0.0,0.0
19:45:10.126000,47.0,-273.0,-654.0,-855.0,-755.0,-133.0,0.0,0.0,0.0
19:45:10.131000,-21.0,-325.0,-865.0,-855.0,-755.0,-133.0,0.0,0.0,0.0
19:45:10.135000,-88.0,-299.0,-756.0,-695.0,-446.0,-77.0,0.0,0.0,0.0
19:45:10.140000,-47.0,-275.0,-627.0,-695.0,-446.0,-77.0,0.0,0.0,0.0
19:45:10.145000,-14.0,-257.0,-486.0,-622.0,-532.0,-59.0,0.0,0.0,0.0
19:45:10.150000,47.0,-233.0,-360.0,-622.0,-532.0,-59.0,0.0,0.0,0.0
19:45:10.154000,56.0,-231.0,-396.0,-773.0,-652.0,-81.0,0.0,0.0,0.0
19:45:10.159000,56.0,-231.0,-396.0,-773.0,-652.0,-81.0,0.0,0.0,0.0
19:45:10.164000,27.0,-249.0,-317.0,-879.0,-629.0,-47.0,0.0,0.0,0.0
19:45:10.168000,-98.0,-240.0,-113.0,-879.0,-629.0,-47.0,0.0,0.0,0.0
19:45:10.173000,-142.0,-252.0,4.0,-771.0,-509.0,-13.0,0.0,0.0,0.0
19:45:10.178000,-243.0,-212.0,-9.0,-771.0,-509.0,-13.0,0.0,0.0,0.0
19:45:10.182000,-308.0,-189.0,-131.0,-619.0,-382.0,11.0,0.0,0.0,0.0
19:45:10.187000,-282.0,-158.0,-279.0,-619.0,-382.0,11.0,0.0,0.0,0.0
19:45:10.192000,-199.0,-168.0,-489.0,-792.0,-532.0,24.0,0.0,0.0,0.0
19:45:10.197000,-66.0,-211.0,-454.0,-792.0,-532.0,24.0,0.0,0.0,0.0
19:45:10.201000,-35.0,-222.0,-140.0,-977.0,-769.0,17.0,0.0,0.0,0.0
19:45:10.206000,-43.0,-204.0,102.0,-977.0,-769.0,17.0,0.0,0.0,0.0
19:45:10.211000,-72.0,-187.0,-6.0,-837.0,-626.0,30.0,0.0,0.0,0.0
19:45:10.215000,-39.0,-201.0,-164.0,-837.0,-626.0,30.0,0.0,0.0,0.0
19:45:10.220000,1.0,-194.0,-244.0,-837.0,-626.0,30.0,0.0,0.0,0.0
19:45:10.225000,-21.0,-172.0,-348.0,-718.0,-518.0,28.0,0.0,0.0,0.0
19:45:10.229000,-81.0,-133.0,-476.0,-718.0,-518.0,28.0,0.0,0.0,0.0
19:45:10.234000,-133.0,-105.0,-457.0,-887.0,-533.0,26.0,0.0,0.0,0.0
19:45:10.239000,-168.0,-93.0,-390.0,-887.0,-533.0,26.0,0.0,0.0,0.0
19:45:10.244000,-201.0,-70.0,-336.0,-912.0,-530.0,37.0,0.0,0.0,0.0
19:45:10.248000,-151.0,-60.0,-128.0,-912.0,-530.0,37.0,0.0,0.0,0.0
19:45:10.253000,-97.0,-49.0,15.0,-731.0,-619.0,22.0,0.0,0.0,0.0
19:45:10.258000,-139.0,-53.0,-90.0,-731.0,-619.0,22.0,0.0,0.0,0.0
19:45:10.262000,-101.0,-36.0,-39.0,-857.0,-592.0,-8.0,0.0,0.0,0.0
19:45:10.267000,-101.0,-36.0,-39.0,-857.0,-592.0,-8.0,0.0,0.0,0.0
19:45:10.272000,30.0,-62.0,109.0,-994.0,-578.0,-38.0,0.0,0.0,0.0
19:45:10.276000,44.0,-66.0,-23.0,-994.0,-578.0,-38.0,0.0,0.0,0.0
19:45:10.281000,98.0,-68.0,-212.0,-966.0,-607.0,-67.0,0.0,0.0,0.0
19:45:10.285000,123.0,-32.0,-237.0,-966.0,-607.0,-67.0,0.0,0.0,0.0
19:45:10.291000,153.0,-40.0,-26.0,-849.0,-599.0,-48.0,0.0,0.0,0.0
19:45:10.295000,131.0,-25.0,176.0,-849.0,-599.0,-48.0,0.0,0.0,0.0
19:45:10.300000,142.0,-23.0,83.0,-782.0,-550.0,-36.0,0.0,0.0,0.0
19:45:10.305000,207.0,10.0,18.0,-782.0,-550.0,-36.0,0.0,0.0,0.0
19:45:10.309000,243.0,49.0,99.0,-867.0,-628.0,-75.0,0.0,0.0,0.0
19:45:10.314000,371.0,77.0,93.0,-867.0,-628.0,-75.0,0.0,0.0,0.0
19:45:10.319000,471.0,39.0,-33.0,-924.0,-718.0,-83.0,0.0,0.0,0.0
19:45:10.323000,406.0,58.0,-189.0,-924.0,-718.0,-83.0,0.0,0.0,0.0
19:45:10.328000,415.0,76.0,-389.0,-924.0,-650.0,-83.0,0.0,0.0,0.0
19:45:10.333000,438.0,100.0,-466.0,-865.0,-650.0,-66.0,0.0,0.0,0.0
19:45:10.338000,441.0,133.0,-290.0,-865.0,-650.0,-66.0,0.0,0.0,0.0
19:45:10.342000,487.0,89.0,-240.0,-823.0,-728.0,-73.0,0.0,0.0,0.0
19:45:10.347000,378.0,91.0,-215.0,-823.0,-728.0,-73.0,0.0,0.0,0.0
19:45:10.352000,320.0,79.0,-219.0,-781.0,-649.0,-60.0,0.0,0.0,0.0
19:45:10.356000,338.0,74.0,-199.0,-781.0,-649.0,-60.0,0.0,0.0,0.0
19:45:10.361000,410.0,58.0,-210.0,-704.0,-541.0,-52.0,0.0,0.0,0.0
19:45:10.366000,440.0,42.0,-427.0,-704.0,-541.0,-52.0,0.0,0.0,0.0
19:45:10.370000,447.0,32.0,-551.0,-826.0,-574.0,-59.0,0.0,0.0,0.0
19:45:10.375000,447.0,32.0,-551.0,-826.0,-574.0,-59.0,0.0,0.0,0.0
19:45:10.380000,400.0,32.0,-455.0,-874.0,-536.0,-37.0,0.0,0.0,0.0
19:45:10.385000,347.0,48.0,-466.0,-874.0,-536.0,-37.0,0.0,0.0,0.0
19:45:10.389000,278.0,51.0,-485.0,-844.0,-482.0,-15.0,0.0,0.0,0.0
19:45:10.394000,240.0,60.0,-347.0,-844.0,-482.0,-15.0,0.0,0.0,0.0
19:45:10.399000,265.0,99.0,-130.0,-840.0,-392.0,-2.0,0.0,0.0,0.0
19:45:10.403000,285.0,63.0,-139.0,-840.0,-392.0,-2.0,0.0,0.0,0.0
19:45:10.408000,212.0,88.0,-378.0,-866.0,-368.0,1.0,0.0,0.0,0.0
19:45:10.413000,253.0,93.0,-301.0,-866.0,-368.0,1.0,0.0,0.0,0.0
19:45:10.417000,361.0,55.0,-160.0,-904.0,-458.0,-3.0,0.0,0.0,0.0
19:45:10.422000,340.0,35.0,-269.0,-904.0,-458.0,-3.0,0.0,0.0,0.0
19:45:10.427000,319.0,29.0,-436.0,-835.0,-474.0,-20.0,0.0,0.0,0.0
19:45:10.432000,291.0,37.0,-442.0,-835.0,-474.0,-20.0,0.0,0.0,0.0
19:45:10.436000,212.0,26.0,-398.0,-729.0,-320.0,-23.0,0.0,0.0,0.0
19:45:10.441000,125.0,29.0,-249.0,-729.0,-320.0,-23.0,0.0,0.0,0.0
19:45:10.446000,105.0,16.0,-112.0,-729.0,-320.0,-23.0,0.0,0.0,0.0
19:45:10.450000,107.0,-22.0,-229.0,-719.0,-236.0,-24.0,0.0,0.0,0.0
19:45:10.455000,46.0,-13.0,-367.0,-719.0,-236.0,-24.0,0.0,0.0,0.0
19:45:10.460000,72.0,-30.0,-227.0,-787.0,-342.0,-25.0,0.0,0.0,0.0
19:45:10.464000,37.0,-32.0,-68.0,-787.0,-342.0,-25.0,0.0,0.0,0.0
19:45:10.469000,-2.0,-32.0,-77.0,-843.0,-400.0,-9.0,0.0,0.0,0.0
19:45:10.474000,-49.0,-24.0,-97.0,-843.0,-400.0,-9.0,0.0,0.0,0.0
19:45:10.479000,-95.0,-7.0,-16.0,-880.0,-314.0,7.0,0.0,0.0,0.0
19:45:10.483000,-150.0,1.0,-10.0,-880.0,-314.0,7.0,0.0,0.0,0.0
19:45:10.488000,-150.0,1.0,-10.0,-898.0,-277.0,17.0,0.0,0.0,0.0
19:45:10.493000,-149.0,15.0,-184.0,-898.0,-277.0,17.0,0.0,0.0,0.0
19:45:10.497000,-112.0,24.0,-290.0,-902.0,-336.0,11.0,0.0,0.0,0.0
19:45:10.502000,-93.0,30.0,-200.0,-902.0,-336.0,11.0,0.0,0.0,0.0
19:45:10.507000,-114.0,42.0,-81.0,-901.0,-401.0,7.0,0.0,0.0,0.0
19:45:10.511000,-118.0,49.0,-37.0,-901.0,-401.0,7.0,0.0,0.0,0.0
19:45:10.516000,-135.0,67.0,-74.0,-914.0,-413.0,5.0,0.0,0.0,0.0
19:45:10.520000,-116.0,89.0,-135.0,-914.0,-413.0,5.0,0.0,0.0,0.0
19:45:10.526000,-53.0,94.0,-130.0,-887.0,-459.0,-11.0,0.0,0.0,0.0
19:45:10.530000,-39.0,89.0,-37.0,-887.0,-459.0,-11.0,0.0,0.0,0.0
19:45:10.535000,-31.0,85.0,-22.0,-839.0,-462.0,-10.0,0.0,0.0,0.0
19:45:10.540000,-10.0,84.0,-60.0,-839.0,-462.0,-10.0,0.0,0.0,0.0
19:45:10.544000,-30.0,84.0,-65.0,-783.0,-420.0,5.0,0.0,0.0,0.0
19:45:10.549000,-32.0,94.0,-33.0,-783.0,-420.0,5.0,0.0,0.0,0.0
19:45:10.554000,15.0,74.0,-14.0,-783.0,-420.0,5.0,0.0,0.0,0.0
19:45:10.558000,2.0,80.0,98.0,-786.0,-420.0,8.0,0.0,0.0,0.0
19:45:10.563000,7.0,102.0,95.0,-786.0,-420.0,8.0,0.0,0.0,0.0
19:45:10.568000,-44.0,104.0,-43.0,-918.0,-404.0,0.0,0.0,0.0,0.0
19:45:10.573000,-33.0,95.0,-47.0,-918.0,-404.0,0.0,0.0,0.0,0.0
19:45:10.577000,-40.0,83.0,-25.0,-969.0,-435.0,-15.0,0.0,0.0,0.0
19:45:10.582000,-53.0,99.0,-98.0,-969.0,-435.0,-15.0,0.0,0.0,0.0
19:45:10.587000,-36.0,93.0,-203.0,-942.0,-422.0,-30.0,0.0,0.0,0.0
19:45:10.591000,-54.0,95.0,-225.0,-942.0,-422.0,-30.0,0.0,0.0,0.0
19:45:10.596000,-54.0,95.0,-225.0,-947.0,-383.0,-28.0,0.0,0.0,0.0
19:45:10.601000,-53.0,84.0,-193.0,-947.0,-383.0,-28.0,0.0,0.0,0.0
19:45:10.605000,-72.0,82.0,-132.0,-944.0,-405.0,-18.0,0.0,0.0,0.0
19:45:10.610000,-88.0,92.0,-119.0,-944.0,-405.0,-18.0,0.0,0.0,0.0
19:45:10.615000,-124.0,114.0,-202.0,-1019.0,-361.0,-15.0,0.0,0.0,0.0
19:45:10.620000,-145.0,124.0,-296.0,-1019.0,-361.0,-15.0,0.0,0.0,0.0
19:45:10.624000,-156.0,126.0,-287.0,-1096.0,-394.0,-19.0,0.0,0.0,0.0
19:45:10.629000,-147.0,135.0,-314.0,-1096.0,-394.0,-19.0,0.0,0.0,0.0
19:45:10.634000,-158.0,152.0,-340.0,-1128.0,-436.0,-21.0,0.0,0.0,0.0
19:45:10.638000,-184.0,163.0,-313.0,-1128.0,-436.0,-21.0,0.0,0.0,0.0
19:45:10.643000,-231.0,179.0,-378.0,-1156.0,-355.0,-7.0,0.0,0.0,0.0
19:45:10.648000,-263.0,208.0,-383.0,-1156.0,-355.0,-7.0,0.0,0.0,0.0
19:45:10.652000,-265.0,238.0,-301.0,-1146.0,-423.0,-1.0,0.0,0.0,0.0
19:45:10.657000,-260.0,256.0,-297.0,-1146.0,-423.0,-1.0,0.0,0.0,0.0
19:45:10.662000,-169.0,284.0,-469.0,-1146.0,-423.0,-1.0,0.0,0.0,0.0
19:45:10.667000,-130.0,316.0,-651.0,-1238.0,-562.0,-33.0,0.0,0.0,0.0
19:45:10.671000,-77.0,345.0,-672.0,-1238.0,-562.0,-33.0,0.0,0.0,0.0
19:45:10.676000,-89.0,361.0,-514.0,-1212.0,-643.0,-52.0,0.0,0.0,0.0
19:45:10.681000,-51.0,330.0,-457.0,-1212.0,-643.0,-52.0,0.0,0.0,0.0
19:45:10.685000,-20.0,361.0,-611.0,-1076.0,-548.0,-41.0,0.0,0.0,0.0
19:45:10.690000,28.0,393.0,-759.0,-1076.0,-548.0,-41.0,0.0,0.0,0.0
19:45:10.695000,137.0,382.0,-741.0,-1083.0,-485.0,-59.0,0.0,0.0,0.0
19:45:10.699000,190.0,361.0,-688.0,-1083.0,-485.0,-59.0,0.0,0.0,0.0
19:45:10.704000,190.0,361.0,-688.0,-1071.0,-612.0,-79.0,0.0,0.0,0.0
19:45:10.709000,226.0,337.0,-673.0,-1071.0,-612.0,-79.0,0.0,0.0,0.0
19:45:10.714000,228.0,372.0,-688.0,-1046.0,-639.0,-82.0,0.0,0.0,0.0
19:45:10.718000,262.0,373.0,-704.0,-1046.0,-639.0,-82.0,0.0,0.0,0.0
19:45:10.723000,289.0,364.0,-791.0,-1036.0,-581.0,-88.0,0.0,0.0,0.0
19:45:10.728000,338.0,347.0,-849.0,-1036.0,-581.0,-88.0,0.0,0.0,0.0
19:45:10.732000,373.0,346.0,-842.0,-1018.0,-529.0,-101.0,0.0,0.0,0.0
19:45:10.737000,389.0,351.0,-885.0,-1018.0,-529.0,-101.0,0.0,0.0,0.0
19:45:10.742000,411.0,365.0,-951.0,-1031.0,-480.0,-104.0,0.0,0.0,0.0
19:45:10.746000,420.0,367.0,-982.0,-1031.0,-480.0,-104.0,0.0,0.0,0.0
19:45:10.751000,398.0,371.0,-965.0,-1060.0,-464.0,-81.0,0.0,0.0,0.0
19:45:10.755000,406.0,373.0,-940.0,-1060.0,-464.0,-81.0,0.0,0.0,0.0
19:45:10.761000,399.0,390.0,-1011.0,-1068.0,-493.0,-68.0,0.0,0.0,0.0
19:45:10.765000,420.0,420.0,-1102.0,-1068.0,-493.0,-68.0,0.0,0.0,0.0
19:45:10.770000,434.0,437.0,-1166.0,-1068.0,-493.0,-68.0,0.0,0.0,0.0
19:45:10.775000,447.0,452.0,-1179.0,-1050.0,-492.0,-64.0,0.0,0.0,0.0
19:45:10.779000,452.0,462.0,-1192.0,-1050.0,-492.0,-64.0,0.0,0.0,0.0
19:45:10.784000,469.0,478.0,-1204.0,-1030.0,-470.0,-62.0,0.0,0.0,0.0
19:45:10.789000,477.0,497.0,-1211.0,-1030.0,-470.0,-62.0,0.0,0.0,0.0
19:45:10.793000,479.0,512.0,-1197.0,-1023.0,-427.0,-69.0,0.0,0.0,0.0
19:45:10.798000,493.0,520.0,-1215.0,-1023.0,-427.0,-69.0,0.0,0.0,0.0
19:45:10.803000,506.0,525.0,-1292.0,-1049.0,-382.0,-86.0,0.0,0.0,0.0
19:45:10.808000,519.0,532.0,-1343.0,-1049.0,-382.0,-86.0,0.0,0.0,0.0
19:45:10.812000,519.0,532.0,-1343.0,-1023.0,-330.0,-102.0,0.0,0.0,0.0
19:45:10.817000,528.0,527.0,-1314.0,-1023.0,-330.0,-102.0,0.0,0.0,0.0
19:45:10.822000,534.0,522.0,-1247.0,-916.0,-295.0,-100.0,0.0,0.0,0.0
19:45:10.826000,548.0,511.0,-1222.0,-916.0,-295.0,-100.0,0.0,0.0,0.0
19:45:10.831000,564.0,506.0,-1232.0,-892.0,-259.0,-101.0,0.0,0.0,0.0
19:45:10.836000,580.0,501.0,-1246.0,-892.0,-259.0,-101.0,0.0,0.0,0.0
19:45:10.840000,583.0,490.0,-1256.0,-944.0,-188.0,-115.0,0.0,0.0,0.0
19:45:10.845000,584.0,478.0,-1232.0,-944.0,-188.0,-115.0,0.0,0.0,0.0
19:45:10.850000,585.0,467.0,-1192.0,-957.0,-138.0,-128.0,0.0,0.0,0.0
19:45:10.855000,588.0,450.0,-1159.0,-957.0,-138.0,-128.0,0.0,0.0,0.0
19:45:10.859000,601.0,431.0,-1143.0,-929.0,-94.0,-143.0,0.0,0.0,0.0
19:45:10.864000,609.0,417.0,-1136.0,-929.0,-94.0,-143.0,0.0,0.0,0.0
19:45:10.869000,611.0,406.0,-1113.0,-901.0,-57.0,-162.0,0.0,0.0,0.0
19:45:10.873000,613.0,393.0,-1080.0,-901.0,-57.0,-162.0,0.0,0.0,0.0
19:45:10.878000,608.0,379.0,-1059.0,-901.0,-57.0,-162.0,0.0,0.0,0.0
19:45:10.883000,602.0,360.0,-1037.0,-902.0,-34.0,-175.0,0.0,0.0,0.0
19:45:10.887000,589.0,338.0,-998.0,-902.0,-34.0,-175.0,0.0,0.0,0.0
19:45:10.892000,581.0,321.0,-966.0,-901.0,-6.0,-182.0,0.0,0.0,0.0
19:45:10.897000,570.0,301.0,-955.0,-901.0,-6.0,-182.0,0.0,0.0,0.0
19:45:10.902000,555.0,280.0,-942.0,-874.0,38.0,-185.0,0.0,0.0,0.0
19:45:10.906000,543.0,259.0,-907.0,-874.0,38.0,-185.0,0.0,0.0,0.0
19:45:10.911000,527.0,240.0,-865.0,-849.0,76.0,-188.0,0.0,0.0,0.0
19:45:10.916000,511.0,222.0,-829.0,-849.0,76.0,-188.0,0.0,0.0,0.0
19:45:10.920000,504.0,204.0,-819.0,-811.0,111.0,-192.0,0.0,0.0,0.0
19:45:10.925000,504.0,204.0,-819.0,-811.0,111.0,-192.0,0.0,0.0,0.0
19:45:10.930000,483.0,194.0,-837.0,-849.0,182.0,-192.0,0.0,0.0,0.0
19:45:10.934000,464.0,183.0,-857.0,-849.0,182.0,-192.0,0.0,0.0,0.0
19:45:10.939000,452.0,170.0,-875.0,-798.0,230.0,-227.0,0.0,0.0,0.0
19:45:10.944000,426.0,178.0,-874.0,-798.0,230.0,-227.0,0.0,0.0,0.0
19:45:10.949000,375.0,193.0,-821.0,-939.0,317.0,-240.0,0.0,0.0,0.0
19:45:10.953000,337.0,191.0,-748.0,-939.0,317.0,-240.0,0.0,0.0,0.0
19:45:10.958000,316.0,188.0,-788.0,-987.0,373.0,-228.0,0.0,0.0,0.0
19:45:10.963000,331.0,191.0,-930.0,-987.0,373.0,-228.0,0.0,0.0,0.0
19:45:10.967000,324.0,198.0,-951.0,-833.0,369.0,-248.0,0.0,0.0,0.0
19:45:10.972000,280.0,207.0,-817.0,-833.0,369.0,-248.0,0.0,0.0,0.0
19:45:10.977000,263.0,210.0,-744.0,-777.0,363.0,-251.0,0.0,0.0,0.0
19:45:10.981000,257.0,215.0,-765.0,-777.0,363.0,-251.0,0.0,0.0,0.0
19:45:10.986000,214.0,231.0,-717.0,-777.0,363.0,-251.0,0.0,0.0,0.0
19:45:10.991000,180.0,239.0,-718.0,-884.0,404.0,-265.0,0.0,0.0,0.0
19:45:10.996000,200.0,230.0,-731.0,-884.0,404.0,-265.0,0.0,0.0,0.0
19:45:11.000000,184.0,233.0,-523.0,-888.0,465.0,-269.0,0.0,0.0,0.0
19:45:11.005000,109.0,260.0,-540.0,-888.0,465.0,-269.0,0.0,0.0,0.0
19:45:11.010000,191.0,237.0,-705.0,-766.0,544.0,-226.0,0.0,0.0,0.0
19:45:11.014000,172.0,242.0,-606.0,-766.0,544.0,-226.0,0.0,0.0,0.0
19:45:11.019000,123.0,277.0,-506.0,-861.0,588.0,-235.0,0.0,0.0,0.0
19:45:11.024000,126.0,314.0,-501.0,-861.0,588.0,-235.0,0.0,0.0,0.0
19:45:11.028000,102.0,343.0,-399.0,-827.0,477.0,-366.0,0.0,0.0,0.0
19:45:11.033000,102.0,343.0,-399.0,-827.0,477.0,-366.0,0.0,0.0,0.0
19:45:11.038000,57.0,366.0,-366.0,-1041.0,412.0,-492.0,0.0,0.0,0.0
19:45:11.043000,55.0,359.0,-448.0,-1041.0,412.0,-492.0,0.0,0.0,0.0
19:45:11.047000,46.0,348.0,-459.0,-1360.0,376.0,-516.0,0.0,0.0,0.0
19:45:11.052000,61.0,316.0,-291.0,-1360.0,376.0,-516.0,0.0,0.0,0.0
19:45:11.057000,48.0,263.0,-50.0,-1241.0,241.0,-456.0,0.0,0.0,0.0
19:45:11.061000,33.0,226.0,81.0,-1241.0,241.0,-456.0,0.0,0.0,0.0
19:45:11.066000,26.0,221.0,115.0,-957.0,227.0,-392.0,0.0,0.0,0.0
19:45:11.071000,51.0,189.0,115.0,-957.0,227.0,-392.0,0.0,0.0,0.0
19:45:11.075000,63.0,130.0,97.0,-825.0,295.0,-350.0,0.0,0.0,0.0
19:45:11.080000,70.0,79.0,15.0,-825.0,295.0,-350.0,0.0,0.0,0.0
19:45:11.085000,86.0,46.0,-60.0,-684.0,292.0,-312.0,0.0,0.0,0.0
19:45:11.090000,129.0,-16.0,-37.0,-684.0,292.0,-312.0,0.0,0.0,0.0
19:45:11.094000,137.0,-64.0,13.0,-684.0,292.0,-312.0,0.0,0.0,0.0
19:45:11.099000,151.0,-114.0,26.0,-519.0,286.0,-274.0,0.0,0.0,0.0
19:45:11.104000,168.0,-137.0,44.0,-519.0,286.0,-274.0,0.0,0.0,0.0
19:45:11.108000,179.0,-151.0,18.0,-538.0,231.0,-265.0,0.0,0.0,0.0
19:45:11.113000,188.0,-170.0,-10.0,-538.0,231.0,-265.0,0.0,0.0,0.0
19:45:11.118000,197.0,-192.0,0.0,-711.0,209.0,-280.0,0.0,0.0,0.0
19:45:11.122000,172.0,-177.0,-31.0,-711.0,209.0,-280.0,0.0,0.0,0.0
19:45:11.127000,158.0,-156.0,-106.0,-823.0,294.0,-302.0,0.0,0.0,0.0
19:45:11.132000,144.0,-156.0,-128.0,-823.0,294.0,-302.0,0.0,0.0,0.0
19:45:11.137000,133.0,-166.0,-114.0,-907.0,378.0,-316.0,0.0,0.0,0.0
