hh:mm:ss.ms,gyroX[mdps],gyroY[mdps],gyroZ[mdps],accX[mg],accY[mg],accZ[mg],magX[mG],magY[mG],magZ[mG]
19:46:07.378000,-91.0,190.0,-312.0,-1361.0,-94.0,-125.0,0.0,0.0,0.0
19:46:07.383000,-64.0,162.0,-309.0,-1376.0,-100.0,-145.0,0.0,0.0,0.0
19:46:07.387000,-98.0,141.0,-194.0,-1376.0,-100.0,-145.0,0.0,0.0,0.0
19:46:07.392000,-111.0,126.0,-137.0,-1376.0,50.0,-121.0,0.0,0.0,0.0
19:46:07.397000,-88.0,107.0,-204.0,-1383.0,50.0,-121.0,0.0,0.0,0.0
19:46:07.401000,-172.0,133.0,-253.0,-1383.0,50.0,-121.0,0.0,0.0,0.0
19:46:07.406000,-149.0,150.0,-176.0,-1390.0,54.0,-101.0,0.0,0.0,0.0
19:46:07.411000,-151.0,158.0,-121.0,-1390.0,54.0,-101.0,0.0,0.0,0.0
19:46:07.416000,-155.0,156.0,-129.0,-1364.0,-89.0,-112.0,0.0,0.0,0.0
19:46:07.420000,-214.0,165.0,-155.0,-1364.0,-89.0,-112.0,0.0,0.0,0.0
19:46:07.425000,-279.0,159.0,-125.0,-1375.0,-15.0,-107.0,0.0,0.0,0.0
19:46:07.430000,-298.0,147.0,4.0,-1375.0,-15.0,-107.0,0.0,0.0,0.0
19:46:07.434000,-336.0,142.0,133.0,-1315.0,-4.0,-83.0,0.0,0.0,0.0
19:46:07.439000,-351.0,144.0,173.0,-1315.0,-4.0,-83.0,0.0,0.0,0.0
19:46:07.444000,-351.0,144.0,173.0,-1273.0,-194.0,-90.0,0.0,0.0,0.0
19:46:07.448000,-334.0,143.0,133.0,-1273.0,-194.0,-90.0,0.0,0.0,0.0
19:46:07.453000,-312.0,151.0,95.0,-1298.0,-334.0,-117.0,0.0,0.0,0.0
19:46:07.458000,-293.0,154.0,62.0,-1298.0,-334.0,-117.0,0.0,0.0,0.0
19:46:07.463000,-265.0,147.0,5.0,-1326.0,-394.0,-130.0,0.0,0.0,0.0
19:46:07.467000,-247.0,142.0,-53.0,-1326.0,-394.0,-130.0,0.0,0.0,0.0
19:46:07.472000,-189.0,118.0,-99.0,-1317.0,-375.0,-148.0,0.0,0.0,0.0
19:46:07.477000,-189.0,112.0,-98.0,-1317.0,-375.0,-148.0,0.0,0.0,0.0
19:46:07.481000,-161.0,100.0,-100.0,-1280.0,-362.0,-164.0,0.0,0.0,0.0
19:46:07.486000,-143.0,86.0,-125.0,-1280.0,-362.0,-164.0,0.0,0.0,0.0
19:46:07.491000,-102.0,63.0,-151.0,-1269.0,-429.0,-160.0,0.0,0.0,0.0
19:46:07.495000,-83.0,42.0,-198.0,-1269.0,-429.0,-160.0,0.0,0.0,0.0
19:46:07.500000,-64.0,27.0,-249.0,-1262.0,-459.0,-164.0,0.0,0.0,0.0
19:46:07.505000,-37.0,16.0,-283.0,-1262.0,-459.0,-164.0,0.0,0.0,0.0
19:46:07.510000,-18.0,4.0,-329.0,-1262.0,-459.0,-164.0,0.0,0.0,0.0
19:46:07.514000,-18.0,-8.0,-368.0,-1234.0,-423.0,-167.0,0.0,0.0,0.0
19:46:07.519000,-11.0,-28.0,-366.0,-1234.0,-423.0,-167.0,0.0,0.0,0.0
19:46:07.524000,-7.0,-41.0,-334.0,-1210.0,-419.0,-161.0,0.0,0.0,0.0
19:46:07.528000,-1.0,-51.0,-319.0,-1210.0,-419.0,-161.0,0.0,0.0,0.0
19:46:07.533000,-9.0,-56.0,-347.0,-1213.0,-441.0,-156.0,0.0,0.0,0.0
19:46:07.538000,-28.0,-70.0,-389.0,-1213.0,-441.0,-156.0,0.0,0.0,0.0
19:46:07.542000,-60.0,-67.0,-419.0,-1247.0,-381.0,-151.0,0.0,0.0,0.0
19:46:07.547000,-87.0,-74.0,-456.0,-1247.0,-381.0,-151.0,0.0,0.0,0.0
19:46:07.552000,-87.0,-74.0,-456.0,-1240.0,-302.0,-142.0,0.0,0.0,0.0
19:46:07.557000,-128.0,-67.0,-489.0,-1240.0,-302.0,-142.0,0.0,0.0,0.0
19:46:07.561000,-170.0,-74.0,-497.0,-1196.0,-260.0,-138.0,0.0,0.0,0.0
19:46:07.566000,-212.0,-69.0,-511.0,-1196.0,-260.0,-138.0,0.0,0.0,0.0
19:46:07.571000,-258.0,-58.0,-556.0,-1177.0,-219.0,-137.0,0.0,0.0,0.0
19:46:07.575000,-301.0,-55.0,-561.0,-1177.0,-219.0,-137.0,0.0,0.0,0.0
19:46:07.580000,-357.0,-56.0,-568.0,-1182.0,-139.0,-136.0,0.0,0.0,0.0
19:46:07.585000,-391.0,-47.0,-588.0,-1182.0,-139.0,-136.0,0.0,0.0,0.0
19:46:07.589000,-442.0,-36.0,-624.0,-1170.0,-51.0,-124.0,0.0,0.0,0.0
19:46:07.594000,-474.0,-43.0,-697.0,-1170.0,-51.0,-124.0,0.0,0.0,0.0
19:46:07.599000,-479.0,-25.0,-688.0,-1062.0,-142.0,-114.0,0.0,0.0,0.0
19:46:07.604000,-499.0,1.0,-525.0,-1062.0,-142.0,-114.0,0.0,0.0,0.0
19:46:07.608000,-506.0,-11.0,-406.0,-1035.0,-257.0,-95.0,0.0,0.0,0.0
19:46:07.613000,-562.0,7.0,-516.0,-1035.0,-257.0,-95.0,0.0,0.0,0.0
19:46:07.618000,-590.0,6.0,-639.0,-1035.0,-257.0,-95.0,0.0,0.0,0.0
19:46:07.622000,-585.0,-16.0,-666.0,-1126.0,-207.0,-68.0,0.0,0.0,0.0
19:46:07.627000,-584.0,-14.0,-655.0,-1126.0,-207.0,-68.0,0.0,0.0,0.0
19:46:07.632000,-545.0,-10.0,-616.0,-1059.0,-213.0,-71.0,0.0,0.0,0.0
19:46:07.636000,-511.0,13.0,-571.0,-1059.0,-213.0,-71.0,0.0,0.0,0.0
19:46:07.641000,-530.0,12.0,-583.0,-1014.0,-242.0,-72.0,0.0,0.0,0.0
19:46:07.646000,-555.0,8.0,-665.0,-1014.0,-242.0,-72.0,0.0,0.0,0.0
19:46:07.651000,-559.0,39.0,-784.0,-1073.0,-123.0,-69.0,0.0,0.0,0.0
19:46:07.655000,-571.0,70.0,-740.0,-1073.0,-123.0,-69.0,0.0,0.0,0.0
19:46:07.660000,-571.0,70.0,-740.0,-1047.0,-4.0,-81.0,0.0,0.0,0.0
19:46:07.665000,-583.0,106.0,-615.0,-1047.0,-4.0,-81.0,0.0,0.0,0.0
19:46:07.669000,-626.0,123.0,-591.0,-1115.0,19.0,-58.0,0.0,0.0,0.0
19:46:07.674000,-713.0,129.0,-627.0,-1115.0,19.0,-58.0,0.0,0.0,0.0
19:46:07.679000,-763.0,159.0,-663.0,-1176.0,44.0,-45.0,0.0,0.0,0.0
19:46:07.683000,-787.0,200.0,-692.0,-1176.0,44.0,-45.0,0.0,0.0,0.0
19:46:07.688000,-847.0,225.0,-676.0,-1084.0,60.0,-54.0,0.0,0.0,0.0
19:46:07.693000,-900.0,238.0,-595.0,-1084.0,60.0,-54.0,0.0,0.0,0.0
19:46:07.697000,-898.0,262.0,-555.0,-1082.0,26.0,-44.0,0.0,0.0,0.0
19:46:07.702000,-907.0,273.0,-589.0,-1082.0,26.0,-44.0,0.0,0.0,0.0
19:46:07.706000,-912.0,282.0,-607.0,-1096.0,21.0,-47.0,0.0,0.0,0.0
19:46:07.712000,-921.0,283.0,-583.0,-1096.0,21.0,-47.0,0.0,0.0,0.0
19:46:07.716000,-949.0,277.0,-513.0,-1048.0,67.0,-66.0,0.0,0.0,0.0
19:46:07.721000,-952.0,285.0,-417.0,-1048.0,67.0,-66.0,0.0,0.0,0.0
19:46:07.726000,-991.0,284.0,-364.0,-1048.0,67.0,-66.0,0.0,0.0,0.0
19:46:07.730000,-986.0,277.0,-432.0,-1127.0,34.0,-95.0,0.0,0.0,0.0
19:46:07.735000,-975.0,257.0,-540.0,-1127.0,34.0,-95.0,0.0,0.0,0.0
19:46:07.740000,-1002.0,263.0,-567.0,-1225.0,-52.0,-114.0,0.0,0.0,0.0
19:46:07.744000,-989.0,259.0,-499.0,-1225.0,-52.0,-114.0,0.0,0.0,0.0
19:46:07.749000,-996.0,251.0,-417.0,-1160.0,-135.0,-131.0,0.0,0.0,0.0
19:46:07.754000,-983.0,233.0,-402.0,-1160.0,-135.0,-131.0,0.0,0.0,0.0
19:46:07.759000,-942.0,214.0,-480.0,-1120.0,-99.0,-163.0,0.0,0.0,0.0
19:46:07.763000,-978.0,210.0,-472.0,-1120.0,-99.0,-163.0,0.0,0.0,0.0
19:46:07.768000,-978.0,210.0,-472.0,-1073.0,-69.0,-173.0,0.0,0.0,0.0
19:46:07.773000,-979.0,223.0,-394.0,-1073.0,-69.0,-173.0,0.0,0.0,0.0
19:46:07.777000,-962.0,241.0,-370.0,-964.0,-89.0,-177.0,0.0,0.0,0.0
19:46:07.782000,-957.0,266.0,-415.0,-964.0,-89.0,-177.0,0.0,0.0,0.0
19:46:07.787000,-960.0,284.0,-460.0,-946.0,2.0,-176.0,0.0,0.0,0.0
19:46:07.791000,-963.0,304.0,-468.0,-946.0,2.0,-176.0,0.0,0.0,0.0
19:46:07.796000,-952.0,321.0,-492.0,-950.0,58.0,-147.0,0.0,0.0,0.0
19:46:07.801000,-937.0,327.0,-504.0,-950.0,58.0,-147.0,0.0,0.0,0.0
19:46:07.806000,-936.0,342.0,-520.0,-910.0,26.0,-123.0,0.0,0.0,0.0
19:46:07.810000,-910.0,343.0,-554.0,-910.0,26.0,-123.0,0.0,0.0,0.0
19:46:07.815000,-909.0,354.0,-573.0,-871.0,-26.0,-100.0,0.0,0.0,0.0
19:46:07.820000,-880.0,354.0,-560.0,-871.0,-26.0,-100.0,0.0,0.0,0.0
19:46:07.824000,-837.0,336.0,-618.0,-887.0,34.0,-75.0,0.0,0.0,0.0
19:46:07.829000,-845.0,332.0,-651.0,-887.0,34.0,-75.0,0.0,0.0,0.0
19:46:07.834000,-841.0,338.0,-627.0,-887.0,34.0,-75.0,0.0,0.0,0.0
19:46:07.838000,-840.0,345.0,-624.0,-901.0,156.0,-49.0,0.0,0.0,0.0
19:46:07.843000,-844.0,347.0,-629.0,-901.0,156.0,-49.0,0.0,0.0,0.0
19:46:07.848000,-844.0,361.0,-618.0,-920.0,186.0,-22.0,0.0,0.0,0.0
19:46:07.853000,-844.0,374.0,-624.0,-920.0,186.0,-22.0,0.0,0.0,0.0
19:46:07.857000,-854.0,392.0,-608.0,-966.0,187.0,-5.0,0.0,0.0,0.0
19:46:07.862000,-872.0,406.0,-555.0,-966.0,187.0,-5.0,0.0,0.0,0.0
19:46:07.867000,-884.0,412.0,-502.0,-1005.0,204.0,9.0,0.0,0.0,0.0
19:46:07.871000,-887.0,421.0,-462.0,-1005.0,204.0,9.0,0.0,0.0,0.0
19:46:07.876000,-881.0,431.0,-417.0,-1049.0,226.0,25.0,0.0,0.0,0.0
19:46:07.881000,-881.0,431.0,-417.0,-1049.0,226.0,25.0,0.0,0.0,0.0
19:46:07.885000,-860.0,443.0,-364.0,-1091.0,200.0,22.0,0.0,0.0,0.0
19:46:07.890000,-837.0,454.0,-317.0,-1091.0,200.0,22.0,0.0,0.0,0.0
19:46:07.895000,-798.0,466.0,-263.0,-1116.0,118.0,3.0,0.0,0.0,0.0
19:46:07.900000,-753.0,482.0,-195.0,-1116.0,118.0,3.0,0.0,0.0,0.0
19:46:07.904000,-714.0,502.0,-130.0,-1128.0,62.0,-20.0,0.0,0.0,0.0
19:46:07.909000,-679.0,523.0,-56.0,-1128.0,62.0,-20.0,0.0,0.0,0.0
19:46:07.914000,-649.0,547.0,7.0,-1107.0,68.0,-42.0,0.0,0.0,0.0
19:46:07.918000,-630.0,580.0,56.0,-1107.0,68.0,-42.0,0.0,0.0,0.0
19:46:07.923000,-623.0,611.0,116.0,-1067.0,109.0,-62.0,0.0,0.0,0.0
19:46:07.928000,-620.0,639.0,161.0,-1067.0,109.0,-62.0,0.0,0.0,0.0
19:46:07.932000,-628.0,672.0,205.0,-1042.0,147.0,-83.0,0.0,0.0,0.0
19:46:07.937000,-637.0,702.0,252.0,-1042.0,147.0,-83.0,0.0,0.0,0.0
19:46:07.942000,-644.0,737.0,279.0,-1006.0,135.0,-117.0,0.0,0.0,0.0
19:46:07.947000,-638.0,774.0,265.0,-1006.0,135.0,-117.0,0.0,0.0,0.0
19:46:07.951000,-632.0,807.0,243.0,-1006.0,135.0,-117.0,0.0,0.0,0.0
19:46:07.956000,-620.0,834.0,220.0,-947.0,85.0,-160.0,0.0,0.0,0.0
19:46:07.961000,-610.0,854.0,191.0,-947.0,85.0,-160.0,0.0,0.0,0.0
19:46:07.965000,-600.0,865.0,165.0,-870.0,39.0,-195.0,0.0,0.0,0.0
19:46:07.970000,-593.0,873.0,142.0,-870.0,39.0,-195.0,0.0,0.0,0.0
19:46:07.975000,-588.0,877.0,90.0,-777.0,18.0,-217.0,0.0,0.0,0.0
19:46:07.979000,-591.0,877.0,21.0,-777.0,18.0,-217.0,0.0,0.0,0.0
19:46:07.984000,-603.0,873.0,-36.0,-700.0,30.0,-233.0,0.0,0.0,0.0
19:46:07.989000,-603.0,873.0,-36.0,-700.0,30.0,-233.0,0.0,0.0,0.0
19:46:07.994000,-631.0,874.0,-77.0,-665.0,75.0,-246.0,0.0,0.0,0.0
19:46:07.998000,-674.0,874.0,-114.0,-665.0,75.0,-246.0,0.0,0.0,0.0
19:46:08.003000,-725.0,870.0,-165.0,-690.0,136.0,-245.0,0.0,0.0,0.0
19:46:08.008000,-779.0,862.0,-213.0,-690.0,136.0,-245.0,0.0,0.0,0.0
19:46:08.012000,-828.0,856.0,-256.0,-705.0,147.0,-238.0,0.0,0.0,0.0
19:46:08.017000,-868.0,854.0,-291.0,-705.0,147.0,-238.0,0.0,0.0,0.0
19:46:08.022000,-900.0,857.0,-343.0,-686.0,91.0,-234.0,0.0,0.0,0.0
19:46:08.026000,-938.0,868.0,-397.0,-686.0,91.0,-234.0,0.0,0.0,0.0
19:46:08.031000,-974.0,886.0,-453.0,-719.0,41.0,-224.0,0.0,0.0,0.0
19:46:08.036000,-1011.0,914.0,-523.0,-719.0,41.0,-224.0,0.0,0.0,0.0
19:46:08.041000,-1054.0,950.0,-584.0,-808.0,34.0,-205.0,0.0,0.0,0.0
19:46:08.045000,-1096.0,986.0,-641.0,-808.0,34.0,-205.0,0.0,0.0,0.0
19:46:08.050000,-1136.0,1019.0,-702.0,-808.0,34.0,-205.0,0.0,0.0,0.0
19:46:08.055000,-1166.0,1047.0,-757.0,-894.0,48.0,-176.0,0.0,0.0,0.0
19:46:08.059000,-1178.0,1071.0,-804.0,-895.0,18.0,-150.0,0.0,0.0,0.0
19:46:08.064000,-1176.0,1096.0,-835.0,-895.0,18.0,-150.0,0.0,0.0,0.0
19:46:08.069000,-1152.0,1117.0,-849.0,-895.0,18.0,-150.0,0.0,0.0,0.0
19:46:08.073000,-1117.0,1138.0,-833.0,-812.0,-69.0,-149.0,0.0,0.0,0.0
19:46:08.078000,-1068.0,1156.0,-805.0,-812.0,-69.0,-149.0,0.0,0.0,0.0
19:46:08.083000,-1017.0,1168.0,-774.0,-753.0,-140.0,-183.0,0.0,0.0,0.0
19:46:08.088000,-967.0,1176.0,-731.0,-753.0,-140.0,-183.0,0.0,0.0,0.0
19:46:08.092000,-917.0,1182.0,-669.0,-744.0,-149.0,-233.0,0.0,0.0,0.0
19:46:08.097000,-917.0,1182.0,-669.0,-744.0,-149.0,-233.0,0.0,0.0,0.0
19:46:08.102000,-870.0,1190.0,-596.0,-698.0,-136.0,-279.0,0.0,0.0,0.0
19:46:08.106000,-839.0,1198.0,-511.0,-698.0,-136.0,-279.0,0.0,0.0,0.0
19:46:08.111000,-816.0,1200.0,-431.0,-628.0,-82.0,-321.0,0.0,0.0,0.0
19:46:08.116000,-819.0,1199.0,-341.0,-628.0,-82.0,-321.0,0.0,0.0,0.0
19:46:08.120000,-840.0,1194.0,-228.0,-564.0,17.0,-349.0,0.0,0.0,0.0
19:46:08.125000,-862.0,1184.0,-137.0,-564.0,17.0,-349.0,0.0,0.0,0.0
19:46:08.130000,-896.0,1176.0,-72.0,-472.0,103.0,-366.0,0.0,0.0,0.0
19:46:08.135000,-930.0,1165.0,-11.0,-472.0,103.0,-366.0,0.0,0.0,0.0
19:46:08.139000,-959.0,1155.0,53.0,-353.0,119.0,-386.0,0.0,0.0,0.0
19:46:08.144000,-973.0,1142.0,89.0,-353.0,119.0,-386.0,0.0,0.0,0.0
19:46:08.149000,-980.0,1129.0,104.0,-269.0,69.0,-418.0,0.0,0.0,0.0
19:46:08.153000,-975.0,1115.0,111.0,-269.0,69.0,-418.0,0.0,0.0,0.0
19:46:08.158000,-965.0,1103.0,99.0,-269.0,24.0,-418.0,0.0,0.0,0.0
19:46:08.163000,-954.0,1092.0,75.0,-268.0,24.0,-448.0,0.0,0.0,0.0
19:46:08.167000,-944.0,1082.0,55.0,-268.0,24.0,-448.0,0.0,0.0,0.0
19:46:08.172000,-931.0,1076.0,32.0,-292.0,15.0,-463.0,0.0,0.0,0.0
19:46:08.177000,-919.0,1072.0,-5.0,-292.0,15.0,-463.0,0.0,0.0,0.0
19:46:08.182000,-906.0,1070.0,-44.0,-295.0,23.0,-471.0,0.0,0.0,0.0
19:46:08.186000,-891.0,1066.0,-72.0,-295.0,23.0,-471.0,0.0,0.0,0.0
19:46:08.191000,-872.0,1062.0,-93.0,-289.0,15.0,-481.0,0.0,0.0,0.0
19:46:08.196000,-849.0,1059.0,-108.0,-289.0,15.0,-481.0,0.0,0.0,0.0
19:46:08.200000,-821.0,1059.0,-118.0,-274.0,-25.0,-492.0,0.0,0.0,0.0
19:46:08.205000,-821.0,1059.0,-118.0,-274.0,-25.0,-492.0,0.0,0.0,0.0
19:46:08.210000,-791.0,1063.0,-127.0,-261.0,-64.0,-503.0,0.0,0.0,0.0
19:46:08.214000,-766.0,1068.0,-136.0,-261.0,-64.0,-503.0,0.0,0.0,0.0
19:46:08.219000,-746.0,1077.0,-140.0,-273.0,-49.0,-508.0,0.0,0.0,0.0
19:46:08.224000,-735.0,1087.0,-139.0,-273.0,-49.0,-508.0,0.0,0.0,0.0
19:46:08.229000,-731.0,1100.0,-133.0,-290.0,-9.0,-506.0,0.0,0.0,0.0
19:46:08.233000,-731.0,1115.0,-121.0,-290.0,-9.0,-506.0,0.0,0.0,0.0
19:46:08.238000,-734.0,1129.0,-108.0,-285.0,4.0,-505.0,0.0,0.0,0.0
19:46:08.243000,-737.0,1141.0,-98.0,-285.0,4.0,-505.0,0.0,0.0,0.0
19:46:08.247000,-738.0,1145.0,-93.0,-238.0,-16.0,-502.0,0.0,0.0,0.0
19:46:08.252000,-731.0,1143.0,-91.0,-238.0,-16.0,-502.0,0.0,0.0,0.0
19:46:08.257000,-712.0,1134.0,-102.0,-142.0,-65.0,-507.0,0.0,0.0,0.0
19:46:08.261000,-680.0,1120.0,-129.0,-142.0,-65.0,-507.0,0.0,0.0,0.0
19:46:08.266000,-635.0,1102.0,-170.0,-37.0,-133.0,-532.0,0.0,0.0,0.0
19:46:08.271000,-579.0,1085.0,-224.0,-37.0,-133.0,-532.0,0.0,0.0,0.0
19:46:08.276000,-520.0,1071.0,-290.0,-37.0,-133.0,-532.0,0.0,0.0,0.0
19:46:08.280000,-466.0,1059.0,-366.0,31.0,-177.0,-570.0,0.0,0.0,0.0
19:46:08.285000,-423.0,1051.0,-439.0,31.0,-177.0,-570.0,0.0,0.0,0.0
19:46:08.290000,-395.0,1048.0,-494.0,48.0,-145.0,-610.0,0.0,0.0,0.0
19:46:08.294000,-383.0,1056.0,-526.0,48.0,-145.0,-610.0,0.0,0.0,0.0
19:46:08.299000,-386.0,1074.0,-541.0,38.0,-68.0,-646.0,0.0,0.0,0.0
19:46:08.304000,-398.0,1099.0,-545.0,38.0,-68.0,-646.0,0.0,0.0,0.0
19:46:08.308000,-417.0,1126.0,-542.0,20.0,-8.0,-682.0,0.0,0.0,0.0
19:46:08.313000,-441.0,1155.0,-530.0,20.0,-8.0,-682.0,0.0,0.0,0.0
19:46:08.318000,-441.0,1155.0,-530.0,18.0,14.0,-727.0,0.0,0.0,0.0
19:46:08.323000,-462.0,1179.0,-511.0,18.0,14.0,-727.0,0.0,0.0,0.0
19:46:08.327000,-476.0,1199.0,-491.0,48.0,0.0,-774.0,0.0,0.0,0.0
19:46:08.332000,-483.0,1214.0,-471.0,48.0,0.0,-774.0,0.0,0.0,0.0
19:46:08.337000,-483.0,1223.0,-450.0,100.0,-41.0,-822.0,0.0,0.0,0.0
19:46:08.341000,-473.0,1220.0,-430.0,100.0,-41.0,-822.0,0.0,0.0,0.0
19:46:08.346000,-452.0,1212.0,-417.0,172.0,-95.0,-872.0,0.0,0.0,0.0
19:46:08.351000,-424.0,1202.0,-413.0,172.0,-95.0,-872.0,0.0,0.0,0.0
19:46:08.355000,-393.0,1188.0,-415.0,254.0,-141.0,-917.0,0.0,0.0,0.0
19:46:08.360000,-353.0,1174.0,-422.0,254.0,-141.0,-917.0,0.0,0.0,0.0
19:46:08.365000,-311.0,1164.0,-433.0,298.0,-166.0,-963.0,0.0,0.0,0.0
19:46:08.370000,-276.0,1156.0,-452.0,298.0,-166.0,-963.0,0.0,0.0,0.0
19:46:08.374000,-254.0,1150.0,-481.0,267.0,-139.0,-1006.0,0.0,0.0,0.0
19:46:08.379000,-247.0,1138.0,-504.0,267.0,-139.0,-1006.0,0.0,0.0,0.0
19:46:08.384000,-259.0,1122.0,-505.0,267.0,-139.0,-1006.0,0.0,0.0,0.0
19:46:08.388000,-276.0,1101.0,-494.0,243.0,-77.0,-1020.0,0.0,0.0,0.0
19:46:08.393000,-291.0,1074.0,-487.0,243.0,-77.0,-1020.0,0.0,0.0,0.0
19:46:08.398000,-310.0,1042.0,-485.0,313.0,-32.0,-1010.0,0.0,0.0,0.0
19:46:08.402000,-332.0,1006.0,-484.0,313.0,-32.0,-1010.0,0.0,0.0,0.0
19:46:08.407000,-357.0,968.0,-473.0,387.0,-21.0,-1016.0,0.0,0.0,0.0
19:46:08.412000,-383.0,925.0,-464.0,387.0,-21.0,-1016.0,0.0,0.0,0.0
19:46:08.417000,-408.0,878.0,-476.0,385.0,-12.0,-1041.0,0.0,0.0,0.0
19:46:08.421000,-435.0,819.0,-504.0,385.0,-12.0,-1041.0,0.0,0.0,0.0
19:46:08.426000,-435.0,819.0,-504.0,401.0,25.0,-1043.0,0.0,0.0,0.0
19:46:08.431000,-472.0,756.0,-535.0,401.0,25.0,-1043.0,0.0,0.0,0.0
19:46:08.435000,-508.0,710.0,-555.0,496.0,90.0,-999.0,0.0,0.0,0.0
19:46:08.440000,-538.0,674.0,-577.0,496.0,90.0,-999.0,0.0,0.0,0.0
19:46:08.445000,-563.0,653.0,-618.0,407.0,101.0,-950.0,0.0,0.0,0.0
19:46:08.449000,-606.0,641.0,-644.0,407.0,101.0,-950.0,0.0,0.0,0.0
19:46:08.454000,-658.0,629.0,-659.0,139.0,69.0,-914.0,0.0,0.0,0.0
19:46:08.459000,-712.0,617.0,-690.0,139.0,69.0,-914.0,0.0,0.0,0.0
19:46:08.464000,-772.0,606.0,-736.0,109.0,130.0,-867.0,0.0,0.0,0.0
19:46:08.468000,-831.0,594.0,-791.0,109.0,130.0,-867.0,0.0,0.0,0.0
19:46:08.473000,-894.0,583.0,-830.0,241.0,170.0,-825.0,0.0,0.0,0.0
19:46:08.478000,-966.0,569.0,-839.0,241.0,170.0,-825.0,0.0,0.0,0.0
19:46:08.482000,-1052.0,553.0,-827.0,238.0,145.0,-798.0,0.0,0.0,0.0
19:46:08.487000,-1145.0,540.0,-812.0,238.0,145.0,-798.0,0.0,0.0,0.0
19:46:08.492000,-1244.0,530.0,-814.0,238.0,145.0,-798.0,0.0,0.0,0.0
19:46:08.496000,-1350.0,521.0,-826.0,199.0,167.0,-785.0,0.0,0.0,0.0
19:46:08.501000,-1454.0,506.0,-824.0,199.0,167.0,-785.0,0.0,0.0,0.0
19:46:08.506000,-1558.0,482.0,-806.0,211.0,168.0,-784.0,0.0,0.0,0.0
19:46:08.511000,-1661.0,450.0,-804.0,211.0,168.0,-784.0,0.0,0.0,0.0
19:46:08.515000,-1761.0,410.0,-836.0,208.0,111.0,-786.0,0.0,0.0,0.0
19:46:08.520000,-1855.0,366.0,-886.0,208.0,111.0,-786.0,0.0,0.0,0.0
19:46:08.525000,-1948.0,319.0,-914.0,218.0,55.0,-789.0,0.0,0.0,0.0
19:46:08.529000,-2040.0,267.0,-923.0,218.0,55.0,-789.0,0.0,0.0,0.0
19:46:08.534000,-2040.0,267.0,-923.0,270.0,0.0,-792.0,0.0,0.0,0.0
19:46:08.539000,-2128.0,215.0,-944.0,270.0,0.0,-792.0,0.0,0.0,0.0
19:46:08.543000,-2214.0,167.0,-986.0,303.0,-52.0,-790.0,0.0,0.0,0.0
19:46:08.548000,-2296.0,119.0,-1026.0,303.0,-52.0,-790.0,0.0,0.0,0.0
19:46:08.553000,-2371.0,70.0,-1064.0,290.0,-108.0,-788.0,0.0,0.0,0.0
19:46:08.558000,-2440.0,26.0,-1095.0,290.0,-108.0,-788.0,0.0,0.0,0.0
19:46:08.562000,-2502.0,-16.0,-1126.0,253.0,-185.0,-793.0,0.0,0.0,0.0
19:46:08.567000,-2552.0,-63.0,-1164.0,253.0,-185.0,-793.0,0.0,0.0,0.0
19:46:08.572000,-2597.0,-111.0,-1175.0,218.0,-288.0,-800.0,0.0,0.0,0.0
19:46:08.576000,-2633.0,-158.0,-1168.0,218.0,-288.0,-800.0,0.0,0.0,0.0
19:46:08.581000,-2660.0,-203.0,-1171.0,182.0,-399.0,-813.0,0.0,0.0,0.0
19:46:08.586000,-2686.0,-243.0,-1198.0,182.0,-399.0,-813.0,0.0,0.0,0.0
19:46:08.590000,-2706.0,-284.0,-1228.0,144.0,-469.0,-833.0,0.0,0.0,0.0
19:46:08.595000,-2730.0,-322.0,-1243.0,144.0,-469.0,-833.0,0.0,0.0,0.0
19:46:08.600000,-2754.0,-361.0,-1253.0,144.0,-469.0,-833.0,0.0,0.0,0.0
19:46:08.605000,-2776.0,-398.0,-1262.0,116.0,-511.0,-847.0,0.0,0.0,0.0
19:46:08.609000,-2783.0,-438.0,-1266.0,116.0,-511.0,-847.0,0.0,0.0,0.0
19:46:08.614000,-2774.0,-479.0,-1252.0,109.0,-589.0,-859.0,0.0,0.0,0.0
19:46:08.619000,-2750.0,-508.0,-1232.0,109.0,-589.0,-859.0,0.0,0.0,0.0
19:46:08.623000,-2721.0,-534.0,-1211.0,133.0,-691.0,-875.0,0.0,0.0,0.0
19:46:08.627000,-2706.0,-569.0,-1182.0,133.0,-691.0,-875.0,0.0,0.0,0.0
19:46:08.633000,-2855.0,-596.0,-1159.0,121.0,-875.0,-859.0,0.0,0.0,0.0
19:46:08.637000,-2804.0,-568.0,-1102.0,121.0,-875.0,-859.0,0.0,0.0,0.0
19:46:08.642000,-2804.0,-568.0,-1102.0,160.0,-1209.0,-910.0,0.0,0.0,0.0
19:46:08.647000,-2445.0,-567.0,-1133.0,160.0,-1209.0,-910.0,0.0,0.0,0.0
19:46:08.652000,-2257.0,-618.0,-1393.0,60.0,-976.0,-944.0,0.0,0.0,0.0
19:46:08.656000,-2254.0,-658.0,-1635.0,60.0,-976.0,-944.0,0.0,0.0,0.0
19:46:08.661000,-2144.0,-711.0,-1841.0,-280.0,-724.0,-802.0,0.0,0.0,0.0
19:46:08.666000,-2177.0,-844.0,-1882.0,-280.0,-724.0,-802.0,0.0,0.0,0.0
19:46:08.670000,-2246.0,-880.0,-1581.0,-388.0,-940.0,-696.0,0.0,0.0,0.0
19:46:08.675000,-2188.0,-990.0,-1307.0,-388.0,-940.0,-696.0,0.0,0.0,0.0
19:46:08.680000,-2249.0,-1010.0,-1316.0,-409.0,-1095.0,-682.0,0.0,0.0,0.0
19:46:08.684000,-2307.0,-1001.0,-1509.0,-409.0,-1095.0,-682.0,0.0,0.0,0.0
19:46:08.689000,-2191.0,-1073.0,-1589.0,-443.0,-1198.0,-699.0,0.0,0.0,0.0
19:46:08.694000,-2125.0,-1073.0,-1365.0,-443.0,-1198.0,-699.0,0.0,0.0,0.0
19:46:08.699000,-2171.0,-1035.0,-1150.0,-353.0,-1065.0,-671.0,0.0,0.0,0.0
19:46:08.703000,-2107.0,-1017.0,-1267.0,-353.0,-1065.0,-671.0,0.0,0.0,0.0
19:46:08.708000,-2117.0,-1005.0,-1393.0,-353.0,-1065.0,-671.0,0.0,0.0,0.0
19:46:08.713000,-2208.0,-982.0,-1213.0,-394.0,-773.0,-557.0,0.0,0.0,0.0
19:46:08.717000,-2195.0,-962.0,-1027.0,-394.0,-773.0,-557.0,0.0,0.0,0.0
19:46:08.722000,-2093.0,-945.0,-1086.0,-437.0,-652.0,-467.0,0.0,0.0,0.0
19:46:08.727000,-2064.0,-889.0,-1179.0,-437.0,-652.0,-467.0,0.0,0.0,0.0
19:46:08.731000,-2241.0,-826.0,-1124.0,-362.0,-755.0,-417.0,0.0,0.0,0.0
19:46:08.736000,-2132.0,-827.0,-1054.0,-362.0,-755.0,-417.0,0.0,0.0,0.0
19:46:08.741000,-2146.0,-810.0,-1043.0,-363.0,-969.0,-390.0,0.0,0.0,0.0
19:46:08.746000,-2123.0,-802.0,-1103.0,-363.0,-969.0,-390.0,0.0,0.0,0.0
19:46:08.750000,-2108.0,-799.0,-1179.0,-475.0,-1095.0,-377.0,0.0,0.0,0.0
19:46:08.755000,-2108.0,-799.0,-1179.0,-475.0,-1095.0,-377.0,0.0,0.0,0.0
19:46:08.760000,-2111.0,-788.0,-1199.0,-585.0,-1087.0,-367.0,0.0,0.0,0.0
19:46:08.764000,-2062.0,-784.0,-1243.0,-585.0,-1087.0,-367.0,0.0,0.0,0.0
19:46:08.769000,-2011.0,-772.0,-1250.0,-629.0,-1121.0,-367.0,0.0,0.0,0.0
19:46:08.774000,-1953.0,-753.0,-1164.0,-629.0,-1121.0,-367.0,0.0,0.0,0.0
19:46:08.778000,-1888.0,-737.0,-1065.0,-638.0,-1093.0,-352.0,0.0,0.0,0.0
19:46:08.783000,-1835.0,-714.0,-1017.0,-638.0,-1093.0,-352.0,0.0,0.0,0.0
19:46:08.788000,-1755.0,-693.0,-999.0,-700.0,-1081.0,-315.0,0.0,0.0,0.0
19:46:08.793000,-1685.0,-668.0,-968.0,-700.0,-1081.0,-315.0,0.0,0.0,0.0
19:46:08.797000,-1605.0,-639.0,-951.0,-776.0,-1208.0,-254.0,0.0,0.0,0.0
19:46:08.802000,-1509.0,-611.0,-924.0,-776.0,-1208.0,-254.0,0.0,0.0,0.0
19:46:08.807000,-1415.0,-593.0,-842.0,-724.0,-1267.0,-212.0,0.0,0.0,0.0
19:46:08.811000,-1356.0,-564.0,-814.0,-724.0,-1267.0,-212.0,0.0,0.0,0.0
19:46:08.816000,-1294.0,-527.0,-900.0,-724.0,-1267.0,-212.0,0.0,0.0,0.0
19:46:08.821000,-1212.0,-490.0,-994.0,-685.0,-1174.0,-206.0,0.0,0.0,0.0
19:46:08.825000,-1128.0,-451.0,-1037.0,-685.0,-1174.0,-206.0,0.0,0.0,0.0
19:46:08.830000,-1068.0,-415.0,-1031.0,-727.0,-1137.0,-213.0,0.0,0.0,0.0
19:46:08.835000,-1040.0,-382.0,-1036.0,-727.0,-1137.0,-213.0,0.0,0.0,0.0
19:46:08.840000,-1024.0,-348.0,-1083.0,-814.0,-1095.0,-211.0,0.0,0.0,0.0
19:46:08.844000,-1017.0,-314.0,-1130.0,-814.0,-1095.0,-211.0,0.0,0.0,0.0
19:46:08.849000,-1012.0,-280.0,-1138.0,-915.0,-986.0,-197.0,0.0,0.0,0.0
19:46:08.854000,-1001.0,-248.0,-1115.0,-915.0,-986.0,-197.0,0.0,0.0,0.0
19:46:08.858000,-976.0,-222.0,-1070.0,-905.0,-941.0,-201.0,0.0,0.0,0.0
19:46:08.863000,-976.0,-222.0,-1070.0,-905.0,-941.0,-201.0,0.0,0.0,0.0
19:46:08.868000,-948.0,-196.0,-1043.0,-871.0,-971.0,-204.0,0.0,0.0,0.0
19:46:08.872000,-921.0,-170.0,-1028.0,-871.0,-971.0,-204.0,0.0,0.0,0.0
19:46:08.877000,-878.0,-149.0,-994.0,-845.0,-994.0,-199.0,0.0,0.0,0.0
19:46:08.882000,-835.0,-127.0,-968.0,-845.0,-994.0,-199.0,0.0,0.0,0.0
19:46:08.887000,-791.0,-111.0,-970.0,-792.0,-989.0,-193.0,0.0,0.0,0.0
19:46:08.891000,-742.0,-93.0,-967.0,-792.0,-989.0,-193.0,0.0,0.0,0.0
19:46:08.896000,-679.0,-77.0,-954.0,-768.0,-1017.0,-188.0,0.0,0.0,0.0
19:46:08.901000,-627.0,-68.0,-939.0,-768.0,-1017.0,-188.0,0.0,0.0,0.0
19:46:08.905000,-578.0,-56.0,-915.0,-790.0,-1000.0,-185.0,0.0,0.0,0.0
19:46:08.910000,-544.0,-42.0,-905.0,-790.0,-1000.0,-185.0,0.0,0.0,0.0
19:46:08.915000,-526.0,-33.0,-912.0,-818.0,-845.0,-175.0,0.0,0.0,0.0
19:46:08.919000,-516.0,-24.0,-919.0,-818.0,-845.0,-175.0,0.0,0.0,0.0
19:46:08.924000,-503.0,-17.0,-905.0,-818.0,-845.0,-175.0,0.0,0.0,0.0
19:46:08.929000,-496.0,-11.0,-872.0,-843.0,-723.0,-160.0,0.0,0.0,0.0
19:46:08.934000,-486.0,-3.0,-842.0,-843.0,-723.0,-160.0,0.0,0.0,0.0
19:46:08.938000,-471.0,5.0,-821.0,-863.0,-691.0,-142.0,0.0,0.0,0.0
19:46:08.943000,-452.0,18.0,-791.0,-863.0,-691.0,-142.0,0.0,0.0,0.0
19:46:08.948000,-420.0,35.0,-754.0,-853.0,-710.0,-122.0,0.0,0.0,0.0
19:46:08.952000,-380.0,48.0,-726.0,-853.0,-710.0,-122.0,0.0,0.0,0.0
19:46:08.957000,-337.0,56.0,-690.0,-833.0,-769.0,-118.0,0.0,0.0,0.0
19:46:08.962000,-296.0,58.0,-678.0,-833.0,-769.0,-118.0,0.0,0.0,0.0
19:46:08.966000,-261.0,56.0,-718.0,-845.0,-752.0,-123.0,0.0,0.0,0.0
19:46:08.971000,-261.0,56.0,-718.0,-845.0,-752.0,-123.0,0.0,0.0,0.0
19:46:08.976000,-220.0,53.0,-730.0,-834.0,-684.0,-122.0,0.0,0.0,0.0
19:46:08.981000,-178.0,48.0,-677.0,-834.0,-684.0,-122.0,0.0,0.0,0.0
19:46:08.985000,-124.0,44.0,-599.0,-802.0,-648.0,-75.0,0.0,0.0,0.0
19:46:08.990000,-74.0,52.0,-564.0,-802.0,-648.0,-75.0,0.0,0.0,0.0
19:46:08.995000,-29.0,32.0,-529.0,-716.0,-542.0,-47.0,0.0,0.0,0.0
19:46:08.999000,-4.0,39.0,-530.0,-716.0,-542.0,-47.0,0.0,0.0,0.0
19:46:09.004000,26.0,28.0,-459.0,-723.0,-574.0,-53.0,0.0,0.0,0.0
19:46:09.009000,66.0,38.0,-358.0,-723.0,-574.0,-53.0,0.0,0.0,0.0
19:46:09.013000,143.0,22.0,-268.0,-833.0,-636.0,-71.0,0.0,0.0,0.0
19:46:09.018000,156.0,24.0,-252.0,-833.0,-636.0,-71.0,0.0,0.0,0.0
19:46:09.023000,147.0,30.0,-270.0,-846.0,-389.0,-100.0,0.0,0.0,0.0
19:46:09.028000,93.0,49.0,-252.0,-846.0,-389.0,-100.0,0.0,0.0,0.0
19:46:09.032000,67.0,53.0,-236.0,-846.0,-214.0,-103.0,0.0,0.0,0.0
19:46:09.037000,39.0,53.0,-224.0,-783.0,-214.0,-103.0,0.0,0.0,0.0
19:46:09.042000,14.0,43.0,-158.0,-783.0,-214.0,-103.0,0.0,0.0,0.0
19:46:09.046000,-17.0,37.0,-63.0,-721.0,-244.0,-117.0,0.0,0.0,0.0
19:46:09.051000,-60.0,21.0,29.0,-721.0,-244.0,-117.0,0.0,0.0,0.0
19:46:09.056000,-97.0,0.0,49.0,-749.0,-234.0,-124.0,0.0,0.0,0.0
19:46:09.060000,-139.0,-17.0,30.0,-749.0,-234.0,-124.0,0.0,0.0,0.0
19:46:09.065000,-155.0,-42.0,-38.0,-753.0,-170.0,-127.0,0.0,0.0,0.0
19:46:09.070000,-207.0,-61.0,39.0,-753.0,-170.0,-127.0,0.0,0.0,0.0
19:46:09.075000,-273.0,-59.0,283.0,-737.0,-201.0,-120.0,0.0,0.0,0.0
19:46:09.079000,-273.0,-59.0,283.0,-737.0,-201.0,-120.0,0.0,0.0,0.0
19:46:09.084000,-238.0,-87.0,222.0,-801.0,-215.0,-137.0,0.0,0.0,0.0
19:46:09.089000,-212.0,-106.0,-99.0,-801.0,-215.0,-137.0,0.0,0.0,0.0
19:46:09.093000,-240.0,-105.0,-287.0,-866.0,-69.0,-153.0,0.0,0.0,0.0
19:46:09.098000,-281.0,-100.0,-247.0,-866.0,-69.0,-153.0,0.0,0.0,0.0
19:46:09.103000,-304.0,-97.0,-174.0,-929.0,-16.0,-147.0,0.0,0.0,0.0
19:46:09.107000,-319.0,-91.0,-165.0,-929.0,-16.0,-147.0,0.0,0.0,0.0
19:46:09.112000,-330.0,-79.0,-180.0,-1084.0,-47.0,-153.0,0.0,0.0,0.0
19:46:09.117000,-327.0,-67.0,-160.0,-1084.0,-47.0,-153.0,0.0,0.0,0.0
19:46:09.122000,-341.0,-45.0,-113.0,-1219.0,-53.0,-151.0,0.0,0.0,0.0
19:46:09.126000,-352.0,-18.0,-118.0,-1219.0,-53.0,-151.0,0.0,0.0,0.0
19:46:09.131000,-316.0,0.0,-93.0,-1255.0,-79.0,-158.0,0.0,0.0,0.0
19:46:09.136000,-298.0,25.0,-35.0,-1255.0,-79.0,-158.0,0.0,0.0,0.0
19:46:09.140000,-270.0,47.0,-39.0,-1265.0,-78.0,-170.0,0.0,0.0,0.0
19:46:09.145000,-246.0,78.0,-94.0,-1265.0,-78.0,-170.0,0.0,0.0,0.0
19:46:09.150000,-192.0,93.0,-112.0,-1265.0,-78.0,-170.0,0.0,0.0,0.0
19:46:09.154000,-135.0,108.0,-101.0,-1257.0,-104.0,-177.0,0.0,0.0,0.0
19:46:09.159000,-80.0,130.0,-102.0,-1257.0,-104.0,-177.0,0.0,0.0,0.0
19:46:09.164000,-20.0,144.0,-133.0,-1232.0,-145.0,-189.0,0.0,0.0,0.0
19:46:09.169000,25.0,157.0,-161.0,-1232.0,-145.0,-189.0,0.0,0.0,0.0
19:46:09.173000,62.0,171.0,-177.0,-1230.0,-107.0,-188.0,0.0,0.0,0.0
19:46:09.178000,119.0,185.0,-163.0,-1230.0,-107.0,-188.0,0.0,0.0,0.0
19:46:09.183000,162.0,199.0,-137.0,-1257.0,-40.0,-185.0,0.0,0.0,0.0
19:46:09.187000,197.0,216.0,-159.0,-1257.0,-40.0,-185.0,0.0,0.0,0.0
19:46:09.192000,197.0,216.0,-159.0,-1298.0,21.0,-184.0,0.0,0.0,0.0
19:46:09.197000,223.0,228.0,-196.0,-1298.0,21.0,-184.0,0.0,0.0,0.0
19:46:09.201000,248.0,235.0,-212.0,-1353.0,45.0,-190.0,0.0,0.0,0.0
19:46:09.206000,278.0,228.0,-198.0,-1353.0,45.0,-190.0,0.0,0.0,0.0
19:46:09.211000,302.0,215.0,-161.0,-1365.0,69.0,-202.0,0.0,0.0,0.0
19:46:09.216000,330.0,198.0,-153.0,-1365.0,69.0,-202.0,0.0,0.0,0.0
19:46:09.220000,363.0,172.0,-162.0,-1315.0,138.0,-210.0,0.0,0.0,0.0
19:46:09.225000,401.0,149.0,-133.0,-1315.0,138.0,-210.0,0.0,0.0,0.0
19:46:09.230000,458.0,116.0,-111.0,-1300.0,167.0,-217.0,0.0,0.0,0.0
19:46:09.234000,481.0,84.0,-142.0,-1300.0,167.0,-217.0,0.0,0.0,0.0
19:46:09.239000,508.0,46.0,-195.0,-1349.0,263.0,-221.0,0.0,0.0,0.0
19:46:09.244000,570.0,-7.0,-260.0,-1349.0,263.0,-221.0,0.0,0.0,0.0
19:46:09.248000,586.0,-39.0,-275.0,-1375.0,423.0,-214.0,0.0,0.0,0.0
19:46:09.253000,543.0,-63.0,-260.0,-1375.0,423.0,-214.0,0.0,0.0,0.0
19:46:09.258000,499.0,-98.0,-224.0,-1375.0,423.0,-214.0,0.0,0.0,0.0
19:46:09.263000,443.0,-126.0,-179.0,-1354.0,518.0,-199.0,0.0,0.0,0.0
19:46:09.267000,431.0,-158.0,-246.0,-1354.0,518.0,-199.0,0.0,0.0,0.0
19:46:09.272000,406.0,-200.0,-286.0,-1379.0,535.0,-202.0,0.0,0.0,0.0
19:46:09.277000,275.0,-215.0,-242.0,-1379.0,535.0,-202.0,0.0,0.0,0.0
19:46:09.281000,240.0,-240.0,-181.0,-1425.0,468.0,-194.0,0.0,0.0,0.0
19:46:09.286000,191.0,-273.0,-44.0,-1425.0,468.0,-194.0,0.0,0.0,0.0
19:46:09.291000,150.0,-297.0,58.0,-1515.0,482.0,-188.0,0.0,0.0,0.0
19:46:09.295000,57.0,-336.0,79.0,-1515.0,482.0,-188.0,0.0,0.0,0.0
19:46:09.300000,57.0,-336.0,79.0,-1602.0,463.0,-191.0,0.0,0.0,0.0
19:46:09.305000,30.0,-352.0,168.0,-1602.0,463.0,-191.0,0.0,0.0,0.0
19:46:09.309000,-39.0,-354.0,193.0,-1554.0,298.0,-155.0,0.0,0.0,0.0
19:46:09.314000,-62.0,-364.0,167.0,-1554.0,298.0,-155.0,0.0,0.0,0.0
19:46:09.319000,-56.0,-368.0,-3.0,-1477.0,-1.0,-129.0,0.0,0.0,0.0
19:46:09.324000,-90.0,-357.0,79.0,-1477.0,-1.0,-129.0,0.0,0.0,0.0
19:46:09.328000,-125.0,-350.0,247.0,-1361.0,-351.0,-110.0,0.0,0.0,0.0
19:46:09.333000,-183.0,-340.0,481.0,-1361.0,-351.0,-110.0,0.0,0.0,0.0
19:46:09.338000,-264.0,-310.0,590.0,-1196.0,-557.0,-44.0,0.0,0.0,0.0
19:46:09.342000,-306.0,-286.0,308.0,-1196.0,-557.0,-44.0,0.0,0.0,0.0
19:46:09.347000,-314.0,-283.0,-34.0,-954.0,-794.0,11.0,0.0,0.0,0.0
19:46:09.352000,-340.0,-179.0,85.0,-954.0,-794.0,11.0,0.0,0.0,0.0
19:46:09.356000,-321.0,-168.0,140.0,-745.0,-1178.0,43.0,0.0,0.0,0.0
19:46:09.361000,-266.0,-163.0,163.0,-745.0,-1178.0,43.0,0.0,0.0,0.0
19:46:09.366000,-281.0,-153.0,56.0,-745.0,-1178.0,43.0,0.0,0.0,0.0
19:46:09.371000,-173.0,-168.0,107.0,-651.0,-1333.0,85.0,0.0,0.0,0.0
19:46:09.375000,-230.0,-116.0,-109.0,-651.0,-1333.0,85.0,0.0,0.0,0.0
19:46:09.380000,-112.0,-126.0,-489.0,-697.0,-1194.0,94.0,0.0,0.0,0.0
19:46:09.385000,-144.0,-90.0,-547.0,-697.0,-1194.0,94.0,0.0,0.0,0.0
19:46:09.389000,-202.0,-61.0,-454.0,-659.0,-1033.0,99.0,0.0,0.0,0.0
19:46:09.394000,-164.0,-20.0,-612.0,-659.0,-1033.0,99.0,0.0,0.0,0.0
19:46:09.399000,-90.0,-14.0,-800.0,-637.0,-902.0,56.0,0.0,0.0,0.0
19:46:09.403000,-118.0,14.0,-1005.0,-637.0,-902.0,56.0,0.0,0.0,0.0
19:46:09.408000,-118.0,14.0,-1005.0,-777.0,-854.0,2.0,0.0,0.0,0.0
19:46:09.413000,-173.0,26.0,-742.0,-777.0,-854.0,2.0,0.0,0.0,0.0
19:46:09.418000,-179.0,35.0,-619.0,-921.0,-678.0,3.0,0.0,0.0,0.0
19:46:09.422000,-160.0,56.0,-877.0,-921.0,-678.0,3.0,0.0,0.0,0.0
19:46:09.427000,-86.0,50.0,-787.0,-877.0,-615.0,0.0,0.0,0.0,0.0
19:46:09.432000,-83.0,32.0,-560.0,-877.0,-615.0,0.0,0.0,0.0,0.0
19:46:09.436000,-95.0,40.0,-543.0,-723.0,-625.0,20.0,0.0,0.0,0.0
19:46:09.441000,-49.0,36.0,-567.0,-723.0,-625.0,20.0,0.0,0.0,0.0
19:46:09.446000,21.0,44.0,-501.0,-740.0,-596.0,28.0,0.0,0.0,0.0
19:46:09.450000,0.0,52.0,-387.0,-740.0,-596.0,28.0,0.0,0.0,0.0
19:46:09.455000,21.0,69.0,-271.0,-734.0,-656.0,26.0,0.0,0.0,0.0
19:46:09.460000,56.0,88.0,-165.0,-734.0,-656.0,26.0,0.0,0.0,0.0
19:46:09.465000,9.0,84.0,-152.0,-733.0,-608.0,43.0,0.0,0.0,0.0
19:46:09.469000,44.0,91.0,-191.0,-733.0,-608.0,43.0,0.0,0.0,0.0
19:46:09.474000,37.0,135.0,-152.0,-733.0,-608.0,43.0,0.0,0.0,0.0
19:46:09.479000,54.0,138.0,-270.0,-753.0,-585.0,53.0,0.0,0.0,0.0
19:46:09.483000,114.0,152.0,-374.0,-753.0,-585.0,53.0,0.0,0.0,0.0
19:46:09.488000,93.0,135.0,-259.0,-754.0,-689.0,65.0,0.0,0.0,0.0
19:46:09.493000,42.0,105.0,-225.0,-754.0,-689.0,65.0,0.0,0.0,0.0
19:46:09.497000,5.0,70.0,-282.0,-642.0,-692.0,87.0,0.0,0.0,0.0
19:46:09.502000,-65.0,99.0,-255.0,-642.0,-692.0,87.0,0.0,0.0,0.0
19:46:09.507000,-43.0,118.0,-189.0,-529.0,-499.0,68.0,0.0,0.0,0.0
19:46:09.512000,32.0,74.0,-235.0,-529.0,-499.0,68.0,0.0,0.0,0.0
19:46:09.516000,60.0,10.0,-212.0,-694.0,-579.0,45.0,0.0,0.0,0.0
19:46:09.521000,60.0,10.0,-212.0,-694.0,-579.0,45.0,0.0,0.0,0.0
19:46:09.526000,21.0,16.0,-156.0,-786.0,-643.0,47.0,0.0,0.0,0.0
19:46:09.530000,119.0,16.0,-306.0,-786.0,-643.0,47.0,0.0,0.0,0.0
19:46:09.534000,89.0,-18.0,-292.0,-740.0,-505.0,57.0,0.0,0.0,0.0
19:46:09.540000,-26.0,-7.0,-298.0,-740.0,-505.0,57.0,0.0,0.0,0.0
19:46:09.544000,-42.0,-21.0,-249.0,-712.0,-416.0,73.0,0.0,0.0,0.0
19:46:09.549000,-149.0,-15.0,-65.0,-712.0,-416.0,73.0,0.0,0.0,0.0
19:46:09.554000,-112.0,-42.0,-74.0,-753.0,-302.0,64.0,0.0,0.0,0.0
19:46:09.559000,-136.0,-49.0,-235.0,-753.0,-302.0,64.0,0.0,0.0,0.0
19:46:09.563000,-149.0,-52.0,-338.0,-819.0,-407.0,50.0,0.0,0.0,0.0
19:46:09.568000,-174.0,-52.0,-203.0,-819.0,-407.0,50.0,0.0,0.0,0.0
19:46:09.573000,-191.0,-46.0,-175.0,-856.0,-528.0,41.0,0.0,0.0,0.0
19:46:09.577000,-154.0,-73.0,-240.0,-856.0,-528.0,41.0,0.0,0.0,0.0
19:46:09.582000,-210.0,-88.0,-44.0,-856.0,-528.0,41.0,0.0,0.0,0.0
19:46:09.587000,-191.0,-73.0,135.0,-886.0,-609.0,43.0,0.0,0.0,0.0
19:46:09.591000,-161.0,-87.0,248.0,-857.0,-565.0,43.0,0.0,0.0,0.0
19:46:09.596000,-123.0,-71.0,161.0,-857.0,-565.0,43.0,0.0,0.0,0.0
19:46:09.601000,-109.0,-72.0,35.0,-857.0,-565.0,43.0,0.0,0.0,0.0
19:46:09.606000,-95.0,-77.0,7.0,-874.0,-549.0,42.0,0.0,0.0,0.0
19:46:09.610000,-77.0,-33.0,-167.0,-874.0,-549.0,42.0,0.0,0.0,0.0
19:46:09.615000,-42.0,-42.0,-367.0,-757.0,-622.0,31.0,0.0,0.0,0.0
19:46:09.620000,-128.0,-25.0,-469.0,-757.0,-622.0,31.0,0.0,0.0,0.0
19:46:09.624000,-168.0,0.0,-442.0,-660.0,-561.0,-1.0,0.0,0.0,0.0
19:46:09.629000,-168.0,0.0,-442.0,-660.0,-561.0,-1.0,0.0,0.0,0.0
19:46:09.634000,-149.0,11.0,-277.0,-754.0,-553.0,-15.0,0.0,0.0,0.0
19:46:09.638000,-105.0,-42.0,-70.0,-754.0,-553.0,-15.0,0.0,0.0,0.0
19:46:09.643000,-126.0,-68.0,19.0,-773.0,-581.0,14.0,0.0,0.0,0.0
19:46:09.648000,-63.0,-112.0,-104.0,-773.0,-581.0,14.0,0.0,0.0,0.0
19:46:09.653000,33.0,-106.0,-516.0,-735.0,-700.0,4.0,0.0,0.0,0.0
19:46:09.657000,96.0,-86.0,-725.0,-735.0,-700.0,4.0,0.0,0.0,0.0
19:46:09.662000,43.0,-51.0,-354.0,-760.0,-640.0,0.0,0.0,0.0,0.0
19:46:09.667000,-44.0,-7.0,-7.0,-760.0,-640.0,0.0,0.0,0.0,0.0
19:46:09.671000,-95.0,-7.0,18.0,-891.0,-310.0,21.0,0.0,0.0,0.0
19:46:09.676000,-77.0,30.0,-270.0,-891.0,-310.0,21.0,0.0,0.0,0.0
19:46:09.681000,-95.0,42.0,-463.0,-956.0,-502.0,-2.0,0.0,0.0,0.0
19:46:09.685000,-103.0,57.0,-223.0,-956.0,-502.0,-2.0,0.0,0.0,0.0
19:46:09.690000,-121.0,63.0,67.0,-956.0,-502.0,-2.0,0.0,0.0,0.0
19:46:09.695000,-7.0,10.0,49.0,-882.0,-711.0,24.0,0.0,0.0,0.0
19:46:09.700000,-40.0,25.0,-282.0,-882.0,-711.0,24.0,0.0,0.0,0.0
19:46:09.704000,-7.0,53.0,-561.0,-869.0,-521.0,58.0,0.0,0.0,0.0
19:46:09.709000,33.0,54.0,-539.0,-869.0,-521.0,58.0,0.0,0.0,0.0
19:46:09.714000,74.0,46.0,-465.0,-724.0,-587.0,0.0,0.0,0.0,0.0
19:46:09.718000,97.0,48.0,-524.0,-724.0,-587.0,0.0,0.0,0.0,0.0
19:46:09.723000,50.0,38.0,-344.0,-699.0,-695.0,-68.0,0.0,0.0,0.0
19:46:09.728000,15.0,-11.0,-72.0,-699.0,-695.0,-68.0,0.0,0.0,0.0
19:46:09.732000,49.0,-61.0,41.0,-940.0,-650.0,-27.0,0.0,0.0,0.0
19:46:09.737000,49.0,-61.0,41.0,-940.0,-650.0,-27.0,0.0,0.0,0.0
19:46:09.742000,106.0,-93.0,65.0,-921.0,-602.0,22.0,0.0,0.0,0.0
19:46:09.747000,140.0,-93.0,-77.0,-921.0,-602.0,22.0,0.0,0.0,0.0
19:46:09.751000,161.0,-133.0,-218.0,-753.0,-561.0,67.0,0.0,0.0,0.0
19:46:09.756000,158.0,-151.0,-175.0,-753.0,-561.0,67.0,0.0,0.0,0.0
19:46:09.761000,138.0,-150.0,-146.0,-739.0,-370.0,115.0,0.0,0.0,0.0
19:46:09.765000,107.0,-150.0,-147.0,-739.0,-370.0,115.0,0.0,0.0,0.0
19:46:09.770000,52.0,-133.0,-108.0,-830.0,-256.0,110.0,0.0,0.0,0.0
19:46:09.775000,-2.0,-125.0,-129.0,-830.0,-256.0,110.0,0.0,0.0,0.0
19:46:09.779000,-56.0,-107.0,-175.0,-972.0,-305.0,84.0,0.0,0.0,0.0
19:46:09.784000,-69.0,-77.0,-186.0,-972.0,-305.0,84.0,0.0,0.0,0.0
19:46:09.789000,-84.0,-35.0,-171.0,-1038.0,-433.0,35.0,0.0,0.0,0.0
19:46:09.794000,-101.0,-5.0,-88.0,-1038.0,-433.0,35.0,0.0,0.0,0.0
19:46:09.798000,-58.0,14.0,-53.0,-1038.0,-433.0,35.0,0.0,0.0,0.0
19:46:09.803000,-25.0,35.0,-68.0,-1014.0,-511.0,-4.0,0.0,0.0,0.0
19:46:09.808000,10.0,24.0,-224.0,-1014.0,-511.0,-4.0,0.0,0.0,0.0
19:46:09.812000,1.0,21.0,-429.0,-974.0,-525.0,-14.0,0.0,0.0,0.0
19:46:09.817000,-29.0,30.0,-464.0,-974.0,-525.0,-14.0,0.0,0.0,0.0
19:46:09.822000,7.0,-9.0,-147.0,-908.0,-674.0,11.0,0.0,0.0,0.0
19:46:09.826000,28.0,-74.0,236.0,-908.0,-674.0,11.0,0.0,0.0,0.0
19:46:09.831000,32.0,-86.0,55.0,-813.0,-687.0,32.0,0.0,0.0,0.0
19:46:09.836000,49.0,-60.0,-228.0,-813.0,-687.0,32.0,0.0,0.0,0.0
19:46:09.841000,100.0,-61.0,-282.0,-780.0,-441.0,-6.0,0.0,0.0,0.0
19:46:09.845000,100.0,-61.0,-282.0,-780.0,-441.0,-6.0,0.0,0.0,0.0
19:46:09.850000,72.0,-79.0,-328.0,-784.0,-375.0,-3.0,0.0,0.0,0.0
19:46:09.855000,72.0,-92.0,-358.0,-784.0,-375.0,-3.0,0.0,0.0,0.0
19:46:09.859000,71.0,-95.0,-370.0,-789.0,-424.0,24.0,0.0,0.0,0.0
19:46:09.864000,49.0,-72.0,-425.0,-789.0,-424.0,24.0,0.0,0.0,0.0
19:46:09.869000,30.0,-27.0,-377.0,-848.0,-450.0,-5.0,0.0,0.0,0.0
19:46:09.873000,78.0,-21.0,-281.0,-848.0,-450.0,-5.0,0.0,0.0,0.0
19:46:09.878000,115.0,-7.0,-284.0,-943.0,-504.0,-29.0,0.0,0.0,0.0
19:46:09.883000,120.0,11.0,-292.0,-943.0,-504.0,-29.0,0.0,0.0,0.0
19:46:09.888000,104.0,-2.0,-280.0,-959.0,-475.0,-25.0,0.0,0.0,0.0
19:46:09.892000,74.0,20.0,-331.0,-959.0,-475.0,-25.0,0.0,0.0,0.0
19:46:09.897000,109.0,30.0,-492.0,-884.0,-515.0,-42.0,0.0,0.0,0.0
19:46:09.902000,130.0,22.0,-494.0,-884.0,-515.0,-42.0,0.0,0.0,0.0
19:46:09.906000,135.0,11.0,-117.0,-884.0,-552.0,-62.0,0.0,0.0,0.0
19:46:09.911000,156.0,4.0,17.0,-856.0,-552.0,-62.0,0.0,0.0,0.0
19:46:09.916000,174.0,34.0,-232.0,-856.0,-552.0,-62.0,0.0,0.0,0.0
19:46:09.920000,203.0,30.0,-385.0,-945.0,-378.0,-68.0,0.0,0.0,0.0
19:46:09.925000,203.0,40.0,-241.0,-945.0,-378.0,-68.0,0.0,0.0,0.0
19:46:09.930000,250.0,25.0,-98.0,-863.0,-387.0,-75.0,0.0,0.0,0.0
19:46:09.935000,247.0,47.0,-137.0,-863.0,-387.0,-75.0,0.0,0.0,0.0
19:46:09.939000,287.0,37.0,-208.0,-821.0,-442.0,-83.0,0.0,0.0,0.0
19:46:09.944000,254.0,69.0,-222.0,-821.0,-442.0,-83.0,0.0,0.0,0.0
19:46:09.949000,273.0,65.0,-201.0,-934.0,-376.0,-104.0,0.0,0.0,0.0
19:46:09.953000,236.0,77.0,-190.0,-934.0,-376.0,-104.0,0.0,0.0,0.0
19:46:09.958000,236.0,77.0,-190.0,-940.0,-394.0,-111.0,0.0,0.0,0.0
19:46:09.963000,226.0,59.0,-178.0,-940.0,-394.0,-111.0,0.0,0.0,0.0
19:46:09.967000,193.0,56.0,-134.0,-928.0,-398.0,-106.0,0.0,0.0,0.0
19:46:09.972000,200.0,37.0,-105.0,-928.0,-398.0,-106.0,0.0,0.0,0.0
19:46:09.977000,201.0,28.0,-88.0,-894.0,-423.0,-104.0,0.0,0.0,0.0
19:46:09.982000,220.0,14.0,-106.0,-894.0,-423.0,-104.0,0.0,0.0,0.0
19:46:09.986000,191.0,12.0,-135.0,-876.0,-402.0,-85.0,0.0,0.0,0.0
19:46:09.991000,200.0,5.0,-146.0,-876.0,-402.0,-85.0,0.0,0.0,0.0
19:46:09.996000,203.0,11.0,-148.0,-855.0,-376.0,-66.0,0.0,0.0,0.0
19:46:10.000000,214.0,4.0,-170.0,-855.0,-376.0,-66.0,0.0,0.0,0.0
19:46:10.005000,189.0,10.0,-191.0,-866.0,-368.0,-63.0,0.0,0.0,0.0
19:46:10.010000,182.0,2.0,-181.0,-866.0,-368.0,-63.0,0.0,0.0,0.0
19:46:10.014000,158.0,2.0,-190.0,-920.0,-369.0,-52.0,0.0,0.0,0.0
19:46:10.019000,160.0,-4.0,-217.0,-920.0,-369.0,-52.0,0.0,0.0,0.0
19:46:10.024000,137.0,-13.0,-297.0,-920.0,-369.0,-52.0,0.0,0.0,0.0
19:46:10.029000,147.0,-23.0,-332.0,-914.0,-393.0,-45.0,0.0,0.0,0.0
19:46:10.033000,138.0,-21.0,-274.0,-914.0,-393.0,-45.0,0.0,0.0,0.0
19:46:10.038000,140.0,-25.0,-251.0,-875.0,-373.0,-50.0,0.0,0.0,0.0
19:46:10.043000,116.0,-23.0,-270.0,-875.0,-373.0,-50.0,0.0,0.0,0.0
19:46:10.047000,132.0,-32.0,-261.0,-909.0,-329.0,-55.0,0.0,0.0,0.0
19:46:10.052000,105.0,-32.0,-263.0,-909.0,-329.0,-55.0,0.0,0.0,0.0
19:46:10.057000,99.0,-35.0,-308.0,-957.0,-335.0,-54.0,0.0,0.0,0.0
19:46:10.061000,67.0,-32.0,-341.0,-957.0,-335.0,-54.0,0.0,0.0,0.0
19:46:10.066000,67.0,-32.0,-341.0,-934.0,-344.0,-31.0,0.0,0.0,0.0
19:46:10.071000,81.0,-49.0,-311.0,-934.0,-344.0,-31.0,0.0,0.0,0.0
19:46:10.076000,64.0,-43.0,-289.0,-904.0,-347.0,-23.0,0.0,0.0,0.0
19:46:10.080000,74.0,-49.0,-242.0,-904.0,-347.0,-23.0,0.0,0.0,0.0
19:46:10.085000,46.0,-49.0,-263.0,-951.0,-352.0,-21.0,0.0,0.0,0.0
19:46:10.090000,37.0,-42.0,-340.0,-951.0,-352.0,-21.0,0.0,0.0,0.0
19:46:10.094000,12.0,-32.0,-389.0,-1001.0,-322.0,-11.0,0.0,0.0,0.0
19:46:10.099000,21.0,-31.0,-401.0,-1001.0,-322.0,-11.0,0.0,0.0,0.0
19:46:10.104000,-9.0,-15.0,-408.0,-1021.0,-292.0,-7.0,0.0,0.0,0.0
19:46:10.108000,-14.0,-9.0,-403.0,-1021.0,-292.0,-7.0,0.0,0.0,0.0
19:46:10.113000,-38.0,1.0,-390.0,-1023.0,-317.0,-11.0,0.0,0.0,0.0
19:46:10.118000,-26.0,0.0,-396.0,-1023.0,-317.0,-11.0,0.0,0.0,0.0
19:46:10.123000,-55.0,13.0,-431.0,-1024.0,-349.0,-16.0,0.0,0.0,0.0
19:46:10.127000,-48.0,22.0,-443.0,-1024.0,-349.0,-16.0,0.0,0.0,0.0
19:46:10.132000,-64.0,44.0,-466.0,-1024.0,-349.0,-16.0,0.0,0.0,0.0
19:46:10.137000,-52.0,54.0,-455.0,-1046.0,-337.0,-2.0,0.0,0.0,0.0
19:46:10.141000,-75.0,74.0,-435.0,-1046.0,-330.0,-2.0,0.0,0.0,0.0
19:46:10.146000,-68.0,88.0,-445.0,-1055.0,-330.0,11.0,0.0,0.0,0.0
19:46:10.151000,-94.0,113.0,-481.0,-1055.0,-330.0,11.0,0.0,0.0,0.0
19:46:10.155000,-87.0,128.0,-483.0,-1049.0,-308.0,16.0,0.0,0.0,0.0
19:46:10.160000,-112.0,151.0,-452.0,-1049.0,-308.0,16.0,0.0,0.0,0.0
19:46:10.165000,-105.0,165.0,-439.0,-1039.0,-288.0,14.0,0.0,0.0,0.0
19:46:10.170000,-120.0,182.0,-462.0,-1039.0,-288.0,14.0,0.0,0.0,0.0
19:46:10.174000,-120.0,182.0,-462.0,-1028.0,-292.0,18.0,0.0,0.0,0.0
19:46:10.179000,-102.0,189.0,-483.0,-1028.0,-292.0,18.0,0.0,0.0,0.0
19:46:10.184000,-104.0,210.0,-515.0,-976.0,-290.0,4.0,0.0,0.0,0.0
19:46:10.188000,-87.0,229.0,-597.0,-976.0,-290.0,4.0,0.0,0.0,0.0
19:46:10.193000,-102.0,259.0,-662.0,-974.0,-297.0,-39.0,0.0,0.0,0.0
19:46:10.198000,-97.0,262.0,-691.0,-974.0,-297.0,-39.0,0.0,0.0,0.0
19:46:10.202000,-128.0,276.0,-665.0,-1084.0,-300.0,-58.0,0.0,0.0,0.0
19:46:10.207000,-132.0,268.0,-599.0,-1084.0,-300.0,-58.0,0.0,0.0,0.0
19:46:10.212000,-138.0,261.0,-599.0,-1161.0,-313.0,-43.0,0.0,0.0,0.0
19:46:10.217000,-119.0,232.0,-592.0,-1161.0,-313.0,-43.0,0.0,0.0,0.0
19:46:10.221000,-101.0,211.0,-576.0,-1084.0,-338.0,-37.0,0.0,0.0,0.0
19:46:10.226000,-65.0,183.0,-572.0,-1084.0,-338.0,-37.0,0.0,0.0,0.0
19:46:10.231000,-38.0,171.0,-576.0,-981.0,-312.0,-41.0,0.0,0.0,0.0
19:46:10.235000,-23.0,170.0,-596.0,-981.0,-312.0,-41.0,0.0,0.0,0.0
19:46:10.240000,-5.0,163.0,-627.0,-981.0,-312.0,-41.0,0.0,0.0,0.0
19:46:10.245000,-3.0,168.0,-676.0,-982.0,-248.0,-47.0,0.0,0.0,0.0
19:46:10.249000,3.0,168.0,-683.0,-982.0,-248.0,-47.0,0.0,0.0,0.0
19:46:10.254000,4.0,160.0,-672.0,-1038.0,-204.0,-47.0,0.0,0.0,0.0
19:46:10.259000,2.0,158.0,-658.0,-1038.0,-204.0,-47.0,0.0,0.0,0.0
19:46:10.264000,-14.0,157.0,-639.0,-1047.0,-190.0,-38.0,0.0,0.0,0.0
19:46:10.268000,-18.0,149.0,-619.0,-1047.0,-190.0,-38.0,0.0,0.0,0.0
19:46:10.273000,-39.0,153.0,-616.0,-1021.0,-183.0,-34.0,0.0,0.0,0.0
19:46:10.278000,-52.0,157.0,-643.0,-1021.0,-183.0,-34.0,0.0,0.0,0.0
19:46:10.282000,-52.0,157.0,-643.0,-1032.0,-128.0,-33.0,0.0,0.0,0.0
19:46:10.287000,-67.0,168.0,-699.0,-1032.0,-128.0,-33.0,0.0,0.0,0.0
19:46:10.292000,-65.0,165.0,-705.0,-1037.0,-79.0,-34.0,0.0,0.0,0.0
19:46:10.296000,-81.0,167.0,-672.0,-1037.0,-79.0,-34.0,0.0,0.0,0.0
19:46:10.301000,-88.0,165.0,-666.0,-1029.0,-86.0,-34.0,0.0,0.0,0.0
19:46:10.306000,-98.0,165.0,-695.0,-1029.0,-86.0,-34.0,0.0,0.0,0.0
19:46:10.311000,-86.0,164.0,-728.0,-1031.0,-112.0,-39.0,0.0,0.0,0.0
19:46:10.315000,-79.0,168.0,-746.0,-1031.0,-112.0,-39.0,0.0,0.0,0.0
19:46:10.320000,-78.0,166.0,-744.0,-1016.0,-121.0,-45.0,0.0,0.0,0.0
19:46:10.325000,-74.0,164.0,-735.0,-1016.0,-121.0,-45.0,0.0,0.0,0.0
19:46:10.329000,-74.0,155.0,-721.0,-1002.0,-61.0,-43.0,0.0,0.0,0.0
19:46:10.334000,-83.0,154.0,-704.0,-1002.0,-61.0,-43.0,0.0,0.0,0.0
19:46:10.339000,-82.0,149.0,-687.0,-1015.0,-34.0,-47.0,0.0,0.0,0.0
19:46:10.343000,-61.0,141.0,-685.0,-1015.0,-34.0,-47.0,0.0,0.0,0.0
19:46:10.348000,-50.0,132.0,-702.0,-1015.0,-34.0,-47.0,0.0,0.0,0.0
19:46:10.353000,-45.0,126.0,-681.0,-1029.0,-75.0,-50.0,0.0,0.0,0.0
19:46:10.358000,-42.0,123.0,-646.0,-1029.0,-75.0,-50.0,0.0,0.0,0.0
19:46:10.362000,-37.0,121.0,-622.0,-1035.0,-77.0,-49.0,0.0,0.0,0.0
19:46:10.366000,-30.0,121.0,-616.0,-1035.0,-77.0,-49.0,0.0,0.0,0.0
19:46:10.372000,-25.0,123.0,-625.0,-1038.0,-47.0,-55.0,0.0,0.0,0.0
19:46:10.376000,-13.0,127.0,-634.0,-1038.0,-47.0,-55.0,0.0,0.0,0.0
19:46:10.381000,-9.0,135.0,-637.0,-1052.0,-26.0,-62.0,0.0,0.0,0.0
19:46:10.386000,5.0,139.0,-624.0,-1052.0,-26.0,-62.0,0.0,0.0,0.0
19:46:10.390000,11.0,151.0,-639.0,-1052.0,-24.0,-70.0,0.0,0.0,0.0
19:46:10.395000,11.0,151.0,-639.0,-1052.0,-24.0,-70.0,0.0,0.0,0.0
19:46:10.400000,14.0,159.0,-648.0,-1047.0,-12.0,-74.0,0.0,0.0,0.0
19:46:10.405000,9.0,173.0,-623.0,-1047.0,-12.0,-74.0,0.0,0.0,0.0
19:46:10.409000,13.0,183.0,-588.0,-1058.0,0.0,-78.0,0.0,0.0,0.0
19:46:10.414000,9.0,202.0,-580.0,-1058.0,0.0,-78.0,0.0,0.0,0.0
19:46:10.419000,7.0,219.0,-586.0,-1091.0,19.0,-86.0,0.0,0.0,0.0
19:46:10.423000,4.0,245.0,-594.0,-1091.0,19.0,-86.0,0.0,0.0,0.0
19:46:10.428000,2.0,270.0,-602.0,-1121.0,51.0,-94.0,0.0,0.0,0.0
19:46:10.433000,-9.0,297.0,-590.0,-1121.0,51.0,-94.0,0.0,0.0,0.0
19:46:10.437000,-17.0,321.0,-575.0,-1121.0,75.0,-101.0,0.0,0.0,0.0
19:46:10.442000,-27.0,341.0,-574.0,-1121.0,75.0,-101.0,0.0,0.0,0.0
19:46:10.447000,-25.0,358.0,-562.0,-1108.0,78.0,-106.0,0.0,0.0,0.0
19:46:10.452000,-27.0,376.0,-561.0,-1108.0,78.0,-106.0,0.0,0.0,0.0
19:46:10.456000,-23.0,383.0,-557.0,-1108.0,78.0,-106.0,0.0,0.0,0.0
