hh:mm:ss.ms,gyroX[mdps],gyroY[mdps],gyroZ[mdps],accX[mg],accY[mg],accZ[mg],magX[mG],magY[mG],magZ[mG]
19:36:36.502000,-1666.0,-510.0,-347.0,-1204.0,525.0,190.0,0.0,0.0,0.0
19:36:36.507000,-1652.0,-479.0,-315.0,-1204.0,525.0,190.0,0.0,0.0,0.0
19:36:36.512000,-1641.0,-450.0,-282.0,-1084.0,496.0,176.0,0.0,0.0,0.0
19:36:36.516000,-1631.0,-422.0,-258.0,-1084.0,496.0,176.0,0.0,0.0,0.0
19:36:36.521000,-1619.0,-399.0,-245.0,-966.0,483.0,177.0,0.0,0.0,0.0
19:36:36.526000,-1596.0,-391.0,-235.0,-966.0,483.0,177.0,0.0,0.0,0.0
19:36:36.530000,-1596.0,-391.0,-235.0,-871.0,454.0,197.0,0.0,0.0,0.0
19:36:36.535000,-1556.0,-389.0,-221.0,-871.0,454.0,197.0,0.0,0.0,0.0
19:36:36.540000,-1505.0,-382.0,-205.0,-790.0,360.0,221.0,0.0,0.0,0.0
19:36:36.545000,-1459.0,-367.0,-203.0,-790.0,360.0,221.0,0.0,0.0,0.0
19:36:36.549000,-1418.0,-354.0,-226.0,-784.0,321.0,219.0,0.0,0.0,0.0
19:36:36.554000,-1387.0,-332.0,-249.0,-784.0,321.0,219.0,0.0,0.0,0.0
19:36:36.558000,-1373.0,-307.0,-239.0,-853.0,392.0,191.0,0.0,0.0,0.0
19:36:36.563000,-1375.0,-281.0,-212.0,-853.0,392.0,191.0,0.0,0.0,0.0
19:36:36.568000,-1392.0,-246.0,-203.0,-922.0,517.0,152.0,0.0,0.0,0.0
19:36:36.573000,-1422.0,-205.0,-210.0,-922.0,517.0,152.0,0.0,0.0,0.0
19:36:36.577000,-1463.0,-160.0,-212.0,-955.0,621.0,105.0,0.0,0.0,0.0
19:36:36.582000,-1514.0,-122.0,-199.0,-955.0,621.0,105.0,0.0,0.0,0.0
19:36:36.587000,-1566.0,-96.0,-179.0,-942.0,650.0,64.0,0.0,0.0,0.0
19:36:36.592000,-1617.0,-78.0,-148.0,-942.0,650.0,64.0,0.0,0.0,0.0
19:36:36.596000,-1664.0,-63.0,-99.0,-942.0,650.0,64.0,0.0,0.0,0.0
19:36:36.601000,-1710.0,-58.0,-49.0,-878.0,621.0,31.0,0.0,0.0,0.0
19:36:36.606000,-1755.0,-58.0,-14.0,-878.0,621.0,31.0,0.0,0.0,0.0
19:36:36.610000,-1801.0,-57.0,15.0,-789.0,594.0,-2.0,0.0,0.0,0.0
19:36:36.615000,-1854.0,-53.0,52.0,-789.0,594.0,-2.0,0.0,0.0,0.0
19:36:36.620000,-1910.0,-56.0,93.0,-722.0,591.0,-36.0,0.0,0.0,0.0
19:36:36.624000,-1963.0,-67.0,133.0,-722.0,591.0,-36.0,0.0,0.0,0.0
19:36:36.629000,-2007.0,-73.0,176.0,-685.0,556.0,-55.0,0.0,0.0,0.0
19:36:36.634000,-2044.0,-72.0,216.0,-685.0,556.0,-55.0,0.0,0.0,0.0
19:36:36.639000,-2076.0,-73.0,239.0,-649.0,466.0,-73.0,0.0,0.0,0.0
19:36:36.643000,-2076.0,-73.0,239.0,-649.0,466.0,-73.0,0.0,0.0,0.0
19:36:36.648000,-2101.0,-75.0,242.0,-612.0,379.0,-103.0,0.0,0.0,0.0
19:36:36.653000,-2116.0,-77.0,240.0,-612.0,379.0,-103.0,0.0,0.0,0.0
19:36:36.657000,-2123.0,-79.0,234.0,-589.0,317.0,-131.0,0.0,0.0,0.0
19:36:36.662000,-2120.0,-79.0,210.0,-589.0,317.0,-131.0,0.0,0.0,0.0
19:36:36.667000,-2108.0,-74.0,166.0,-578.0,257.0,-165.0,0.0,0.0,0.0
19:36:36.671000,-2090.0,-67.0,120.0,-578.0,257.0,-165.0,0.0,0.0,0.0
19:36:36.676000,-2067.0,-58.0,88.0,-588.0,199.0,-203.0,0.0,0.0,0.0
19:36:36.681000,-2043.0,-49.0,70.0,-588.0,199.0,-203.0,0.0,0.0,0.0
19:36:36.686000,-2019.0,-40.0,57.0,-598.0,158.0,-235.0,0.0,0.0,0.0
19:36:36.690000,-1998.0,-35.0,49.0,-598.0,158.0,-235.0,0.0,0.0,0.0
19:36:36.695000,-1983.0,-28.0,49.0,-590.0,167.0,-255.0,0.0,0.0,0.0
19:36:36.700000,-1974.0,-22.0,53.0,-590.0,167.0,-255.0,0.0,0.0,0.0
19:36:36.704000,-1971.0,-18.0,66.0,-590.0,167.0,-255.0,0.0,0.0,0.0
19:36:36.709000,-1971.0,-18.0,82.0,-569.0,206.0,-257.0,0.0,0.0,0.0
19:36:36.714000,-1970.0,-18.0,101.0,-569.0,206.0,-257.0,0.0,0.0,0.0
19:36:36.718000,-1962.0,-18.0,117.0,-539.0,221.0,-243.0,0.0,0.0,0.0
19:36:36.723000,-1946.0,-15.0,131.0,-539.0,221.0,-243.0,0.0,0.0,0.0
19:36:36.728000,-1920.0,-9.0,146.0,-498.0,182.0,-231.0,0.0,0.0,0.0
19:36:36.733000,-1887.0,-2.0,165.0,-498.0,182.0,-231.0,0.0,0.0,0.0
19:36:36.737000,-1846.0,6.0,193.0,-471.0,97.0,-230.0,0.0,0.0,0.0
19:36:36.742000,-1799.0,18.0,228.0,-471.0,97.0,-230.0,0.0,0.0,0.0
19:36:36.747000,-1747.0,35.0,267.0,-475.0,-9.0,-240.0,0.0,0.0,0.0
19:36:36.751000,-1747.0,35.0,267.0,-475.0,-9.0,-240.0,0.0,0.0,0.0
19:36:36.756000,-1699.0,57.0,298.0,-506.0,-54.0,-259.0,0.0,0.0,0.0
19:36:36.761000,-1664.0,80.0,312.0,-506.0,-54.0,-259.0,0.0,0.0,0.0
19:36:36.765000,-1647.0,103.0,312.0,-550.0,26.0,-274.0,0.0,0.0,0.0
19:36:36.770000,-1644.0,123.0,303.0,-550.0,26.0,-274.0,0.0,0.0,0.0
19:36:36.775000,-1652.0,144.0,295.0,-566.0,115.0,-269.0,0.0,0.0,0.0
19:36:36.779000,-1661.0,165.0,290.0,-566.0,115.0,-269.0,0.0,0.0,0.0
19:36:36.784000,-1671.0,185.0,284.0,-531.0,124.0,-251.0,0.0,0.0,0.0
19:36:36.789000,-1684.0,205.0,270.0,-531.0,124.0,-251.0,0.0,0.0,0.0
19:36:36.793000,-1702.0,227.0,252.0,-490.0,128.0,-229.0,0.0,0.0,0.0
19:36:36.798000,-1721.0,251.0,233.0,-490.0,128.0,-229.0,0.0,0.0,0.0
19:36:36.803000,-1740.0,278.0,217.0,-475.0,146.0,-213.0,0.0,0.0,0.0
19:36:36.808000,-1764.0,308.0,203.0,-475.0,146.0,-213.0,0.0,0.0,0.0
19:36:36.812000,-1793.0,338.0,193.0,-475.0,146.0,-213.0,0.0,0.0,0.0
19:36:36.817000,-1825.0,369.0,191.0,-490.0,179.0,-209.0,0.0,0.0,0.0
19:36:36.822000,-1858.0,401.0,198.0,-490.0,179.0,-209.0,0.0,0.0,0.0
19:36:36.826000,-1884.0,431.0,212.0,-503.0,212.0,-206.0,0.0,0.0,0.0
19:36:36.831000,-1903.0,457.0,231.0,-503.0,212.0,-206.0,0.0,0.0,0.0
19:36:36.836000,-1911.0,480.0,263.0,-489.0,206.0,-218.0,0.0,0.0,0.0
19:36:36.841000,-1915.0,501.0,315.0,-489.0,206.0,-218.0,0.0,0.0,0.0
19:36:36.845000,-1913.0,521.0,387.0,-472.0,165.0,-247.0,0.0,0.0,0.0
19:36:36.850000,-1904.0,539.0,473.0,-472.0,165.0,-247.0,0.0,0.0,0.0
19:36:36.855000,-1893.0,557.0,569.0,-453.0,97.0,-281.0,0.0,0.0,0.0
19:36:36.859000,-1893.0,557.0,569.0,-453.0,97.0,-281.0,0.0,0.0,0.0
19:36:36.864000,-1883.0,575.0,670.0,-433.0,30.0,-313.0,0.0,0.0,0.0
19:36:36.869000,-1869.0,594.0,773.0,-433.0,30.0,-313.0,0.0,0.0,0.0
19:36:36.873000,-1848.0,618.0,871.0,-426.0,-46.0,-354.0,0.0,0.0,0.0
19:36:36.878000,-1822.0,646.0,969.0,-426.0,-46.0,-354.0,0.0,0.0,0.0
19:36:36.883000,-1787.0,681.0,1062.0,-437.0,-166.0,-412.0,0.0,0.0,0.0
19:36:36.888000,-1740.0,719.0,1128.0,-437.0,-166.0,-412.0,0.0,0.0,0.0
19:36:36.892000,-1689.0,755.0,1162.0,-471.0,-251.0,-474.0,0.0,0.0,0.0
19:36:36.897000,-1642.0,784.0,1173.0,-471.0,-251.0,-474.0,0.0,0.0,0.0
19:36:36.902000,-1600.0,808.0,1176.0,-459.0,-274.0,-520.0,0.0,0.0,0.0
19:36:36.906000,-1566.0,829.0,1176.0,-459.0,-274.0,-520.0,0.0,0.0,0.0
19:36:36.911000,-1539.0,844.0,1169.0,-382.0,-274.0,-548.0,0.0,0.0,0.0
19:36:36.916000,-1516.0,851.0,1152.0,-382.0,-274.0,-548.0,0.0,0.0,0.0
19:36:36.920000,-1499.0,850.0,1125.0,-382.0,-246.0,-548.0,0.0,0.0,0.0
19:36:36.925000,-1484.0,842.0,1098.0,-328.0,-246.0,-575.0,0.0,0.0,0.0
19:36:36.930000,-1468.0,830.0,1085.0,-328.0,-246.0,-575.0,0.0,0.0,0.0
19:36:36.935000,-1444.0,814.0,1085.0,-329.0,-247.0,-618.0,0.0,0.0,0.0
19:36:36.939000,-1414.0,795.0,1084.0,-329.0,-247.0,-618.0,0.0,0.0,0.0
19:36:36.944000,-1384.0,767.0,1073.0,-353.0,-299.0,-667.0,0.0,0.0,0.0
19:36:36.949000,-1364.0,734.0,1059.0,-353.0,-299.0,-667.0,0.0,0.0,0.0
19:36:36.953000,-1353.0,695.0,1053.0,-355.0,-317.0,-706.0,0.0,0.0,0.0
19:36:36.958000,-1348.0,648.0,1048.0,-355.0,-317.0,-706.0,0.0,0.0,0.0
19:36:36.963000,-1349.0,590.0,1029.0,-313.0,-303.0,-732.0,0.0,0.0,0.0
19:36:36.967000,-1349.0,590.0,1029.0,-313.0,-303.0,-732.0,0.0,0.0,0.0
19:36:36.972000,-1360.0,521.0,984.0,-257.0,-279.0,-747.0,0.0,0.0,0.0
19:36:36.977000,-1377.0,443.0,928.0,-257.0,-279.0,-747.0,0.0,0.0,0.0
19:36:36.982000,-1400.0,356.0,873.0,-198.0,-257.0,-745.0,0.0,0.0,0.0
19:36:36.986000,-1429.0,262.0,817.0,-198.0,-257.0,-745.0,0.0,0.0,0.0
19:36:36.991000,-1466.0,165.0,760.0,-147.0,-253.0,-735.0,0.0,0.0,0.0
19:36:36.996000,-1514.0,66.0,700.0,-147.0,-253.0,-735.0,0.0,0.0,0.0
19:36:37.000000,-1574.0,-36.0,646.0,-142.0,-234.0,-723.0,0.0,0.0,0.0
19:36:37.005000,-1638.0,-143.0,601.0,-142.0,-234.0,-723.0,0.0,0.0,0.0
19:36:37.010000,-1702.0,-254.0,556.0,-167.0,-227.0,-704.0,0.0,0.0,0.0
19:36:37.014000,-1765.0,-367.0,510.0,-167.0,-227.0,-704.0,0.0,0.0,0.0
19:36:37.019000,-1824.0,-477.0,469.0,-196.0,-269.0,-683.0,0.0,0.0,0.0
19:36:37.024000,-1875.0,-583.0,430.0,-196.0,-269.0,-683.0,0.0,0.0,0.0
19:36:37.028000,-1918.0,-684.0,387.0,-215.0,-345.0,-659.0,0.0,0.0,0.0
19:36:37.033000,-1951.0,-784.0,335.0,-215.0,-345.0,-659.0,0.0,0.0,0.0
19:36:37.038000,-1981.0,-882.0,278.0,-215.0,-345.0,-659.0,0.0,0.0,0.0
19:36:37.043000,-2006.0,-977.0,217.0,-239.0,-412.0,-633.0,0.0,0.0,0.0
19:36:37.047000,-2029.0,-1068.0,157.0,-239.0,-412.0,-633.0,0.0,0.0,0.0
19:36:37.052000,-2051.0,-1153.0,93.0,-275.0,-445.0,-601.0,0.0,0.0,0.0
19:36:37.057000,-2070.0,-1234.0,32.0,-275.0,-445.0,-601.0,0.0,0.0,0.0
19:36:37.061000,-2083.0,-1314.0,-21.0,-313.0,-470.0,-562.0,0.0,0.0,0.0
19:36:37.066000,-2098.0,-1379.0,-70.0,-313.0,-470.0,-562.0,0.0,0.0,0.0
19:36:37.071000,-2111.0,-1435.0,-106.0,-358.0,-499.0,-515.0,0.0,0.0,0.0
19:36:37.076000,-2118.0,-1482.0,-129.0,-358.0,-499.0,-515.0,0.0,0.0,0.0
19:36:37.080000,-2118.0,-1482.0,-129.0,-428.0,-546.0,-466.0,0.0,0.0,0.0
19:36:37.085000,-2116.0,-1512.0,-145.0,-428.0,-546.0,-466.0,0.0,0.0,0.0
19:36:37.090000,-2110.0,-1516.0,-156.0,-514.0,-601.0,-434.0,0.0,0.0,0.0
19:36:37.094000,-2100.0,-1508.0,-157.0,-514.0,-601.0,-434.0,0.0,0.0,0.0
19:36:37.099000,-2084.0,-1497.0,-140.0,-618.0,-683.0,-436.0,0.0,0.0,0.0
19:36:37.104000,-2050.0,-1480.0,-121.0,-618.0,-683.0,-436.0,0.0,0.0,0.0
19:36:37.108000,-1979.0,-1480.0,-118.0,-713.0,-878.0,-443.0,0.0,0.0,0.0
19:36:37.113000,-1877.0,-1477.0,-133.0,-713.0,-878.0,-443.0,0.0,0.0,0.0
19:36:37.118000,-1770.0,-1460.0,-196.0,-773.0,-1000.0,-434.0,0.0,0.0,0.0
19:36:37.123000,-1721.0,-1440.0,-320.0,-773.0,-1000.0,-434.0,0.0,0.0,0.0
19:36:37.127000,-1716.0,-1425.0,-398.0,-748.0,-776.0,-392.0,0.0,0.0,0.0
19:36:37.136000,-1696.0,-1414.0,-396.0,-660.0,-581.0,-327.0,0.0,0.0,0.0
19:36:37.141000,-1694.0,-1411.0,-443.0,-660.0,-581.0,-327.0,0.0,0.0,0.0
19:36:37.146000,-1688.0,-1402.0,-506.0,-660.0,-581.0,-327.0,0.0,0.0,0.0
19:36:37.151000,-1677.0,-1383.0,-553.0,-623.0,-587.0,-276.0,0.0,0.0,0.0
19:36:37.155000,-1678.0,-1376.0,-595.0,-623.0,-587.0,-276.0,0.0,0.0,0.0
19:36:37.160000,-1686.0,-1369.0,-628.0,-678.0,-570.0,-229.0,0.0,0.0,0.0
19:36:37.165000,-1694.0,-1363.0,-646.0,-678.0,-570.0,-229.0,0.0,0.0,0.0
19:36:37.170000,-1705.0,-1355.0,-676.0,-710.0,-541.0,-178.0,0.0,0.0,0.0
19:36:37.174000,-1722.0,-1344.0,-749.0,-710.0,-541.0,-178.0,0.0,0.0,0.0
19:36:37.179000,-1741.0,-1334.0,-809.0,-691.0,-479.0,-128.0,0.0,0.0,0.0
19:36:37.184000,-1745.0,-1318.0,-823.0,-691.0,-479.0,-128.0,0.0,0.0,0.0
19:36:37.188000,-1745.0,-1318.0,-823.0,-699.0,-474.0,-73.0,0.0,0.0,0.0
19:36:37.193000,-1733.0,-1293.0,-823.0,-699.0,-474.0,-73.0,0.0,0.0,0.0
19:36:37.198000,-1710.0,-1257.0,-837.0,-724.0,-529.0,-39.0,0.0,0.0,0.0
19:36:37.202000,-1689.0,-1216.0,-886.0,-724.0,-529.0,-39.0,0.0,0.0,0.0
19:36:37.207000,-1677.0,-1180.0,-939.0,-766.0,-514.0,-20.0,0.0,0.0,0.0
19:36:37.212000,-1661.0,-1146.0,-979.0,-766.0,-514.0,-20.0,0.0,0.0,0.0
19:36:37.217000,-1654.0,-1111.0,-1046.0,-837.0,-473.0,3.0,0.0,0.0,0.0
19:36:37.221000,-1641.0,-1078.0,-1068.0,-837.0,-473.0,3.0,0.0,0.0,0.0
19:36:37.226000,-1624.0,-1042.0,-1033.0,-850.0,-457.0,30.0,0.0,0.0,0.0
19:36:37.231000,-1598.0,-1000.0,-1024.0,-850.0,-457.0,30.0,0.0,0.0,0.0
19:36:37.235000,-1575.0,-950.0,-1053.0,-933.0,-442.0,72.0,0.0,0.0,0.0
19:36:37.240000,-1551.0,-850.0,-1129.0,-933.0,-442.0,72.0,0.0,0.0,0.0
19:36:37.245000,-1565.0,-886.0,-552.0,-1187.0,-684.0,126.0,0.0,0.0,0.0
19:36:37.249000,-1414.0,-836.0,-133.0,-1187.0,-684.0,126.0,0.0,0.0,0.0
19:36:37.254000,-1300.0,-720.0,-897.0,-1187.0,-684.0,126.0,0.0,0.0,0.0
19:36:37.259000,-1302.0,-674.0,-1346.0,-1018.0,-544.0,125.0,0.0,0.0,0.0
19:36:37.264000,-1289.0,-617.0,-1148.0,-1018.0,-544.0,125.0,0.0,0.0,0.0
19:36:37.268000,-1224.0,-576.0,-803.0,-545.0,-398.0,130.0,0.0,0.0,0.0
19:36:37.273000,-1140.0,-536.0,-587.0,-545.0,-398.0,130.0,0.0,0.0,0.0
19:36:37.278000,-1045.0,-497.0,-488.0,-657.0,-676.0,147.0,0.0,0.0,0.0
19:36:37.282000,-952.0,-460.0,-529.0,-657.0,-676.0,147.0,0.0,0.0,0.0
19:36:37.287000,-901.0,-426.0,-503.0,-1059.0,-665.0,112.0,0.0,0.0,0.0
19:36:37.292000,-809.0,-390.0,-445.0,-1059.0,-665.0,112.0,0.0,0.0,0.0
19:36:37.296000,-809.0,-390.0,-445.0,-1138.0,-675.0,71.0,0.0,0.0,0.0
19:36:37.301000,-721.0,-350.0,-378.0,-1138.0,-675.0,71.0,0.0,0.0,0.0
19:36:37.306000,-630.0,-303.0,-297.0,-1088.0,-744.0,38.0,0.0,0.0,0.0
19:36:37.311000,-547.0,-264.0,-212.0,-1088.0,-744.0,38.0,0.0,0.0,0.0
19:36:37.315000,-456.0,-222.0,-191.0,-1110.0,-729.0,14.0,0.0,0.0,0.0
19:36:37.320000,-341.0,-174.0,-231.0,-1110.0,-729.0,14.0,0.0,0.0,0.0
19:36:37.325000,-292.0,-124.0,-277.0,-1143.0,-682.0,5.0,0.0,0.0,0.0
19:36:37.329000,-218.0,-95.0,-191.0,-1143.0,-682.0,5.0,0.0,0.0,0.0
19:36:37.334000,-145.0,-72.0,-110.0,-1115.0,-623.0,11.0,0.0,0.0,0.0
19:36:37.339000,-81.0,-33.0,-136.0,-1115.0,-623.0,11.0,0.0,0.0,0.0
19:36:37.343000,-45.0,30.0,-191.0,-1091.0,-586.0,12.0,0.0,0.0,0.0
19:36:37.348000,14.0,38.0,-165.0,-1091.0,-586.0,12.0,0.0,0.0,0.0
19:36:37.352000,67.0,84.0,-102.0,-1059.0,-572.0,15.0,0.0,0.0,0.0
19:36:37.358000,141.0,119.0,-130.0,-1059.0,-572.0,15.0,0.0,0.0,0.0
19:36:37.362000,181.0,133.0,-182.0,-1059.0,-572.0,15.0,0.0,0.0,0.0
19:36:37.367000,226.0,175.0,-201.0,-1076.0,-518.0,26.0,0.0,0.0,0.0
19:36:37.372000,296.0,195.0,-218.0,-1076.0,-518.0,26.0,0.0,0.0,0.0
19:36:37.376000,338.0,235.0,-248.0,-1123.0,-445.0,39.0,0.0,0.0,0.0
19:36:37.381000,346.0,249.0,-228.0,-1123.0,-445.0,39.0,0.0,0.0,0.0
19:36:37.386000,357.0,280.0,-247.0,-1088.0,-397.0,67.0,0.0,0.0,0.0
19:36:37.390000,406.0,304.0,-273.0,-1088.0,-397.0,67.0,0.0,0.0,0.0
19:36:37.395000,399.0,315.0,-221.0,-1081.0,-441.0,89.0,0.0,0.0,0.0
19:36:37.400000,435.0,340.0,-165.0,-1081.0,-441.0,89.0,0.0,0.0,0.0
19:36:37.405000,449.0,357.0,-129.0,-1087.0,-564.0,93.0,0.0,0.0,0.0
19:36:37.409000,449.0,357.0,-129.0,-1087.0,-564.0,93.0,0.0,0.0,0.0
19:36:37.414000,507.0,385.0,-158.0,-1091.0,-573.0,88.0,0.0,0.0,0.0
19:36:37.419000,548.0,406.0,-233.0,-1091.0,-573.0,88.0,0.0,0.0,0.0
19:36:37.423000,569.0,428.0,-306.0,-1044.0,-459.0,96.0,0.0,0.0,0.0
19:36:37.428000,590.0,433.0,-328.0,-1044.0,-459.0,96.0,0.0,0.0,0.0
19:36:37.433000,616.0,445.0,-316.0,-957.0,-444.0,106.0,0.0,0.0,0.0
19:36:37.437000,637.0,456.0,-312.0,-957.0,-444.0,106.0,0.0,0.0,0.0
19:36:37.442000,659.0,470.0,-338.0,-945.0,-487.0,102.0,0.0,0.0,0.0
19:36:37.447000,687.0,484.0,-354.0,-945.0,-487.0,102.0,0.0,0.0,0.0
19:36:37.452000,700.0,494.0,-364.0,-946.0,-479.0,101.0,0.0,0.0,0.0
19:36:37.456000,721.0,497.0,-400.0,-946.0,-479.0,101.0,0.0,0.0,0.0
19:36:37.461000,742.0,498.0,-455.0,-956.0,-422.0,95.0,0.0,0.0,0.0
19:36:37.466000,742.0,499.0,-483.0,-956.0,-422.0,95.0,0.0,0.0,0.0
19:36:37.470000,735.0,492.0,-460.0,-953.0,-375.0,87.0,0.0,0.0,0.0
19:36:37.475000,733.0,480.0,-427.0,-953.0,-375.0,87.0,0.0,0.0,0.0
19:36:37.480000,714.0,468.0,-434.0,-953.0,-375.0,87.0,0.0,0.0,0.0
19:36:37.484000,691.0,452.0,-438.0,-902.0,-328.0,78.0,0.0,0.0,0.0
19:36:37.489000,658.0,433.0,-411.0,-902.0,-328.0,78.0,0.0,0.0,0.0
19:36:37.494000,625.0,410.0,-366.0,-873.0,-241.0,67.0,0.0,0.0,0.0
19:36:37.499000,581.0,387.0,-302.0,-873.0,-241.0,67.0,0.0,0.0,0.0
19:36:37.503000,542.0,363.0,-238.0,-891.0,-187.0,48.0,0.0,0.0,0.0
19:36:37.508000,500.0,337.0,-191.0,-891.0,-187.0,48.0,0.0,0.0,0.0
19:36:37.513000,453.0,308.0,-123.0,-912.0,-138.0,26.0,0.0,0.0,0.0
19:36:37.517000,453.0,308.0,-123.0,-912.0,-138.0,26.0,0.0,0.0,0.0
19:36:37.522000,406.0,275.0,-51.0,-921.0,-80.0,6.0,0.0,0.0,0.0
19:36:37.527000,364.0,238.0,34.0,-921.0,-80.0,6.0,0.0,0.0,0.0
19:36:37.531000,322.0,202.0,119.0,-941.0,-52.0,-10.0,0.0,0.0,0.0
19:36:37.536000,286.0,168.0,184.0,-941.0,-52.0,-10.0,0.0,0.0,0.0
19:36:37.541000,254.0,135.0,231.0,-969.0,-60.0,-23.0,0.0,0.0,0.0
19:36:37.546000,221.0,107.0,283.0,-969.0,-60.0,-23.0,0.0,0.0,0.0
19:36:37.550000,182.0,82.0,354.0,-1002.0,-85.0,-22.0,0.0,0.0,0.0
19:36:37.555000,143.0,57.0,422.0,-1002.0,-85.0,-22.0,0.0,0.0,0.0
19:36:37.560000,106.0,35.0,466.0,-1041.0,-116.0,-10.0,0.0,0.0,0.0
19:36:37.564000,72.0,13.0,486.0,-1041.0,-116.0,-10.0,0.0,0.0,0.0
19:36:37.569000,48.0,0.0,487.0,-1048.0,-177.0,-3.0,0.0,0.0,0.0
19:36:37.574000,30.0,-7.0,469.0,-1048.0,-177.0,-3.0,0.0,0.0,0.0
19:36:37.578000,15.0,-9.0,420.0,-1048.0,-177.0,-3.0,0.0,0.0,0.0
19:36:37.583000,6.0,-9.0,345.0,-1038.0,-230.0,-10.0,0.0,0.0,0.0
19:36:37.588000,0.0,-2.0,254.0,-1038.0,-230.0,-10.0,0.0,0.0,0.0
19:36:37.593000,-6.0,3.0,157.0,-1077.0,-223.0,-32.0,0.0,0.0,0.0
19:36:37.597000,-9.0,10.0,44.0,-1077.0,-223.0,-32.0,0.0,0.0,0.0
19:36:37.602000,-12.0,14.0,-77.0,-1150.0,-157.0,-61.0,0.0,0.0,0.0
19:36:37.607000,-11.0,17.0,-177.0,-1150.0,-157.0,-61.0,0.0,0.0,0.0
19:36:37.611000,-4.0,16.0,-252.0,-1187.0,-68.0,-93.0,0.0,0.0,0.0
19:36:37.616000,0.0,14.0,-305.0,-1187.0,-68.0,-93.0,0.0,0.0,0.0
19:36:37.621000,4.0,10.0,-336.0,-1171.0,5.0,-120.0,0.0,0.0,0.0
19:36:37.625000,4.0,10.0,-336.0,-1171.0,5.0,-120.0,0.0,0.0,0.0
19:36:37.630000,11.0,9.0,-349.0,-1148.0,74.0,-138.0,0.0,0.0,0.0
19:36:37.635000,14.0,7.0,-355.0,-1148.0,74.0,-138.0,0.0,0.0,0.0
19:36:37.640000,11.0,7.0,-352.0,-1131.0,144.0,-152.0,0.0,0.0,0.0
19:36:37.644000,9.0,7.0,-338.0,-1131.0,144.0,-152.0,0.0,0.0,0.0
19:36:37.649000,7.0,5.0,-314.0,-1121.0,208.0,-171.0,0.0,0.0,0.0
19:36:37.654000,9.0,2.0,-287.0,-1121.0,208.0,-171.0,0.0,0.0,0.0
19:36:37.658000,15.0,0.0,-263.0,-1128.0,259.0,-195.0,0.0,0.0,0.0
19:36:37.663000,21.0,-5.0,-243.0,-1128.0,259.0,-195.0,0.0,0.0,0.0
19:36:37.668000,28.0,-11.0,-227.0,-1138.0,304.0,-216.0,0.0,0.0,0.0
19:36:37.672000,36.0,-19.0,-212.0,-1138.0,304.0,-216.0,0.0,0.0,0.0
19:36:37.677000,42.0,-28.0,-189.0,-1124.0,340.0,-229.0,0.0,0.0,0.0
19:36:37.682000,45.0,-39.0,-156.0,-1124.0,340.0,-229.0,0.0,0.0,0.0
19:36:37.687000,45.0,-45.0,-114.0,-1124.0,362.0,-229.0,0.0,0.0,0.0
19:36:37.691000,39.0,-51.0,-72.0,-1104.0,362.0,-235.0,0.0,0.0,0.0
19:36:37.696000,32.0,-56.0,-39.0,-1104.0,362.0,-235.0,0.0,0.0,0.0
19:36:37.701000,27.0,-60.0,-26.0,-1102.0,386.0,-238.0,0.0,0.0,0.0
19:36:37.705000,19.0,-63.0,-32.0,-1102.0,386.0,-238.0,0.0,0.0,0.0
19:36:37.710000,13.0,-67.0,-42.0,-1101.0,409.0,-239.0,0.0,0.0,0.0
19:36:37.715000,10.0,-72.0,-35.0,-1101.0,409.0,-239.0,0.0,0.0,0.0
19:36:37.719000,7.0,-77.0,-35.0,-1087.0,411.0,-239.0,0.0,0.0,0.0
19:36:37.724000,9.0,-84.0,-36.0,-1087.0,411.0,-239.0,0.0,0.0,0.0
19:36:37.729000,19.0,-90.0,-21.0,-1080.0,391.0,-237.0,0.0,0.0,0.0
19:36:37.734000,19.0,-90.0,-21.0,-1080.0,391.0,-237.0,0.0,0.0,0.0
19:36:37.738000,37.0,-97.0,0.0,-1094.0,350.0,-240.0,0.0,0.0,0.0
19:36:37.743000,56.0,-100.0,14.0,-1094.0,350.0,-240.0,0.0,0.0,0.0
19:36:37.748000,74.0,-102.0,27.0,-1119.0,312.0,-243.0,0.0,0.0,0.0
19:36:37.752000,83.0,-104.0,54.0,-1119.0,312.0,-243.0,0.0,0.0,0.0
19:36:37.757000,95.0,-105.0,83.0,-1152.0,321.0,-240.0,0.0,0.0,0.0
19:36:37.762000,105.0,-109.0,88.0,-1152.0,321.0,-240.0,0.0,0.0,0.0
19:36:37.766000,119.0,-112.0,61.0,-1166.0,372.0,-233.0,0.0,0.0,0.0
19:36:37.771000,133.0,-116.0,49.0,-1166.0,372.0,-233.0,0.0,0.0,0.0
19:36:37.776000,144.0,-122.0,34.0,-1157.0,402.0,-223.0,0.0,0.0,0.0
19:36:37.781000,154.0,-127.0,-12.0,-1157.0,402.0,-223.0,0.0,0.0,0.0
19:36:37.785000,165.0,-130.0,-47.0,-1153.0,401.0,-215.0,0.0,0.0,0.0
19:36:37.790000,178.0,-133.0,-46.0,-1153.0,401.0,-215.0,0.0,0.0,0.0
19:36:37.795000,188.0,-134.0,-32.0,-1158.0,406.0,-211.0,0.0,0.0,0.0
19:36:37.799000,200.0,-141.0,-37.0,-1158.0,406.0,-211.0,0.0,0.0,0.0
19:36:37.804000,213.0,-148.0,-81.0,-1158.0,406.0,-211.0,0.0,0.0,0.0
19:36:37.809000,208.0,-154.0,-109.0,-1173.0,465.0,-206.0,0.0,0.0,0.0
19:36:37.813000,203.0,-161.0,-51.0,-1173.0,465.0,-206.0,0.0,0.0,0.0
19:36:37.818000,199.0,-164.0,21.0,-1172.0,509.0,-198.0,0.0,0.0,0.0
19:36:37.823000,196.0,-161.0,-1.0,-1172.0,509.0,-198.0,0.0,0.0,0.0
19:36:37.828000,200.0,-156.0,-51.0,-1200.0,544.0,-196.0,0.0,0.0,0.0
19:36:37.832000,200.0,-156.0,-51.0,-1200.0,544.0,-196.0,0.0,0.0,0.0
19:36:37.837000,179.0,-137.0,19.0,-1224.0,565.0,-197.0,0.0,0.0,0.0
19:36:37.842000,184.0,-133.0,-7.0,-1224.0,565.0,-197.0,0.0,0.0,0.0
19:36:37.846000,184.0,-133.0,-7.0,-1198.0,575.0,-196.0,0.0,0.0,0.0
19:36:37.851000,189.0,-133.0,-4.0,-1198.0,575.0,-196.0,0.0,0.0,0.0
19:36:37.856000,198.0,-135.0,-18.0,-1207.0,622.0,-208.0,0.0,0.0,0.0
19:36:37.860000,213.0,-147.0,-30.0,-1207.0,622.0,-208.0,0.0,0.0,0.0
19:36:37.865000,217.0,-164.0,-6.0,-1206.0,640.0,-224.0,0.0,0.0,0.0
19:36:37.870000,251.0,-174.0,17.0,-1206.0,640.0,-224.0,0.0,0.0,0.0
19:36:37.875000,263.0,-184.0,63.0,-1222.0,661.0,-237.0,0.0,0.0,0.0
19:36:37.879000,265.0,-187.0,144.0,-1222.0,661.0,-237.0,0.0,0.0,0.0
19:36:37.884000,245.0,-203.0,254.0,-1280.0,681.0,-223.0,0.0,0.0,0.0
19:36:37.889000,212.0,-209.0,319.0,-1280.0,681.0,-223.0,0.0,0.0,0.0
19:36:37.893000,206.0,-194.0,242.0,-1377.0,758.0,-192.0,0.0,0.0,0.0
19:36:37.898000,233.0,-211.0,173.0,-1377.0,758.0,-192.0,0.0,0.0,0.0
19:36:37.903000,221.0,-234.0,119.0,-1370.0,742.0,-173.0,0.0,0.0,0.0
19:36:37.907000,186.0,-212.0,69.0,-1370.0,742.0,-173.0,0.0,0.0,0.0
19:36:37.912000,117.0,-176.0,214.0,-1370.0,742.0,-173.0,0.0,0.0,0.0
19:36:37.917000,106.0,-156.0,376.0,-1282.0,589.0,-171.0,0.0,0.0,0.0
19:36:37.922000,127.0,-150.0,270.0,-1282.0,589.0,-171.0,0.0,0.0,0.0
19:36:37.926000,166.0,-161.0,-35.0,-1437.0,561.0,-180.0,0.0,0.0,0.0
19:36:37.931000,10.0,-189.0,-171.0,-1437.0,561.0,-180.0,0.0,0.0,0.0
19:36:37.936000,-64.0,-220.0,-252.0,-1491.0,565.0,-156.0,0.0,0.0,0.0
19:36:37.940000,-69.0,-182.0,-99.0,-1491.0,565.0,-156.0,0.0,0.0,0.0
19:36:37.945000,-30.0,-80.0,-71.0,-1273.0,535.0,-177.0,0.0,0.0,0.0
19:36:37.959000,30.0,-104.0,-192.0,-1493.0,368.0,-223.0,0.0,0.0,0.0
19:36:37.963000,-24.0,-126.0,285.0,-1594.0,200.0,-183.0,0.0,0.0,0.0
19:36:37.969000,70.0,-151.0,79.0,-1594.0,200.0,-183.0,0.0,0.0,0.0
19:36:37.973000,154.0,-134.0,-254.0,-1267.0,118.0,-155.0,0.0,0.0,0.0
19:36:37.978000,83.0,-38.0,-75.0,-1267.0,118.0,-155.0,0.0,0.0,0.0
19:36:37.983000,40.0,-46.0,-9.0,-1201.0,-108.0,-120.0,0.0,0.0,0.0
19:36:37.987000,-84.0,-50.0,139.0,-1201.0,-108.0,-120.0,0.0,0.0,0.0
19:36:37.992000,-129.0,-20.0,211.0,-1209.0,-393.0,-92.0,0.0,0.0,0.0
19:36:37.997000,-111.0,27.0,261.0,-1209.0,-393.0,-92.0,0.0,0.0,0.0
19:36:38.001000,-172.0,11.0,383.0,-1005.0,-620.0,-78.0,0.0,0.0,0.0
19:36:38.006000,-203.0,-56.0,364.0,-1005.0,-620.0,-78.0,0.0,0.0,0.0
19:36:38.011000,-240.0,-56.0,539.0,-775.0,-716.0,-31.0,0.0,0.0,0.0
19:36:38.015000,-237.0,-104.0,490.0,-775.0,-716.0,-31.0,0.0,0.0,0.0
19:36:38.020000,-184.0,-175.0,168.0,-775.0,-716.0,-31.0,0.0,0.0,0.0
19:36:38.025000,-72.0,-191.0,100.0,-806.0,-842.0,-37.0,0.0,0.0,0.0
19:36:38.030000,101.0,-156.0,156.0,-806.0,-842.0,-37.0,0.0,0.0,0.0
19:36:38.034000,186.0,-163.0,110.0,-871.0,-1017.0,-60.0,0.0,0.0,0.0
19:36:38.039000,198.0,-175.0,254.0,-871.0,-1017.0,-60.0,0.0,0.0,0.0
19:36:38.044000,130.0,-156.0,185.0,-777.0,-967.0,-34.0,0.0,0.0,0.0
19:36:38.048000,101.0,-154.0,-93.0,-777.0,-967.0,-34.0,0.0,0.0,0.0
19:36:38.053000,100.0,-169.0,-378.0,-756.0,-658.0,-28.0,0.0,0.0,0.0
19:36:38.058000,120.0,-213.0,-481.0,-756.0,-658.0,-28.0,0.0,0.0,0.0
19:36:38.063000,120.0,-213.0,-481.0,-796.0,-417.0,-46.0,0.0,0.0,0.0
19:36:38.067000,105.0,-187.0,-449.0,-796.0,-417.0,-46.0,0.0,0.0,0.0
19:36:38.072000,42.0,-163.0,-467.0,-888.0,-381.0,-37.0,0.0,0.0,0.0
19:36:38.077000,11.0,-169.0,-518.0,-888.0,-381.0,-37.0,0.0,0.0,0.0
19:36:38.081000,14.0,-176.0,-410.0,-972.0,-423.0,-5.0,0.0,0.0,0.0
19:36:38.086000,37.0,-159.0,-356.0,-972.0,-423.0,-5.0,0.0,0.0,0.0
19:36:38.091000,50.0,-156.0,-322.0,-909.0,-407.0,41.0,0.0,0.0,0.0
19:36:38.095000,54.0,-148.0,-307.0,-909.0,-407.0,41.0,0.0,0.0,0.0
19:36:38.100000,72.0,-113.0,-228.0,-902.0,-326.0,57.0,0.0,0.0,0.0
19:36:38.105000,50.0,-142.0,-170.0,-902.0,-326.0,57.0,0.0,0.0,0.0
19:36:38.110000,25.0,-149.0,-28.0,-895.0,-226.0,37.0,0.0,0.0,0.0
19:36:38.114000,8.0,-88.0,66.0,-895.0,-226.0,37.0,0.0,0.0,0.0
19:36:38.119000,-13.0,-106.0,-60.0,-944.0,-173.0,52.0,0.0,0.0,0.0
19:36:38.124000,2.0,-95.0,-45.0,-944.0,-173.0,52.0,0.0,0.0,0.0
19:36:38.128000,35.0,-46.0,82.0,-944.0,-173.0,52.0,0.0,0.0,0.0
19:36:38.133000,13.0,-38.0,47.0,-1006.0,-286.0,83.0,0.0,0.0,0.0
19:36:38.138000,-4.0,-22.0,-213.0,-961.0,-414.0,86.0,0.0,0.0,0.0
19:36:38.142000,46.0,-10.0,-116.0,-961.0,-414.0,86.0,0.0,0.0,0.0
19:36:38.147000,-14.0,-16.0,183.0,-961.0,-414.0,86.0,0.0,0.0,0.0
19:36:38.152000,-101.0,45.0,221.0,-928.0,-413.0,66.0,0.0,0.0,0.0
19:36:38.157000,-100.0,58.0,56.0,-928.0,-413.0,66.0,0.0,0.0,0.0
19:36:38.161000,-128.0,91.0,-100.0,-1024.0,-288.0,55.0,0.0,0.0,0.0
19:36:38.166000,-177.0,82.0,-81.0,-1024.0,-288.0,55.0,0.0,0.0,0.0
19:36:38.171000,-240.0,147.0,-42.0,-1132.0,-393.0,60.0,0.0,0.0,0.0
19:36:38.175000,-240.0,147.0,-42.0,-1132.0,-393.0,60.0,0.0,0.0,0.0
19:36:38.180000,-224.0,199.0,-133.0,-1120.0,-503.0,51.0,0.0,0.0,0.0
19:36:38.185000,-234.0,188.0,-226.0,-1120.0,-503.0,51.0,0.0,0.0,0.0
19:36:38.189000,-229.0,205.0,-60.0,-1047.0,-391.0,36.0,0.0,0.0,0.0
19:36:38.194000,-93.0,218.0,7.0,-1047.0,-391.0,36.0,0.0,0.0,0.0
19:36:38.198000,31.0,189.0,-374.0,-1047.0,-356.0,38.0,0.0,0.0,0.0
19:36:38.204000,35.0,190.0,-429.0,-1047.0,-356.0,38.0,0.0,0.0,0.0
19:36:38.208000,-10.0,141.0,-326.0,-1048.0,-473.0,76.0,0.0,0.0,0.0
19:36:38.213000,-23.0,105.0,-291.0,-1048.0,-473.0,76.0,0.0,0.0,0.0
19:36:38.218000,13.0,108.0,-390.0,-1026.0,-548.0,71.0,0.0,0.0,0.0
19:36:38.222000,72.0,109.0,-472.0,-1026.0,-548.0,71.0,0.0,0.0,0.0
19:36:38.227000,49.0,81.0,-543.0,-982.0,-535.0,49.0,0.0,0.0,0.0
19:36:38.232000,60.0,77.0,-480.0,-982.0,-535.0,49.0,0.0,0.0,0.0
19:36:38.236000,156.0,88.0,-344.0,-982.0,-535.0,49.0,0.0,0.0,0.0
19:36:38.241000,212.0,49.0,-409.0,-939.0,-528.0,31.0,0.0,0.0,0.0
19:36:38.246000,248.0,18.0,-537.0,-939.0,-528.0,31.0,0.0,0.0,0.0
19:36:38.251000,259.0,0.0,-537.0,-995.0,-424.0,13.0,0.0,0.0,0.0
19:36:38.255000,228.0,-13.0,-478.0,-995.0,-424.0,13.0,0.0,0.0,0.0
19:36:38.260000,209.0,-17.0,-529.0,-934.0,-333.0,28.0,0.0,0.0,0.0
19:36:38.265000,123.0,-15.0,-641.0,-934.0,-333.0,28.0,0.0,0.0,0.0
19:36:38.269000,79.0,1.0,-738.0,-928.0,-269.0,9.0,0.0,0.0,0.0
19:36:38.274000,50.0,-30.0,-583.0,-928.0,-269.0,9.0,0.0,0.0,0.0
19:36:38.279000,-21.0,-44.0,-329.0,-909.0,-295.0,-3.0,0.0,0.0,0.0
19:36:38.283000,-21.0,-44.0,-329.0,-909.0,-295.0,-3.0,0.0,0.0,0.0
19:36:38.288000,-13.0,-79.0,-326.0,-851.0,-254.0,20.0,0.0,0.0,0.0
19:36:38.293000,-21.0,-104.0,-397.0,-851.0,-254.0,20.0,0.0,0.0,0.0
19:36:38.298000,24.0,-98.0,-574.0,-929.0,-194.0,10.0,0.0,0.0,0.0
19:36:38.302000,98.0,-144.0,-668.0,-929.0,-194.0,10.0,0.0,0.0,0.0
19:36:38.307000,133.0,-196.0,-569.0,-872.0,-286.0,0.0,0.0,0.0,0.0
19:36:38.312000,63.0,-214.0,-452.0,-872.0,-286.0,0.0,0.0,0.0,0.0
19:36:38.316000,39.0,-234.0,-499.0,-781.0,-228.0,55.0,0.0,0.0,0.0
19:36:38.321000,24.0,-255.0,-563.0,-781.0,-228.0,55.0,0.0,0.0,0.0
19:36:38.326000,-30.0,-249.0,-576.0,-869.0,-223.0,74.0,0.0,0.0,0.0
19:36:38.330000,-46.0,-285.0,-561.0,-869.0,-223.0,74.0,0.0,0.0,0.0
19:36:38.335000,-103.0,-245.0,-377.0,-972.0,-267.0,18.0,0.0,0.0,0.0
19:36:38.340000,-164.0,-236.0,-229.0,-972.0,-267.0,18.0,0.0,0.0,0.0
19:36:38.345000,-214.0,-249.0,-332.0,-972.0,-267.0,18.0,0.0,0.0,0.0
19:36:38.349000,-210.0,-261.0,-487.0,-1079.0,-74.0,-20.0,0.0,0.0,0.0
19:36:38.354000,-193.0,-240.0,-542.0,-1079.0,-74.0,-20.0,0.0,0.0,0.0
19:36:38.359000,-193.0,-250.0,-427.0,-1005.0,-68.0,-12.0,0.0,0.0,0.0
19:36:38.363000,-163.0,-268.0,-436.0,-1005.0,-68.0,-12.0,0.0,0.0,0.0
19:36:38.368000,-155.0,-272.0,-436.0,-864.0,-216.0,25.0,0.0,0.0,0.0
19:36:38.373000,-112.0,-259.0,-448.0,-864.0,-216.0,25.0,0.0,0.0,0.0
19:36:38.377000,-92.0,-297.0,-575.0,-924.0,-134.0,57.0,0.0,0.0,0.0
19:36:38.382000,-238.0,-291.0,-570.0,-924.0,-134.0,57.0,0.0,0.0,0.0
19:36:38.387000,-319.0,-285.0,-417.0,-969.0,-113.0,80.0,0.0,0.0,0.0
19:36:38.391000,-319.0,-285.0,-417.0,-969.0,-113.0,80.0,0.0,0.0,0.0
19:36:38.396000,-316.0,-275.0,-345.0,-942.0,-181.0,76.0,0.0,0.0,0.0
19:36:38.401000,-302.0,-270.0,-364.0,-942.0,-181.0,76.0,0.0,0.0,0.0
19:36:38.406000,-325.0,-266.0,-380.0,-929.0,-140.0,68.0,0.0,0.0,0.0
19:36:38.410000,-366.0,-280.0,-379.0,-929.0,-140.0,68.0,0.0,0.0,0.0
19:36:38.415000,-408.0,-312.0,-222.0,-932.0,-161.0,122.0,0.0,0.0,0.0
19:36:38.420000,-438.0,-317.0,-25.0,-932.0,-161.0,122.0,0.0,0.0,0.0
19:36:38.424000,-439.0,-303.0,-50.0,-1014.0,-81.0,132.0,0.0,0.0,0.0
19:36:38.429000,-381.0,-325.0,-293.0,-1014.0,-81.0,132.0,0.0,0.0,0.0
19:36:38.434000,-390.0,-348.0,-373.0,-980.0,39.0,139.0,0.0,0.0,0.0
19:36:38.438000,-416.0,-366.0,-268.0,-980.0,39.0,139.0,0.0,0.0,0.0
19:36:38.443000,-431.0,-403.0,-194.0,-846.0,-46.0,176.0,0.0,0.0,0.0
19:36:38.448000,-497.0,-404.0,-200.0,-846.0,-46.0,176.0,0.0,0.0,0.0
19:36:38.453000,-562.0,-406.0,-260.0,-846.0,-20.0,176.0,0.0,0.0,0.0
19:36:38.457000,-630.0,-435.0,-319.0,-962.0,-20.0,156.0,0.0,0.0,0.0
19:36:38.462000,-721.0,-464.0,-326.0,-962.0,-20.0,156.0,0.0,0.0,0.0
19:36:38.467000,-809.0,-509.0,-300.0,-1086.0,119.0,169.0,0.0,0.0,0.0
19:36:38.471000,-917.0,-542.0,-284.0,-1086.0,119.0,169.0,0.0,0.0,0.0
19:36:38.476000,-975.0,-575.0,-270.0,-973.0,83.0,228.0,0.0,0.0,0.0
19:36:38.481000,-1001.0,-609.0,-280.0,-973.0,83.0,228.0,0.0,0.0,0.0
19:36:38.485000,-1024.0,-645.0,-374.0,-884.0,18.0,269.0,0.0,0.0,0.0
19:36:38.490000,-1071.0,-666.0,-434.0,-884.0,18.0,269.0,0.0,0.0,0.0
19:36:38.495000,-1134.0,-707.0,-417.0,-969.0,93.0,272.0,0.0,0.0,0.0
19:36:38.500000,-1134.0,-707.0,-417.0,-969.0,93.0,272.0,0.0,0.0,0.0
19:36:38.504000,-1222.0,-759.0,-390.0,-1002.0,122.0,274.0,0.0,0.0,0.0
19:36:38.509000,-1327.0,-787.0,-400.0,-1002.0,122.0,274.0,0.0,0.0,0.0
19:36:38.514000,-1430.0,-812.0,-424.0,-968.0,131.0,275.0,0.0,0.0,0.0
19:36:38.518000,-1522.0,-861.0,-457.0,-968.0,131.0,275.0,0.0,0.0,0.0
19:36:38.523000,-1633.0,-914.0,-507.0,-933.0,245.0,289.0,0.0,0.0,0.0
19:36:38.528000,-1714.0,-982.0,-498.0,-933.0,245.0,289.0,0.0,0.0,0.0
19:36:38.532000,-1794.0,-1054.0,-432.0,-863.0,224.0,330.0,0.0,0.0,0.0
19:36:38.537000,-1862.0,-1121.0,-390.0,-863.0,224.0,330.0,0.0,0.0,0.0
19:36:38.542000,-1918.0,-1197.0,-497.0,-883.0,118.0,378.0,0.0,0.0,0.0
19:36:38.547000,-1958.0,-1264.0,-658.0,-883.0,118.0,378.0,0.0,0.0,0.0
19:36:38.551000,-1987.0,-1342.0,-657.0,-908.0,117.0,431.0,0.0,0.0,0.0
19:36:38.556000,-2025.0,-1416.0,-518.0,-908.0,117.0,431.0,0.0,0.0,0.0
19:36:38.561000,-2077.0,-1482.0,-417.0,-872.0,214.0,451.0,0.0,0.0,0.0
19:36:38.565000,-2135.0,-1544.0,-480.0,-872.0,214.0,451.0,0.0,0.0,0.0
19:36:38.570000,-2197.0,-1610.0,-619.0,-872.0,214.0,451.0,0.0,0.0,0.0
19:36:38.575000,-2286.0,-1682.0,-630.0,-837.0,359.0,467.0,0.0,0.0,0.0
19:36:38.579000,-2370.0,-1772.0,-567.0,-837.0,359.0,467.0,0.0,0.0,0.0
19:36:38.584000,-2477.0,-1831.0,-550.0,-758.0,388.0,542.0,0.0,0.0,0.0
19:36:38.589000,-2555.0,-1916.0,-636.0,-758.0,388.0,542.0,0.0,0.0,0.0
19:36:38.594000,-2633.0,-2012.0,-822.0,-803.0,434.0,583.0,0.0,0.0,0.0
19:36:38.598000,-2706.0,-2098.0,-936.0,-803.0,434.0,583.0,0.0,0.0,0.0
19:36:38.603000,-2763.0,-2188.0,-922.0,-818.0,474.0,589.0,0.0,0.0,0.0
19:36:38.608000,-2822.0,-2277.0,-926.0,-818.0,474.0,589.0,0.0,0.0,0.0
19:36:38.612000,-2822.0,-2277.0,-926.0,-736.0,387.0,656.0,0.0,0.0,0.0
19:36:38.617000,-2866.0,-2381.0,-891.0,-736.0,387.0,656.0,0.0,0.0,0.0
19:36:38.622000,-2894.0,-2479.0,-809.0,-709.0,296.0,728.0,0.0,0.0,0.0
19:36:38.626000,-2902.0,-2564.0,-821.0,-709.0,296.0,728.0,0.0,0.0,0.0
19:36:38.631000,-2911.0,-2634.0,-881.0,-656.0,332.0,774.0,0.0,0.0,0.0
19:36:38.636000,-2935.0,-2702.0,-959.0,-656.0,332.0,774.0,0.0,0.0,0.0
19:36:38.641000,-2965.0,-2765.0,-998.0,-640.0,461.0,850.0,0.0,0.0,0.0
19:36:38.645000,-2996.0,-2829.0,-996.0,-640.0,461.0,850.0,0.0,0.0,0.0
19:36:38.650000,-3028.0,-2898.0,-1005.0,-712.0,448.0,923.0,0.0,0.0,0.0
19:36:38.655000,-3052.0,-2968.0,-1042.0,-712.0,448.0,923.0,0.0,0.0,0.0
19:36:38.659000,-3061.0,-3031.0,-1032.0,-735.0,374.0,936.0,0.0,0.0,0.0
19:36:38.664000,-3082.0,-3075.0,-975.0,-735.0,374.0,936.0,0.0,0.0,0.0
19:36:38.668000,-3106.0,-3114.0,-946.0,-691.0,405.0,956.0,0.0,0.0,0.0
19:36:38.673000,-3112.0,-3157.0,-906.0,-691.0,405.0,956.0,0.0,0.0,0.0
19:36:38.678000,-3138.0,-3175.0,-859.0,-691.0,405.0,956.0,0.0,0.0,0.0
19:36:38.683000,-3136.0,-3184.0,-832.0,-638.0,475.0,973.0,0.0,0.0,0.0
19:36:38.688000,-3112.0,-3190.0,-814.0,-638.0,475.0,973.0,0.0,0.0,0.0
19:36:38.692000,-3070.0,-3184.0,-731.0,-607.0,445.0,953.0,0.0,0.0,0.0
19:36:38.697000,-3046.0,-3184.0,-634.0,-607.0,445.0,953.0,0.0,0.0,0.0
19:36:38.702000,-3009.0,-3180.0,-609.0,-635.0,380.0,940.0,0.0,0.0,0.0
19:36:38.706000,-2968.0,-3166.0,-625.0,-635.0,380.0,940.0,0.0,0.0,0.0
19:36:38.711000,-2925.0,-3157.0,-608.0,-626.0,421.0,937.0,0.0,0.0,0.0
19:36:38.716000,-2878.0,-3147.0,-554.0,-626.0,421.0,937.0,0.0,0.0,0.0
19:36:38.720000,-2878.0,-3147.0,-554.0,-565.0,460.0,950.0,0.0,0.0,0.0
19:36:38.725000,-2840.0,-3119.0,-532.0,-565.0,460.0,950.0,0.0,0.0,0.0
19:36:38.730000,-2784.0,-3076.0,-569.0,-561.0,426.0,959.0,0.0,0.0,0.0
19:36:38.735000,-2709.0,-3030.0,-620.0,-561.0,426.0,959.0,0.0,0.0,0.0
19:36:38.739000,-2621.0,-2975.0,-620.0,-590.0,416.0,920.0,0.0,0.0,0.0
19:36:38.744000,-2551.0,-2917.0,-585.0,-590.0,416.0,920.0,0.0,0.0,0.0
19:36:38.749000,-2483.0,-2849.0,-533.0,-597.0,447.0,886.0,0.0,0.0,0.0
19:36:38.753000,-2419.0,-2782.0,-502.0,-597.0,447.0,886.0,0.0,0.0,0.0
19:36:38.758000,-2336.0,-2697.0,-491.0,-610.0,484.0,848.0,0.0,0.0,0.0
19:36:38.772000,-2099.0,-2393.0,-314.0,-648.0,457.0,772.0,0.0,0.0,0.0
19:36:38.777000,-2030.0,-2291.0,-248.0,-672.0,481.0,714.0,0.0,0.0,0.0
19:36:38.782000,-1978.0,-2184.0,-238.0,-672.0,481.0,714.0,0.0,0.0,0.0
19:36:38.786000,-1913.0,-2067.0,-233.0,-672.0,481.0,714.0,0.0,0.0,0.0
19:36:38.791000,-1824.0,-1944.0,-237.0,-635.0,575.0,668.0,0.0,0.0,0.0
19:36:38.796000,-1734.0,-1843.0,-238.0,-635.0,575.0,668.0,0.0,0.0,0.0
19:36:38.800000,-1659.0,-1750.0,-236.0,-588.0,618.0,609.0,0.0,0.0,0.0
19:36:38.805000,-1579.0,-1658.0,-210.0,-588.0,618.0,609.0,0.0,0.0,0.0
19:36:38.810000,-1489.0,-1557.0,-174.0,-510.0,655.0,564.0,0.0,0.0,0.0
19:36:38.814000,-1413.0,-1462.0,-149.0,-510.0,655.0,564.0,0.0,0.0,0.0
19:36:38.819000,-1310.0,-1370.0,-84.0,-472.0,659.0,531.0,0.0,0.0,0.0
19:36:38.824000,-1238.0,-1276.0,37.0,-472.0,659.0,531.0,0.0,0.0,0.0
19:36:38.828000,-1238.0,-1276.0,37.0,-460.0,631.0,506.0,0.0,0.0,0.0
19:36:38.833000,-1218.0,-1183.0,109.0,-460.0,631.0,506.0,0.0,0.0,0.0
19:36:38.838000,-1183.0,-1090.0,71.0,-471.0,726.0,474.0,0.0,0.0,0.0
19:36:38.843000,-1140.0,-1008.0,-5.0,-471.0,726.0,474.0,0.0,0.0,0.0
19:36:38.847000,-1107.0,-931.0,-26.0,-468.0,810.0,442.0,0.0,0.0,0.0
19:36:38.852000,-1090.0,-861.0,51.0,-468.0,810.0,442.0,0.0,0.0,0.0
19:36:38.857000,-1080.0,-800.0,162.0,-393.0,790.0,429.0,0.0,0.0,0.0
19:36:38.861000,-1073.0,-745.0,212.0,-393.0,790.0,429.0,0.0,0.0,0.0
19:36:38.866000,-1047.0,-695.0,213.0,-397.0,781.0,411.0,0.0,0.0,0.0
19:36:38.871000,-1003.0,-650.0,188.0,-397.0,781.0,411.0,0.0,0.0,0.0
19:36:38.876000,-951.0,-611.0,182.0,-426.0,712.0,385.0,0.0,0.0,0.0
19:36:38.880000,-906.0,-572.0,223.0,-426.0,712.0,385.0,0.0,0.0,0.0
19:36:38.885000,-860.0,-538.0,275.0,-396.0,607.0,369.0,0.0,0.0,0.0
19:36:38.890000,-816.0,-502.0,297.0,-396.0,607.0,369.0,0.0,0.0,0.0
19:36:38.894000,-774.0,-472.0,322.0,-396.0,607.0,369.0,0.0,0.0,0.0
19:36:38.899000,-740.0,-455.0,372.0,-360.0,568.0,358.0,0.0,0.0,0.0
19:36:38.904000,-725.0,-434.0,385.0,-360.0,568.0,358.0,0.0,0.0,0.0
19:36:38.908000,-714.0,-415.0,333.0,-362.0,606.0,343.0,0.0,0.0,0.0
19:36:38.913000,-704.0,-403.0,291.0,-362.0,606.0,343.0,0.0,0.0,0.0
19:36:38.918000,-700.0,-399.0,280.0,-372.0,677.0,329.0,0.0,0.0,0.0
19:36:38.923000,-704.0,-391.0,281.0,-372.0,677.0,329.0,0.0,0.0,0.0
19:36:38.927000,-706.0,-387.0,268.0,-333.0,686.0,314.0,0.0,0.0,0.0
19:36:38.932000,-697.0,-385.0,225.0,-333.0,686.0,314.0,0.0,0.0,0.0
19:36:38.937000,-693.0,-377.0,182.0,-289.0,656.0,292.0,0.0,0.0,0.0
19:36:38.941000,-693.0,-377.0,182.0,-289.0,656.0,292.0,0.0,0.0,0.0
19:36:38.946000,-686.0,-370.0,163.0,-289.0,625.0,268.0,0.0,0.0,0.0
19:36:38.951000,-682.0,-362.0,165.0,-289.0,625.0,268.0,0.0,0.0,0.0
19:36:38.955000,-674.0,-357.0,140.0,-300.0,581.0,257.0,0.0,0.0,0.0
19:36:38.960000,-663.0,-357.0,98.0,-300.0,581.0,257.0,0.0,0.0,0.0
19:36:38.965000,-638.0,-357.0,73.0,-272.0,543.0,258.0,0.0,0.0,0.0
19:36:38.970000,-606.0,-352.0,40.0,-272.0,543.0,258.0,0.0,0.0,0.0
19:36:38.974000,-567.0,-336.0,-11.0,-232.0,556.0,253.0,0.0,0.0,0.0
19:36:38.979000,-529.0,-319.0,-82.0,-232.0,556.0,253.0,0.0,0.0,0.0
19:36:38.984000,-501.0,-301.0,-161.0,-237.0,628.0,248.0,0.0,0.0,0.0
19:36:38.988000,-478.0,-282.0,-230.0,-237.0,628.0,248.0,0.0,0.0,0.0
19:36:38.993000,-464.0,-268.0,-258.0,-272.0,700.0,251.0,0.0,0.0,0.0
19:36:38.998000,-465.0,-254.0,-240.0,-272.0,700.0,251.0,0.0,0.0,0.0
19:36:39.002000,-468.0,-237.0,-202.0,-313.0,729.0,255.0,0.0,0.0,0.0
19:36:39.007000,-466.0,-214.0,-212.0,-313.0,729.0,255.0,0.0,0.0,0.0
19:36:39.012000,-464.0,-198.0,-262.0,-313.0,729.0,255.0,0.0,0.0,0.0
19:36:39.017000,-452.0,-187.0,-290.0,-322.0,743.0,260.0,0.0,0.0,0.0
19:36:39.021000,-433.0,-175.0,-292.0,-322.0,743.0,260.0,0.0,0.0,0.0
19:36:39.026000,-422.0,-168.0,-288.0,-261.0,758.0,272.0,0.0,0.0,0.0
19:36:39.031000,-422.0,-158.0,-276.0,-261.0,758.0,272.0,0.0,0.0,0.0
19:36:39.035000,-425.0,-147.0,-247.0,-179.0,760.0,289.0,0.0,0.0,0.0
19:36:39.040000,-413.0,-132.0,-207.0,-179.0,760.0,289.0,0.0,0.0,0.0
19:36:39.045000,-398.0,-116.0,-177.0,-148.0,767.0,300.0,0.0,0.0,0.0
19:36:39.049000,-398.0,-116.0,-177.0,-148.0,767.0,300.0,0.0,0.0,0.0
19:36:39.054000,-392.0,-107.0,-165.0,-172.0,771.0,306.0,0.0,0.0,0.0
19:36:39.059000,-375.0,-93.0,-164.0,-172.0,771.0,306.0,0.0,0.0,0.0
19:36:39.064000,-355.0,-79.0,-149.0,-174.0,780.0,312.0,0.0,0.0,0.0
19:36:39.068000,-324.0,-60.0,-126.0,-174.0,780.0,312.0,0.0,0.0,0.0
19:36:39.073000,-294.0,-44.0,-103.0,-129.0,788.0,313.0,0.0,0.0,0.0
19:36:39.078000,-269.0,-33.0,-64.0,-129.0,788.0,313.0,0.0,0.0,0.0
19:36:39.082000,-242.0,-23.0,-24.0,-126.0,791.0,323.0,0.0,0.0,0.0
19:36:39.087000,-217.0,-10.0,-4.0,-126.0,791.0,323.0,0.0,0.0,0.0
19:36:39.092000,-171.0,2.0,-28.0,-143.0,850.0,355.0,0.0,0.0,0.0
19:36:39.096000,-170.0,1.0,-67.0,-143.0,850.0,355.0,0.0,0.0,0.0
19:36:39.101000,-166.0,-1.0,28.0,-130.0,759.0,367.0,0.0,0.0,0.0
19:36:39.106000,-86.0,26.0,116.0,-130.0,759.0,367.0,0.0,0.0,0.0
19:36:39.111000,-54.0,36.0,138.0,-130.0,759.0,367.0,0.0,0.0,0.0
19:36:39.115000,-39.0,39.0,161.0,-165.0,661.0,358.0,0.0,0.0,0.0
19:36:39.120000,-16.0,47.0,182.0,-165.0,661.0,358.0,0.0,0.0,0.0
19:36:39.125000,-3.0,58.0,163.0,-179.0,788.0,357.0,0.0,0.0,0.0
19:36:39.129000,15.0,69.0,108.0,-179.0,788.0,357.0,0.0,0.0,0.0
19:36:39.134000,32.0,81.0,76.0,-131.0,894.0,354.0,0.0,0.0,0.0
19:36:39.139000,51.0,98.0,102.0,-151.0,835.0,343.0,0.0,0.0,0.0
19:36:39.143000,87.0,112.0,117.0,-151.0,835.0,343.0,0.0,0.0,0.0
19:36:39.148000,123.0,124.0,89.0,-151.0,835.0,343.0,0.0,0.0,0.0
19:36:39.153000,146.0,137.0,51.0,-244.0,749.0,318.0,0.0,0.0,0.0
19:36:39.158000,146.0,137.0,51.0,-244.0,749.0,318.0,0.0,0.0,0.0
19:36:39.162000,158.0,148.0,16.0,-284.0,794.0,287.0,0.0,0.0,0.0
19:36:39.167000,158.0,156.0,-33.0,-284.0,794.0,287.0,0.0,0.0,0.0
19:36:39.172000,164.0,159.0,-120.0,-245.0,887.0,248.0,0.0,0.0,0.0
19:36:39.176000,184.0,156.0,-222.0,-245.0,887.0,248.0,0.0,0.0,0.0
19:36:39.181000,214.0,153.0,-305.0,-201.0,922.0,209.0,0.0,0.0,0.0
19:36:39.186000,252.0,142.0,-363.0,-201.0,922.0,209.0,0.0,0.0,0.0
19:36:39.190000,298.0,127.0,-412.0,-163.0,843.0,179.0,0.0,0.0,0.0
19:36:39.195000,356.0,108.0,-455.0,-163.0,843.0,179.0,0.0,0.0,0.0
19:36:39.200000,416.0,87.0,-492.0,-132.0,771.0,163.0,0.0,0.0,0.0
19:36:39.205000,474.0,60.0,-539.0,-132.0,771.0,163.0,0.0,0.0,0.0
19:36:39.209000,519.0,30.0,-596.0,-75.0,818.0,163.0,0.0,0.0,0.0
19:36:39.214000,558.0,-2.0,-641.0,-75.0,818.0,163.0,0.0,0.0,0.0
19:36:39.219000,590.0,-37.0,-672.0,-75.0,897.0,163.0,0.0,0.0,0.0
19:36:39.223000,625.0,-68.0,-679.0,3.0,897.0,167.0,0.0,0.0,0.0
19:36:39.228000,663.0,-98.0,-667.0,3.0,897.0,167.0,0.0,0.0,0.0
19:36:39.233000,690.0,-128.0,-663.0,37.0,915.0,159.0,0.0,0.0,0.0
19:36:39.237000,714.0,-158.0,-690.0,37.0,915.0,159.0,0.0,0.0,0.0
19:36:39.242000,738.0,-188.0,-711.0,0.0,926.0,157.0,0.0,0.0,0.0
19:36:39.246000,770.0,-217.0,-688.0,0.0,926.0,157.0,0.0,0.0,0.0
19:36:39.252000,819.0,-239.0,-652.0,-10.0,914.0,162.0,0.0,0.0,0.0
19:36:39.256000,882.0,-252.0,-646.0,-10.0,914.0,162.0,0.0,0.0,0.0
19:36:39.261000,977.0,-259.0,-679.0,22.0,867.0,165.0,0.0,0.0,0.0
19:36:39.266000,977.0,-259.0,-679.0,22.0,867.0,165.0,0.0,0.0,0.0
19:36:39.270000,1085.0,-264.0,-677.0,32.0,789.0,177.0,0.0,0.0,0.0
19:36:39.275000,1169.0,-283.0,-556.0,32.0,789.0,177.0,0.0,0.0,0.0
19:36:39.280000,1249.0,-292.0,-523.0,-36.0,702.0,213.0,0.0,0.0,0.0
19:36:39.284000,1361.0,-303.0,-564.0,-36.0,702.0,213.0,0.0,0.0,0.0
19:36:39.289000,1465.0,-302.0,-516.0,-43.0,716.0,251.0,0.0,0.0,0.0
19:36:39.294000,1553.0,-298.0,-435.0,-43.0,716.0,251.0,0.0,0.0,0.0
19:36:39.299000,1661.0,-290.0,-353.0,-23.0,753.0,284.0,0.0,0.0,0.0
19:36:39.303000,1757.0,-264.0,-268.0,-23.0,753.0,284.0,0.0,0.0,0.0
19:36:39.308000,1852.0,-232.0,-252.0,-121.0,695.0,326.0,0.0,0.0,0.0
19:36:39.312000,1972.0,-200.0,-240.0,-121.0,695.0,326.0,0.0,0.0,0.0
19:36:39.317000,2097.0,-161.0,-160.0,-190.0,573.0,376.0,0.0,0.0,0.0
19:36:39.322000,2226.0,-112.0,-79.0,-190.0,573.0,376.0,0.0,0.0,0.0
19:36:39.327000,2339.0,-63.0,-39.0,-206.0,502.0,439.0,0.0,0.0,0.0
19:36:39.331000,2469.0,-9.0,-16.0,-206.0,502.0,439.0,0.0,0.0,0.0
19:36:39.336000,2587.0,64.0,-19.0,-206.0,502.0,439.0,0.0,0.0,0.0
19:36:39.341000,2671.0,113.0,-38.0,-236.0,526.0,507.0,0.0,0.0,0.0
19:36:39.346000,2765.0,203.0,-23.0,-236.0,526.0,507.0,0.0,0.0,0.0
19:36:39.350000,2846.0,286.0,31.0,-295.0,575.0,570.0,0.0,0.0,0.0
19:36:39.355000,2914.0,378.0,69.0,-295.0,575.0,570.0,0.0,0.0,0.0
19:36:39.360000,2969.0,461.0,79.0,-359.0,603.0,641.0,0.0,0.0,0.0
19:36:39.364000,3007.0,548.0,108.0,-359.0,603.0,641.0,0.0,0.0,0.0
19:36:39.368000,3007.0,548.0,108.0,-411.0,630.0,722.0,0.0,0.0,0.0
19:36:39.374000,3031.0,730.0,142.0,-411.0,630.0,722.0,0.0,0.0,0.0
19:36:39.378000,3031.0,730.0,142.0,-469.0,682.0,795.0,0.0,0.0,0.0
19:36:39.383000,3028.0,813.0,113.0,-469.0,682.0,795.0,0.0,0.0,0.0
19:36:39.388000,3028.0,879.0,70.0,-504.0,681.0,846.0,0.0,0.0,0.0
19:36:39.393000,3052.0,973.0,60.0,-504.0,681.0,846.0,0.0,0.0,0.0
19:36:39.397000,3051.0,1053.0,74.0,-510.0,624.0,879.0,0.0,0.0,0.0
19:36:39.402000,3053.0,1124.0,57.0,-510.0,624.0,879.0,0.0,0.0,0.0
19:36:39.407000,3068.0,1187.0,7.0,-545.0,610.0,890.0,0.0,0.0,0.0
19:36:39.411000,3084.0,1248.0,-30.0,-545.0,610.0,890.0,0.0,0.0,0.0
19:36:39.416000,3089.0,1314.0,-81.0,-593.0,601.0,894.0,0.0,0.0,0.0
19:36:39.421000,3102.0,1383.0,-132.0,-593.0,601.0,894.0,0.0,0.0,0.0
19:36:39.425000,3112.0,1444.0,-123.0,-613.0,541.0,924.0,0.0,0.0,0.0
19:36:39.430000,3114.0,1496.0,-100.0,-613.0,541.0,924.0,0.0,0.0,0.0
19:36:39.435000,3119.0,1533.0,-128.0,-679.0,426.0,1002.0,0.0,0.0,0.0
19:36:39.440000,3056.0,1519.0,-133.0,-679.0,426.0,1002.0,0.0,0.0,0.0
19:36:39.444000,3061.0,1584.0,-58.0,-679.0,426.0,1002.0,0.0,0.0,0.0
19:36:39.449000,3196.0,1775.0,-54.0,-691.0,331.0,1056.0,0.0,0.0,0.0
19:36:39.454000,3157.0,1787.0,-127.0,-691.0,331.0,1056.0,0.0,0.0,0.0
19:36:39.458000,3124.0,1811.0,-212.0,-561.0,434.0,1116.0,0.0,0.0,0.0
19:36:39.463000,3133.0,1920.0,-244.0,-561.0,434.0,1116.0,0.0,0.0,0.0
19:36:39.468000,3122.0,1985.0,-228.0,-596.0,552.0,1134.0,0.0,0.0,0.0
19:36:39.472000,3116.0,2067.0,-178.0,-596.0,552.0,1134.0,0.0,0.0,0.0
19:36:39.477000,3122.0,2156.0,-109.0,-731.0,440.0,1088.0,0.0,0.0,0.0
19:36:39.482000,3075.0,2180.0,-71.0,-731.0,440.0,1088.0,0.0,0.0,0.0
19:36:39.487000,3075.0,2180.0,-71.0,-899.0,234.0,1114.0,0.0,0.0,0.0
19:36:39.491000,3168.0,2312.0,-49.0,-899.0,234.0,1114.0,0.0,0.0,0.0
19:36:39.496000,3250.0,2448.0,24.0,-894.0,76.0,1140.0,0.0,0.0,0.0
19:36:39.501000,3300.0,2524.0,104.0,-894.0,76.0,1140.0,0.0,0.0,0.0
19:36:39.505000,3359.0,2581.0,123.0,-784.0,-24.0,1169.0,0.0,0.0,0.0
19:36:39.510000,3410.0,2645.0,136.0,-784.0,-24.0,1169.0,0.0,0.0,0.0
19:36:39.515000,3469.0,2683.0,146.0,-712.0,-86.0,1201.0,0.0,0.0,0.0
19:36:39.519000,3552.0,2739.0,161.0,-712.0,-86.0,1201.0,0.0,0.0,0.0
19:36:39.524000,3596.0,2758.0,191.0,-621.0,-68.0,1194.0,0.0,0.0,0.0
19:36:39.529000,3635.0,2842.0,194.0,-621.0,-68.0,1194.0,0.0,0.0,0.0
19:36:39.534000,3621.0,2830.0,134.0,-752.0,0.0,1233.0,0.0,0.0,0.0
19:36:39.538000,3467.0,2874.0,189.0,-752.0,0.0,1233.0,0.0,0.0,0.0
19:36:39.543000,3464.0,2911.0,251.0,-770.0,46.0,1255.0,0.0,0.0,0.0
19:36:39.548000,3431.0,2926.0,277.0,-770.0,46.0,1255.0,0.0,0.0,0.0
19:36:39.552000,3364.0,2952.0,289.0,-770.0,46.0,1255.0,0.0,0.0,0.0
19:36:39.557000,3299.0,2928.0,269.0,-661.0,28.0,1226.0,0.0,0.0,0.0
19:36:39.562000,3214.0,2939.0,253.0,-661.0,28.0,1226.0,0.0,0.0,0.0
19:36:39.566000,3202.0,2927.0,269.0,-654.0,-56.0,1201.0,0.0,0.0,0.0
19:36:39.571000,3157.0,2933.0,308.0,-654.0,-56.0,1201.0,0.0,0.0,0.0
19:36:39.576000,3066.0,2905.0,318.0,-647.0,-191.0,1162.0,0.0,0.0,0.0
19:36:39.581000,3082.0,2850.0,270.0,-647.0,-191.0,1162.0,0.0,0.0,0.0
19:36:39.585000,3054.0,2856.0,256.0,-589.0,-247.0,1124.0,0.0,0.0,0.0
19:36:39.590000,2977.0,2823.0,243.0,-589.0,-247.0,1124.0,0.0,0.0,0.0
19:36:39.595000,2977.0,2823.0,243.0,-552.0,-265.0,1073.0,0.0,0.0,0.0
19:36:39.609000,2917.0,2693.0,-2.0,-615.0,-328.0,1035.0,0.0,0.0,0.0
19:36:39.613000,2922.0,2653.0,65.0,-545.0,-379.0,996.0,0.0,0.0,0.0
