hh:mm:ss.ms,gyroX[mdps],gyroY[mdps],gyroZ[mdps],accX[mg],accY[mg],accZ[mg],magX[mG],magY[mG],magZ[mG]
19:32:27.875000,-1530.0,294.0,-1591.0,-1242.0,338.0,165.0,0.0,0.0,0.0
19:32:27.880000,-1526.0,214.0,-1342.0,-1169.0,239.0,80.0,0.0,0.0,0.0
19:32:27.884000,-1500.0,147.0,-976.0,-1169.0,239.0,80.0,0.0,0.0,0.0
19:32:27.889000,-1521.0,106.0,-758.0,-1153.0,162.0,21.0,0.0,0.0,0.0
19:32:27.894000,-1520.0,63.0,-739.0,-1153.0,162.0,21.0,0.0,0.0,0.0
19:32:27.898000,-1502.0,18.0,-790.0,-1092.0,241.0,-27.0,0.0,0.0,0.0
19:32:27.903000,-1486.0,-28.0,-807.0,-1092.0,241.0,-27.0,0.0,0.0,0.0
19:32:27.908000,-1463.0,-84.0,-788.0,-905.0,301.0,-61.0,0.0,0.0,0.0
19:32:27.913000,-1433.0,-142.0,-765.0,-905.0,301.0,-61.0,0.0,0.0,0.0
19:32:27.917000,-1411.0,-187.0,-771.0,-905.0,301.0,-61.0,0.0,0.0,0.0
19:32:27.922000,-1393.0,-223.0,-778.0,-807.0,289.0,-81.0,0.0,0.0,0.0
19:32:27.927000,-1384.0,-250.0,-809.0,-807.0,289.0,-81.0,0.0,0.0,0.0
19:32:27.931000,-1379.0,-271.0,-816.0,-872.0,311.0,-93.0,0.0,0.0,0.0
19:32:27.936000,-1368.0,-284.0,-777.0,-872.0,311.0,-93.0,0.0,0.0,0.0
19:32:27.941000,-1379.0,-271.0,-744.0,-899.0,288.0,-82.0,0.0,0.0,0.0
19:32:27.945000,-1619.0,-63.0,-709.0,-899.0,288.0,-82.0,0.0,0.0,0.0
19:32:27.950000,-1808.0,-33.0,-987.0,-937.0,293.0,-44.0,0.0,0.0,0.0
19:32:27.955000,-1409.0,-216.0,-967.0,-937.0,293.0,-44.0,0.0,0.0,0.0
19:32:27.960000,-1409.0,-216.0,-967.0,-894.0,231.0,-72.0,0.0,0.0,0.0
19:32:27.964000,-1295.0,-303.0,-718.0,-894.0,231.0,-72.0,0.0,0.0,0.0
19:32:27.969000,-1185.0,-350.0,-881.0,-866.0,91.0,-94.0,0.0,0.0,0.0
19:32:27.974000,-1176.0,-339.0,-995.0,-866.0,91.0,-94.0,0.0,0.0,0.0
19:32:27.978000,-1173.0,-319.0,-930.0,-951.0,176.0,-58.0,0.0,0.0,0.0
19:32:27.983000,-1096.0,-317.0,-888.0,-951.0,176.0,-58.0,0.0,0.0,0.0
19:32:27.988000,-970.0,-338.0,-972.0,-940.0,260.0,-68.0,0.0,0.0,0.0
19:32:27.992000,-849.0,-352.0,-1096.0,-940.0,260.0,-68.0,0.0,0.0,0.0
19:32:27.997000,-812.0,-331.0,-1170.0,-926.0,264.0,-81.0,0.0,0.0,0.0
19:32:28.002000,-872.0,-282.0,-1213.0,-926.0,264.0,-81.0,0.0,0.0,0.0
19:32:28.006000,-963.0,-238.0,-1183.0,-936.0,494.0,-65.0,0.0,0.0,0.0
19:32:28.011000,-1043.0,-210.0,-1047.0,-936.0,494.0,-65.0,0.0,0.0,0.0
19:32:28.016000,-1095.0,-198.0,-885.0,-891.0,613.0,-43.0,0.0,0.0,0.0
19:32:28.021000,-1117.0,-190.0,-810.0,-891.0,613.0,-43.0,0.0,0.0,0.0
19:32:28.025000,-1123.0,-183.0,-821.0,-891.0,613.0,-43.0,0.0,0.0,0.0
19:32:28.030000,-1135.0,-173.0,-868.0,-838.0,484.0,-46.0,0.0,0.0,0.0
19:32:28.035000,-1146.0,-168.0,-861.0,-838.0,484.0,-46.0,0.0,0.0,0.0
19:32:28.039000,-1160.0,-164.0,-800.0,-839.0,467.0,-43.0,0.0,0.0,0.0
19:32:28.044000,-1173.0,-154.0,-763.0,-839.0,467.0,-43.0,0.0,0.0,0.0
19:32:28.049000,-1189.0,-140.0,-771.0,-819.0,499.0,-38.0,0.0,0.0,0.0
19:32:28.054000,-1194.0,-126.0,-780.0,-819.0,499.0,-38.0,0.0,0.0,0.0
19:32:28.058000,-1194.0,-126.0,-780.0,-770.0,490.0,-67.0,0.0,0.0,0.0
19:32:28.063000,-1197.0,-101.0,-753.0,-770.0,490.0,-67.0,0.0,0.0,0.0
19:32:28.068000,-1197.0,-101.0,-753.0,-734.0,467.0,-116.0,0.0,0.0,0.0
19:32:28.072000,-1204.0,-89.0,-755.0,-734.0,467.0,-116.0,0.0,0.0,0.0
19:32:28.077000,-1209.0,-81.0,-762.0,-726.0,487.0,-157.0,0.0,0.0,0.0
19:32:28.082000,-1208.0,-81.0,-753.0,-726.0,487.0,-157.0,0.0,0.0,0.0
19:32:28.086000,-1198.0,-96.0,-730.0,-670.0,506.0,-192.0,0.0,0.0,0.0
19:32:28.091000,-1177.0,-121.0,-697.0,-670.0,506.0,-192.0,0.0,0.0,0.0
19:32:28.096000,-1140.0,-158.0,-653.0,-555.0,443.0,-222.0,0.0,0.0,0.0
19:32:28.101000,-1099.0,-205.0,-605.0,-555.0,443.0,-222.0,0.0,0.0,0.0
19:32:28.105000,-1050.0,-263.0,-564.0,-451.0,395.0,-238.0,0.0,0.0,0.0
19:32:28.110000,-997.0,-315.0,-522.0,-451.0,395.0,-238.0,0.0,0.0,0.0
19:32:28.115000,-984.0,-343.0,-498.0,-418.0,426.0,-244.0,0.0,0.0,0.0
19:32:28.119000,-973.0,-366.0,-516.0,-418.0,426.0,-244.0,0.0,0.0,0.0
19:32:28.124000,-933.0,-400.0,-494.0,-494.0,441.0,-253.0,0.0,0.0,0.0
19:32:28.129000,-902.0,-436.0,-417.0,-494.0,441.0,-253.0,0.0,0.0,0.0
19:32:28.133000,-857.0,-478.0,-352.0,-494.0,441.0,-253.0,0.0,0.0,0.0
19:32:28.138000,-828.0,-508.0,-308.0,-614.0,420.0,-252.0,0.0,0.0,0.0
19:32:28.143000,-843.0,-522.0,-278.0,-614.0,420.0,-252.0,0.0,0.0,0.0
19:32:28.148000,-870.0,-530.0,-296.0,-687.0,485.0,-229.0,0.0,0.0,0.0
19:32:28.152000,-900.0,-543.0,-336.0,-687.0,485.0,-229.0,0.0,0.0,0.0
19:32:28.157000,-935.0,-558.0,-333.0,-656.0,615.0,-200.0,0.0,0.0,0.0
19:32:28.162000,-972.0,-570.0,-298.0,-656.0,615.0,-200.0,0.0,0.0,0.0
19:32:28.166000,-1008.0,-574.0,-266.0,-574.0,675.0,-179.0,0.0,0.0,0.0
19:32:28.171000,-1033.0,-572.0,-247.0,-574.0,675.0,-179.0,0.0,0.0,0.0
19:32:28.176000,-1033.0,-572.0,-247.0,-571.0,661.0,-161.0,0.0,0.0,0.0
19:32:28.180000,-1051.0,-566.0,-226.0,-571.0,661.0,-161.0,0.0,0.0,0.0
19:32:28.185000,-1065.0,-560.0,-190.0,-596.0,605.0,-149.0,0.0,0.0,0.0
19:32:28.190000,-1073.0,-555.0,-146.0,-596.0,605.0,-149.0,0.0,0.0,0.0
19:32:28.195000,-1072.0,-549.0,-109.0,-583.0,553.0,-138.0,0.0,0.0,0.0
19:32:28.199000,-1068.0,-544.0,-89.0,-583.0,553.0,-138.0,0.0,0.0,0.0
19:32:28.204000,-1068.0,-540.0,-84.0,-549.0,555.0,-121.0,0.0,0.0,0.0
19:32:28.209000,-1078.0,-532.0,-68.0,-549.0,555.0,-121.0,0.0,0.0,0.0
19:32:28.213000,-1094.0,-515.0,-22.0,-508.0,576.0,-94.0,0.0,0.0,0.0
19:32:28.218000,-1109.0,-490.0,21.0,-508.0,576.0,-94.0,0.0,0.0,0.0
19:32:28.223000,-1122.0,-457.0,25.0,-526.0,593.0,-63.0,0.0,0.0,0.0
19:32:28.227000,-1131.0,-420.0,10.0,-526.0,593.0,-63.0,0.0,0.0,0.0
19:32:28.232000,-1132.0,-383.0,16.0,-571.0,580.0,-39.0,0.0,0.0,0.0
19:32:28.237000,-1127.0,-343.0,40.0,-571.0,580.0,-39.0,0.0,0.0,0.0
19:32:28.241000,-1122.0,-305.0,58.0,-571.0,580.0,-39.0,0.0,0.0,0.0
19:32:28.246000,-1119.0,-270.0,70.0,-584.0,555.0,-36.0,0.0,0.0,0.0
19:32:28.251000,-1115.0,-238.0,100.0,-584.0,555.0,-36.0,0.0,0.0,0.0
19:32:28.256000,-1108.0,-210.0,134.0,-587.0,549.0,-43.0,0.0,0.0,0.0
19:32:28.260000,-1104.0,-186.0,163.0,-587.0,549.0,-43.0,0.0,0.0,0.0
19:32:28.265000,-1103.0,-166.0,183.0,-578.0,543.0,-50.0,0.0,0.0,0.0
19:32:28.270000,-1108.0,-151.0,217.0,-578.0,543.0,-50.0,0.0,0.0,0.0
19:32:28.274000,-1117.0,-142.0,258.0,-550.0,550.0,-57.0,0.0,0.0,0.0
19:32:28.279000,-1133.0,-137.0,295.0,-550.0,550.0,-57.0,0.0,0.0,0.0
19:32:28.284000,-1150.0,-140.0,323.0,-522.0,574.0,-64.0,0.0,0.0,0.0
19:32:28.289000,-1150.0,-140.0,323.0,-522.0,574.0,-64.0,0.0,0.0,0.0
19:32:28.293000,-1175.0,-148.0,357.0,-507.0,584.0,-77.0,0.0,0.0,0.0
19:32:28.298000,-1203.0,-161.0,432.0,-507.0,584.0,-77.0,0.0,0.0,0.0
19:32:28.303000,-1241.0,-174.0,542.0,-517.0,534.0,-97.0,0.0,0.0,0.0
19:32:28.307000,-1274.0,-192.0,671.0,-517.0,534.0,-97.0,0.0,0.0,0.0
19:32:28.312000,-1263.0,-198.0,704.0,-513.0,423.0,-120.0,0.0,0.0,0.0
19:32:28.317000,-1264.0,-203.0,636.0,-513.0,423.0,-120.0,0.0,0.0,0.0
19:32:28.321000,-1290.0,-210.0,595.0,-510.0,433.0,-136.0,0.0,0.0,0.0
19:32:28.326000,-1341.0,-214.0,609.0,-510.0,433.0,-136.0,0.0,0.0,0.0
19:32:28.331000,-1409.0,-217.0,644.0,-568.0,526.0,-140.0,0.0,0.0,0.0
19:32:28.336000,-1469.0,-212.0,637.0,-568.0,526.0,-140.0,0.0,0.0,0.0
19:32:28.340000,-1511.0,-205.0,561.0,-631.0,543.0,-133.0,0.0,0.0,0.0
19:32:28.345000,-1536.0,-197.0,464.0,-631.0,543.0,-133.0,0.0,0.0,0.0
19:32:28.350000,-1550.0,-191.0,410.0,-631.0,543.0,-133.0,0.0,0.0,0.0
19:32:28.354000,-1558.0,-181.0,404.0,-612.0,473.0,-108.0,0.0,0.0,0.0
19:32:28.359000,-1554.0,-162.0,395.0,-612.0,473.0,-108.0,0.0,0.0,0.0
19:32:28.364000,-1542.0,-134.0,379.0,-583.0,360.0,-92.0,0.0,0.0,0.0
19:32:28.368000,-1526.0,-102.0,385.0,-583.0,360.0,-92.0,0.0,0.0,0.0
19:32:28.373000,-1502.0,-66.0,406.0,-638.0,305.0,-96.0,0.0,0.0,0.0
19:32:28.378000,-1472.0,-24.0,412.0,-638.0,305.0,-96.0,0.0,0.0,0.0
19:32:28.383000,-1442.0,19.0,393.0,-724.0,289.0,-107.0,0.0,0.0,0.0
19:32:28.387000,-1420.0,65.0,375.0,-724.0,289.0,-107.0,0.0,0.0,0.0
19:32:28.392000,-1408.0,107.0,366.0,-806.0,324.0,-132.0,0.0,0.0,0.0
19:32:28.397000,-1408.0,107.0,366.0,-806.0,324.0,-132.0,0.0,0.0,0.0
19:32:28.401000,-1408.0,142.0,352.0,-870.0,415.0,-175.0,0.0,0.0,0.0
19:32:28.406000,-1425.0,168.0,328.0,-870.0,415.0,-175.0,0.0,0.0,0.0
19:32:28.411000,-1451.0,184.0,310.0,-882.0,509.0,-216.0,0.0,0.0,0.0
19:32:28.415000,-1483.0,193.0,304.0,-882.0,509.0,-216.0,0.0,0.0,0.0
19:32:28.420000,-1507.0,193.0,288.0,-821.0,527.0,-250.0,0.0,0.0,0.0
19:32:28.425000,-1516.0,182.0,257.0,-821.0,527.0,-250.0,0.0,0.0,0.0
19:32:28.430000,-1519.0,162.0,228.0,-745.0,463.0,-282.0,0.0,0.0,0.0
19:32:28.434000,-1518.0,135.0,211.0,-745.0,463.0,-282.0,0.0,0.0,0.0
19:32:28.439000,-1512.0,118.0,196.0,-741.0,421.0,-313.0,0.0,0.0,0.0
19:32:28.444000,-1491.0,74.0,132.0,-741.0,421.0,-313.0,0.0,0.0,0.0
19:32:28.448000,-1450.0,7.0,70.0,-739.0,399.0,-324.0,0.0,0.0,0.0
19:32:28.453000,-1446.0,-24.0,98.0,-739.0,399.0,-324.0,0.0,0.0,0.0
19:32:28.458000,-1390.0,-79.0,194.0,-630.0,324.0,-321.0,0.0,0.0,0.0
19:32:28.462000,-1342.0,-137.0,149.0,-630.0,324.0,-321.0,0.0,0.0,0.0
19:32:28.467000,-1294.0,-182.0,8.0,-630.0,324.0,-321.0,0.0,0.0,0.0
19:32:28.472000,-1264.0,-231.0,-76.0,-649.0,340.0,-334.0,0.0,0.0,0.0
19:32:28.476000,-1251.0,-266.0,-77.0,-649.0,340.0,-334.0,0.0,0.0,0.0
19:32:28.481000,-1224.0,-298.0,-103.0,-812.0,394.0,-354.0,0.0,0.0,0.0
19:32:28.486000,-1201.0,-340.0,-164.0,-812.0,394.0,-354.0,0.0,0.0,0.0
19:32:28.491000,-1178.0,-381.0,-240.0,-878.0,401.0,-368.0,0.0,0.0,0.0
19:32:28.495000,-1160.0,-427.0,-306.0,-878.0,401.0,-368.0,0.0,0.0,0.0
19:32:28.500000,-1134.0,-475.0,-359.0,-830.0,423.0,-367.0,0.0,0.0,0.0
19:32:28.505000,-1134.0,-475.0,-359.0,-830.0,423.0,-367.0,0.0,0.0,0.0
19:32:28.509000,-1108.0,-522.0,-410.0,-737.0,410.0,-359.0,0.0,0.0,0.0
19:32:28.514000,-1093.0,-571.0,-431.0,-737.0,410.0,-359.0,0.0,0.0,0.0
19:32:28.519000,-1088.0,-616.0,-429.0,-703.0,425.0,-358.0,0.0,0.0,0.0
19:32:28.524000,-1085.0,-656.0,-445.0,-703.0,425.0,-358.0,0.0,0.0,0.0
19:32:28.528000,-1093.0,-696.0,-483.0,-739.0,523.0,-345.0,0.0,0.0,0.0
19:32:28.533000,-1112.0,-739.0,-497.0,-739.0,523.0,-345.0,0.0,0.0,0.0
19:32:28.538000,-1129.0,-776.0,-484.0,-738.0,587.0,-311.0,0.0,0.0,0.0
19:32:28.542000,-1141.0,-805.0,-481.0,-738.0,587.0,-311.0,0.0,0.0,0.0
19:32:28.547000,-1147.0,-824.0,-516.0,-704.0,567.0,-285.0,0.0,0.0,0.0
19:32:28.552000,-1149.0,-841.0,-571.0,-704.0,567.0,-285.0,0.0,0.0,0.0
19:32:28.556000,-1151.0,-851.0,-653.0,-714.0,579.0,-274.0,0.0,0.0,0.0
19:32:28.561000,-1082.0,-897.0,-855.0,-714.0,579.0,-274.0,0.0,0.0,0.0
19:32:28.566000,-1157.0,-858.0,-1046.0,-683.0,568.0,-256.0,0.0,0.0,0.0
19:32:28.571000,-1162.0,-884.0,-861.0,-683.0,568.0,-256.0,0.0,0.0,0.0
19:32:28.575000,-1162.0,-896.0,-697.0,-683.0,568.0,-256.0,0.0,0.0,0.0
19:32:28.580000,-1170.0,-889.0,-860.0,-811.0,625.0,-218.0,0.0,0.0,0.0
19:32:28.585000,-1173.0,-887.0,-956.0,-811.0,625.0,-218.0,0.0,0.0,0.0
19:32:28.589000,-1158.0,-889.0,-868.0,-937.0,625.0,-206.0,0.0,0.0,0.0
19:32:28.594000,-1148.0,-891.0,-794.0,-937.0,625.0,-206.0,0.0,0.0,0.0
19:32:28.599000,-1145.0,-896.0,-805.0,-845.0,510.0,-212.0,0.0,0.0,0.0
19:32:28.603000,-1150.0,-905.0,-803.0,-845.0,510.0,-212.0,0.0,0.0,0.0
19:32:28.608000,-1146.0,-910.0,-751.0,-780.0,500.0,-198.0,0.0,0.0,0.0
19:32:28.613000,-1139.0,-910.0,-727.0,-780.0,500.0,-198.0,0.0,0.0,0.0
19:32:28.618000,-1139.0,-914.0,-727.0,-748.0,492.0,-195.0,0.0,0.0,0.0
19:32:28.622000,-1131.0,-918.0,-725.0,-748.0,492.0,-195.0,0.0,0.0,0.0
19:32:28.627000,-1115.0,-919.0,-716.0,-730.0,465.0,-208.0,0.0,0.0,0.0
19:32:28.632000,-1100.0,-921.0,-695.0,-730.0,465.0,-208.0,0.0,0.0,0.0
19:32:28.636000,-1082.0,-921.0,-669.0,-684.0,447.0,-216.0,0.0,0.0,0.0
19:32:28.641000,-1059.0,-921.0,-658.0,-684.0,447.0,-216.0,0.0,0.0,0.0
19:32:28.646000,-1036.0,-919.0,-653.0,-641.0,419.0,-222.0,0.0,0.0,0.0
19:32:28.650000,-1007.0,-912.0,-649.0,-641.0,419.0,-222.0,0.0,0.0,0.0
19:32:28.655000,-975.0,-901.0,-650.0,-643.0,396.0,-229.0,0.0,0.0,0.0
19:32:28.660000,-935.0,-889.0,-648.0,-643.0,396.0,-229.0,0.0,0.0,0.0
19:32:28.665000,-891.0,-879.0,-647.0,-666.0,377.0,-238.0,0.0,0.0,0.0
19:32:28.669000,-844.0,-868.0,-636.0,-666.0,377.0,-238.0,0.0,0.0,0.0
19:32:28.674000,-796.0,-853.0,-609.0,-697.0,356.0,-243.0,0.0,0.0,0.0
19:32:28.679000,-746.0,-835.0,-567.0,-697.0,356.0,-243.0,0.0,0.0,0.0
19:32:28.683000,-697.0,-816.0,-511.0,-697.0,356.0,-243.0,0.0,0.0,0.0
19:32:28.688000,-653.0,-795.0,-452.0,-721.0,328.0,-244.0,0.0,0.0,0.0
19:32:28.693000,-616.0,-774.0,-392.0,-721.0,328.0,-244.0,0.0,0.0,0.0
19:32:28.697000,-583.0,-753.0,-334.0,-737.0,322.0,-241.0,0.0,0.0,0.0
19:32:28.702000,-555.0,-732.0,-282.0,-737.0,322.0,-241.0,0.0,0.0,0.0
19:32:28.707000,-529.0,-709.0,-232.0,-772.0,335.0,-234.0,0.0,0.0,0.0
19:32:28.711000,-529.0,-709.0,-232.0,-772.0,335.0,-234.0,0.0,0.0,0.0
19:32:28.716000,-475.0,-646.0,-125.0,-823.0,330.0,-227.0,0.0,0.0,0.0
19:32:28.721000,-450.0,-609.0,-72.0,-823.0,330.0,-227.0,0.0,0.0,0.0
19:32:28.726000,-450.0,-609.0,-72.0,-841.0,304.0,-215.0,0.0,0.0,0.0
19:32:28.730000,-428.0,-571.0,-19.0,-841.0,304.0,-215.0,0.0,0.0,0.0
19:32:28.735000,-406.0,-531.0,28.0,-847.0,270.0,-207.0,0.0,0.0,0.0
19:32:28.740000,-383.0,-485.0,66.0,-847.0,270.0,-207.0,0.0,0.0,0.0
19:32:28.744000,-361.0,-441.0,111.0,-858.0,233.0,-207.0,0.0,0.0,0.0
19:32:28.749000,-339.0,-406.0,164.0,-858.0,233.0,-207.0,0.0,0.0,0.0
19:32:28.754000,-316.0,-384.0,210.0,-811.0,216.0,-203.0,0.0,0.0,0.0
19:32:28.759000,-295.0,-373.0,242.0,-811.0,216.0,-203.0,0.0,0.0,0.0
19:32:28.763000,-278.0,-366.0,262.0,-756.0,219.0,-194.0,0.0,0.0,0.0
19:32:28.768000,-273.0,-356.0,273.0,-756.0,219.0,-194.0,0.0,0.0,0.0
19:32:28.773000,-283.0,-334.0,261.0,-798.0,254.0,-179.0,0.0,0.0,0.0
19:32:28.777000,-309.0,-330.0,198.0,-798.0,254.0,-179.0,0.0,0.0,0.0
19:32:28.782000,-350.0,-313.0,172.0,-843.0,302.0,-151.0,0.0,0.0,0.0
19:32:28.787000,-393.0,-301.0,226.0,-843.0,302.0,-151.0,0.0,0.0,0.0
19:32:28.791000,-426.0,-278.0,265.0,-881.0,276.0,-124.0,0.0,0.0,0.0
19:32:28.796000,-455.0,-256.0,231.0,-881.0,276.0,-124.0,0.0,0.0,0.0
19:32:28.801000,-480.0,-244.0,151.0,-881.0,276.0,-124.0,0.0,0.0,0.0
19:32:28.805000,-501.0,-254.0,79.0,-947.0,238.0,-110.0,0.0,0.0,0.0
19:32:28.810000,-517.0,-275.0,32.0,-947.0,238.0,-110.0,0.0,0.0,0.0
19:32:28.815000,-534.0,-295.0,14.0,-879.0,237.0,-106.0,0.0,0.0,0.0
19:32:28.820000,-555.0,-310.0,29.0,-879.0,237.0,-106.0,0.0,0.0,0.0
19:32:28.824000,-576.0,-311.0,53.0,-772.0,237.0,-106.0,0.0,0.0,0.0
19:32:28.829000,-597.0,-291.0,60.0,-772.0,237.0,-106.0,0.0,0.0,0.0
19:32:28.834000,-597.0,-291.0,60.0,-823.0,265.0,-105.0,0.0,0.0,0.0
19:32:28.838000,-635.0,-249.0,65.0,-823.0,265.0,-105.0,0.0,0.0,0.0
19:32:28.843000,-727.0,-200.0,82.0,-952.0,361.0,-90.0,0.0,0.0,0.0
19:32:28.848000,-851.0,-196.0,116.0,-952.0,361.0,-90.0,0.0,0.0,0.0
19:32:28.852000,-911.0,-312.0,242.0,-811.0,345.0,-123.0,0.0,0.0,0.0
19:32:28.857000,-870.0,-436.0,436.0,-811.0,345.0,-123.0,0.0,0.0,0.0
19:32:28.862000,-826.0,-476.0,478.0,-402.0,-28.0,-193.0,0.0,0.0,0.0
19:32:28.867000,-758.0,-470.0,511.0,-402.0,-28.0,-193.0,0.0,0.0,0.0
19:32:28.871000,-672.0,-461.0,483.0,-539.0,-178.0,-229.0,0.0,0.0,0.0
19:32:28.876000,-589.0,-465.0,352.0,-539.0,-178.0,-229.0,0.0,0.0,0.0
19:32:28.881000,-538.0,-467.0,172.0,-889.0,75.0,-229.0,0.0,0.0,0.0
19:32:28.885000,-509.0,-501.0,105.0,-889.0,75.0,-229.0,0.0,0.0,0.0
19:32:28.890000,-528.0,-501.0,289.0,-698.0,114.0,-203.0,0.0,0.0,0.0
19:32:28.895000,-539.0,-516.0,494.0,-698.0,114.0,-203.0,0.0,0.0,0.0
19:32:28.899000,-513.0,-530.0,478.0,-698.0,114.0,-203.0,0.0,0.0,0.0
19:32:28.904000,-492.0,-536.0,394.0,-582.0,108.0,-199.0,0.0,0.0,0.0
19:32:28.909000,-476.0,-535.0,392.0,-582.0,108.0,-199.0,0.0,0.0,0.0
19:32:28.914000,-467.0,-529.0,463.0,-619.0,139.0,-200.0,0.0,0.0,0.0
19:32:28.918000,-452.0,-518.0,532.0,-619.0,139.0,-200.0,0.0,0.0,0.0
19:32:28.923000,-429.0,-506.0,552.0,-641.0,70.0,-186.0,0.0,0.0,0.0
19:32:28.928000,-402.0,-491.0,538.0,-641.0,70.0,-186.0,0.0,0.0,0.0
19:32:28.932000,-382.0,-476.0,534.0,-740.0,33.0,-175.0,0.0,0.0,0.0
19:32:28.937000,-369.0,-462.0,551.0,-740.0,33.0,-175.0,0.0,0.0,0.0
19:32:28.942000,-369.0,-462.0,551.0,-744.0,28.0,-158.0,0.0,0.0,0.0
19:32:28.946000,-361.0,-451.0,573.0,-744.0,28.0,-158.0,0.0,0.0,0.0
19:32:28.951000,-357.0,-442.0,585.0,-713.0,42.0,-139.0,0.0,0.0,0.0
19:32:28.956000,-352.0,-435.0,595.0,-713.0,42.0,-139.0,0.0,0.0,0.0
19:32:28.961000,-350.0,-428.0,608.0,-709.0,60.0,-123.0,0.0,0.0,0.0
19:32:28.965000,-352.0,-427.0,628.0,-709.0,60.0,-123.0,0.0,0.0,0.0
19:32:28.970000,-355.0,-429.0,650.0,-710.0,76.0,-106.0,0.0,0.0,0.0
19:32:28.975000,-360.0,-435.0,670.0,-710.0,76.0,-106.0,0.0,0.0,0.0
19:32:28.979000,-365.0,-441.0,691.0,-722.0,87.0,-88.0,0.0,0.0,0.0
19:32:28.984000,-373.0,-446.0,718.0,-722.0,87.0,-88.0,0.0,0.0,0.0
19:32:28.989000,-380.0,-450.0,749.0,-729.0,87.0,-69.0,0.0,0.0,0.0
19:32:28.993000,-385.0,-459.0,774.0,-729.0,87.0,-69.0,0.0,0.0,0.0
19:32:28.998000,-387.0,-468.0,788.0,-741.0,68.0,-52.0,0.0,0.0,0.0
19:32:29.003000,-387.0,-475.0,793.0,-741.0,68.0,-52.0,0.0,0.0,0.0
19:32:29.008000,-385.0,-479.0,798.0,-741.0,68.0,-52.0,0.0,0.0,0.0
19:32:29.012000,-378.0,-478.0,798.0,-787.0,25.0,-41.0,0.0,0.0,0.0
19:32:29.017000,-368.0,-473.0,784.0,-787.0,25.0,-41.0,0.0,0.0,0.0
19:32:29.022000,-355.0,-467.0,754.0,-876.0,-17.0,-41.0,0.0,0.0,0.0
19:32:29.026000,-343.0,-462.0,720.0,-876.0,-17.0,-41.0,0.0,0.0,0.0
19:32:29.031000,-331.0,-455.0,693.0,-969.0,-28.0,-47.0,0.0,0.0,0.0
19:32:29.036000,-317.0,-452.0,674.0,-969.0,-28.0,-47.0,0.0,0.0,0.0
19:32:29.040000,-305.0,-452.0,665.0,-1015.0,-19.0,-53.0,0.0,0.0,0.0
19:32:29.045000,-292.0,-450.0,660.0,-1015.0,-19.0,-53.0,0.0,0.0,0.0
19:32:29.050000,-283.0,-450.0,654.0,-1015.0,0.0,-59.0,0.0,0.0,0.0
19:32:29.055000,-283.0,-450.0,654.0,-1015.0,0.0,-59.0,0.0,0.0,0.0
19:32:29.059000,-281.0,-447.0,648.0,-997.0,39.0,-55.0,0.0,0.0,0.0
19:32:29.064000,-282.0,-445.0,642.0,-997.0,39.0,-55.0,0.0,0.0,0.0
19:32:29.069000,-284.0,-447.0,636.0,-950.0,66.0,-34.0,0.0,0.0,0.0
19:32:29.073000,-285.0,-448.0,629.0,-950.0,66.0,-34.0,0.0,0.0,0.0
19:32:29.078000,-287.0,-447.0,623.0,-877.0,54.0,-8.0,0.0,0.0,0.0
19:32:29.083000,-289.0,-443.0,616.0,-877.0,54.0,-8.0,0.0,0.0,0.0
19:32:29.087000,-296.0,-436.0,604.0,-845.0,47.0,2.0,0.0,0.0,0.0
19:32:29.092000,-305.0,-422.0,585.0,-845.0,47.0,2.0,0.0,0.0,0.0
19:32:29.097000,-315.0,-407.0,565.0,-881.0,68.0,4.0,0.0,0.0,0.0
19:32:29.102000,-323.0,-391.0,547.0,-881.0,68.0,4.0,0.0,0.0,0.0
19:32:29.106000,-324.0,-376.0,531.0,-913.0,74.0,5.0,0.0,0.0,0.0
19:32:29.111000,-318.0,-365.0,514.0,-913.0,74.0,5.0,0.0,0.0,0.0
19:32:29.116000,-308.0,-357.0,501.0,-913.0,74.0,5.0,0.0,0.0,0.0
19:32:29.120000,-295.0,-354.0,497.0,-893.0,52.0,4.0,0.0,0.0,0.0
19:32:29.125000,-281.0,-350.0,504.0,-893.0,52.0,4.0,0.0,0.0,0.0
19:32:29.130000,-267.0,-343.0,522.0,-868.0,30.0,6.0,0.0,0.0,0.0
19:32:29.134000,-258.0,-335.0,551.0,-868.0,30.0,6.0,0.0,0.0,0.0
19:32:29.139000,-247.0,-320.0,588.0,-894.0,4.0,17.0,0.0,0.0,0.0
19:32:29.144000,-243.0,-308.0,604.0,-894.0,4.0,17.0,0.0,0.0,0.0
19:32:29.149000,-244.0,-291.0,637.0,-974.0,-25.0,33.0,0.0,0.0,0.0
19:32:29.153000,-239.0,-271.0,671.0,-974.0,-25.0,33.0,0.0,0.0,0.0
19:32:29.158000,-231.0,-254.0,665.0,-1037.0,-61.0,46.0,0.0,0.0,0.0
19:32:29.163000,-231.0,-254.0,665.0,-1037.0,-61.0,46.0,0.0,0.0,0.0
19:32:29.167000,-220.0,-236.0,627.0,-1087.0,-103.0,50.0,0.0,0.0,0.0
19:32:29.172000,-203.0,-219.0,590.0,-1087.0,-103.0,50.0,0.0,0.0,0.0
19:32:29.177000,-189.0,-200.0,549.0,-1125.0,-155.0,42.0,0.0,0.0,0.0
19:32:29.181000,-166.0,-179.0,515.0,-1125.0,-155.0,42.0,0.0,0.0,0.0
19:32:29.186000,-147.0,-159.0,493.0,-1130.0,-172.0,26.0,0.0,0.0,0.0
19:32:29.191000,-137.0,-137.0,474.0,-1130.0,-172.0,26.0,0.0,0.0,0.0
19:32:29.196000,-123.0,-142.0,445.0,-1156.0,-111.0,9.0,0.0,0.0,0.0
19:32:29.200000,-101.0,-147.0,323.0,-1156.0,-111.0,9.0,0.0,0.0,0.0
19:32:29.205000,-92.0,-166.0,262.0,-1126.0,-49.0,-5.0,0.0,0.0,0.0
19:32:29.210000,-104.0,-146.0,251.0,-1126.0,-49.0,-5.0,0.0,0.0,0.0
19:32:29.214000,-130.0,-137.0,189.0,-1084.0,73.0,-33.0,0.0,0.0,0.0
19:32:29.219000,-138.0,-146.0,70.0,-1084.0,73.0,-33.0,0.0,0.0,0.0
19:32:29.224000,-142.0,-150.0,95.0,-1084.0,167.0,-33.0,0.0,0.0,0.0
19:32:29.228000,-149.0,-137.0,158.0,-1065.0,156.0,-53.0,0.0,0.0,0.0
19:32:29.233000,-158.0,-115.0,213.0,-1065.0,156.0,-53.0,0.0,0.0,0.0
19:32:29.238000,-171.0,-119.0,235.0,-909.0,142.0,-54.0,0.0,0.0,0.0
19:32:29.243000,-140.0,-112.0,207.0,-909.0,142.0,-54.0,0.0,0.0,0.0
19:32:29.247000,-103.0,-126.0,200.0,-758.0,140.0,-68.0,0.0,0.0,0.0
19:32:29.252000,-72.0,-145.0,219.0,-758.0,140.0,-68.0,0.0,0.0,0.0
19:32:29.257000,-50.0,-142.0,230.0,-837.0,84.0,-82.0,0.0,0.0,0.0
19:32:29.261000,-25.0,-133.0,235.0,-837.0,84.0,-82.0,0.0,0.0,0.0
19:32:29.266000,9.0,-124.0,223.0,-996.0,3.0,-102.0,0.0,0.0,0.0
19:32:29.271000,9.0,-124.0,223.0,-996.0,3.0,-102.0,0.0,0.0,0.0
19:32:29.275000,22.0,-114.0,231.0,-1066.0,22.0,-128.0,0.0,0.0,0.0
19:32:29.280000,42.0,-107.0,224.0,-1066.0,22.0,-128.0,0.0,0.0,0.0
19:32:29.285000,65.0,-102.0,210.0,-1071.0,150.0,-148.0,0.0,0.0,0.0
19:32:29.290000,74.0,-98.0,199.0,-1071.0,150.0,-148.0,0.0,0.0,0.0
19:32:29.294000,81.0,-103.0,193.0,-1049.0,244.0,-168.0,0.0,0.0,0.0
19:32:29.299000,105.0,-107.0,229.0,-1049.0,244.0,-168.0,0.0,0.0,0.0
19:32:29.304000,164.0,-119.0,273.0,-1031.0,285.0,-189.0,0.0,0.0,0.0
19:32:29.308000,107.0,-114.0,310.0,-1031.0,285.0,-189.0,0.0,0.0,0.0
19:32:29.313000,86.0,-133.0,336.0,-1040.0,381.0,-200.0,0.0,0.0,0.0
19:32:29.318000,101.0,-134.0,331.0,-1040.0,381.0,-200.0,0.0,0.0,0.0
19:32:29.322000,93.0,-146.0,265.0,-1101.0,484.0,-197.0,0.0,0.0,0.0
19:32:29.327000,62.0,-144.0,178.0,-1101.0,484.0,-197.0,0.0,0.0,0.0
19:32:29.332000,41.0,-166.0,246.0,-1099.0,466.0,-188.0,0.0,0.0,0.0
19:32:29.337000,58.0,-191.0,371.0,-1099.0,466.0,-188.0,0.0,0.0,0.0
19:32:29.341000,55.0,-182.0,390.0,-1099.0,466.0,-188.0,0.0,0.0,0.0
19:32:29.346000,70.0,-176.0,317.0,-1063.0,394.0,-187.0,0.0,0.0,0.0
19:32:29.351000,86.0,-169.0,289.0,-1063.0,394.0,-187.0,0.0,0.0,0.0
19:32:29.355000,94.0,-161.0,335.0,-1132.0,374.0,-206.0,0.0,0.0,0.0
19:32:29.360000,78.0,-158.0,347.0,-1132.0,374.0,-206.0,0.0,0.0,0.0
19:32:29.365000,30.0,-135.0,264.0,-1247.0,459.0,-205.0,0.0,0.0,0.0
19:32:29.369000,70.0,-121.0,188.0,-1247.0,459.0,-205.0,0.0,0.0,0.0
19:32:29.374000,19.0,-117.0,191.0,-1358.0,541.0,-192.0,0.0,0.0,0.0
19:32:29.379000,0.0,-118.0,191.0,-1358.0,541.0,-192.0,0.0,0.0,0.0
19:32:29.384000,0.0,-118.0,191.0,-1387.0,518.0,-191.0,0.0,0.0,0.0
19:32:29.388000,2.0,-102.0,143.0,-1387.0,518.0,-191.0,0.0,0.0,0.0
19:32:29.393000,-48.0,-93.0,186.0,-1348.0,462.0,-183.0,0.0,0.0,0.0
19:32:29.398000,-11.0,-87.0,203.0,-1348.0,462.0,-183.0,0.0,0.0,0.0
19:32:29.402000,23.0,-78.0,123.0,-1340.0,477.0,-176.0,0.0,0.0,0.0
19:32:29.407000,20.0,-66.0,32.0,-1340.0,477.0,-176.0,0.0,0.0,0.0
19:32:29.412000,14.0,-59.0,66.0,-1307.0,487.0,-173.0,0.0,0.0,0.0
19:32:29.416000,13.0,-58.0,144.0,-1307.0,487.0,-173.0,0.0,0.0,0.0
19:32:29.421000,5.0,-51.0,192.0,-1301.0,462.0,-170.0,0.0,0.0,0.0
19:32:29.426000,29.0,-42.0,225.0,-1301.0,462.0,-170.0,0.0,0.0,0.0
19:32:29.431000,101.0,-43.0,219.0,-1351.0,490.0,-167.0,0.0,0.0,0.0
19:32:29.435000,91.0,-20.0,140.0,-1351.0,490.0,-167.0,0.0,0.0,0.0
19:32:29.440000,127.0,2.0,-34.0,-1279.0,493.0,-152.0,0.0,0.0,0.0
19:32:29.445000,120.0,3.0,-154.0,-1279.0,493.0,-152.0,0.0,0.0,0.0
19:32:29.449000,114.0,18.0,-39.0,-1279.0,493.0,-152.0,0.0,0.0,0.0
19:32:29.454000,135.0,22.0,130.0,-1172.0,428.0,-139.0,0.0,0.0,0.0
19:32:29.459000,128.0,26.0,143.0,-1172.0,428.0,-139.0,0.0,0.0,0.0
19:32:29.463000,168.0,21.0,87.0,-1187.0,470.0,-158.0,0.0,0.0,0.0
19:32:29.468000,131.0,4.0,13.0,-1187.0,470.0,-158.0,0.0,0.0,0.0
19:32:29.473000,121.0,14.0,-56.0,-1215.0,603.0,-169.0,0.0,0.0,0.0
19:32:29.478000,83.0,0.0,-60.0,-1215.0,603.0,-169.0,0.0,0.0,0.0
19:32:29.482000,48.0,22.0,-28.0,-1111.0,705.0,-177.0,0.0,0.0,0.0
19:32:29.487000,46.0,14.0,-63.0,-1111.0,705.0,-177.0,0.0,0.0,0.0
19:32:29.492000,46.0,14.0,-63.0,-1081.0,780.0,-207.0,0.0,0.0,0.0
19:32:29.496000,27.0,13.0,-189.0,-1081.0,780.0,-207.0,0.0,0.0,0.0
19:32:29.501000,48.0,15.0,-138.0,-1243.0,718.0,-235.0,0.0,0.0,0.0
19:32:29.506000,65.0,39.0,-190.0,-1243.0,718.0,-235.0,0.0,0.0,0.0
19:32:29.510000,45.0,49.0,-168.0,-1273.0,713.0,-258.0,0.0,0.0,0.0
19:32:29.515000,95.0,66.0,-200.0,-1273.0,713.0,-258.0,0.0,0.0,0.0
19:32:29.520000,97.0,86.0,-115.0,-1233.0,667.0,-279.0,0.0,0.0,0.0
19:32:29.525000,120.0,81.0,93.0,-1233.0,667.0,-279.0,0.0,0.0,0.0
19:32:29.529000,173.0,99.0,147.0,-1185.0,755.0,-300.0,0.0,0.0,0.0
19:32:29.534000,211.0,116.0,142.0,-1185.0,755.0,-300.0,0.0,0.0,0.0
19:32:29.539000,168.0,124.0,215.0,-1178.0,943.0,-316.0,0.0,0.0,0.0
19:32:29.543000,181.0,129.0,266.0,-1178.0,943.0,-316.0,0.0,0.0,0.0
19:32:29.548000,190.0,140.0,365.0,-1299.0,893.0,-320.0,0.0,0.0,0.0
19:32:29.553000,203.0,165.0,471.0,-1299.0,893.0,-320.0,0.0,0.0,0.0
19:32:29.557000,217.0,172.0,469.0,-1299.0,893.0,-320.0,0.0,0.0,0.0
19:32:29.562000,289.0,168.0,489.0,-1385.0,832.0,-305.0,0.0,0.0,0.0
19:32:29.567000,343.0,172.0,562.0,-1385.0,832.0,-305.0,0.0,0.0,0.0
19:32:29.572000,318.0,135.0,697.0,-1285.0,765.0,-278.0,0.0,0.0,0.0
19:32:29.576000,292.0,133.0,798.0,-1285.0,765.0,-278.0,0.0,0.0,0.0
19:32:29.581000,296.0,130.0,564.0,-1136.0,735.0,-265.0,0.0,0.0,0.0
19:32:29.586000,256.0,88.0,221.0,-1136.0,735.0,-265.0,0.0,0.0,0.0
19:32:29.590000,147.0,100.0,477.0,-1188.0,588.0,-242.0,0.0,0.0,0.0
19:32:29.595000,-7.0,98.0,348.0,-1188.0,588.0,-242.0,0.0,0.0,0.0
19:32:29.600000,-7.0,98.0,348.0,-1360.0,498.0,-173.0,0.0,0.0,0.0
19:32:29.604000,-50.0,102.0,-73.0,-1360.0,498.0,-173.0,0.0,0.0,0.0
19:32:29.609000,214.0,145.0,-29.0,-1315.0,294.0,-163.0,0.0,0.0,0.0
19:32:29.614000,183.0,137.0,412.0,-1315.0,294.0,-163.0,0.0,0.0,0.0
19:32:29.619000,2.0,116.0,473.0,-1199.0,-41.0,-139.0,0.0,0.0,0.0
19:32:29.623000,37.0,136.0,630.0,-1199.0,-41.0,-139.0,0.0,0.0,0.0
19:32:29.628000,-48.0,105.0,778.0,-1150.0,-171.0,-19.0,0.0,0.0,0.0
19:32:29.633000,-396.0,91.0,728.0,-1150.0,-171.0,-19.0,0.0,0.0,0.0
19:32:29.637000,-275.0,102.0,655.0,-999.0,-420.0,0.0,0.0,0.0,0.0
19:32:29.642000,-203.0,100.0,478.0,-999.0,-420.0,0.0,0.0,0.0,0.0
19:32:29.647000,-125.0,119.0,291.0,-923.0,-913.0,-44.0,0.0,0.0,0.0
19:32:29.651000,-87.0,177.0,482.0,-923.0,-913.0,-44.0,0.0,0.0,0.0
19:32:29.656000,-319.0,142.0,619.0,-953.0,-956.0,27.0,0.0,0.0,0.0
19:32:29.661000,-97.0,180.0,835.0,-953.0,-956.0,27.0,0.0,0.0,0.0
19:32:29.666000,-39.0,200.0,756.0,-953.0,-956.0,27.0,0.0,0.0,0.0
19:32:29.670000,-92.0,225.0,621.0,-934.0,-782.0,75.0,0.0,0.0,0.0
19:32:29.675000,-233.0,240.0,405.0,-934.0,-782.0,75.0,0.0,0.0,0.0
19:32:29.680000,-149.0,286.0,88.0,-931.0,-847.0,38.0,0.0,0.0,0.0
19:32:29.684000,-118.0,271.0,-272.0,-931.0,-847.0,38.0,0.0,0.0,0.0
19:32:29.689000,-177.0,296.0,-388.0,-1050.0,-654.0,30.0,0.0,0.0,0.0
19:32:29.694000,-104.0,297.0,-112.0,-1050.0,-654.0,30.0,0.0,0.0,0.0
19:32:29.698000,-17.0,273.0,-30.0,-909.0,-589.0,-3.0,0.0,0.0,0.0
19:32:29.703000,-88.0,240.0,-324.0,-909.0,-589.0,-3.0,0.0,0.0,0.0
19:32:29.708000,-24.0,222.0,-365.0,-902.0,-636.0,-39.0,0.0,0.0,0.0
19:32:29.713000,-24.0,222.0,-365.0,-902.0,-636.0,-39.0,0.0,0.0,0.0
19:32:29.717000,151.0,164.0,-169.0,-1051.0,-592.0,-37.0,0.0,0.0,0.0
19:32:29.722000,176.0,74.0,-336.0,-1051.0,-592.0,-37.0,0.0,0.0,0.0
19:32:29.727000,122.0,55.0,-618.0,-733.0,-441.0,-34.0,0.0,0.0,0.0
19:32:29.731000,29.0,44.0,-478.0,-733.0,-441.0,-34.0,0.0,0.0,0.0
19:32:29.736000,-37.0,19.0,-291.0,-510.0,-352.0,-52.0,0.0,0.0,0.0
19:32:29.741000,-124.0,23.0,-268.0,-510.0,-352.0,-52.0,0.0,0.0,0.0
19:32:29.745000,-131.0,33.0,-95.0,-838.0,-482.0,-92.0,0.0,0.0,0.0
19:32:29.750000,-130.0,-28.0,14.0,-838.0,-482.0,-92.0,0.0,0.0,0.0
19:32:29.755000,-93.0,-29.0,-13.0,-1029.0,-474.0,-121.0,0.0,0.0,0.0
19:32:29.760000,-161.0,0.0,109.0,-1029.0,-474.0,-121.0,0.0,0.0,0.0
19:32:29.764000,-210.0,9.0,-113.0,-854.0,-286.0,-132.0,0.0,0.0,0.0
19:32:29.769000,-176.0,14.0,-465.0,-854.0,-286.0,-132.0,0.0,0.0,0.0
19:32:29.774000,-80.0,-9.0,-407.0,-854.0,-286.0,-132.0,0.0,0.0,0.0
19:32:29.778000,-64.0,-31.0,-205.0,-745.0,-457.0,-146.0,0.0,0.0,0.0
19:32:29.783000,-153.0,-61.0,-21.0,-745.0,-457.0,-146.0,0.0,0.0,0.0
19:32:29.788000,-128.0,-95.0,35.0,-691.0,-624.0,-138.0,0.0,0.0,0.0
19:32:29.792000,-42.0,-131.0,-4.0,-691.0,-624.0,-138.0,0.0,0.0,0.0
19:32:29.797000,23.0,-124.0,-165.0,-721.0,-390.0,-138.0,0.0,0.0,0.0
19:32:29.802000,69.0,-149.0,-366.0,-721.0,-390.0,-138.0,0.0,0.0,0.0
19:32:29.807000,44.0,-168.0,-494.0,-884.0,-366.0,-120.0,0.0,0.0,0.0
19:32:29.811000,48.0,-135.0,-516.0,-884.0,-366.0,-120.0,0.0,0.0,0.0
19:32:29.816000,56.0,-145.0,-581.0,-907.0,-410.0,-87.0,0.0,0.0,0.0
19:32:29.821000,56.0,-145.0,-581.0,-907.0,-410.0,-87.0,0.0,0.0,0.0
19:32:29.825000,-14.0,-91.0,-422.0,-882.0,-408.0,-78.0,0.0,0.0,0.0
19:32:29.830000,-63.0,-77.0,-381.0,-882.0,-408.0,-78.0,0.0,0.0,0.0
19:32:29.835000,-63.0,-91.0,-426.0,-1024.0,-415.0,-87.0,0.0,0.0,0.0
19:32:29.839000,3.0,-77.0,-348.0,-1024.0,-415.0,-87.0,0.0,0.0,0.0
19:32:29.844000,143.0,-134.0,-238.0,-1023.0,-428.0,-101.0,0.0,0.0,0.0
19:32:29.849000,106.0,-165.0,-10.0,-1023.0,-428.0,-101.0,0.0,0.0,0.0
19:32:29.854000,12.0,-156.0,0.0,-894.0,-293.0,-79.0,0.0,0.0,0.0
19:32:29.858000,88.0,-159.0,-178.0,-894.0,-293.0,-79.0,0.0,0.0,0.0
19:32:29.863000,126.0,-168.0,-351.0,-934.0,-175.0,-55.0,0.0,0.0,0.0
19:32:29.868000,4.0,-144.0,-361.0,-934.0,-175.0,-55.0,0.0,0.0,0.0
19:32:29.872000,-81.0,-119.0,-377.0,-1008.0,-231.0,-13.0,0.0,0.0,0.0
19:32:29.877000,-58.0,-102.0,-445.0,-1008.0,-231.0,-13.0,0.0,0.0,0.0
19:32:29.882000,-107.0,-37.0,-375.0,-1008.0,-231.0,-13.0,0.0,0.0,0.0
19:32:29.886000,-102.0,-35.0,-432.0,-998.0,-300.0,28.0,0.0,0.0,0.0
19:32:29.891000,-65.0,18.0,-206.0,-998.0,-300.0,28.0,0.0,0.0,0.0
19:32:29.896000,-39.0,23.0,-159.0,-1045.0,-423.0,29.0,0.0,0.0,0.0
19:32:29.901000,-36.0,60.0,-285.0,-1045.0,-423.0,29.0,0.0,0.0,0.0
19:32:29.905000,-21.0,68.0,-207.0,-1079.0,-389.0,23.0,0.0,0.0,0.0
19:32:29.910000,86.0,54.0,-80.0,-1079.0,-389.0,23.0,0.0,0.0,0.0
19:32:29.915000,165.0,40.0,-177.0,-958.0,-253.0,23.0,0.0,0.0,0.0
19:32:29.919000,191.0,53.0,-392.0,-958.0,-253.0,23.0,0.0,0.0,0.0
19:32:29.924000,180.0,59.0,-573.0,-914.0,-190.0,26.0,0.0,0.0,0.0
19:32:29.929000,180.0,59.0,-573.0,-914.0,-190.0,26.0,0.0,0.0,0.0
19:32:29.933000,191.0,71.0,-583.0,-958.0,-246.0,34.0,0.0,0.0,0.0
19:32:29.938000,137.0,81.0,-528.0,-958.0,-246.0,34.0,0.0,0.0,0.0
19:32:29.943000,52.0,103.0,-391.0,-988.0,-323.0,21.0,0.0,0.0,0.0
19:32:29.948000,64.0,86.0,-201.0,-988.0,-323.0,21.0,0.0,0.0,0.0
19:32:29.952000,-25.0,118.0,-220.0,-1047.0,-259.0,3.0,0.0,0.0,0.0
19:32:29.957000,-72.0,182.0,-380.0,-1047.0,-259.0,3.0,0.0,0.0,0.0
19:32:29.962000,-21.0,178.0,-518.0,-1095.0,-245.0,-27.0,0.0,0.0,0.0
19:32:29.966000,81.0,178.0,-462.0,-1095.0,-245.0,-27.0,0.0,0.0,0.0
19:32:29.971000,190.0,152.0,-264.0,-944.0,-255.0,-45.0,0.0,0.0,0.0
19:32:29.976000,249.0,144.0,-103.0,-944.0,-255.0,-45.0,0.0,0.0,0.0
19:32:29.980000,331.0,134.0,-252.0,-881.0,-77.0,-51.0,0.0,0.0,0.0
19:32:29.985000,346.0,156.0,-438.0,-881.0,-77.0,-51.0,0.0,0.0,0.0
19:32:29.990000,253.0,140.0,-480.0,-881.0,-91.0,-53.0,0.0,0.0,0.0
19:32:29.995000,247.0,128.0,-427.0,-1011.0,-91.0,-53.0,0.0,0.0,0.0
19:32:29.999000,264.0,85.0,-449.0,-1011.0,-91.0,-53.0,0.0,0.0,0.0
19:32:30.004000,181.0,99.0,-455.0,-962.0,-187.0,-53.0,0.0,0.0,0.0
19:32:30.009000,88.0,90.0,-535.0,-962.0,-187.0,-53.0,0.0,0.0,0.0
19:32:30.013000,-21.0,107.0,-511.0,-926.0,-101.0,-65.0,0.0,0.0,0.0
19:32:30.018000,-71.0,110.0,-370.0,-926.0,-101.0,-65.0,0.0,0.0,0.0
19:32:30.023000,-126.0,103.0,-248.0,-947.0,-131.0,-82.0,0.0,0.0,0.0
19:32:30.027000,-130.0,136.0,-279.0,-947.0,-131.0,-82.0,0.0,0.0,0.0
19:32:30.032000,-133.0,88.0,-324.0,-1074.0,-268.0,-102.0,0.0,0.0,0.0
19:32:30.037000,-138.0,63.0,-308.0,-1074.0,-268.0,-102.0,0.0,0.0,0.0
19:32:30.042000,-138.0,63.0,-308.0,-1007.0,-287.0,-110.0,0.0,0.0,0.0
19:32:30.046000,-17.0,94.0,-193.0,-1007.0,-287.0,-110.0,0.0,0.0,0.0
19:32:30.051000,33.0,89.0,-143.0,-759.0,-139.0,-102.0,0.0,0.0,0.0
19:32:30.056000,25.0,86.0,-130.0,-759.0,-139.0,-102.0,0.0,0.0,0.0
19:32:30.060000,101.0,82.0,-54.0,-772.0,18.0,-98.0,0.0,0.0,0.0
19:32:30.065000,189.0,42.0,-63.0,-772.0,18.0,-98.0,0.0,0.0,0.0
19:32:30.070000,235.0,1.0,-191.0,-857.0,-3.0,-78.0,0.0,0.0,0.0
19:32:30.074000,189.0,-21.0,-350.0,-857.0,-3.0,-78.0,0.0,0.0,0.0
19:32:30.079000,100.0,-3.0,-465.0,-847.0,-68.0,-40.0,0.0,0.0,0.0
19:32:30.084000,37.0,-7.0,-463.0,-847.0,-68.0,-40.0,0.0,0.0,0.0
19:32:30.089000,-12.0,0.0,-290.0,-874.0,-78.0,-29.0,0.0,0.0,0.0
19:32:30.093000,-74.0,-14.0,-179.0,-874.0,-78.0,-29.0,0.0,0.0,0.0
19:32:30.098000,-84.0,-2.0,-205.0,-1024.0,-151.0,-40.0,0.0,0.0,0.0
19:32:30.103000,-78.0,-2.0,-149.0,-1024.0,-151.0,-40.0,0.0,0.0,0.0
19:32:30.107000,-84.0,-21.0,-70.0,-1024.0,-151.0,-40.0,0.0,0.0,0.0
19:32:30.112000,-43.0,-32.0,21.0,-1052.0,-208.0,-42.0,0.0,0.0,0.0
19:32:30.117000,-23.0,-18.0,43.0,-1052.0,-208.0,-42.0,0.0,0.0,0.0
19:32:30.121000,-44.0,-1.0,7.0,-891.0,-87.0,-36.0,0.0,0.0,0.0
19:32:30.126000,-39.0,-26.0,-88.0,-891.0,-87.0,-36.0,0.0,0.0,0.0
19:32:30.131000,-25.0,-12.0,-189.0,-842.0,26.0,-28.0,0.0,0.0,0.0
19:32:30.136000,51.0,-9.0,-277.0,-842.0,26.0,-28.0,0.0,0.0,0.0
19:32:30.140000,30.0,-4.0,-326.0,-943.0,-111.0,-9.0,0.0,0.0,0.0
19:32:30.145000,13.0,7.0,-246.0,-943.0,-111.0,-9.0,0.0,0.0,0.0
19:32:30.150000,13.0,7.0,-246.0,-1026.0,-245.0,4.0,0.0,0.0,0.0
19:32:30.154000,6.0,2.0,-139.0,-1026.0,-245.0,4.0,0.0,0.0,0.0
19:32:30.159000,-48.0,7.0,-172.0,-1026.0,-147.0,8.0,0.0,0.0,0.0
19:32:30.164000,-30.0,46.0,-193.0,-1026.0,-147.0,8.0,0.0,0.0,0.0
19:32:30.168000,-52.0,23.0,-98.0,-1028.0,-137.0,-1.0,0.0,0.0,0.0
19:32:30.173000,-67.0,28.0,-131.0,-1028.0,-137.0,-1.0,0.0,0.0,0.0
19:32:30.178000,-53.0,32.0,-294.0,-1032.0,-114.0,-6.0,0.0,0.0,0.0
19:32:30.183000,-74.0,23.0,-314.0,-1032.0,-114.0,-6.0,0.0,0.0,0.0
19:32:30.187000,-69.0,44.0,-175.0,-883.0,12.0,0.0,0.0,0.0,0.0
19:32:30.192000,-59.0,48.0,36.0,-883.0,12.0,0.0,0.0,0.0,0.0
19:32:30.197000,29.0,25.0,114.0,-882.0,-21.0,4.0,0.0,0.0,0.0
19:32:30.201000,71.0,7.0,-53.0,-882.0,-21.0,4.0,0.0,0.0,0.0
19:32:30.206000,149.0,-10.0,-275.0,-1006.0,-79.0,0.0,0.0,0.0,0.0
19:32:30.211000,171.0,-13.0,-406.0,-1006.0,-79.0,0.0,0.0,0.0,0.0
19:32:30.215000,112.0,-23.0,-473.0,-1006.0,-79.0,0.0,0.0,0.0,0.0
19:32:30.220000,44.0,12.0,-503.0,-942.0,-76.0,9.0,0.0,0.0,0.0
19:32:30.225000,46.0,39.0,-453.0,-942.0,-53.0,13.0,0.0,0.0,0.0
19:32:30.230000,36.0,21.0,-252.0,-911.0,-53.0,13.0,0.0,0.0,0.0
19:32:30.234000,17.0,-6.0,-99.0,-911.0,-53.0,13.0,0.0,0.0,0.0
19:32:30.239000,-11.0,-23.0,-144.0,-984.0,-83.0,16.0,0.0,0.0,0.0
19:32:30.244000,-16.0,-16.0,-217.0,-984.0,-83.0,16.0,0.0,0.0,0.0
19:32:30.248000,-33.0,-21.0,-229.0,-1014.0,-117.0,16.0,0.0,0.0,0.0
19:32:30.253000,-79.0,0.0,-312.0,-1014.0,-117.0,16.0,0.0,0.0,0.0
19:32:30.258000,-79.0,0.0,-312.0,-1013.0,-70.0,-10.0,0.0,0.0,0.0
19:32:30.262000,-51.0,37.0,-410.0,-1013.0,-70.0,-10.0,0.0,0.0,0.0
19:32:30.267000,17.0,2.0,-298.0,-991.0,-78.0,-27.0,0.0,0.0,0.0
19:32:30.272000,-2.0,-18.0,-161.0,-991.0,-78.0,-27.0,0.0,0.0,0.0
19:32:30.277000,49.0,-46.0,-123.0,-919.0,-14.0,-26.0,0.0,0.0,0.0
19:32:30.281000,18.0,-67.0,-191.0,-919.0,-14.0,-26.0,0.0,0.0,0.0
19:32:30.286000,-39.0,-22.0,-273.0,-842.0,145.0,-33.0,0.0,0.0,0.0
19:32:30.291000,52.0,-30.0,-323.0,-842.0,145.0,-33.0,0.0,0.0,0.0
19:32:30.295000,65.0,-42.0,-336.0,-879.0,14.0,-32.0,0.0,0.0,0.0
19:32:30.300000,42.0,-51.0,-340.0,-879.0,14.0,-32.0,0.0,0.0,0.0
19:32:30.305000,30.0,-51.0,-351.0,-948.0,-96.0,-19.0,0.0,0.0,0.0
19:32:30.309000,-12.0,-38.0,-378.0,-948.0,-96.0,-19.0,0.0,0.0,0.0
19:32:30.314000,-45.0,-2.0,-403.0,-952.0,10.0,-23.0,0.0,0.0,0.0
19:32:30.319000,-46.0,25.0,-451.0,-952.0,10.0,-23.0,0.0,0.0,0.0
19:32:30.324000,-47.0,45.0,-459.0,-952.0,10.0,-23.0,0.0,0.0,0.0
19:32:30.328000,-44.0,56.0,-408.0,-1022.0,-25.0,-35.0,0.0,0.0,0.0
19:32:30.333000,-34.0,67.0,-342.0,-1022.0,-25.0,-35.0,0.0,0.0,0.0
19:32:30.338000,-12.0,84.0,-299.0,-1070.0,-111.0,-51.0,0.0,0.0,0.0
19:32:30.342000,-1.0,91.0,-273.0,-1070.0,-111.0,-51.0,0.0,0.0,0.0
19:32:30.347000,-5.0,100.0,-224.0,-1051.0,-58.0,-65.0,0.0,0.0,0.0
19:32:30.352000,0.0,100.0,-206.0,-1051.0,-58.0,-65.0,0.0,0.0,0.0
19:32:30.356000,0.0,100.0,-206.0,-1051.0,12.0,-62.0,0.0,0.0,0.0
19:32:30.361000,-3.0,114.0,-343.0,-1051.0,12.0,-62.0,0.0,0.0,0.0
19:32:30.366000,-3.0,114.0,-343.0,-1040.0,38.0,-58.0,0.0,0.0,0.0
19:32:30.371000,8.0,121.0,-375.0,-1040.0,38.0,-58.0,0.0,0.0,0.0
19:32:30.375000,18.0,114.0,-294.0,-972.0,28.0,-59.0,0.0,0.0,0.0
19:32:30.380000,13.0,111.0,-246.0,-972.0,28.0,-59.0,0.0,0.0,0.0
19:32:30.385000,29.0,121.0,-259.0,-962.0,26.0,-63.0,0.0,0.0,0.0
19:32:30.389000,42.0,126.0,-282.0,-962.0,26.0,-63.0,0.0,0.0,0.0
19:32:30.394000,35.0,121.0,-300.0,-1014.0,8.0,-63.0,0.0,0.0,0.0
19:32:30.399000,69.0,110.0,-245.0,-1014.0,8.0,-63.0,0.0,0.0,0.0
19:32:30.403000,97.0,104.0,-148.0,-995.0,-9.0,-61.0,0.0,0.0,0.0
19:32:30.408000,106.0,115.0,-86.0,-995.0,-9.0,-61.0,0.0,0.0,0.0
19:32:30.413000,133.0,111.0,-88.0,-1004.0,43.0,-62.0,0.0,0.0,0.0
19:32:30.417000,144.0,102.0,-129.0,-1004.0,43.0,-62.0,0.0,0.0,0.0
19:32:30.422000,153.0,95.0,-192.0,-1046.0,89.0,-56.0,0.0,0.0,0.0
19:32:30.427000,137.0,100.0,-259.0,-1046.0,89.0,-56.0,0.0,0.0,0.0
19:32:30.432000,114.0,120.0,-282.0,-1046.0,89.0,-56.0,0.0,0.0,0.0
19:32:30.436000,82.0,131.0,-272.0,-1078.0,58.0,-51.0,0.0,0.0,0.0
19:32:30.441000,62.0,128.0,-226.0,-1078.0,58.0,-51.0,0.0,0.0,0.0
19:32:30.446000,65.0,128.0,-226.0,-1128.0,28.0,-54.0,0.0,0.0,0.0
19:32:30.450000,58.0,121.0,-290.0,-1128.0,28.0,-54.0,0.0,0.0,0.0
19:32:30.455000,26.0,126.0,-319.0,-1118.0,93.0,-61.0,0.0,0.0,0.0
19:32:30.460000,-26.0,136.0,-312.0,-1118.0,93.0,-61.0,0.0,0.0,0.0
19:32:30.464000,-29.0,137.0,-343.0,-1033.0,169.0,-57.0,0.0,0.0,0.0
19:32:30.469000,-21.0,136.0,-373.0,-1033.0,169.0,-57.0,0.0,0.0,0.0
19:32:30.474000,-20.0,133.0,-396.0,-994.0,143.0,-54.0,0.0,0.0,0.0
19:32:30.479000,-20.0,133.0,-396.0,-994.0,143.0,-54.0,0.0,0.0,0.0
19:32:30.483000,-7.0,136.0,-380.0,-1023.0,70.0,-59.0,0.0,0.0,0.0
19:32:30.488000,14.0,128.0,-362.0,-1023.0,70.0,-59.0,0.0,0.0,0.0
19:32:30.493000,25.0,124.0,-372.0,-1071.0,49.0,-63.0,0.0,0.0,0.0
19:32:30.497000,27.0,118.0,-375.0,-1071.0,49.0,-63.0,0.0,0.0,0.0
19:32:30.502000,18.0,128.0,-346.0,-1082.0,97.0,-66.0,0.0,0.0,0.0
19:32:30.507000,25.0,137.0,-322.0,-1082.0,97.0,-66.0,0.0,0.0,0.0
19:32:30.511000,37.0,146.0,-347.0,-1081.0,145.0,-68.0,0.0,0.0,0.0
19:32:30.516000,51.0,151.0,-374.0,-1081.0,145.0,-68.0,0.0,0.0,0.0
19:32:30.521000,53.0,155.0,-348.0,-1091.0,109.0,-63.0,0.0,0.0,0.0
19:32:30.526000,42.0,162.0,-306.0,-1091.0,109.0,-63.0,0.0,0.0,0.0
19:32:30.530000,42.0,164.0,-305.0,-1082.0,97.0,-59.0,0.0,0.0,0.0
19:32:30.535000,48.0,168.0,-354.0,-1082.0,97.0,-59.0,0.0,0.0,0.0
19:32:30.540000,51.0,172.0,-404.0,-1082.0,97.0,-59.0,0.0,0.0,0.0
19:32:30.544000,50.0,173.0,-413.0,-1077.0,171.0,-59.0,0.0,0.0,0.0
19:32:30.549000,37.0,180.0,-401.0,-1077.0,171.0,-59.0,0.0,0.0,0.0
19:32:30.554000,26.0,188.0,-395.0,-1065.0,200.0,-57.0,0.0,0.0,0.0
19:32:30.558000,16.0,193.0,-406.0,-1065.0,200.0,-57.0,0.0,0.0,0.0
19:32:30.563000,4.0,201.0,-420.0,-1080.0,198.0,-59.0,0.0,0.0,0.0
19:32:30.568000,-9.0,210.0,-430.0,-1080.0,198.0,-59.0,0.0,0.0,0.0
19:32:30.573000,-25.0,216.0,-426.0,-1102.0,217.0,-64.0,0.0,0.0,0.0
19:32:30.577000,-42.0,221.0,-418.0,-1102.0,217.0,-64.0,0.0,0.0,0.0
19:32:30.582000,-60.0,227.0,-417.0,-1091.0,238.0,-66.0,0.0,0.0,0.0
19:32:30.587000,-60.0,227.0,-417.0,-1091.0,238.0,-66.0,0.0,0.0,0.0
19:32:30.591000,-71.0,235.0,-420.0,-1076.0,254.0,-75.0,0.0,0.0,0.0
19:32:30.596000,-80.0,247.0,-434.0,-1076.0,254.0,-75.0,0.0,0.0,0.0
19:32:30.601000,-96.0,256.0,-448.0,-1088.0,255.0,-82.0,0.0,0.0,0.0
19:32:30.605000,-108.0,259.0,-450.0,-1088.0,255.0,-82.0,0.0,0.0,0.0
19:32:30.610000,-109.0,260.0,-430.0,-1087.0,198.0,-91.0,0.0,0.0,0.0
19:32:30.615000,-107.0,261.0,-398.0,-1087.0,198.0,-91.0,0.0,0.0,0.0
19:32:30.620000,-100.0,266.0,-359.0,-1044.0,142.0,-107.0,0.0,0.0,0.0
19:32:30.624000,-88.0,268.0,-336.0,-1044.0,142.0,-107.0,0.0,0.0,0.0
19:32:30.629000,-68.0,269.0,-324.0,-1021.0,185.0,-127.0,0.0,0.0,0.0
19:32:30.634000,-56.0,269.0,-338.0,-1021.0,185.0,-127.0,0.0,0.0,0.0
19:32:30.638000,-57.0,275.0,-379.0,-1041.0,262.0,-144.0,0.0,0.0,0.0
19:32:30.643000,-60.0,280.0,-420.0,-1041.0,262.0,-144.0,0.0,0.0,0.0
19:32:30.648000,-63.0,279.0,-429.0,-1041.0,256.0,-144.0,0.0,0.0,0.0
19:32:30.652000,-61.0,273.0,-401.0,-1031.0,256.0,-145.0,0.0,0.0,0.0
19:32:30.657000,-59.0,267.0,-375.0,-1031.0,256.0,-145.0,0.0,0.0,0.0
19:32:30.662000,-61.0,262.0,-361.0,-1008.0,218.0,-155.0,0.0,0.0,0.0
19:32:30.667000,-66.0,254.0,-348.0,-1008.0,218.0,-155.0,0.0,0.0,0.0
19:32:30.671000,-64.0,248.0,-333.0,-1012.0,216.0,-170.0,0.0,0.0,0.0
19:32:30.676000,-61.0,242.0,-333.0,-1012.0,216.0,-170.0,0.0,0.0,0.0
19:32:30.681000,-60.0,231.0,-352.0,-1008.0,222.0,-180.0,0.0,0.0,0.0
19:32:30.685000,-60.0,220.0,-381.0,-1008.0,222.0,-180.0,0.0,0.0,0.0
19:32:30.690000,-59.0,212.0,-397.0,-973.0,243.0,-190.0,0.0,0.0,0.0
19:32:30.695000,-59.0,212.0,-397.0,-973.0,243.0,-190.0,0.0,0.0,0.0
19:32:30.699000,-55.0,203.0,-403.0,-934.0,264.0,-203.0,0.0,0.0,0.0
19:32:30.704000,-49.0,194.0,-411.0,-934.0,264.0,-203.0,0.0,0.0,0.0
19:32:30.709000,-46.0,187.0,-427.0,-925.0,277.0,-214.0,0.0,0.0,0.0
19:32:30.714000,-44.0,181.0,-431.0,-925.0,277.0,-214.0,0.0,0.0,0.0
19:32:30.718000,-37.0,177.0,-424.0,-925.0,284.0,-220.0,0.0,0.0,0.0
19:32:30.723000,-25.0,172.0,-419.0,-925.0,284.0,-220.0,0.0,0.0,0.0
19:32:30.728000,-16.0,170.0,-417.0,-935.0,296.0,-231.0,0.0,0.0,0.0
19:32:30.732000,-15.0,170.0,-423.0,-935.0,296.0,-231.0,0.0,0.0,0.0
19:32:30.737000,-14.0,166.0,-436.0,-961.0,333.0,-236.0,0.0,0.0,0.0
19:32:30.742000,-11.0,160.0,-447.0,-961.0,333.0,-236.0,0.0,0.0,0.0
19:32:30.746000,-8.0,150.0,-459.0,-964.0,346.0,-235.0,0.0,0.0,0.0
19:32:30.751000,-8.0,142.0,-459.0,-964.0,346.0,-235.0,0.0,0.0,0.0
19:32:30.756000,0.0,132.0,-444.0,-948.0,328.0,-237.0,0.0,0.0,0.0
19:32:30.761000,12.0,122.0,-427.0,-948.0,328.0,-237.0,0.0,0.0,0.0
19:32:30.765000,22.0,114.0,-419.0,-948.0,328.0,-237.0,0.0,0.0,0.0
19:32:30.770000,32.0,109.0,-411.0,-950.0,336.0,-246.0,0.0,0.0,0.0
19:32:30.775000,41.0,105.0,-413.0,-950.0,336.0,-246.0,0.0,0.0,0.0
19:32:30.779000,44.0,102.0,-417.0,-969.0,373.0,-256.0,0.0,0.0,0.0
19:32:30.784000,47.0,105.0,-414.0,-969.0,373.0,-256.0,0.0,0.0,0.0
19:32:30.789000,48.0,109.0,-398.0,-976.0,389.0,-266.0,0.0,0.0,0.0
19:32:30.793000,45.0,116.0,-380.0,-976.0,389.0,-266.0,0.0,0.0,0.0
19:32:30.798000,46.0,123.0,-386.0,-968.0,389.0,-275.0,0.0,0.0,0.0
19:32:30.803000,51.0,133.0,-413.0,-968.0,389.0,-275.0,0.0,0.0,0.0
19:32:30.808000,51.0,133.0,-413.0,-966.0,404.0,-285.0,0.0,0.0,0.0
19:32:30.812000,53.0,141.0,-438.0,-966.0,404.0,-285.0,0.0,0.0,0.0
19:32:30.817000,69.0,151.0,-441.0,-938.0,407.0,-305.0,0.0,0.0,0.0
19:32:30.822000,80.0,163.0,-422.0,-938.0,407.0,-305.0,0.0,0.0,0.0
19:32:30.826000,98.0,184.0,-384.0,-885.0,399.0,-335.0,0.0,0.0,0.0
19:32:30.831000,132.0,191.0,-339.0,-885.0,399.0,-335.0,0.0,0.0,0.0
19:32:30.836000,158.0,196.0,-295.0,-860.0,402.0,-351.0,0.0,0.0,0.0
19:32:30.840000,185.0,199.0,-264.0,-860.0,402.0,-351.0,0.0,0.0,0.0
19:32:30.845000,205.0,198.0,-251.0,-864.0,418.0,-347.0,0.0,0.0,0.0
19:32:30.850000,231.0,189.0,-241.0,-864.0,418.0,-347.0,0.0,0.0,0.0
19:32:30.855000,282.0,172.0,-231.0,-840.0,437.0,-350.0,0.0,0.0,0.0
19:32:30.859000,339.0,151.0,-224.0,-840.0,437.0,-350.0,0.0,0.0,0.0
19:32:30.864000,385.0,139.0,-228.0,-785.0,494.0,-359.0,0.0,0.0,0.0
19:32:30.869000,415.0,137.0,-221.0,-785.0,494.0,-359.0,0.0,0.0,0.0
19:32:30.873000,418.0,143.0,-188.0,-785.0,494.0,-359.0,0.0,0.0,0.0
19:32:30.878000,394.0,149.0,-152.0,-793.0,614.0,-354.0,0.0,0.0,0.0
19:32:30.883000,365.0,146.0,-137.0,-793.0,614.0,-354.0,0.0,0.0,0.0
19:32:30.887000,346.0,142.0,-119.0,-875.0,765.0,-319.0,0.0,0.0,0.0
19:32:30.892000,311.0,137.0,-79.0,-875.0,765.0,-319.0,0.0,0.0,0.0
19:32:30.897000,278.0,132.0,-16.0,-930.0,835.0,-274.0,0.0,0.0,0.0
19:32:30.902000,253.0,121.0,37.0,-930.0,835.0,-274.0,0.0,0.0,0.0
19:32:30.906000,262.0,107.0,72.0,-923.0,768.0,-246.0,0.0,0.0,0.0
19:32:30.911000,249.0,105.0,116.0,-923.0,768.0,-246.0,0.0,0.0,0.0
19:32:30.916000,249.0,105.0,116.0,-905.0,672.0,-235.0,0.0,0.0,0.0
19:32:30.920000,224.0,93.0,174.0,-905.0,672.0,-235.0,0.0,0.0,0.0
19:32:30.925000,197.0,82.0,246.0,-868.0,625.0,-219.0,0.0,0.0,0.0
19:32:30.930000,169.0,69.0,308.0,-868.0,625.0,-219.0,0.0,0.0,0.0
19:32:30.934000,131.0,58.0,319.0,-824.0,646.0,-198.0,0.0,0.0,0.0
19:32:30.939000,62.0,54.0,273.0,-824.0,646.0,-198.0,0.0,0.0,0.0
19:32:30.944000,2.0,51.0,214.0,-788.0,702.0,-181.0,0.0,0.0,0.0
19:32:30.949000,-32.0,51.0,158.0,-788.0,702.0,-181.0,0.0,0.0,0.0
19:32:30.953000,-70.0,53.0,118.0,-794.0,705.0,-173.0,0.0,0.0,0.0
