hh:mm:ss.ms,gyroX[mdps],gyroY[mdps],gyroZ[mdps],accX[mg],accY[mg],accZ[mg],magX[mG],magY[mG],magZ[mG]
19:45:56.038000,-35.0,44.0,-497.0,-1120.0,-533.0,-41.0,0.0,0.0,0.0
19:45:56.042000,-41.0,52.0,-497.0,-1117.0,-504.0,-53.0,0.0,0.0,0.0
19:45:56.047000,-53.0,57.0,-488.0,-1117.0,-504.0,-53.0,0.0,0.0,0.0
19:45:56.052000,-61.0,59.0,-473.0,-1101.0,-469.0,-57.0,0.0,0.0,0.0
19:45:56.056000,-64.0,58.0,-456.0,-1101.0,-469.0,-57.0,0.0,0.0,0.0
19:45:56.061000,-85.0,65.0,-445.0,-1066.0,-449.0,-55.0,0.0,0.0,0.0
19:45:56.065000,-85.0,65.0,-445.0,-1066.0,-449.0,-55.0,0.0,0.0,0.0
19:45:56.070000,-101.0,61.0,-421.0,-1035.0,-433.0,-49.0,0.0,0.0,0.0
19:45:56.075000,-101.0,61.0,-421.0,-1035.0,-433.0,-49.0,0.0,0.0,0.0
19:45:56.080000,-109.0,60.0,-422.0,-1016.0,-434.0,-39.0,0.0,0.0,0.0
19:45:56.085000,-121.0,60.0,-433.0,-1016.0,-434.0,-39.0,0.0,0.0,0.0
19:45:56.089000,-107.0,56.0,-440.0,-1021.0,-444.0,-31.0,0.0,0.0,0.0
19:45:56.094000,-119.0,58.0,-434.0,-1021.0,-444.0,-31.0,0.0,0.0,0.0
19:45:56.099000,-132.0,68.0,-421.0,-1043.0,-434.0,-26.0,0.0,0.0,0.0
19:45:56.103000,-122.0,73.0,-436.0,-1043.0,-434.0,-26.0,0.0,0.0,0.0
19:45:56.108000,-121.0,90.0,-471.0,-1064.0,-417.0,-21.0,0.0,0.0,0.0
19:45:56.113000,-126.0,109.0,-502.0,-1064.0,-417.0,-21.0,0.0,0.0,0.0
19:45:56.117000,-140.0,128.0,-526.0,-1059.0,-422.0,-11.0,0.0,0.0,0.0
19:45:56.122000,-133.0,149.0,-550.0,-1059.0,-422.0,-11.0,0.0,0.0,0.0
19:45:56.127000,-149.0,177.0,-571.0,-1040.0,-449.0,-10.0,0.0,0.0,0.0
19:45:56.132000,-140.0,191.0,-597.0,-1040.0,-449.0,-10.0,0.0,0.0,0.0
19:45:56.136000,-136.0,209.0,-634.0,-1040.0,-449.0,-10.0,0.0,0.0,0.0
19:45:56.141000,-151.0,233.0,-672.0,-1040.0,-405.0,-24.0,0.0,0.0,0.0
19:45:56.146000,-162.0,246.0,-693.0,-1040.0,-405.0,-24.0,0.0,0.0,0.0
19:45:56.150000,-179.0,257.0,-705.0,-1044.0,-357.0,-33.0,0.0,0.0,0.0
19:45:56.155000,-188.0,263.0,-717.0,-1044.0,-357.0,-33.0,0.0,0.0,0.0
19:45:56.160000,-187.0,268.0,-714.0,-1033.0,-348.0,-36.0,0.0,0.0,0.0
19:45:56.164000,-196.0,275.0,-697.0,-1033.0,-348.0,-36.0,0.0,0.0,0.0
19:45:56.169000,-211.0,267.0,-680.0,-997.0,-320.0,-40.0,0.0,0.0,0.0
19:45:56.174000,-228.0,270.0,-664.0,-997.0,-320.0,-40.0,0.0,0.0,0.0
19:45:56.179000,-227.0,276.0,-662.0,-971.0,-282.0,-45.0,0.0,0.0,0.0
19:45:56.183000,-227.0,276.0,-662.0,-971.0,-282.0,-45.0,0.0,0.0,0.0
19:45:56.188000,-256.0,279.0,-641.0,-969.0,-255.0,-51.0,0.0,0.0,0.0
19:45:56.193000,-301.0,271.0,-627.0,-969.0,-255.0,-51.0,0.0,0.0,0.0
19:45:56.197000,-342.0,265.0,-679.0,-1011.0,-232.0,-59.0,0.0,0.0,0.0
19:45:56.202000,-351.0,248.0,-770.0,-1011.0,-232.0,-59.0,0.0,0.0,0.0
19:45:56.207000,-359.0,243.0,-786.0,-1016.0,-212.0,-77.0,0.0,0.0,0.0
19:45:56.211000,-380.0,237.0,-708.0,-1016.0,-212.0,-77.0,0.0,0.0,0.0
19:45:56.216000,-394.0,222.0,-621.0,-957.0,-214.0,-88.0,0.0,0.0,0.0
19:45:56.221000,-394.0,217.0,-620.0,-957.0,-214.0,-88.0,0.0,0.0,0.0
19:45:56.226000,-388.0,206.0,-681.0,-971.0,-164.0,-92.0,0.0,0.0,0.0
19:45:56.230000,-385.0,192.0,-725.0,-971.0,-164.0,-92.0,0.0,0.0,0.0
19:45:56.235000,-373.0,188.0,-743.0,-979.0,-146.0,-93.0,0.0,0.0,0.0
19:45:56.240000,-378.0,170.0,-739.0,-979.0,-146.0,-93.0,0.0,0.0,0.0
19:45:56.244000,-370.0,170.0,-726.0,-979.0,-146.0,-93.0,0.0,0.0,0.0
19:45:56.249000,-341.0,172.0,-730.0,-915.0,-207.0,-94.0,0.0,0.0,0.0
19:45:56.254000,-330.0,167.0,-753.0,-915.0,-207.0,-94.0,0.0,0.0,0.0
19:45:56.258000,-305.0,170.0,-764.0,-878.0,-159.0,-106.0,0.0,0.0,0.0
19:45:56.263000,-301.0,169.0,-742.0,-878.0,-159.0,-106.0,0.0,0.0,0.0
19:45:56.268000,-287.0,164.0,-711.0,-903.0,-68.0,-120.0,0.0,0.0,0.0
19:45:56.273000,-276.0,161.0,-687.0,-903.0,-68.0,-120.0,0.0,0.0,0.0
19:45:56.277000,-269.0,156.0,-665.0,-987.0,-92.0,-132.0,0.0,0.0,0.0
19:45:56.282000,-260.0,158.0,-659.0,-987.0,-92.0,-132.0,0.0,0.0,0.0
19:45:56.287000,-244.0,157.0,-663.0,-1064.0,-150.0,-131.0,0.0,0.0,0.0
19:45:56.291000,-244.0,157.0,-663.0,-1064.0,-150.0,-131.0,0.0,0.0,0.0
19:45:56.296000,-243.0,165.0,-652.0,-1029.0,-164.0,-110.0,0.0,0.0,0.0
19:45:56.300000,-249.0,171.0,-612.0,-1029.0,-164.0,-110.0,0.0,0.0,0.0
19:45:56.305000,-264.0,180.0,-570.0,-977.0,-154.0,-75.0,0.0,0.0,0.0
19:45:56.310000,-261.0,192.0,-559.0,-977.0,-154.0,-75.0,0.0,0.0,0.0
19:45:56.315000,-256.0,202.0,-586.0,-1004.0,-151.0,-64.0,0.0,0.0,0.0
19:45:56.320000,-247.0,211.0,-611.0,-1004.0,-151.0,-64.0,0.0,0.0,0.0
19:45:56.324000,-232.0,215.0,-653.0,-1067.0,-101.0,-79.0,0.0,0.0,0.0
19:45:56.329000,-229.0,210.0,-687.0,-1067.0,-101.0,-79.0,0.0,0.0,0.0
19:45:56.334000,-245.0,205.0,-671.0,-1100.0,-29.0,-77.0,0.0,0.0,0.0
19:45:56.338000,-268.0,210.0,-617.0,-1100.0,-29.0,-77.0,0.0,0.0,0.0
19:45:56.343000,-282.0,212.0,-576.0,-1078.0,9.0,-70.0,0.0,0.0,0.0
19:45:56.348000,-303.0,220.0,-581.0,-1078.0,9.0,-70.0,0.0,0.0,0.0
19:45:56.352000,-330.0,224.0,-611.0,-1078.0,9.0,-70.0,0.0,0.0,0.0
19:45:56.357000,-375.0,238.0,-599.0,-1056.0,49.0,-77.0,0.0,0.0,0.0
19:45:56.362000,-439.0,251.0,-525.0,-1056.0,49.0,-77.0,0.0,0.0,0.0
19:45:56.367000,-506.0,275.0,-474.0,-1064.0,86.0,-82.0,0.0,0.0,0.0
19:45:56.371000,-571.0,308.0,-476.0,-1064.0,86.0,-82.0,0.0,0.0,0.0
19:45:56.376000,-639.0,336.0,-482.0,-1073.0,145.0,-96.0,0.0,0.0,0.0
19:45:56.381000,-711.0,362.0,-460.0,-1073.0,145.0,-96.0,0.0,0.0,0.0
19:45:56.385000,-711.0,362.0,-460.0,-1054.0,217.0,-112.0,0.0,0.0,0.0
19:45:56.390000,-846.0,429.0,-417.0,-1054.0,217.0,-112.0,0.0,0.0,0.0
19:45:56.395000,-893.0,459.0,-434.0,-1018.0,234.0,-123.0,0.0,0.0,0.0
19:45:56.399000,-893.0,459.0,-434.0,-1018.0,234.0,-123.0,0.0,0.0,0.0
19:45:56.404000,-937.0,485.0,-445.0,-980.0,195.0,-139.0,0.0,0.0,0.0
19:45:56.409000,-975.0,506.0,-429.0,-980.0,195.0,-139.0,0.0,0.0,0.0
19:45:56.414000,-1004.0,525.0,-408.0,-930.0,123.0,-154.0,0.0,0.0,0.0
19:45:56.418000,-1019.0,546.0,-438.0,-930.0,123.0,-154.0,0.0,0.0,0.0
19:45:56.423000,-1033.0,567.0,-499.0,-887.0,105.0,-181.0,0.0,0.0,0.0
19:45:56.428000,-1047.0,583.0,-555.0,-887.0,105.0,-181.0,0.0,0.0,0.0
19:45:56.432000,-1067.0,600.0,-564.0,-869.0,136.0,-203.0,0.0,0.0,0.0
19:45:56.437000,-1083.0,616.0,-538.0,-869.0,136.0,-203.0,0.0,0.0,0.0
19:45:56.442000,-1099.0,640.0,-527.0,-884.0,149.0,-223.0,0.0,0.0,0.0
19:45:56.446000,-1114.0,665.0,-557.0,-884.0,149.0,-223.0,0.0,0.0,0.0
19:45:56.451000,-1120.0,683.0,-602.0,-909.0,149.0,-238.0,0.0,0.0,0.0
19:45:56.456000,-1120.0,700.0,-616.0,-909.0,149.0,-238.0,0.0,0.0,0.0
19:45:56.460000,-1112.0,714.0,-611.0,-847.0,122.0,-243.0,0.0,0.0,0.0
19:45:56.465000,-1094.0,725.0,-621.0,-869.0,122.0,-243.0,0.0,0.0,0.0
19:45:56.470000,-1071.0,732.0,-639.0,-869.0,122.0,-243.0,0.0,0.0,0.0
19:45:56.475000,-1045.0,732.0,-635.0,-805.0,104.0,-252.0,0.0,0.0,0.0
19:45:56.479000,-1013.0,727.0,-618.0,-805.0,104.0,-252.0,0.0,0.0,0.0
19:45:56.484000,-984.0,721.0,-595.0,-787.0,97.0,-266.0,0.0,0.0,0.0
19:45:56.489000,-963.0,716.0,-556.0,-787.0,97.0,-266.0,0.0,0.0,0.0
19:45:56.493000,-947.0,711.0,-519.0,-809.0,99.0,-278.0,0.0,0.0,0.0
19:45:56.498000,-944.0,714.0,-474.0,-809.0,99.0,-278.0,0.0,0.0,0.0
19:45:56.503000,-952.0,720.0,-421.0,-850.0,155.0,-285.0,0.0,0.0,0.0
19:45:56.507000,-970.0,730.0,-378.0,-850.0,155.0,-285.0,0.0,0.0,0.0
19:45:56.512000,-970.0,730.0,-378.0,-893.0,237.0,-282.0,0.0,0.0,0.0
19:45:56.517000,-995.0,742.0,-337.0,-893.0,237.0,-282.0,0.0,0.0,0.0
19:45:56.522000,-1022.0,759.0,-301.0,-915.0,286.0,-269.0,0.0,0.0,0.0
19:45:56.526000,-1045.0,781.0,-272.0,-915.0,286.0,-269.0,0.0,0.0,0.0
19:45:56.531000,-1062.0,803.0,-245.0,-921.0,277.0,-263.0,0.0,0.0,0.0
19:45:56.535000,-1068.0,825.0,-219.0,-921.0,277.0,-263.0,0.0,0.0,0.0
19:45:56.540000,-1059.0,849.0,-197.0,-936.0,208.0,-268.0,0.0,0.0,0.0
19:45:56.545000,-1033.0,871.0,-178.0,-936.0,208.0,-268.0,0.0,0.0,0.0
19:45:56.550000,-996.0,893.0,-163.0,-945.0,102.0,-277.0,0.0,0.0,0.0
19:45:56.554000,-951.0,915.0,-144.0,-945.0,102.0,-277.0,0.0,0.0,0.0
19:45:56.559000,-901.0,938.0,-123.0,-927.0,21.0,-277.0,0.0,0.0,0.0
19:45:56.564000,-856.0,961.0,-102.0,-927.0,21.0,-277.0,0.0,0.0,0.0
19:45:56.569000,-816.0,985.0,-74.0,-903.0,10.0,-273.0,0.0,0.0,0.0
19:45:56.573000,-788.0,1008.0,-39.0,-903.0,10.0,-273.0,0.0,0.0,0.0
19:45:56.578000,-770.0,1033.0,-11.0,-903.0,10.0,-273.0,0.0,0.0,0.0
19:45:56.583000,-765.0,1059.0,9.0,-911.0,60.0,-271.0,0.0,0.0,0.0
19:45:56.587000,-770.0,1085.0,25.0,-911.0,60.0,-271.0,0.0,0.0,0.0
19:45:56.592000,-783.0,1109.0,37.0,-920.0,125.0,-271.0,0.0,0.0,0.0
19:45:56.597000,-802.0,1133.0,47.0,-920.0,125.0,-271.0,0.0,0.0,0.0
19:45:56.601000,-823.0,1153.0,57.0,-887.0,162.0,-272.0,0.0,0.0,0.0
19:45:56.606000,-841.0,1169.0,57.0,-887.0,162.0,-272.0,0.0,0.0,0.0
19:45:56.611000,-855.0,1182.0,52.0,-837.0,164.0,-270.0,0.0,0.0,0.0
19:45:56.616000,-862.0,1194.0,38.0,-837.0,164.0,-270.0,0.0,0.0,0.0
19:45:56.620000,-862.0,1194.0,38.0,-784.0,139.0,-269.0,0.0,0.0,0.0
19:45:56.625000,-862.0,1206.0,21.0,-784.0,139.0,-269.0,0.0,0.0,0.0
19:45:56.630000,-856.0,1220.0,3.0,-747.0,94.0,-285.0,0.0,0.0,0.0
19:45:56.634000,-848.0,1240.0,-16.0,-747.0,94.0,-285.0,0.0,0.0,0.0
19:45:56.639000,-842.0,1264.0,-39.0,-754.0,70.0,-308.0,0.0,0.0,0.0
19:45:56.644000,-838.0,1287.0,-58.0,-754.0,70.0,-308.0,0.0,0.0,0.0
19:45:56.648000,-834.0,1308.0,-78.0,-766.0,70.0,-329.0,0.0,0.0,0.0
19:45:56.653000,-827.0,1323.0,-102.0,-766.0,70.0,-329.0,0.0,0.0,0.0
19:45:56.658000,-819.0,1336.0,-123.0,-737.0,55.0,-351.0,0.0,0.0,0.0
19:45:56.663000,-810.0,1346.0,-131.0,-737.0,55.0,-351.0,0.0,0.0,0.0
19:45:56.667000,-805.0,1354.0,-126.0,-671.0,27.0,-371.0,0.0,0.0,0.0
19:45:56.672000,-805.0,1360.0,-114.0,-671.0,27.0,-371.0,0.0,0.0,0.0
19:45:56.677000,-812.0,1363.0,-99.0,-597.0,25.0,-381.0,0.0,0.0,0.0
19:45:56.681000,-826.0,1367.0,-79.0,-597.0,25.0,-381.0,0.0,0.0,0.0
19:45:56.686000,-843.0,1368.0,-53.0,-597.0,25.0,-381.0,0.0,0.0,0.0
19:45:56.691000,-863.0,1364.0,-27.0,-549.0,47.0,-393.0,0.0,0.0,0.0
19:45:56.695000,-879.0,1355.0,-7.0,-549.0,47.0,-393.0,0.0,0.0,0.0
19:45:56.700000,-892.0,1342.0,8.0,-529.0,52.0,-413.0,0.0,0.0,0.0
19:45:56.705000,-899.0,1325.0,23.0,-529.0,52.0,-413.0,0.0,0.0,0.0
19:45:56.710000,-898.0,1306.0,35.0,-493.0,20.0,-432.0,0.0,0.0,0.0
19:45:56.714000,-891.0,1284.0,37.0,-493.0,20.0,-432.0,0.0,0.0,0.0
19:45:56.719000,-884.0,1261.0,31.0,-417.0,-23.0,-448.0,0.0,0.0,0.0
19:45:56.724000,-879.0,1235.0,19.0,-417.0,-23.0,-448.0,0.0,0.0,0.0
19:45:56.728000,-879.0,1235.0,19.0,-363.0,-26.0,-463.0,0.0,0.0,0.0
19:45:56.733000,-877.0,1207.0,10.0,-363.0,-26.0,-463.0,0.0,0.0,0.0
19:45:56.738000,-874.0,1176.0,8.0,-339.0,-9.0,-467.0,0.0,0.0,0.0
19:45:56.742000,-868.0,1141.0,10.0,-339.0,-9.0,-467.0,0.0,0.0,0.0
19:45:56.747000,-860.0,1105.0,19.0,-289.0,-28.0,-467.0,0.0,0.0,0.0
19:45:56.752000,-845.0,1075.0,38.0,-289.0,-28.0,-467.0,0.0,0.0,0.0
19:45:56.757000,-829.0,1052.0,63.0,-248.0,-65.0,-487.0,0.0,0.0,0.0
19:45:56.761000,-812.0,1033.0,88.0,-248.0,-65.0,-487.0,0.0,0.0,0.0
19:45:56.766000,-793.0,1013.0,116.0,-253.0,-98.0,-518.0,0.0,0.0,0.0
19:45:56.770000,-774.0,997.0,148.0,-253.0,-98.0,-518.0,0.0,0.0,0.0
19:45:56.775000,-753.0,990.0,180.0,-247.0,-137.0,-550.0,0.0,0.0,0.0
19:45:56.780000,-734.0,990.0,212.0,-247.0,-137.0,-550.0,0.0,0.0,0.0
19:45:56.785000,-716.0,991.0,238.0,-220.0,-182.0,-581.0,0.0,0.0,0.0
19:45:56.789000,-703.0,998.0,256.0,-220.0,-182.0,-581.0,0.0,0.0,0.0
19:45:56.794000,-694.0,1005.0,264.0,-220.0,-182.0,-581.0,0.0,0.0,0.0
19:45:56.799000,-692.0,1019.0,252.0,-207.0,-198.0,-609.0,0.0,0.0,0.0
19:45:56.804000,-698.0,1029.0,225.0,-207.0,-198.0,-609.0,0.0,0.0,0.0
19:45:56.808000,-708.0,1035.0,198.0,-204.0,-166.0,-625.0,0.0,0.0,0.0
19:45:56.813000,-713.0,1038.0,178.0,-204.0,-166.0,-625.0,0.0,0.0,0.0
19:45:56.818000,-706.0,1040.0,154.0,-166.0,-161.0,-627.0,0.0,0.0,0.0
19:45:56.822000,-686.0,1039.0,116.0,-166.0,-161.0,-627.0,0.0,0.0,0.0
19:45:56.827000,-655.0,1032.0,68.0,-105.0,-225.0,-638.0,0.0,0.0,0.0
19:45:56.832000,-614.0,1021.0,21.0,-105.0,-225.0,-638.0,0.0,0.0,0.0
19:45:56.836000,-614.0,1021.0,21.0,-86.0,-291.0,-666.0,0.0,0.0,0.0
19:45:56.841000,-565.0,1008.0,-21.0,-86.0,-291.0,-666.0,0.0,0.0,0.0
19:45:56.845000,-510.0,996.0,-64.0,-96.0,-327.0,-707.0,0.0,0.0,0.0
19:45:56.851000,-454.0,985.0,-108.0,-96.0,-327.0,-707.0,0.0,0.0,0.0
19:45:56.855000,-403.0,979.0,-152.0,-110.0,-317.0,-766.0,0.0,0.0,0.0
19:45:56.860000,-355.0,970.0,-191.0,-110.0,-317.0,-766.0,0.0,0.0,0.0
19:45:56.865000,-303.0,959.0,-223.0,-101.0,-283.0,-836.0,0.0,0.0,0.0
19:45:56.869000,-248.0,943.0,-261.0,-101.0,-283.0,-836.0,0.0,0.0,0.0
19:45:56.874000,-196.0,926.0,-310.0,-39.0,-264.0,-892.0,0.0,0.0,0.0
19:45:56.879000,-158.0,907.0,-354.0,-39.0,-264.0,-892.0,0.0,0.0,0.0
19:45:56.883000,-133.0,883.0,-380.0,42.0,-201.0,-926.0,0.0,0.0,0.0
19:45:56.888000,-117.0,856.0,-399.0,42.0,-201.0,-926.0,0.0,0.0,0.0
19:45:56.893000,-112.0,831.0,-424.0,117.0,-104.0,-936.0,0.0,0.0,0.0
19:45:56.898000,-116.0,808.0,-463.0,117.0,-104.0,-936.0,0.0,0.0,0.0
19:45:56.902000,-131.0,793.0,-492.0,187.0,-28.0,-933.0,0.0,0.0,0.0
19:45:56.907000,-149.0,786.0,-492.0,187.0,-28.0,-933.0,0.0,0.0,0.0
19:45:56.912000,-156.0,784.0,-490.0,187.0,-28.0,-933.0,0.0,0.0,0.0
19:45:56.916000,-154.0,789.0,-506.0,188.0,6.0,-940.0,0.0,0.0,0.0
19:45:56.921000,-156.0,802.0,-556.0,188.0,6.0,-940.0,0.0,0.0,0.0
19:45:56.926000,-160.0,816.0,-641.0,94.0,-10.0,-958.0,0.0,0.0,0.0
19:45:56.930000,-168.0,836.0,-718.0,94.0,-10.0,-958.0,0.0,0.0,0.0
19:45:56.935000,-184.0,858.0,-763.0,29.0,7.0,-973.0,0.0,0.0,0.0
19:45:56.940000,-205.0,875.0,-797.0,29.0,7.0,-973.0,0.0,0.0,0.0
19:45:56.945000,-224.0,885.0,-842.0,27.0,53.0,-980.0,0.0,0.0,0.0
19:45:56.949000,-224.0,885.0,-842.0,27.0,53.0,-980.0,0.0,0.0,0.0
19:45:56.954000,-242.0,891.0,-892.0,62.0,61.0,-988.0,0.0,0.0,0.0
19:45:56.959000,-259.0,891.0,-928.0,62.0,61.0,-988.0,0.0,0.0,0.0
19:45:56.963000,-280.0,887.0,-948.0,135.0,59.0,-998.0,0.0,0.0,0.0
19:45:56.968000,-305.0,878.0,-970.0,135.0,59.0,-998.0,0.0,0.0,0.0
19:45:56.973000,-338.0,864.0,-1000.0,173.0,83.0,-996.0,0.0,0.0,0.0
19:45:56.977000,-375.0,844.0,-1021.0,173.0,83.0,-996.0,0.0,0.0,0.0
19:45:56.982000,-420.0,816.0,-1015.0,198.0,111.0,-984.0,0.0,0.0,0.0
19:45:56.987000,-466.0,781.0,-999.0,198.0,111.0,-984.0,0.0,0.0,0.0
19:45:56.992000,-513.0,741.0,-987.0,262.0,126.0,-969.0,0.0,0.0,0.0
19:45:56.996000,-565.0,704.0,-980.0,262.0,126.0,-969.0,0.0,0.0,0.0
19:45:57.001000,-621.0,669.0,-975.0,320.0,155.0,-953.0,0.0,0.0,0.0
19:45:57.005000,-684.0,637.0,-959.0,320.0,155.0,-953.0,0.0,0.0,0.0
19:45:57.010000,-753.0,606.0,-937.0,320.0,155.0,-953.0,0.0,0.0,0.0
19:45:57.015000,-828.0,582.0,-921.0,316.0,192.0,-932.0,0.0,0.0,0.0
19:45:57.020000,-910.0,564.0,-913.0,316.0,192.0,-932.0,0.0,0.0,0.0
19:45:57.024000,-993.0,550.0,-905.0,257.0,210.0,-910.0,0.0,0.0,0.0
19:45:57.029000,-1080.0,542.0,-891.0,257.0,210.0,-910.0,0.0,0.0,0.0
19:45:57.034000,-1167.0,536.0,-888.0,216.0,210.0,-891.0,0.0,0.0,0.0
19:45:57.039000,-1257.0,536.0,-906.0,216.0,210.0,-891.0,0.0,0.0,0.0
19:45:57.043000,-1351.0,537.0,-926.0,188.0,211.0,-877.0,0.0,0.0,0.0
19:45:57.048000,-1442.0,537.0,-929.0,188.0,211.0,-877.0,0.0,0.0,0.0
19:45:57.053000,-1530.0,530.0,-917.0,148.0,181.0,-863.0,0.0,0.0,0.0
19:45:57.057000,-1530.0,530.0,-917.0,148.0,181.0,-863.0,0.0,0.0,0.0
19:45:57.062000,-1613.0,518.0,-903.0,130.0,108.0,-843.0,0.0,0.0,0.0
19:45:57.067000,-1696.0,499.0,-897.0,130.0,108.0,-843.0,0.0,0.0,0.0
19:45:57.071000,-1776.0,475.0,-897.0,149.0,35.0,-819.0,0.0,0.0,0.0
19:45:57.076000,-1849.0,446.0,-899.0,149.0,35.0,-819.0,0.0,0.0,0.0
19:45:57.081000,-1914.0,405.0,-919.0,199.0,-45.0,-789.0,0.0,0.0,0.0
19:45:57.086000,-1980.0,359.0,-942.0,199.0,-45.0,-789.0,0.0,0.0,0.0
19:45:57.090000,-2039.0,310.0,-955.0,252.0,-133.0,-758.0,0.0,0.0,0.0
19:45:57.095000,-2094.0,258.0,-973.0,252.0,-133.0,-758.0,0.0,0.0,0.0
19:45:57.100000,-2144.0,207.0,-1003.0,252.0,-204.0,-728.0,0.0,0.0,0.0
19:45:57.104000,-2187.0,156.0,-1040.0,252.0,-204.0,-728.0,0.0,0.0,0.0
19:45:57.109000,-2229.0,106.0,-1074.0,210.0,-278.0,-705.0,0.0,0.0,0.0
19:45:57.114000,-2265.0,59.0,-1104.0,210.0,-278.0,-705.0,0.0,0.0,0.0
19:45:57.118000,-2301.0,16.0,-1127.0,210.0,-278.0,-705.0,0.0,0.0,0.0
19:45:57.123000,-2338.0,-22.0,-1153.0,175.0,-345.0,-688.0,0.0,0.0,0.0
19:45:57.128000,-2369.0,-56.0,-1182.0,175.0,-345.0,-688.0,0.0,0.0,0.0
19:45:57.133000,-2401.0,-86.0,-1231.0,115.0,-403.0,-674.0,0.0,0.0,0.0
19:45:57.137000,-2436.0,-121.0,-1294.0,115.0,-403.0,-674.0,0.0,0.0,0.0
19:45:57.142000,-2471.0,-162.0,-1360.0,34.0,-445.0,-651.0,0.0,0.0,0.0
19:45:57.147000,-2506.0,-205.0,-1404.0,34.0,-445.0,-651.0,0.0,0.0,0.0
19:45:57.151000,-2535.0,-249.0,-1427.0,-2.0,-486.0,-623.0,0.0,0.0,0.0
19:45:57.156000,-2554.0,-291.0,-1436.0,-2.0,-486.0,-623.0,0.0,0.0,0.0
19:45:57.161000,-2576.0,-322.0,-1437.0,0.0,-574.0,-606.0,0.0,0.0,0.0
19:45:57.165000,-2576.0,-322.0,-1437.0,0.0,-574.0,-606.0,0.0,0.0,0.0
19:45:57.170000,-2597.0,-343.0,-1435.0,-15.0,-627.0,-605.0,0.0,0.0,0.0
19:45:57.175000,-2620.0,-361.0,-1428.0,-15.0,-627.0,-605.0,0.0,0.0,0.0
19:45:57.180000,-2647.0,-378.0,-1408.0,-76.0,-633.0,-608.0,0.0,0.0,0.0
19:45:57.184000,-2669.0,-394.0,-1390.0,-76.0,-633.0,-608.0,0.0,0.0,0.0
19:45:57.189000,-2678.0,-405.0,-1376.0,-133.0,-706.0,-619.0,0.0,0.0,0.0
19:45:57.194000,-2679.0,-415.0,-1351.0,-133.0,-706.0,-619.0,0.0,0.0,0.0
19:45:57.198000,-2720.0,-401.0,-1300.0,-99.0,-895.0,-618.0,0.0,0.0,0.0
19:45:57.203000,-2760.0,-368.0,-1231.0,-99.0,-895.0,-618.0,0.0,0.0,0.0
19:45:57.208000,-2639.0,-382.0,-1320.0,-164.0,-917.0,-657.0,0.0,0.0,0.0
19:45:57.212000,-2564.0,-391.0,-1500.0,-164.0,-917.0,-657.0,0.0,0.0,0.0
19:45:57.217000,-2589.0,-392.0,-1508.0,-300.0,-819.0,-673.0,0.0,0.0,0.0
19:45:57.222000,-2556.0,-406.0,-1465.0,-300.0,-819.0,-673.0,0.0,0.0,0.0
19:45:57.227000,-2531.0,-389.0,-1477.0,-300.0,-918.0,-673.0,0.0,0.0,0.0
19:45:57.231000,-2492.0,-385.0,-1523.0,-329.0,-918.0,-644.0,0.0,0.0,0.0
19:45:57.236000,-2452.0,-410.0,-1565.0,-329.0,-918.0,-644.0,0.0,0.0,0.0
19:45:57.240000,-2401.0,-427.0,-1550.0,-344.0,-1034.0,-652.0,0.0,0.0,0.0
19:45:57.245000,-2370.0,-417.0,-1483.0,-344.0,-1034.0,-652.0,0.0,0.0,0.0
19:45:57.250000,-2342.0,-410.0,-1451.0,-352.0,-1082.0,-662.0,0.0,0.0,0.0
19:45:57.255000,-2310.0,-380.0,-1626.0,-352.0,-1082.0,-662.0,0.0,0.0,0.0
19:45:57.259000,-2294.0,-381.0,-1710.0,-435.0,-1064.0,-662.0,0.0,0.0,0.0
19:45:57.264000,-2270.0,-423.0,-1643.0,-435.0,-1064.0,-662.0,0.0,0.0,0.0
19:45:57.269000,-2216.0,-425.0,-1579.0,-481.0,-1091.0,-636.0,0.0,0.0,0.0
19:45:57.274000,-2216.0,-425.0,-1579.0,-481.0,-1091.0,-636.0,0.0,0.0,0.0
19:45:57.278000,-2119.0,-459.0,-1581.0,-468.0,-1115.0,-609.0,0.0,0.0,0.0
19:45:57.283000,-2063.0,-470.0,-1555.0,-468.0,-1115.0,-609.0,0.0,0.0,0.0
19:45:57.288000,-1994.0,-486.0,-1463.0,-483.0,-1085.0,-586.0,0.0,0.0,0.0
19:45:57.292000,-1944.0,-443.0,-1337.0,-483.0,-1085.0,-586.0,0.0,0.0,0.0
19:45:57.297000,-1890.0,-458.0,-1354.0,-433.0,-1066.0,-548.0,0.0,0.0,0.0
19:45:57.302000,-1797.0,-461.0,-1444.0,-433.0,-1066.0,-548.0,0.0,0.0,0.0
19:45:57.306000,-1766.0,-476.0,-1458.0,-343.0,-953.0,-492.0,0.0,0.0,0.0
19:45:57.311000,-1771.0,-463.0,-1301.0,-343.0,-953.0,-492.0,0.0,0.0,0.0
19:45:57.316000,-1717.0,-461.0,-1168.0,-378.0,-875.0,-441.0,0.0,0.0,0.0
19:45:57.321000,-1686.0,-447.0,-1143.0,-378.0,-875.0,-441.0,0.0,0.0,0.0
19:45:57.325000,-1648.0,-440.0,-1124.0,-531.0,-931.0,-395.0,0.0,0.0,0.0
19:45:57.330000,-1587.0,-413.0,-998.0,-531.0,-931.0,-395.0,0.0,0.0,0.0
19:45:57.335000,-1508.0,-406.0,-982.0,-651.0,-947.0,-370.0,0.0,0.0,0.0
19:45:57.339000,-1460.0,-409.0,-1036.0,-651.0,-947.0,-370.0,0.0,0.0,0.0
19:45:57.344000,-1451.0,-404.0,-1019.0,-651.0,-947.0,-370.0,0.0,0.0,0.0
19:45:57.349000,-1394.0,-398.0,-975.0,-716.0,-935.0,-348.0,0.0,0.0,0.0
19:45:57.353000,-1343.0,-378.0,-936.0,-716.0,-935.0,-348.0,0.0,0.0,0.0
19:45:57.358000,-1297.0,-365.0,-899.0,-715.0,-1012.0,-309.0,0.0,0.0,0.0
19:45:57.363000,-1227.0,-341.0,-922.0,-715.0,-1012.0,-309.0,0.0,0.0,0.0
19:45:57.368000,-1129.0,-320.0,-933.0,-730.0,-1102.0,-261.0,0.0,0.0,0.0
19:45:57.372000,-1057.0,-296.0,-833.0,-730.0,-1102.0,-261.0,0.0,0.0,0.0
19:45:57.377000,-1008.0,-285.0,-798.0,-605.0,-1053.0,-218.0,0.0,0.0,0.0
19:45:57.382000,-995.0,-256.0,-889.0,-605.0,-1053.0,-218.0,0.0,0.0,0.0
19:45:57.386000,-995.0,-256.0,-889.0,-520.0,-863.0,-193.0,0.0,0.0,0.0
19:45:57.391000,-1011.0,-221.0,-908.0,-520.0,-863.0,-193.0,0.0,0.0,0.0
19:45:57.396000,-983.0,-195.0,-874.0,-659.0,-857.0,-186.0,0.0,0.0,0.0
19:45:57.400000,-936.0,-180.0,-833.0,-659.0,-857.0,-186.0,0.0,0.0,0.0
19:45:57.405000,-898.0,-170.0,-786.0,-818.0,-931.0,-199.0,0.0,0.0,0.0
19:45:57.410000,-862.0,-161.0,-754.0,-818.0,-931.0,-199.0,0.0,0.0,0.0
19:45:57.415000,-837.0,-154.0,-723.0,-887.0,-880.0,-191.0,0.0,0.0,0.0
19:45:57.419000,-821.0,-149.0,-653.0,-887.0,-880.0,-191.0,0.0,0.0,0.0
19:45:57.424000,-800.0,-141.0,-563.0,-780.0,-849.0,-172.0,0.0,0.0,0.0
19:45:57.429000,-760.0,-137.0,-507.0,-780.0,-849.0,-172.0,0.0,0.0,0.0
19:45:57.433000,-742.0,-128.0,-482.0,-681.0,-817.0,-146.0,0.0,0.0,0.0
19:45:57.438000,-712.0,-116.0,-457.0,-681.0,-817.0,-146.0,0.0,0.0,0.0
19:45:57.443000,-676.0,-102.0,-424.0,-669.0,-814.0,-126.0,0.0,0.0,0.0
19:45:57.447000,-635.0,-85.0,-410.0,-669.0,-814.0,-126.0,0.0,0.0,0.0
19:45:57.452000,-591.0,-72.0,-410.0,-739.0,-840.0,-121.0,0.0,0.0,0.0
19:45:57.457000,-547.0,-64.0,-407.0,-739.0,-840.0,-121.0,0.0,0.0,0.0
19:45:57.462000,-505.0,-65.0,-392.0,-739.0,-840.0,-121.0,0.0,0.0,0.0
19:45:57.466000,-467.0,-67.0,-371.0,-870.0,-843.0,-121.0,0.0,0.0,0.0
19:45:57.471000,-432.0,-64.0,-358.0,-870.0,-843.0,-121.0,0.0,0.0,0.0
19:45:57.475000,-401.0,-61.0,-361.0,-928.0,-830.0,-132.0,0.0,0.0,0.0
19:45:57.480000,-375.0,-58.0,-357.0,-928.0,-830.0,-132.0,0.0,0.0,0.0
19:45:57.485000,-364.0,-51.0,-350.0,-900.0,-767.0,-143.0,0.0,0.0,0.0
19:45:57.490000,-347.0,-45.0,-351.0,-900.0,-767.0,-143.0,0.0,0.0,0.0
19:45:57.494000,-347.0,-45.0,-351.0,-848.0,-711.0,-139.0,0.0,0.0,0.0
19:45:57.499000,-335.0,-35.0,-368.0,-848.0,-711.0,-139.0,0.0,0.0,0.0
19:45:57.504000,-312.0,-33.0,-391.0,-811.0,-686.0,-122.0,0.0,0.0,0.0
19:45:57.509000,-302.0,-25.0,-407.0,-811.0,-686.0,-122.0,0.0,0.0,0.0
19:45:57.513000,-292.0,-14.0,-411.0,-810.0,-681.0,-108.0,0.0,0.0,0.0
19:45:57.518000,-277.0,-5.0,-411.0,-810.0,-681.0,-108.0,0.0,0.0,0.0
19:45:57.523000,-266.0,7.0,-420.0,-836.0,-683.0,-106.0,0.0,0.0,0.0
19:45:57.527000,-251.0,16.0,-441.0,-836.0,-683.0,-106.0,0.0,0.0,0.0
19:45:57.532000,-242.0,23.0,-466.0,-867.0,-648.0,-108.0,0.0,0.0,0.0
19:45:57.537000,-238.0,32.0,-489.0,-867.0,-648.0,-108.0,0.0,0.0,0.0
19:45:57.541000,-232.0,39.0,-494.0,-874.0,-599.0,-112.0,0.0,0.0,0.0
19:45:57.546000,-227.0,49.0,-496.0,-874.0,-599.0,-112.0,0.0,0.0,0.0
19:45:57.551000,-220.0,62.0,-509.0,-872.0,-557.0,-131.0,0.0,0.0,0.0
19:45:57.556000,-213.0,70.0,-536.0,-872.0,-557.0,-131.0,0.0,0.0,0.0
19:45:57.560000,-209.0,80.0,-567.0,-872.0,-557.0,-131.0,0.0,0.0,0.0
19:45:57.565000,-206.0,88.0,-591.0,-902.0,-480.0,-160.0,0.0,0.0,0.0
19:45:57.570000,-196.0,92.0,-600.0,-959.0,-393.0,-159.0,0.0,0.0,0.0
19:45:57.574000,-160.0,90.0,-584.0,-959.0,-393.0,-159.0,0.0,0.0,0.0
19:45:57.579000,-176.0,116.0,-555.0,-959.0,-393.0,-159.0,0.0,0.0,0.0
19:45:57.584000,-135.0,95.0,-511.0,-957.0,-336.0,-135.0,0.0,0.0,0.0
19:45:57.588000,-142.0,116.0,-458.0,-957.0,-336.0,-135.0,0.0,0.0,0.0
19:45:57.593000,-121.0,140.0,-474.0,-915.0,-400.0,-148.0,0.0,0.0,0.0
19:45:57.598000,-73.0,132.0,-486.0,-915.0,-400.0,-148.0,0.0,0.0,0.0
19:45:57.603000,-73.0,132.0,-486.0,-926.0,-488.0,-167.0,0.0,0.0,0.0
19:45:57.607000,-70.0,144.0,-473.0,-926.0,-488.0,-167.0,0.0,0.0,0.0
19:45:57.612000,-69.0,143.0,-412.0,-925.0,-449.0,-168.0,0.0,0.0,0.0
19:45:57.617000,-80.0,155.0,-334.0,-925.0,-449.0,-168.0,0.0,0.0,0.0
19:45:57.621000,-81.0,169.0,-286.0,-904.0,-370.0,-210.0,0.0,0.0,0.0
19:45:57.626000,-84.0,172.0,-286.0,-904.0,-370.0,-210.0,0.0,0.0,0.0
19:45:57.631000,-86.0,174.0,-336.0,-959.0,-261.0,-263.0,0.0,0.0,0.0
19:45:57.635000,-82.0,163.0,-391.0,-959.0,-261.0,-263.0,0.0,0.0,0.0
19:45:57.640000,-77.0,149.0,-416.0,-1029.0,-217.0,-295.0,0.0,0.0,0.0
19:45:57.645000,-50.0,129.0,-419.0,-1029.0,-217.0,-295.0,0.0,0.0,0.0
19:45:57.650000,-12.0,106.0,-428.0,-1020.0,-266.0,-312.0,0.0,0.0,0.0
19:45:57.654000,26.0,79.0,-441.0,-1020.0,-266.0,-312.0,0.0,0.0,0.0
19:45:57.659000,70.0,50.0,-440.0,-978.0,-268.0,-312.0,0.0,0.0,0.0
19:45:57.664000,101.0,28.0,-425.0,-978.0,-268.0,-312.0,0.0,0.0,0.0
19:45:57.668000,132.0,9.0,-393.0,-978.0,-268.0,-312.0,0.0,0.0,0.0
19:45:57.673000,158.0,-7.0,-343.0,-954.0,-222.0,-302.0,0.0,0.0,0.0
19:45:57.678000,179.0,-22.0,-315.0,-954.0,-222.0,-302.0,0.0,0.0,0.0
19:45:57.682000,200.0,-38.0,-291.0,-968.0,-159.0,-295.0,0.0,0.0,0.0
19:45:57.687000,212.0,-49.0,-266.0,-968.0,-159.0,-295.0,0.0,0.0,0.0
19:45:57.692000,223.0,-55.0,-228.0,-1003.0,-103.0,-295.0,0.0,0.0,0.0
19:45:57.697000,238.0,-67.0,-181.0,-1003.0,-103.0,-295.0,0.0,0.0,0.0
19:45:57.701000,245.0,-74.0,-147.0,-1029.0,-84.0,-297.0,0.0,0.0,0.0
19:45:57.706000,252.0,-77.0,-129.0,-1029.0,-84.0,-297.0,0.0,0.0,0.0
19:45:57.710000,252.0,-77.0,-129.0,-1057.0,-73.0,-298.0,0.0,0.0,0.0
19:45:57.715000,256.0,-79.0,-123.0,-1057.0,-73.0,-298.0,0.0,0.0,0.0
19:45:57.720000,261.0,-83.0,-137.0,-1084.0,-42.0,-298.0,0.0,0.0,0.0
19:45:57.725000,265.0,-89.0,-147.0,-1084.0,-42.0,-298.0,0.0,0.0,0.0
19:45:57.729000,262.0,-95.0,-147.0,-1106.0,-1.0,-298.0,0.0,0.0,0.0
19:45:57.734000,266.0,-102.0,-150.0,-1106.0,-1.0,-298.0,0.0,0.0,0.0
19:45:57.738000,264.0,-113.0,-139.0,-1133.0,43.0,-293.0,0.0,0.0,0.0
19:45:57.744000,247.0,-121.0,-114.0,-1133.0,43.0,-293.0,0.0,0.0,0.0
19:45:57.748000,228.0,-130.0,-88.0,-1167.0,98.0,-286.0,0.0,0.0,0.0
19:45:57.753000,220.0,-142.0,-53.0,-1167.0,98.0,-286.0,0.0,0.0,0.0
19:45:57.758000,218.0,-152.0,-26.0,-1221.0,118.0,-290.0,0.0,0.0,0.0
19:45:57.762000,217.0,-163.0,-48.0,-1221.0,118.0,-290.0,0.0,0.0,0.0
19:45:57.767000,227.0,-174.0,-75.0,-1279.0,90.0,-294.0,0.0,0.0,0.0
19:45:57.772000,254.0,-188.0,-59.0,-1279.0,90.0,-294.0,0.0,0.0,0.0
19:45:57.776000,289.0,-195.0,-3.0,-1279.0,90.0,-294.0,0.0,0.0,0.0
19:45:57.781000,319.0,-195.0,6.0,-1324.0,41.0,-291.0,0.0,0.0,0.0
19:45:57.786000,344.0,-184.0,-11.0,-1324.0,41.0,-291.0,0.0,0.0,0.0
19:45:57.791000,364.0,-173.0,-15.0,-1408.0,13.0,-282.0,0.0,0.0,0.0
19:45:57.795000,371.0,-156.0,-24.0,-1408.0,13.0,-282.0,0.0,0.0,0.0
19:45:57.800000,328.0,-151.0,-26.0,-1500.0,41.0,-269.0,0.0,0.0,0.0
19:45:57.805000,255.0,-136.0,-47.0,-1500.0,41.0,-269.0,0.0,0.0,0.0
19:45:57.809000,219.0,-133.0,-105.0,-1506.0,124.0,-253.0,0.0,0.0,0.0
19:45:57.814000,223.0,-135.0,-154.0,-1506.0,124.0,-253.0,0.0,0.0,0.0
19:45:57.819000,230.0,-128.0,-172.0,-1527.0,182.0,-256.0,0.0,0.0,0.0
19:45:57.823000,230.0,-128.0,-172.0,-1527.0,182.0,-256.0,0.0,0.0,0.0
19:45:57.828000,258.0,-133.0,-282.0,-1649.0,67.0,-275.0,0.0,0.0,0.0
19:45:57.833000,329.0,-149.0,-374.0,-1649.0,67.0,-275.0,0.0,0.0,0.0
19:45:57.838000,363.0,-139.0,-442.0,-1691.0,-113.0,-287.0,0.0,0.0,0.0
19:45:57.842000,390.0,-136.0,-451.0,-1691.0,-113.0,-287.0,0.0,0.0,0.0
19:45:57.847000,326.0,-146.0,-402.0,-1634.0,-91.0,-276.0,0.0,0.0,0.0
19:45:57.852000,338.0,-133.0,-492.0,-1634.0,-91.0,-276.0,0.0,0.0,0.0
19:45:57.856000,356.0,-73.0,-466.0,-1594.0,-48.0,-284.0,0.0,0.0,0.0
19:45:57.861000,448.0,-71.0,-335.0,-1594.0,-48.0,-284.0,0.0,0.0,0.0
19:45:57.866000,413.0,-8.0,-338.0,-1628.0,-139.0,-288.0,0.0,0.0,0.0
19:45:57.870000,499.0,-21.0,-390.0,-1628.0,-139.0,-288.0,0.0,0.0,0.0
19:45:57.875000,548.0,-7.0,-303.0,-1555.0,-186.0,-251.0,0.0,0.0,0.0
19:45:57.880000,466.0,-3.0,-206.0,-1555.0,-186.0,-251.0,0.0,0.0,0.0
19:45:57.885000,452.0,34.0,-149.0,-1555.0,-186.0,-251.0,0.0,0.0,0.0
19:45:57.889000,412.0,10.0,-62.0,-1242.0,-197.0,-237.0,0.0,0.0,0.0
19:45:57.894000,394.0,55.0,282.0,-1242.0,-197.0,-237.0,0.0,0.0,0.0
19:45:57.899000,308.0,65.0,401.0,-899.0,-418.0,-260.0,0.0,0.0,0.0
19:45:57.903000,310.0,45.0,461.0,-899.0,-418.0,-260.0,0.0,0.0,0.0
19:45:57.908000,255.0,9.0,571.0,-641.0,-753.0,-264.0,0.0,0.0,0.0
19:45:57.913000,329.0,-18.0,619.0,-641.0,-753.0,-264.0,0.0,0.0,0.0
19:45:57.917000,253.0,-14.0,830.0,-489.0,-967.0,-264.0,0.0,0.0,0.0
19:45:57.922000,210.0,45.0,870.0,-489.0,-967.0,-264.0,0.0,0.0,0.0
19:45:57.927000,195.0,58.0,527.0,-382.0,-1002.0,-283.0,0.0,0.0,0.0
19:45:57.932000,195.0,58.0,527.0,-382.0,-1002.0,-283.0,0.0,0.0,0.0
19:45:57.936000,307.0,23.0,95.0,-380.0,-934.0,-302.0,0.0,0.0,0.0
19:45:57.941000,389.0,-23.0,101.0,-380.0,-934.0,-302.0,0.0,0.0,0.0
19:45:57.945000,296.0,-10.0,299.0,-372.0,-1017.0,-331.0,0.0,0.0,0.0
19:45:57.950000,238.0,-120.0,58.0,-372.0,-1017.0,-331.0,0.0,0.0,0.0
19:45:57.955000,108.0,-98.0,-317.0,-266.0,-753.0,-315.0,0.0,0.0,0.0
19:45:57.960000,7.0,-140.0,-289.0,-266.0,-753.0,-315.0,0.0,0.0,0.0
19:45:57.964000,-42.0,-163.0,-276.0,-357.0,-489.0,-272.0,0.0,0.0,0.0
19:45:57.969000,-1.0,-166.0,-396.0,-357.0,-489.0,-272.0,0.0,0.0,0.0
19:45:57.974000,-23.0,-250.0,-574.0,-638.0,-686.0,-229.0,0.0,0.0,0.0
19:45:57.979000,-35.0,-213.0,-620.0,-638.0,-686.0,-229.0,0.0,0.0,0.0
19:45:57.983000,-108.0,-200.0,-537.0,-738.0,-791.0,-171.0,0.0,0.0,0.0
19:45:57.988000,-112.0,-176.0,-294.0,-738.0,-791.0,-171.0,0.0,0.0,0.0
19:45:57.993000,-158.0,-193.0,-430.0,-738.0,-791.0,-171.0,0.0,0.0,0.0
19:45:57.997000,-245.0,-198.0,-488.0,-592.0,-543.0,-79.0,0.0,0.0,0.0
19:45:58.002000,-163.0,-221.0,-266.0,-592.0,-543.0,-79.0,0.0,0.0,0.0
19:45:58.007000,8.0,-210.0,-200.0,-635.0,-489.0,-22.0,0.0,0.0,0.0
19:45:58.011000,14.0,-221.0,-189.0,-635.0,-489.0,-22.0,0.0,0.0,0.0
19:45:58.016000,47.0,-185.0,-39.0,-920.0,-857.0,8.0,0.0,0.0,0.0
19:45:58.021000,74.0,-144.0,19.0,-920.0,-857.0,8.0,0.0,0.0,0.0
19:45:58.026000,83.0,-95.0,0.0,-940.0,-890.0,38.0,0.0,0.0,0.0
19:45:58.030000,88.0,-82.0,-100.0,-940.0,-890.0,38.0,0.0,0.0,0.0
19:45:58.035000,142.0,-51.0,-130.0,-834.0,-676.0,61.0,0.0,0.0,0.0
19:45:58.040000,142.0,-51.0,-130.0,-834.0,-676.0,61.0,0.0,0.0,0.0
19:45:58.044000,210.0,-7.0,-59.0,-852.0,-780.0,62.0,0.0,0.0,0.0
19:45:58.049000,240.0,23.0,126.0,-852.0,-780.0,62.0,0.0,0.0,0.0
19:45:58.054000,221.0,-16.0,107.0,-885.0,-851.0,46.0,0.0,0.0,0.0
19:45:58.058000,308.0,45.0,-194.0,-885.0,-851.0,46.0,0.0,0.0,0.0
19:45:58.063000,394.0,63.0,-567.0,-763.0,-657.0,43.0,0.0,0.0,0.0
19:45:58.068000,331.0,60.0,-688.0,-763.0,-657.0,43.0,0.0,0.0,0.0
19:45:58.072000,275.0,71.0,-546.0,-636.0,-718.0,11.0,0.0,0.0,0.0
19:45:58.077000,141.0,96.0,-308.0,-636.0,-718.0,11.0,0.0,0.0,0.0
19:45:58.082000,129.0,137.0,-188.0,-759.0,-809.0,-68.0,0.0,0.0,0.0
19:45:58.087000,190.0,158.0,-142.0,-759.0,-809.0,-68.0,0.0,0.0,0.0
19:45:58.091000,134.0,167.0,-338.0,-856.0,-660.0,-133.0,0.0,0.0,0.0
19:45:58.096000,185.0,152.0,-472.0,-856.0,-660.0,-133.0,0.0,0.0,0.0
19:45:58.101000,79.0,170.0,-326.0,-856.0,-685.0,-155.0,0.0,0.0,0.0
19:45:58.105000,61.0,182.0,-128.0,-783.0,-685.0,-155.0,0.0,0.0,0.0
19:45:58.110000,51.0,170.0,-155.0,-783.0,-685.0,-155.0,0.0,0.0,0.0
19:45:58.115000,58.0,158.0,-233.0,-753.0,-726.0,-201.0,0.0,0.0,0.0
19:45:58.119000,155.0,146.0,-115.0,-753.0,-726.0,-201.0,0.0,0.0,0.0
19:45:58.124000,183.0,120.0,-124.0,-751.0,-659.0,-262.0,0.0,0.0,0.0
19:45:58.129000,136.0,117.0,-413.0,-751.0,-659.0,-262.0,0.0,0.0,0.0
19:45:58.134000,142.0,45.0,-607.0,-684.0,-568.0,-273.0,0.0,0.0,0.0
19:45:58.138000,59.0,70.0,-440.0,-684.0,-568.0,-273.0,0.0,0.0,0.0
19:45:58.143000,44.0,54.0,-304.0,-564.0,-607.0,-258.0,0.0,0.0,0.0
19:45:58.148000,44.0,-124.0,-304.0,-564.0,-607.0,-258.0,0.0,0.0,0.0
19:45:58.152000,137.0,-7.0,-283.0,-529.0,-694.0,-269.0,0.0,0.0,0.0
19:45:58.157000,153.0,-16.0,-133.0,-529.0,-694.0,-269.0,0.0,0.0,0.0
19:45:58.162000,144.0,4.0,-30.0,-750.0,-664.0,-281.0,0.0,0.0,0.0
19:45:58.166000,226.0,9.0,-181.0,-750.0,-664.0,-281.0,0.0,0.0,0.0
19:45:58.171000,205.0,-33.0,-379.0,-853.0,-628.0,-254.0,0.0,0.0,0.0
19:45:58.176000,109.0,-39.0,-456.0,-853.0,-628.0,-254.0,0.0,0.0,0.0
19:45:58.180000,48.0,-7.0,-298.0,-699.0,-666.0,-243.0,0.0,0.0,0.0
19:45:58.185000,161.0,14.0,-83.0,-699.0,-666.0,-243.0,0.0,0.0,0.0
19:45:58.190000,183.0,-19.0,-191.0,-724.0,-644.0,-239.0,0.0,0.0,0.0
19:45:58.195000,150.0,-10.0,-465.0,-724.0,-644.0,-239.0,0.0,0.0,0.0
19:45:58.199000,220.0,-18.0,-326.0,-747.0,-606.0,-212.0,0.0,0.0,0.0
19:45:58.204000,231.0,4.0,-35.0,-747.0,-606.0,-212.0,0.0,0.0,0.0
19:45:58.208000,260.0,28.0,54.0,-747.0,-624.0,-197.0,0.0,0.0,0.0
19:45:58.213000,344.0,11.0,-118.0,-747.0,-624.0,-197.0,0.0,0.0,0.0
19:45:58.218000,366.0,8.0,-358.0,-747.0,-624.0,-197.0,0.0,0.0,0.0
19:45:58.223000,327.0,19.0,-361.0,-848.0,-489.0,-156.0,0.0,0.0,0.0
19:45:58.228000,296.0,54.0,-338.0,-848.0,-489.0,-156.0,0.0,0.0,0.0
19:45:58.232000,163.0,81.0,-431.0,-814.0,-516.0,-132.0,0.0,0.0,0.0
19:45:58.237000,133.0,112.0,-388.0,-814.0,-516.0,-132.0,0.0,0.0,0.0
19:45:58.242000,123.0,94.0,-124.0,-776.0,-533.0,-159.0,0.0,0.0,0.0
19:45:58.246000,37.0,78.0,58.0,-776.0,-533.0,-159.0,0.0,0.0,0.0
19:45:58.251000,42.0,93.0,-23.0,-813.0,-438.0,-178.0,0.0,0.0,0.0
19:45:58.256000,44.0,79.0,-161.0,-813.0,-438.0,-178.0,0.0,0.0,0.0
19:45:58.260000,44.0,79.0,-161.0,-917.0,-430.0,-175.0,0.0,0.0,0.0
19:45:58.265000,-23.0,91.0,-134.0,-917.0,-430.0,-175.0,0.0,0.0,0.0
19:45:58.270000,34.0,95.0,-223.0,-864.0,-388.0,-167.0,0.0,0.0,0.0
19:45:58.275000,64.0,70.0,-478.0,-864.0,-388.0,-167.0,0.0,0.0,0.0
19:45:58.279000,-30.0,74.0,-527.0,-706.0,-462.0,-133.0,0.0,0.0,0.0
19:45:58.284000,-56.0,82.0,-312.0,-706.0,-462.0,-133.0,0.0,0.0,0.0
19:45:58.289000,-68.0,95.0,-217.0,-753.0,-562.0,-127.0,0.0,0.0,0.0
19:45:58.293000,-84.0,105.0,-326.0,-753.0,-562.0,-127.0,0.0,0.0,0.0
19:45:58.298000,-89.0,92.0,-306.0,-824.0,-539.0,-148.0,0.0,0.0,0.0
19:45:58.303000,-82.0,85.0,-247.0,-824.0,-539.0,-148.0,0.0,0.0,0.0
19:45:58.307000,-49.0,83.0,-270.0,-846.0,-543.0,-158.0,0.0,0.0,0.0
19:45:58.312000,-32.0,67.0,-310.0,-846.0,-543.0,-158.0,0.0,0.0,0.0
19:45:58.317000,-62.0,48.0,-417.0,-834.0,-499.0,-149.0,0.0,0.0,0.0
19:45:58.322000,-67.0,43.0,-457.0,-834.0,-499.0,-149.0,0.0,0.0,0.0
19:45:58.326000,-2.0,21.0,-486.0,-777.0,-487.0,-143.0,0.0,0.0,0.0
19:45:58.331000,62.0,-7.0,-538.0,-777.0,-487.0,-143.0,0.0,0.0,0.0
19:45:58.336000,42.0,-44.0,-581.0,-777.0,-487.0,-143.0,0.0,0.0,0.0
19:45:58.340000,21.0,-91.0,-567.0,-786.0,-496.0,-146.0,0.0,0.0,0.0
19:45:58.345000,38.0,-130.0,-519.0,-786.0,-496.0,-146.0,0.0,0.0,0.0
19:45:58.350000,65.0,-133.0,-364.0,-779.0,-517.0,-150.0,0.0,0.0,0.0
19:45:58.354000,74.0,-135.0,-246.0,-779.0,-517.0,-150.0,0.0,0.0,0.0
19:45:58.359000,77.0,-157.0,-336.0,-857.0,-566.0,-167.0,0.0,0.0,0.0
19:45:58.364000,34.0,-155.0,-354.0,-857.0,-566.0,-167.0,0.0,0.0,0.0
19:45:58.369000,34.0,-155.0,-354.0,-919.0,-540.0,-162.0,0.0,0.0,0.0
19:45:58.373000,10.0,-136.0,-252.0,-919.0,-540.0,-162.0,0.0,0.0,0.0
19:45:58.378000,23.0,-123.0,-303.0,-894.0,-402.0,-143.0,0.0,0.0,0.0
19:45:58.383000,16.0,-126.0,-490.0,-894.0,-402.0,-143.0,0.0,0.0,0.0
19:45:58.387000,-18.0,-128.0,-535.0,-854.0,-340.0,-125.0,0.0,0.0,0.0
19:45:58.392000,-43.0,-117.0,-518.0,-854.0,-340.0,-125.0,0.0,0.0,0.0
19:45:58.397000,-74.0,-107.0,-520.0,-791.0,-411.0,-125.0,0.0,0.0,0.0
19:45:58.401000,-74.0,-115.0,-511.0,-791.0,-411.0,-125.0,0.0,0.0,0.0
19:45:58.406000,-72.0,-113.0,-517.0,-775.0,-387.0,-143.0,0.0,0.0,0.0
19:45:58.411000,-88.0,-107.0,-539.0,-775.0,-387.0,-143.0,0.0,0.0,0.0
19:45:58.415000,-127.0,-107.0,-508.0,-808.0,-387.0,-153.0,0.0,0.0,0.0
19:45:58.420000,-116.0,-105.0,-485.0,-808.0,-387.0,-153.0,0.0,0.0,0.0
19:45:58.425000,-85.0,-111.0,-478.0,-829.0,-430.0,-166.0,0.0,0.0,0.0
19:45:58.430000,-90.0,-97.0,-424.0,-829.0,-430.0,-166.0,0.0,0.0,0.0
19:45:58.434000,-98.0,-77.0,-385.0,-829.0,-430.0,-166.0,0.0,0.0,0.0
19:45:58.439000,-100.0,-68.0,-424.0,-867.0,-418.0,-173.0,0.0,0.0,0.0
19:45:58.444000,-89.0,-63.0,-487.0,-867.0,-418.0,-173.0,0.0,0.0,0.0
19:45:58.448000,-84.0,-58.0,-478.0,-944.0,-403.0,-157.0,0.0,0.0,0.0
19:45:58.453000,-75.0,-54.0,-478.0,-944.0,-403.0,-157.0,0.0,0.0,0.0
19:45:58.458000,-80.0,-49.0,-525.0,-904.0,-369.0,-152.0,0.0,0.0,0.0
19:45:58.463000,-85.0,-41.0,-567.0,-904.0,-369.0,-152.0,0.0,0.0,0.0
19:45:58.467000,-73.0,-44.0,-515.0,-834.0,-349.0,-165.0,0.0,0.0,0.0
19:45:58.472000,-56.0,-53.0,-476.0,-834.0,-349.0,-165.0,0.0,0.0,0.0
19:45:58.477000,-56.0,-53.0,-476.0,-862.0,-370.0,-179.0,0.0,0.0,0.0
19:45:58.481000,-34.0,-58.0,-505.0,-862.0,-370.0,-179.0,0.0,0.0,0.0
19:45:58.486000,-18.0,-67.0,-525.0,-888.0,-365.0,-178.0,0.0,0.0,0.0
19:45:58.491000,-31.0,-72.0,-471.0,-888.0,-365.0,-178.0,0.0,0.0,0.0
19:45:58.495000,-51.0,-68.0,-398.0,-885.0,-347.0,-170.0,0.0,0.0,0.0
19:45:58.500000,-45.0,-70.0,-369.0,-885.0,-347.0,-170.0,0.0,0.0,0.0
19:45:58.505000,-40.0,-72.0,-410.0,-915.0,-345.0,-170.0,0.0,0.0,0.0
19:45:58.510000,-30.0,-74.0,-431.0,-915.0,-345.0,-170.0,0.0,0.0,0.0
19:45:58.514000,-31.0,-77.0,-348.0,-916.0,-348.0,-167.0,0.0,0.0,0.0
19:45:58.519000,-37.0,-72.0,-279.0,-916.0,-348.0,-167.0,0.0,0.0,0.0
19:45:58.524000,-44.0,-67.0,-244.0,-954.0,-310.0,-151.0,0.0,0.0,0.0
19:45:58.528000,-59.0,-67.0,-245.0,-954.0,-310.0,-151.0,0.0,0.0,0.0
19:45:58.532000,-51.0,-65.0,-226.0,-926.0,-284.0,-123.0,0.0,0.0,0.0
19:45:58.538000,-37.0,-28.0,-249.0,-926.0,-284.0,-123.0,0.0,0.0,0.0
19:45:58.542000,-67.0,14.0,-312.0,-926.0,-284.0,-123.0,0.0,0.0,0.0
19:45:58.547000,-91.0,14.0,-385.0,-625.0,-175.0,-114.0,0.0,0.0,0.0
19:45:58.552000,-111.0,4.0,-441.0,-625.0,-175.0,-114.0,0.0,0.0,0.0
19:45:58.557000,-105.0,6.0,-425.0,-439.0,16.0,-144.0,0.0,0.0,0.0
19:45:58.561000,-131.0,24.0,-340.0,-439.0,16.0,-144.0,0.0,0.0,0.0
19:45:58.566000,-107.0,34.0,-325.0,-579.0,-158.0,-240.0,0.0,0.0,0.0
19:45:58.571000,-98.0,39.0,-429.0,-579.0,-158.0,-240.0,0.0,0.0,0.0
19:45:58.575000,-76.0,-4.0,-432.0,-942.0,-450.0,-341.0,0.0,0.0,0.0
19:45:58.580000,-145.0,-75.0,-271.0,-942.0,-450.0,-341.0,0.0,0.0,0.0
19:45:58.585000,-192.0,-99.0,27.0,-1325.0,-397.0,-311.0,0.0,0.0,0.0
19:45:58.589000,-192.0,-99.0,27.0,-1325.0,-397.0,-311.0,0.0,0.0,0.0
19:45:58.594000,-200.0,-135.0,180.0,-1081.0,-267.0,-272.0,0.0,0.0,0.0
19:45:58.599000,-121.0,-130.0,130.0,-1081.0,-267.0,-272.0,0.0,0.0,0.0
19:45:58.604000,-98.0,-93.0,-70.0,-536.0,-352.0,-350.0,0.0,0.0,0.0
19:45:58.608000,-36.0,-86.0,-222.0,-536.0,-352.0,-350.0,0.0,0.0,0.0
19:45:58.613000,21.0,-100.0,-287.0,-558.0,-271.0,-420.0,0.0,0.0,0.0
19:45:58.618000,11.0,-102.0,-238.0,-558.0,-271.0,-420.0,0.0,0.0,0.0
19:45:58.622000,-17.0,-124.0,-136.0,-956.0,-324.0,-439.0,0.0,0.0,0.0
19:45:58.627000,-11.0,-128.0,-121.0,-956.0,-324.0,-439.0,0.0,0.0,0.0
19:45:58.632000,-36.0,-166.0,-59.0,-1283.0,-494.0,-384.0,0.0,0.0,0.0
19:45:58.636000,-99.0,-210.0,11.0,-1283.0,-494.0,-384.0,0.0,0.0,0.0
19:45:58.641000,-134.0,-273.0,23.0,-1224.0,-360.0,-277.0,0.0,0.0,0.0
19:45:58.646000,-127.0,-357.0,93.0,-1224.0,-360.0,-277.0,0.0,0.0,0.0
19:45:58.650000,-88.0,-392.0,58.0,-1224.0,-360.0,-277.0,0.0,0.0,0.0
19:45:58.655000,-36.0,-431.0,-46.0,-731.0,-371.0,-215.0,0.0,0.0,0.0
19:45:58.660000,-25.0,-477.0,-95.0,-731.0,-371.0,-215.0,0.0,0.0,0.0
19:45:58.665000,-30.0,-506.0,-119.0,-539.0,-356.0,-170.0,0.0,0.0,0.0
19:45:58.669000,-74.0,-511.0,-189.0,-883.0,-261.0,-138.0,0.0,0.0,0.0
19:45:58.674000,-120.0,-493.0,-272.0,-883.0,-261.0,-138.0,0.0,0.0,0.0
19:45:58.679000,-191.0,-451.0,-375.0,-883.0,-261.0,-138.0,0.0,0.0,0.0
19:45:58.683000,-240.0,-409.0,-492.0,-1158.0,-279.0,-127.0,0.0,0.0,0.0
19:45:58.688000,-294.0,-364.0,-560.0,-1158.0,-279.0,-127.0,0.0,0.0,0.0
19:45:58.693000,-324.0,-333.0,-545.0,-1226.0,-275.0,-147.0,0.0,0.0,0.0
19:45:58.698000,-324.0,-333.0,-545.0,-1226.0,-275.0,-147.0,0.0,0.0,0.0
19:45:58.702000,-373.0,-289.0,-515.0,-1207.0,-280.0,-140.0,0.0,0.0,0.0
19:45:58.707000,-408.0,-249.0,-534.0,-1207.0,-280.0,-140.0,0.0,0.0,0.0
19:45:58.712000,-399.0,-231.0,-538.0,-1165.0,-388.0,-106.0,0.0,0.0,0.0
19:45:58.716000,-378.0,-199.0,-529.0,-1165.0,-388.0,-106.0,0.0,0.0,0.0
19:45:58.721000,-338.0,-182.0,-560.0,-1176.0,-446.0,-106.0,0.0,0.0,0.0
19:45:58.726000,-318.0,-165.0,-608.0,-1176.0,-446.0,-106.0,0.0,0.0,0.0
19:45:58.730000,-319.0,-149.0,-659.0,-1173.0,-413.0,-96.0,0.0,0.0,0.0
19:45:58.735000,-277.0,-142.0,-680.0,-1173.0,-413.0,-96.0,0.0,0.0,0.0
19:45:58.740000,-260.0,-116.0,-672.0,-1105.0,-408.0,-88.0,0.0,0.0,0.0
19:45:58.745000,-215.0,-119.0,-658.0,-1105.0,-408.0,-88.0,0.0,0.0,0.0
19:45:58.749000,-193.0,-99.0,-678.0,-1075.0,-424.0,-90.0,0.0,0.0,0.0
19:45:58.754000,-156.0,-89.0,-738.0,-1075.0,-424.0,-90.0,0.0,0.0,0.0
19:45:58.759000,-93.0,-85.0,-767.0,-1075.0,-424.0,-90.0,0.0,0.0,0.0
19:45:58.763000,-86.0,-62.0,-772.0,-1092.0,-401.0,-83.0,0.0,0.0,0.0
19:45:58.768000,-58.0,-57.0,-771.0,-1092.0,-401.0,-83.0,0.0,0.0,0.0
19:45:58.773000,-30.0,-37.0,-793.0,-1109.0,-405.0,-65.0,0.0,0.0,0.0
19:45:58.777000,-14.0,-23.0,-828.0,-1109.0,-405.0,-65.0,0.0,0.0,0.0
19:45:58.782000,25.0,-17.0,-861.0,-1118.0,-372.0,-67.0,0.0,0.0,0.0
19:45:58.787000,47.0,0.0,-848.0,-1118.0,-372.0,-67.0,0.0,0.0,0.0
19:45:58.792000,67.0,3.0,-821.0,-1085.0,-282.0,-83.0,0.0,0.0,0.0
19:45:58.796000,66.0,15.0,-821.0,-1085.0,-282.0,-83.0,0.0,0.0,0.0
19:45:58.801000,66.0,30.0,-842.0,-1091.0,-249.0,-85.0,0.0,0.0,0.0
19:45:58.806000,66.0,30.0,-842.0,-1091.0,-249.0,-85.0,0.0,0.0,0.0
19:45:58.810000,76.0,39.0,-873.0,-1112.0,-229.0,-71.0,0.0,0.0,0.0
19:45:58.815000,79.0,57.0,-871.0,-1112.0,-229.0,-71.0,0.0,0.0,0.0
19:45:58.820000,79.0,70.0,-819.0,-1089.0,-186.0,-67.0,0.0,0.0,0.0
19:45:58.824000,84.0,84.0,-787.0,-1089.0,-186.0,-67.0,0.0,0.0,0.0
19:45:58.829000,95.0,103.0,-802.0,-1083.0,-146.0,-87.0,0.0,0.0,0.0
19:45:58.834000,106.0,119.0,-842.0,-1083.0,-146.0,-87.0,0.0,0.0,0.0
19:45:58.839000,116.0,129.0,-875.0,-1067.0,-119.0,-84.0,0.0,0.0,0.0
19:45:58.843000,112.0,141.0,-881.0,-1067.0,-119.0,-84.0,0.0,0.0,0.0
19:45:58.848000,109.0,149.0,-870.0,-1039.0,-91.0,-69.0,0.0,0.0,0.0
19:45:58.853000,119.0,149.0,-868.0,-1039.0,-91.0,-69.0,0.0,0.0,0.0
19:45:58.857000,117.0,158.0,-879.0,-1029.0,-71.0,-78.0,0.0,0.0,0.0
19:45:58.862000,119.0,164.0,-879.0,-1029.0,-71.0,-78.0,0.0,0.0,0.0
19:45:58.867000,136.0,169.0,-850.0,-1029.0,-71.0,-78.0,0.0,0.0,0.0
19:45:58.871000,149.0,168.0,-841.0,-1023.0,-74.0,-80.0,0.0,0.0,0.0
19:45:58.876000,163.0,168.0,-861.0,-1023.0,-74.0,-80.0,0.0,0.0,0.0
19:45:58.881000,154.0,169.0,-884.0,-1011.0,-26.0,-75.0,0.0,0.0,0.0
19:45:58.885000,149.0,177.0,-873.0,-1011.0,-26.0,-75.0,0.0,0.0,0.0
19:45:58.890000,154.0,172.0,-863.0,-978.0,-3.0,-79.0,0.0,0.0,0.0
19:45:58.895000,172.0,168.0,-837.0,-978.0,-3.0,-79.0,0.0,0.0,0.0
19:45:58.900000,174.0,159.0,-849.0,-951.0,-4.0,-89.0,0.0,0.0,0.0
19:45:58.904000,175.0,166.0,-845.0,-951.0,-4.0,-89.0,0.0,0.0,0.0
19:45:58.909000,163.0,159.0,-819.0,-943.0,56.0,-95.0,0.0,0.0,0.0
19:45:58.914000,163.0,159.0,-819.0,-943.0,56.0,-95.0,0.0,0.0,0.0
19:45:58.918000,164.0,165.0,-776.0,-944.0,92.0,-96.0,0.0,0.0,0.0
19:45:58.923000,156.0,160.0,-773.0,-944.0,92.0,-96.0,0.0,0.0,0.0
19:45:58.928000,148.0,163.0,-764.0,-968.0,106.0,-103.0,0.0,0.0,0.0
19:45:58.933000,147.0,158.0,-760.0,-968.0,106.0,-103.0,0.0,0.0,0.0
19:45:58.937000,139.0,157.0,-746.0,-998.0,118.0,-110.0,0.0,0.0,0.0
19:45:58.942000,135.0,157.0,-698.0,-998.0,118.0,-110.0,0.0,0.0,0.0
19:45:58.947000,131.0,154.0,-674.0,-1015.0,121.0,-117.0,0.0,0.0,0.0
19:45:58.951000,128.0,156.0,-655.0,-1015.0,121.0,-117.0,0.0,0.0,0.0
19:45:58.956000,116.0,155.0,-635.0,-1015.0,142.0,-119.0,0.0,0.0,0.0
19:45:58.961000,108.0,163.0,-597.0,-1015.0,142.0,-119.0,0.0,0.0,0.0
19:45:58.965000,86.0,167.0,-588.0,-1017.0,152.0,-119.0,0.0,0.0,0.0
19:45:58.970000,71.0,177.0,-596.0,-1017.0,152.0,-119.0,0.0,0.0,0.0
19:45:58.975000,69.0,173.0,-627.0,-1017.0,141.0,-124.0,0.0,0.0,0.0
19:45:58.980000,59.0,182.0,-630.0,-1021.0,141.0,-124.0,0.0,0.0,0.0
19:45:58.984000,57.0,179.0,-606.0,-1021.0,141.0,-124.0,0.0,0.0,0.0
19:45:58.989000,44.0,179.0,-592.0,-1000.0,136.0,-129.0,0.0,0.0,0.0
19:45:58.994000,39.0,175.0,-609.0,-1000.0,136.0,-129.0,0.0,0.0,0.0
19:45:58.998000,28.0,171.0,-640.0,-967.0,136.0,-128.0,0.0,0.0,0.0
19:45:59.003000,19.0,172.0,-653.0,-967.0,136.0,-128.0,0.0,0.0,0.0
19:45:59.008000,13.0,166.0,-653.0,-929.0,135.0,-131.0,0.0,0.0,0.0
19:45:59.012000,5.0,162.0,-648.0,-929.0,135.0,-131.0,0.0,0.0,0.0
19:45:59.017000,-1.0,156.0,-646.0,-901.0,146.0,-136.0,0.0,0.0,0.0
19:45:59.022000,-7.0,147.0,-641.0,-901.0,146.0,-136.0,0.0,0.0,0.0
19:45:59.027000,-7.0,147.0,-641.0,-908.0,161.0,-139.0,0.0,0.0,0.0
19:45:59.031000,-14.0,138.0,-617.0,-908.0,161.0,-139.0,0.0,0.0,0.0
19:45:59.036000,-22.0,132.0,-611.0,-914.0,163.0,-145.0,0.0,0.0,0.0
19:45:59.041000,-31.0,126.0,-610.0,-914.0,163.0,-145.0,0.0,0.0,0.0
19:45:59.045000,-32.0,119.0,-611.0,-890.0,170.0,-155.0,0.0,0.0,0.0
19:45:59.050000,-37.0,111.0,-609.0,-890.0,170.0,-155.0,0.0,0.0,0.0
19:45:59.055000,-51.0,101.0,-607.0,-888.0,199.0,-166.0,0.0,0.0,0.0
19:45:59.059000,-52.0,92.0,-604.0,-888.0,199.0,-166.0,0.0,0.0,0.0
19:45:59.064000,-51.0,84.0,-589.0,-905.0,236.0,-173.0,0.0,0.0,0.0
19:45:59.069000,-56.0,79.0,-587.0,-905.0,236.0,-173.0,0.0,0.0,0.0
19:45:59.074000,-63.0,72.0,-592.0,-920.0,265.0,-177.0,0.0,0.0,0.0
19:45:59.078000,-59.0,74.0,-576.0,-920.0,265.0,-177.0,0.0,0.0,0.0
19:45:59.083000,-54.0,69.0,-545.0,-934.0,270.0,-185.0,0.0,0.0,0.0
19:45:59.088000,-47.0,65.0,-532.0,-934.0,270.0,-185.0,0.0,0.0,0.0
19:45:59.092000,-57.0,62.0,-514.0,-934.0,270.0,-185.0,0.0,0.0,0.0
19:45:59.097000,-60.0,52.0,-487.0,-952.0,258.0,-182.0,0.0,0.0,0.0
19:45:59.102000,-65.0,38.0,-455.0,-952.0,258.0,-182.0,0.0,0.0,0.0
19:45:59.106000,-81.0,29.0,-429.0,-968.0,278.0,-177.0,0.0,0.0,0.0
19:45:59.111000,-88.0,27.0,-437.0,-968.0,278.0,-177.0,0.0,0.0,0.0
19:45:59.116000,-92.0,25.0,-447.0,-1001.0,292.0,-175.0,0.0,0.0,0.0
