hh:mm:ss.ms,gyroX[mdps],gyroY[mdps],gyroZ[mdps],accX[mg],accY[mg],accZ[mg],magX[mG],magY[mG],magZ[mG]
19:43:39.173000,-193.0,-45.0,-287.0,-1103.0,-654.0,-69.0,0.0,0.0,0.0
19:43:39.177000,-178.0,-17.0,-320.0,-1178.0,-472.0,-90.0,0.0,0.0,0.0
19:43:39.182000,-165.0,11.0,-331.0,-1178.0,-472.0,-90.0,0.0,0.0,0.0
19:43:39.187000,-163.0,33.0,-341.0,-1182.0,-343.0,-97.0,0.0,0.0,0.0
19:43:39.191000,-179.0,63.0,-380.0,-1182.0,-343.0,-97.0,0.0,0.0,0.0
19:43:39.196000,-179.0,63.0,-380.0,-1178.0,-238.0,-95.0,0.0,0.0,0.0
19:43:39.201000,-211.0,82.0,-441.0,-1178.0,-238.0,-95.0,0.0,0.0,0.0
19:43:39.206000,-228.0,104.0,-455.0,-1158.0,-164.0,-82.0,0.0,0.0,0.0
19:43:39.210000,-257.0,103.0,-439.0,-1158.0,-164.0,-82.0,0.0,0.0,0.0
19:43:39.215000,-278.0,102.0,-437.0,-1110.0,-152.0,-75.0,0.0,0.0,0.0
19:43:39.220000,-313.0,103.0,-474.0,-1110.0,-152.0,-75.0,0.0,0.0,0.0
19:43:39.224000,-345.0,110.0,-529.0,-1093.0,-123.0,-73.0,0.0,0.0,0.0
19:43:39.229000,-368.0,109.0,-568.0,-1093.0,-123.0,-73.0,0.0,0.0,0.0
19:43:39.234000,-394.0,107.0,-584.0,-1064.0,-75.0,-75.0,0.0,0.0,0.0
19:43:39.238000,-438.0,106.0,-599.0,-1064.0,-75.0,-75.0,0.0,0.0,0.0
19:43:39.243000,-469.0,102.0,-634.0,-1076.0,-31.0,-80.0,0.0,0.0,0.0
19:43:39.248000,-500.0,90.0,-665.0,-1076.0,-31.0,-80.0,0.0,0.0,0.0
19:43:39.253000,-536.0,77.0,-681.0,-1105.0,-4.0,-81.0,0.0,0.0,0.0
19:43:39.257000,-578.0,57.0,-686.0,-1105.0,-4.0,-81.0,0.0,0.0,0.0
19:43:39.262000,-611.0,38.0,-697.0,-1105.0,-4.0,-81.0,0.0,0.0,0.0
19:43:39.267000,-648.0,9.0,-708.0,-1112.0,12.0,-74.0,0.0,0.0,0.0
19:43:39.271000,-681.0,-14.0,-726.0,-1112.0,41.0,-70.0,0.0,0.0,0.0
19:43:39.276000,-709.0,-42.0,-744.0,-1084.0,41.0,-70.0,0.0,0.0,0.0
19:43:39.281000,-730.0,-72.0,-763.0,-1084.0,41.0,-70.0,0.0,0.0,0.0
19:43:39.285000,-760.0,-104.0,-777.0,-1063.0,58.0,-69.0,0.0,0.0,0.0
19:43:39.290000,-788.0,-137.0,-784.0,-1063.0,58.0,-69.0,0.0,0.0,0.0
19:43:39.295000,-817.0,-167.0,-782.0,-1077.0,61.0,-60.0,0.0,0.0,0.0
19:43:39.300000,-840.0,-196.0,-772.0,-1077.0,61.0,-60.0,0.0,0.0,0.0
19:43:39.304000,-840.0,-196.0,-772.0,-1059.0,64.0,-53.0,0.0,0.0,0.0
19:43:39.309000,-854.0,-215.0,-772.0,-1059.0,64.0,-53.0,0.0,0.0,0.0
19:43:39.314000,-875.0,-231.0,-789.0,-1075.0,77.0,-44.0,0.0,0.0,0.0
19:43:39.318000,-910.0,-235.0,-812.0,-1075.0,77.0,-44.0,0.0,0.0,0.0
19:43:39.323000,-940.0,-239.0,-829.0,-1119.0,86.0,-37.0,0.0,0.0,0.0
19:43:39.328000,-965.0,-236.0,-839.0,-1119.0,86.0,-37.0,0.0,0.0,0.0
19:43:39.332000,-995.0,-234.0,-859.0,-1158.0,87.0,-34.0,0.0,0.0,0.0
19:43:39.337000,-1008.0,-228.0,-882.0,-1158.0,87.0,-34.0,0.0,0.0,0.0
19:43:39.342000,-1036.0,-224.0,-896.0,-1175.0,99.0,-17.0,0.0,0.0,0.0
19:43:39.347000,-1067.0,-219.0,-917.0,-1175.0,99.0,-17.0,0.0,0.0,0.0
19:43:39.351000,-1079.0,-203.0,-940.0,-1158.0,111.0,-10.0,0.0,0.0,0.0
19:43:39.356000,-1100.0,-193.0,-947.0,-1158.0,111.0,-10.0,0.0,0.0,0.0
19:43:39.361000,-1117.0,-179.0,-935.0,-1114.0,108.0,-20.0,0.0,0.0,0.0
19:43:39.365000,-1118.0,-163.0,-932.0,-1114.0,108.0,-20.0,0.0,0.0,0.0
19:43:39.370000,-1137.0,-156.0,-948.0,-1114.0,108.0,-20.0,0.0,0.0,0.0
19:43:39.375000,-1143.0,-138.0,-950.0,-1088.0,111.0,-26.0,0.0,0.0,0.0
19:43:39.379000,-1138.0,-132.0,-961.0,-1088.0,111.0,-26.0,0.0,0.0,0.0
19:43:39.384000,-1123.0,-114.0,-983.0,-1020.0,144.0,-48.0,0.0,0.0,0.0
19:43:39.389000,-1109.0,-108.0,-993.0,-1020.0,144.0,-48.0,0.0,0.0,0.0
19:43:39.394000,-1107.0,-105.0,-949.0,-917.0,185.0,-67.0,0.0,0.0,0.0
19:43:39.398000,-1083.0,-99.0,-916.0,-917.0,185.0,-67.0,0.0,0.0,0.0
19:43:39.403000,-1070.0,-107.0,-929.0,-793.0,221.0,-72.0,0.0,0.0,0.0
19:43:39.408000,-1052.0,-115.0,-943.0,-793.0,221.0,-72.0,0.0,0.0,0.0
19:43:39.412000,-1052.0,-115.0,-943.0,-785.0,274.0,-76.0,0.0,0.0,0.0
19:43:39.417000,-1037.0,-123.0,-924.0,-785.0,274.0,-76.0,0.0,0.0,0.0
19:43:39.422000,-1036.0,-137.0,-885.0,-894.0,345.0,-79.0,0.0,0.0,0.0
19:43:39.426000,-1025.0,-146.0,-841.0,-894.0,345.0,-79.0,0.0,0.0,0.0
19:43:39.431000,-1020.0,-163.0,-813.0,-934.0,398.0,-82.0,0.0,0.0,0.0
19:43:39.436000,-1006.0,-177.0,-807.0,-934.0,398.0,-82.0,0.0,0.0,0.0
19:43:39.441000,-992.0,-184.0,-798.0,-979.0,405.0,-81.0,0.0,0.0,0.0
19:43:39.445000,-982.0,-189.0,-771.0,-979.0,405.0,-81.0,0.0,0.0,0.0
19:43:39.450000,-970.0,-189.0,-721.0,-1033.0,384.0,-77.0,0.0,0.0,0.0
19:43:39.455000,-954.0,-182.0,-672.0,-1033.0,384.0,-77.0,0.0,0.0,0.0
19:43:39.459000,-938.0,-177.0,-629.0,-1074.0,355.0,-57.0,0.0,0.0,0.0
19:43:39.464000,-917.0,-178.0,-578.0,-1074.0,355.0,-57.0,0.0,0.0,0.0
19:43:39.469000,-895.0,-170.0,-513.0,-1013.0,313.0,-30.0,0.0,0.0,0.0
19:43:39.473000,-868.0,-158.0,-454.0,-1013.0,313.0,-30.0,0.0,0.0,0.0
19:43:39.478000,-835.0,-134.0,-420.0,-1013.0,313.0,-30.0,0.0,0.0,0.0
19:43:39.483000,-810.0,-104.0,-403.0,-948.0,305.0,-7.0,0.0,0.0,0.0
19:43:39.488000,-793.0,-73.0,-389.0,-948.0,305.0,-7.0,0.0,0.0,0.0
19:43:39.492000,-778.0,-35.0,-357.0,-984.0,332.0,23.0,0.0,0.0,0.0
19:43:39.497000,-763.0,4.0,-335.0,-984.0,332.0,23.0,0.0,0.0,0.0
19:43:39.502000,-758.0,47.0,-324.0,-1062.0,344.0,52.0,0.0,0.0,0.0
19:43:39.506000,-758.0,89.0,-315.0,-1062.0,344.0,52.0,0.0,0.0,0.0
19:43:39.511000,-763.0,129.0,-308.0,-1110.0,367.0,79.0,0.0,0.0,0.0
19:43:39.516000,-772.0,165.0,-302.0,-1110.0,367.0,79.0,0.0,0.0,0.0
19:43:39.520000,-779.0,196.0,-280.0,-1106.0,385.0,107.0,0.0,0.0,0.0
19:43:39.525000,-779.0,196.0,-280.0,-1106.0,385.0,107.0,0.0,0.0,0.0
19:43:39.530000,-785.0,220.0,-252.0,-1078.0,381.0,125.0,0.0,0.0,0.0
19:43:39.535000,-795.0,239.0,-219.0,-1078.0,381.0,125.0,0.0,0.0,0.0
19:43:39.539000,-805.0,254.0,-177.0,-1041.0,378.0,133.0,0.0,0.0,0.0
19:43:39.544000,-815.0,273.0,-150.0,-1041.0,378.0,133.0,0.0,0.0,0.0
19:43:39.549000,-822.0,285.0,-139.0,-1018.0,388.0,134.0,0.0,0.0,0.0
19:43:39.553000,-836.0,301.0,-112.0,-1018.0,388.0,134.0,0.0,0.0,0.0
19:43:39.558000,-841.0,318.0,-85.0,-1010.0,378.0,126.0,0.0,0.0,0.0
19:43:39.563000,-843.0,332.0,-69.0,-1010.0,378.0,126.0,0.0,0.0,0.0
19:43:39.567000,-847.0,352.0,-60.0,-1008.0,355.0,111.0,0.0,0.0,0.0
19:43:39.572000,-849.0,371.0,-55.0,-1008.0,355.0,111.0,0.0,0.0,0.0
19:43:39.577000,-846.0,392.0,-50.0,-1023.0,348.0,91.0,0.0,0.0,0.0
19:43:39.582000,-840.0,413.0,-50.0,-1023.0,348.0,91.0,0.0,0.0,0.0
19:43:39.586000,-835.0,434.0,-53.0,-1023.0,348.0,91.0,0.0,0.0,0.0
19:43:39.591000,-828.0,455.0,-55.0,-1042.0,337.0,69.0,0.0,0.0,0.0
19:43:39.596000,-825.0,478.0,-44.0,-1042.0,337.0,69.0,0.0,0.0,0.0
19:43:39.600000,-824.0,500.0,-16.0,-1049.0,323.0,49.0,0.0,0.0,0.0
19:43:39.605000,-832.0,524.0,11.0,-1049.0,323.0,49.0,0.0,0.0,0.0
19:43:39.610000,-842.0,548.0,34.0,-1049.0,320.0,26.0,0.0,0.0,0.0
19:43:39.614000,-857.0,569.0,52.0,-1049.0,320.0,26.0,0.0,0.0,0.0
19:43:39.619000,-876.0,589.0,85.0,-1039.0,320.0,7.0,0.0,0.0,0.0
19:43:39.624000,-894.0,611.0,119.0,-1039.0,320.0,7.0,0.0,0.0,0.0
19:43:39.629000,-917.0,625.0,130.0,-1013.0,319.0,-10.0,0.0,0.0,0.0
19:43:39.633000,-917.0,625.0,130.0,-1013.0,319.0,-10.0,0.0,0.0,0.0
19:43:39.638000,-941.0,639.0,147.0,-999.0,315.0,-29.0,0.0,0.0,0.0
19:43:39.643000,-966.0,647.0,184.0,-999.0,315.0,-29.0,0.0,0.0,0.0
19:43:39.647000,-989.0,648.0,238.0,-984.0,281.0,-38.0,0.0,0.0,0.0
19:43:39.652000,-1002.0,646.0,275.0,-984.0,281.0,-38.0,0.0,0.0,0.0
19:43:39.657000,-1007.0,649.0,295.0,-943.0,211.0,-45.0,0.0,0.0,0.0
19:43:39.661000,-1001.0,653.0,309.0,-943.0,211.0,-45.0,0.0,0.0,0.0
19:43:39.666000,-988.0,660.0,319.0,-889.0,126.0,-63.0,0.0,0.0,0.0
19:43:39.671000,-970.0,665.0,317.0,-889.0,126.0,-63.0,0.0,0.0,0.0
19:43:39.676000,-945.0,667.0,303.0,-844.0,50.0,-78.0,0.0,0.0,0.0
19:43:39.680000,-915.0,665.0,263.0,-844.0,50.0,-78.0,0.0,0.0,0.0
19:43:39.685000,-881.0,660.0,196.0,-792.0,15.0,-87.0,0.0,0.0,0.0
19:43:39.690000,-849.0,654.0,122.0,-792.0,15.0,-87.0,0.0,0.0,0.0
19:43:39.694000,-820.0,652.0,49.0,-792.0,15.0,-87.0,0.0,0.0,0.0
19:43:39.699000,-797.0,651.0,-30.0,-731.0,15.0,-92.0,0.0,0.0,0.0
19:43:39.704000,-785.0,651.0,-105.0,-731.0,15.0,-92.0,0.0,0.0,0.0
19:43:39.708000,-781.0,649.0,-166.0,-718.0,39.0,-94.0,0.0,0.0,0.0
19:43:39.713000,-784.0,644.0,-219.0,-718.0,39.0,-94.0,0.0,0.0,0.0
19:43:39.718000,-795.0,637.0,-269.0,-757.0,85.0,-89.0,0.0,0.0,0.0
19:43:39.723000,-814.0,631.0,-307.0,-757.0,85.0,-89.0,0.0,0.0,0.0
19:43:39.727000,-836.0,627.0,-333.0,-785.0,130.0,-83.0,0.0,0.0,0.0
19:43:39.732000,-863.0,627.0,-349.0,-785.0,130.0,-83.0,0.0,0.0,0.0
19:43:39.737000,-894.0,629.0,-352.0,-790.0,152.0,-82.0,0.0,0.0,0.0
19:43:39.741000,-894.0,629.0,-352.0,-790.0,152.0,-82.0,0.0,0.0,0.0
19:43:39.746000,-927.0,636.0,-344.0,-807.0,160.0,-82.0,0.0,0.0,0.0
19:43:39.751000,-961.0,638.0,-333.0,-807.0,160.0,-82.0,0.0,0.0,0.0
19:43:39.755000,-994.0,642.0,-312.0,-833.0,156.0,-78.0,0.0,0.0,0.0
19:43:39.760000,-1022.0,646.0,-284.0,-833.0,156.0,-78.0,0.0,0.0,0.0
19:43:39.765000,-1043.0,653.0,-252.0,-844.0,120.0,-72.0,0.0,0.0,0.0
19:43:39.770000,-1058.0,657.0,-220.0,-844.0,120.0,-72.0,0.0,0.0,0.0
19:43:39.774000,-1066.0,662.0,-194.0,-824.0,67.0,-71.0,0.0,0.0,0.0
19:43:39.779000,-1073.0,672.0,-170.0,-824.0,67.0,-71.0,0.0,0.0,0.0
19:43:39.784000,-1078.0,686.0,-150.0,-777.0,27.0,-75.0,0.0,0.0,0.0
19:43:39.788000,-1082.0,698.0,-133.0,-777.0,27.0,-75.0,0.0,0.0,0.0
19:43:39.793000,-1083.0,714.0,-118.0,-711.0,-3.0,-84.0,0.0,0.0,0.0
19:43:39.798000,-1081.0,737.0,-115.0,-711.0,-3.0,-84.0,0.0,0.0,0.0
19:43:39.802000,-1080.0,753.0,-128.0,-711.0,-3.0,-84.0,0.0,0.0,0.0
19:43:39.807000,-1080.0,771.0,-159.0,-637.0,-16.0,-103.0,0.0,0.0,0.0
19:43:39.812000,-1082.0,784.0,-202.0,-637.0,-16.0,-103.0,0.0,0.0,0.0
19:43:39.817000,-1084.0,800.0,-242.0,-579.0,11.0,-126.0,0.0,0.0,0.0
19:43:39.821000,-1082.0,812.0,-272.0,-579.0,11.0,-126.0,0.0,0.0,0.0
19:43:39.826000,-1080.0,823.0,-291.0,-525.0,26.0,-150.0,0.0,0.0,0.0
19:43:39.831000,-1075.0,833.0,-298.0,-525.0,26.0,-150.0,0.0,0.0,0.0
19:43:39.835000,-1067.0,842.0,-298.0,-462.0,3.0,-174.0,0.0,0.0,0.0
19:43:39.840000,-1059.0,848.0,-291.0,-462.0,3.0,-174.0,0.0,0.0,0.0
19:43:39.845000,-1052.0,852.0,-278.0,-390.0,-18.0,-204.0,0.0,0.0,0.0
19:43:39.849000,-1052.0,852.0,-278.0,-390.0,-18.0,-204.0,0.0,0.0,0.0
19:43:39.854000,-1047.0,856.0,-256.0,-323.0,-17.0,-236.0,0.0,0.0,0.0
19:43:39.859000,-1047.0,861.0,-224.0,-323.0,-17.0,-236.0,0.0,0.0,0.0
19:43:39.864000,-1049.0,868.0,-180.0,-257.0,-20.0,-264.0,0.0,0.0,0.0
19:43:39.868000,-1053.0,875.0,-134.0,-257.0,-20.0,-264.0,0.0,0.0,0.0
19:43:39.873000,-1062.0,884.0,-98.0,-194.0,-24.0,-292.0,0.0,0.0,0.0
19:43:39.878000,-1078.0,892.0,-70.0,-194.0,-24.0,-292.0,0.0,0.0,0.0
19:43:39.882000,-1097.0,902.0,-49.0,-147.0,-6.0,-324.0,0.0,0.0,0.0
19:43:39.887000,-1117.0,912.0,-36.0,-147.0,-6.0,-324.0,0.0,0.0,0.0
19:43:39.892000,-1134.0,922.0,-33.0,-103.0,1.0,-372.0,0.0,0.0,0.0
19:43:39.896000,-1145.0,938.0,-40.0,-103.0,1.0,-372.0,0.0,0.0,0.0
19:43:39.901000,-1155.0,954.0,-54.0,-79.0,-1.0,-442.0,0.0,0.0,0.0
19:43:39.906000,-1161.0,973.0,-69.0,-79.0,-1.0,-442.0,0.0,0.0,0.0
19:43:39.911000,-1164.0,990.0,-74.0,-93.0,-8.0,-511.0,0.0,0.0,0.0
19:43:39.915000,-1162.0,1005.0,-70.0,-93.0,-8.0,-511.0,0.0,0.0,0.0
19:43:39.920000,-1153.0,1024.0,-62.0,-93.0,-8.0,-511.0,0.0,0.0,0.0
19:43:39.925000,-1140.0,1047.0,-58.0,-123.0,-34.0,-570.0,0.0,0.0,0.0
19:43:39.929000,-1130.0,1072.0,-59.0,-123.0,-34.0,-570.0,0.0,0.0,0.0
19:43:39.934000,-1127.0,1100.0,-66.0,-157.0,-41.0,-628.0,0.0,0.0,0.0
19:43:39.939000,-1134.0,1128.0,-81.0,-157.0,-41.0,-628.0,0.0,0.0,0.0
19:43:39.943000,-1150.0,1156.0,-102.0,-191.0,10.0,-681.0,0.0,0.0,0.0
19:43:39.948000,-1171.0,1183.0,-130.0,-191.0,10.0,-681.0,0.0,0.0,0.0
19:43:39.953000,-1198.0,1211.0,-163.0,-190.0,78.0,-726.0,0.0,0.0,0.0
19:43:39.958000,-1227.0,1239.0,-193.0,-190.0,78.0,-726.0,0.0,0.0,0.0
19:43:39.962000,-1227.0,1239.0,-193.0,-152.0,109.0,-776.0,0.0,0.0,0.0
19:43:39.967000,-1260.0,1268.0,-213.0,-152.0,109.0,-776.0,0.0,0.0,0.0
19:43:39.972000,-1292.0,1298.0,-222.0,-125.0,98.0,-836.0,0.0,0.0,0.0
19:43:39.976000,-1325.0,1327.0,-219.0,-125.0,98.0,-836.0,0.0,0.0,0.0
19:43:39.981000,-1353.0,1349.0,-205.0,-132.0,57.0,-904.0,0.0,0.0,0.0
19:43:39.986000,-1372.0,1367.0,-180.0,-132.0,57.0,-904.0,0.0,0.0,0.0
19:43:39.990000,-1375.0,1379.0,-150.0,-137.0,-30.0,-976.0,0.0,0.0,0.0
19:43:39.995000,-1360.0,1383.0,-125.0,-137.0,-30.0,-976.0,0.0,0.0,0.0
19:43:40.000000,-1330.0,1381.0,-108.0,-117.0,-143.0,-1038.0,0.0,0.0,0.0
19:43:40.005000,-1286.0,1374.0,-106.0,-117.0,-143.0,-1038.0,0.0,0.0,0.0
19:43:40.009000,-1235.0,1362.0,-118.0,-83.0,-211.0,-1082.0,0.0,0.0,0.0
19:43:40.014000,-1183.0,1338.0,-147.0,-83.0,-211.0,-1082.0,0.0,0.0,0.0
19:43:40.018000,-1132.0,1304.0,-186.0,-22.0,-214.0,-1119.0,0.0,0.0,0.0
19:43:40.023000,-1085.0,1272.0,-233.0,-22.0,-214.0,-1119.0,0.0,0.0,0.0
19:43:40.028000,-1040.0,1233.0,-282.0,-22.0,-214.0,-1119.0,0.0,0.0,0.0
19:43:40.033000,-996.0,1190.0,-319.0,39.0,-187.0,-1160.0,0.0,0.0,0.0
19:43:40.037000,-961.0,1144.0,-343.0,39.0,-187.0,-1160.0,0.0,0.0,0.0
19:43:40.042000,-934.0,1101.0,-362.0,75.0,-195.0,-1184.0,0.0,0.0,0.0
19:43:40.047000,-906.0,1049.0,-393.0,75.0,-195.0,-1184.0,0.0,0.0,0.0
19:43:40.052000,-877.0,991.0,-401.0,64.0,-207.0,-1185.0,0.0,0.0,0.0
19:43:40.056000,-851.0,935.0,-376.0,64.0,-207.0,-1185.0,0.0,0.0,0.0
19:43:40.061000,-816.0,879.0,-360.0,85.0,-231.0,-1159.0,0.0,0.0,0.0
19:43:40.066000,-768.0,827.0,-359.0,85.0,-231.0,-1159.0,0.0,0.0,0.0
19:43:40.070000,-768.0,827.0,-359.0,107.0,-275.0,-1118.0,0.0,0.0,0.0
19:43:40.075000,-727.0,775.0,-340.0,107.0,-275.0,-1118.0,0.0,0.0,0.0
19:43:40.080000,-708.0,725.0,-307.0,49.0,-254.0,-1049.0,0.0,0.0,0.0
19:43:40.084000,-713.0,683.0,-273.0,49.0,-254.0,-1049.0,0.0,0.0,0.0
19:43:40.089000,-741.0,644.0,-241.0,15.0,-123.0,-948.0,0.0,0.0,0.0
19:43:40.094000,-779.0,606.0,-216.0,15.0,-123.0,-948.0,0.0,0.0,0.0
19:43:40.098000,-819.0,570.0,-200.0,-2.0,-16.0,-867.0,0.0,0.0,0.0
19:43:40.103000,-866.0,534.0,-197.0,-2.0,-16.0,-867.0,0.0,0.0,0.0
19:43:40.108000,-923.0,497.0,-204.0,-36.0,11.0,-813.0,0.0,0.0,0.0
19:43:40.113000,-995.0,459.0,-214.0,-36.0,11.0,-813.0,0.0,0.0,0.0
19:43:40.117000,-1080.0,417.0,-220.0,-14.0,73.0,-761.0,0.0,0.0,0.0
19:43:40.122000,-1177.0,369.0,-224.0,-14.0,73.0,-761.0,0.0,0.0,0.0
19:43:40.127000,-1279.0,326.0,-238.0,66.0,118.0,-708.0,0.0,0.0,0.0
19:43:40.131000,-1382.0,283.0,-270.0,66.0,118.0,-708.0,0.0,0.0,0.0
19:43:40.136000,-1486.0,242.0,-319.0,66.0,118.0,-708.0,0.0,0.0,0.0
19:43:40.141000,-1596.0,199.0,-364.0,117.0,103.0,-665.0,0.0,0.0,0.0
19:43:40.145000,-1703.0,154.0,-394.0,117.0,103.0,-665.0,0.0,0.0,0.0
19:43:40.150000,-1812.0,113.0,-415.0,107.0,76.0,-633.0,0.0,0.0,0.0
19:43:40.155000,-1919.0,80.0,-442.0,107.0,76.0,-633.0,0.0,0.0,0.0
19:43:40.160000,-2020.0,50.0,-487.0,66.0,50.0,-616.0,0.0,0.0,0.0
19:43:40.164000,-2116.0,21.0,-543.0,66.0,50.0,-616.0,0.0,0.0,0.0
19:43:40.169000,-2210.0,-1.0,-597.0,12.0,26.0,-605.0,0.0,0.0,0.0
19:43:40.174000,-2298.0,-23.0,-643.0,12.0,26.0,-605.0,0.0,0.0,0.0
19:43:40.178000,-2298.0,-23.0,-643.0,-41.0,1.0,-595.0,0.0,0.0,0.0
19:43:40.183000,-2377.0,-43.0,-674.0,-41.0,1.0,-595.0,0.0,0.0,0.0
19:43:40.188000,-2449.0,-63.0,-688.0,-69.0,-58.0,-593.0,0.0,0.0,0.0
19:43:40.192000,-2514.0,-81.0,-698.0,-69.0,-58.0,-593.0,0.0,0.0,0.0
19:43:40.197000,-2571.0,-102.0,-714.0,-66.0,-143.0,-598.0,0.0,0.0,0.0
19:43:40.202000,-2620.0,-121.0,-734.0,-66.0,-143.0,-598.0,0.0,0.0,0.0
19:43:40.207000,-2660.0,-140.0,-757.0,-58.0,-222.0,-608.0,0.0,0.0,0.0
19:43:40.211000,-2684.0,-158.0,-778.0,-58.0,-222.0,-608.0,0.0,0.0,0.0
19:43:40.216000,-2701.0,-178.0,-798.0,-65.0,-303.0,-621.0,0.0,0.0,0.0
19:43:40.221000,-2706.0,-201.0,-816.0,-65.0,-303.0,-621.0,0.0,0.0,0.0
19:43:40.225000,-2701.0,-226.0,-838.0,-79.0,-396.0,-636.0,0.0,0.0,0.0
19:43:40.230000,-2686.0,-249.0,-855.0,-79.0,-396.0,-636.0,0.0,0.0,0.0
19:43:40.235000,-2663.0,-270.0,-867.0,-73.0,-490.0,-663.0,0.0,0.0,0.0
19:43:40.239000,-2634.0,-286.0,-881.0,-73.0,-490.0,-663.0,0.0,0.0,0.0
19:43:40.244000,-2599.0,-299.0,-897.0,-73.0,-490.0,-663.0,0.0,0.0,0.0
19:43:40.249000,-2562.0,-317.0,-913.0,-67.0,-560.0,-695.0,0.0,0.0,0.0
19:43:40.254000,-2523.0,-340.0,-927.0,-67.0,-560.0,-695.0,0.0,0.0,0.0
19:43:40.258000,-2481.0,-365.0,-926.0,-97.0,-600.0,-720.0,0.0,0.0,0.0
19:43:40.263000,-2439.0,-395.0,-907.0,-97.0,-600.0,-720.0,0.0,0.0,0.0
19:43:40.268000,-2396.0,-448.0,-870.0,-128.0,-666.0,-735.0,0.0,0.0,0.0
19:43:40.272000,-2360.0,-494.0,-800.0,-128.0,-666.0,-735.0,0.0,0.0,0.0
19:43:40.277000,-2433.0,-525.0,-687.0,-105.0,-839.0,-719.0,0.0,0.0,0.0
19:43:40.282000,-2390.0,-540.0,-665.0,-105.0,-839.0,-719.0,0.0,0.0,0.0
19:43:40.286000,-2390.0,-540.0,-665.0,-141.0,-1011.0,-741.0,0.0,0.0,0.0
19:43:40.291000,-2141.0,-582.0,-872.0,-141.0,-1011.0,-741.0,0.0,0.0,0.0
19:43:40.296000,-2085.0,-634.0,-1103.0,-368.0,-733.0,-721.0,0.0,0.0,0.0
19:43:40.301000,-2097.0,-671.0,-1161.0,-368.0,-733.0,-721.0,0.0,0.0,0.0
19:43:40.305000,-2137.0,-742.0,-1061.0,-447.0,-586.0,-624.0,0.0,0.0,0.0
19:43:40.310000,-2164.0,-788.0,-961.0,-447.0,-586.0,-624.0,0.0,0.0,0.0
19:43:40.315000,-2107.0,-800.0,-863.0,-360.0,-944.0,-622.0,0.0,0.0,0.0
19:43:40.319000,-2029.0,-818.0,-791.0,-360.0,-944.0,-622.0,0.0,0.0,0.0
19:43:40.324000,-1941.0,-856.0,-814.0,-381.0,-1100.0,-653.0,0.0,0.0,0.0
19:43:40.329000,-1880.0,-885.0,-1057.0,-381.0,-1100.0,-653.0,0.0,0.0,0.0
19:43:40.333000,-1855.0,-905.0,-1155.0,-466.0,-947.0,-628.0,0.0,0.0,0.0
19:43:40.338000,-1861.0,-934.0,-1125.0,-466.0,-947.0,-628.0,0.0,0.0,0.0
19:43:40.343000,-1887.0,-949.0,-1152.0,-601.0,-826.0,-595.0,0.0,0.0,0.0
19:43:40.348000,-1731.0,-952.0,-1176.0,-601.0,-826.0,-595.0,0.0,0.0,0.0
19:43:40.352000,-1931.0,-945.0,-1190.0,-615.0,-930.0,-539.0,0.0,0.0,0.0
19:43:40.357000,-1801.0,-949.0,-1128.0,-615.0,-930.0,-539.0,0.0,0.0,0.0
19:43:40.362000,-1714.0,-954.0,-1162.0,-615.0,-930.0,-539.0,0.0,0.0,0.0
19:43:40.366000,-1707.0,-974.0,-1228.0,-536.0,-978.0,-493.0,0.0,0.0,0.0
19:43:40.371000,-1684.0,-986.0,-1243.0,-536.0,-978.0,-493.0,0.0,0.0,0.0
19:43:40.376000,-1628.0,-991.0,-1197.0,-530.0,-940.0,-470.0,0.0,0.0,0.0
19:43:40.380000,-1596.0,-985.0,-1173.0,-530.0,-940.0,-470.0,0.0,0.0,0.0
19:43:40.385000,-1516.0,-987.0,-1226.0,-594.0,-880.0,-439.0,0.0,0.0,0.0
19:43:40.390000,-1512.0,-973.0,-1234.0,-594.0,-880.0,-439.0,0.0,0.0,0.0
19:43:40.395000,-1460.0,-968.0,-1208.0,-730.0,-835.0,-402.0,0.0,0.0,0.0
19:43:40.399000,-1460.0,-968.0,-1208.0,-730.0,-835.0,-402.0,0.0,0.0,0.0
19:43:40.404000,-1442.0,-954.0,-1208.0,-822.0,-848.0,-354.0,0.0,0.0,0.0
19:43:40.409000,-1400.0,-938.0,-1173.0,-822.0,-848.0,-354.0,0.0,0.0,0.0
19:43:40.413000,-1335.0,-914.0,-1027.0,-848.0,-953.0,-323.0,0.0,0.0,0.0
19:43:40.418000,-1262.0,-892.0,-899.0,-848.0,-953.0,-323.0,0.0,0.0,0.0
19:43:40.423000,-1225.0,-865.0,-920.0,-909.0,-992.0,-299.0,0.0,0.0,0.0
19:43:40.427000,-1179.0,-834.0,-990.0,-909.0,-992.0,-299.0,0.0,0.0,0.0
19:43:40.432000,-1133.0,-812.0,-937.0,-888.0,-934.0,-276.0,0.0,0.0,0.0
19:43:40.437000,-1078.0,-790.0,-901.0,-888.0,-934.0,-276.0,0.0,0.0,0.0
19:43:40.442000,-1050.0,-774.0,-882.0,-883.0,-906.0,-256.0,0.0,0.0,0.0
19:43:40.446000,-999.0,-770.0,-752.0,-883.0,-906.0,-256.0,0.0,0.0,0.0
19:43:40.451000,-967.0,-750.0,-732.0,-972.0,-891.0,-238.0,0.0,0.0,0.0
19:43:40.456000,-904.0,-747.0,-828.0,-972.0,-891.0,-238.0,0.0,0.0,0.0
19:43:40.460000,-858.0,-732.0,-861.0,-961.0,-885.0,-224.0,0.0,0.0,0.0
19:43:40.465000,-812.0,-717.0,-795.0,-961.0,-885.0,-224.0,0.0,0.0,0.0
19:43:40.470000,-776.0,-699.0,-723.0,-961.0,-885.0,-224.0,0.0,0.0,0.0
19:43:40.474000,-762.0,-674.0,-711.0,-959.0,-831.0,-191.0,0.0,0.0,0.0
19:43:40.479000,-743.0,-649.0,-690.0,-959.0,-831.0,-191.0,0.0,0.0,0.0
19:43:40.484000,-714.0,-616.0,-657.0,-1010.0,-811.0,-156.0,0.0,0.0,0.0
19:43:40.489000,-693.0,-585.0,-652.0,-1010.0,-811.0,-156.0,0.0,0.0,0.0
19:43:40.493000,-677.0,-552.0,-658.0,-1040.0,-770.0,-129.0,0.0,0.0,0.0
19:43:40.498000,-667.0,-512.0,-661.0,-1040.0,-770.0,-129.0,0.0,0.0,0.0
19:43:40.503000,-658.0,-476.0,-641.0,-1053.0,-703.0,-102.0,0.0,0.0,0.0
19:43:40.507000,-658.0,-476.0,-641.0,-1053.0,-703.0,-102.0,0.0,0.0,0.0
19:43:40.512000,-643.0,-441.0,-614.0,-1052.0,-707.0,-81.0,0.0,0.0,0.0
19:43:40.517000,-627.0,-410.0,-598.0,-1052.0,-707.0,-81.0,0.0,0.0,0.0
19:43:40.521000,-613.0,-377.0,-599.0,-1048.0,-734.0,-74.0,0.0,0.0,0.0
19:43:40.526000,-597.0,-338.0,-602.0,-1048.0,-734.0,-74.0,0.0,0.0,0.0
19:43:40.531000,-589.0,-300.0,-595.0,-1030.0,-694.0,-82.0,0.0,0.0,0.0
19:43:40.536000,-590.0,-270.0,-596.0,-1030.0,-694.0,-82.0,0.0,0.0,0.0
19:43:40.540000,-590.0,-240.0,-613.0,-1015.0,-614.0,-90.0,0.0,0.0,0.0
19:43:40.545000,-579.0,-223.0,-623.0,-1015.0,-614.0,-90.0,0.0,0.0,0.0
19:43:40.550000,-573.0,-203.0,-628.0,-979.0,-574.0,-93.0,0.0,0.0,0.0
19:43:40.554000,-551.0,-188.0,-639.0,-979.0,-574.0,-93.0,0.0,0.0,0.0
19:43:40.559000,-528.0,-175.0,-642.0,-979.0,-574.0,-93.0,0.0,0.0,0.0
19:43:40.564000,-497.0,-163.0,-627.0,-911.0,-580.0,-104.0,0.0,0.0,0.0
19:43:40.568000,-473.0,-152.0,-624.0,-879.0,-516.0,-123.0,0.0,0.0,0.0
19:43:40.573000,-459.0,-141.0,-623.0,-879.0,-516.0,-123.0,0.0,0.0,0.0
19:43:40.578000,-447.0,-126.0,-616.0,-879.0,-516.0,-123.0,0.0,0.0,0.0
19:43:40.583000,-445.0,-99.0,-568.0,-906.0,-398.0,-97.0,0.0,0.0,0.0
19:43:40.587000,-425.0,-97.0,-479.0,-906.0,-398.0,-97.0,0.0,0.0,0.0
19:43:40.592000,-441.0,-84.0,-455.0,-896.0,-288.0,-77.0,0.0,0.0,0.0
19:43:40.597000,-445.0,-70.0,-453.0,-896.0,-288.0,-77.0,0.0,0.0,0.0
19:43:40.601000,-425.0,-59.0,-405.0,-963.0,-219.0,-112.0,0.0,0.0,0.0
19:43:40.606000,-410.0,-41.0,-351.0,-963.0,-219.0,-112.0,0.0,0.0,0.0
19:43:40.611000,-384.0,-34.0,-300.0,-1029.0,-224.0,-137.0,0.0,0.0,0.0
19:43:40.615000,-384.0,-34.0,-300.0,-1029.0,-224.0,-137.0,0.0,0.0,0.0
19:43:40.620000,-357.0,-20.0,-266.0,-978.0,-228.0,-142.0,0.0,0.0,0.0
19:43:40.625000,-326.0,-14.0,-233.0,-978.0,-228.0,-142.0,0.0,0.0,0.0
19:43:40.630000,-288.0,-5.0,-207.0,-983.0,-212.0,-154.0,0.0,0.0,0.0
19:43:40.634000,-257.0,-2.0,-179.0,-983.0,-212.0,-154.0,0.0,0.0,0.0
19:43:40.639000,-224.0,4.0,-153.0,-1001.0,-198.0,-174.0,0.0,0.0,0.0
19:43:40.644000,-196.0,8.0,-126.0,-1001.0,-198.0,-174.0,0.0,0.0,0.0
19:43:40.648000,-161.0,7.0,-100.0,-1017.0,-162.0,-193.0,0.0,0.0,0.0
19:43:40.653000,-135.0,8.0,-73.0,-1017.0,-162.0,-193.0,0.0,0.0,0.0
19:43:40.658000,-120.0,5.0,-56.0,-1048.0,-106.0,-195.0,0.0,0.0,0.0
19:43:40.662000,-108.0,11.0,-42.0,-1048.0,-106.0,-195.0,0.0,0.0,0.0
19:43:40.667000,-88.0,16.0,-21.0,-1051.0,-67.0,-199.0,0.0,0.0,0.0
19:43:40.672000,-74.0,17.0,-7.0,-1051.0,-67.0,-199.0,0.0,0.0,0.0
19:43:40.677000,-64.0,19.0,-3.0,-1051.0,-44.0,-203.0,0.0,0.0,0.0
19:43:40.681000,-37.0,18.0,-7.0,-1039.0,-44.0,-203.0,0.0,0.0,0.0
19:43:40.686000,-16.0,19.0,-1.0,-1039.0,-44.0,-203.0,0.0,0.0,0.0
19:43:40.691000,0.0,29.0,28.0,-1065.0,-57.0,-203.0,0.0,0.0,0.0
19:43:40.695000,38.0,22.0,8.0,-1065.0,-57.0,-203.0,0.0,0.0,0.0
19:43:40.700000,65.0,41.0,-32.0,-1128.0,-99.0,-209.0,0.0,0.0,0.0
19:43:40.705000,122.0,41.0,-63.0,-1128.0,-99.0,-209.0,0.0,0.0,0.0
19:43:40.709000,124.0,51.0,-94.0,-1138.0,-87.0,-208.0,0.0,0.0,0.0
19:43:40.714000,107.0,47.0,-90.0,-1138.0,-87.0,-208.0,0.0,0.0,0.0
19:43:40.719000,103.0,49.0,-102.0,-1115.0,0.0,-198.0,0.0,0.0,0.0
19:43:40.724000,88.0,49.0,-133.0,-1115.0,0.0,-198.0,0.0,0.0,0.0
19:43:40.728000,88.0,42.0,-133.0,-1116.0,60.0,-186.0,0.0,0.0,0.0
19:43:40.733000,68.0,43.0,-135.0,-1116.0,60.0,-186.0,0.0,0.0,0.0
19:43:40.738000,55.0,35.0,-133.0,-1075.0,66.0,-181.0,0.0,0.0,0.0
19:43:40.742000,38.0,28.0,-158.0,-1075.0,66.0,-181.0,0.0,0.0,0.0
19:43:40.747000,30.0,20.0,-165.0,-1035.0,61.0,-173.0,0.0,0.0,0.0
19:43:40.752000,34.0,17.0,-143.0,-1035.0,61.0,-173.0,0.0,0.0,0.0
19:43:40.756000,33.0,19.0,-112.0,-1079.0,20.0,-178.0,0.0,0.0,0.0
19:43:40.761000,46.0,20.0,-94.0,-1079.0,20.0,-178.0,0.0,0.0,0.0
19:43:40.766000,69.0,16.0,-69.0,-1169.0,-15.0,-191.0,0.0,0.0,0.0
19:43:40.771000,77.0,18.0,-23.0,-1169.0,-15.0,-191.0,0.0,0.0,0.0
19:43:40.775000,105.0,15.0,9.0,-1231.0,-30.0,-206.0,0.0,0.0,0.0
19:43:40.780000,127.0,13.0,21.0,-1231.0,-30.0,-206.0,0.0,0.0,0.0
19:43:40.785000,149.0,11.0,26.0,-1256.0,-42.0,-223.0,0.0,0.0,0.0
19:43:40.789000,163.0,10.0,37.0,-1256.0,-42.0,-223.0,0.0,0.0,0.0
19:43:40.794000,165.0,7.0,48.0,-1256.0,-42.0,-223.0,0.0,0.0,0.0
19:43:40.799000,150.0,2.0,73.0,-1268.0,6.0,-230.0,0.0,0.0,0.0
19:43:40.803000,136.0,-7.0,100.0,-1268.0,6.0,-230.0,0.0,0.0,0.0
19:43:40.808000,119.0,-28.0,116.0,-1260.0,78.0,-230.0,0.0,0.0,0.0
19:43:40.813000,98.0,-51.0,121.0,-1260.0,78.0,-230.0,0.0,0.0,0.0
19:43:40.818000,80.0,-60.0,121.0,-1210.0,100.0,-231.0,0.0,0.0,0.0
19:43:40.822000,80.0,-60.0,121.0,-1210.0,100.0,-231.0,0.0,0.0,0.0
19:43:40.827000,58.0,-75.0,62.0,-1170.0,101.0,-236.0,0.0,0.0,0.0
19:43:40.832000,72.0,-77.0,28.0,-1170.0,101.0,-236.0,0.0,0.0,0.0
19:43:40.836000,72.0,-77.0,28.0,-1188.0,79.0,-237.0,0.0,0.0,0.0
19:43:40.841000,77.0,-69.0,9.0,-1188.0,79.0,-237.0,0.0,0.0,0.0
19:43:40.846000,98.0,-53.0,-11.0,-1274.0,52.0,-237.0,0.0,0.0,0.0
19:43:40.850000,107.0,-33.0,-49.0,-1274.0,52.0,-237.0,0.0,0.0,0.0
19:43:40.855000,114.0,-10.0,-78.0,-1401.0,29.0,-246.0,0.0,0.0,0.0
19:43:40.860000,136.0,12.0,-119.0,-1401.0,29.0,-246.0,0.0,0.0,0.0
19:43:40.865000,167.0,30.0,-183.0,-1478.0,61.0,-254.0,0.0,0.0,0.0
19:43:40.869000,184.0,40.0,-237.0,-1478.0,61.0,-254.0,0.0,0.0,0.0
19:43:40.874000,196.0,58.0,-273.0,-1474.0,132.0,-252.0,0.0,0.0,0.0
19:43:40.879000,206.0,67.0,-334.0,-1474.0,132.0,-252.0,0.0,0.0,0.0
19:43:40.883000,210.0,93.0,-386.0,-1402.0,200.0,-242.0,0.0,0.0,0.0
19:43:40.888000,188.0,128.0,-364.0,-1402.0,200.0,-242.0,0.0,0.0,0.0
19:43:40.893000,190.0,162.0,-365.0,-1392.0,247.0,-232.0,0.0,0.0,0.0
19:43:40.897000,217.0,212.0,-436.0,-1392.0,247.0,-232.0,0.0,0.0,0.0
19:43:40.902000,241.0,275.0,-399.0,-1392.0,247.0,-232.0,0.0,0.0,0.0
19:43:40.907000,267.0,321.0,-311.0,-1489.0,295.0,-219.0,0.0,0.0,0.0
19:43:40.912000,253.0,365.0,-280.0,-1489.0,295.0,-219.0,0.0,0.0,0.0
19:43:40.916000,275.0,425.0,-195.0,-1552.0,383.0,-194.0,0.0,0.0,0.0
19:43:40.921000,229.0,475.0,-133.0,-1552.0,383.0,-194.0,0.0,0.0,0.0
19:43:40.925000,223.0,508.0,-193.0,-1512.0,427.0,-181.0,0.0,0.0,0.0
19:43:40.930000,282.0,512.0,-77.0,-1512.0,427.0,-181.0,0.0,0.0,0.0
19:43:40.935000,235.0,528.0,28.0,-1445.0,380.0,-217.0,0.0,0.0,0.0
19:43:40.940000,208.0,546.0,-100.0,-1445.0,380.0,-217.0,0.0,0.0,0.0
19:43:40.944000,208.0,546.0,-100.0,-1479.0,349.0,-284.0,0.0,0.0,0.0
19:43:40.949000,245.0,520.0,-153.0,-1479.0,349.0,-284.0,0.0,0.0,0.0
19:43:40.954000,179.0,484.0,-134.0,-1433.0,294.0,-317.0,0.0,0.0,0.0
19:43:40.959000,130.0,424.0,-95.0,-1433.0,294.0,-317.0,0.0,0.0,0.0
19:43:40.963000,46.0,354.0,24.0,-1202.0,187.0,-318.0,0.0,0.0,0.0
19:43:40.968000,-3.0,284.0,60.0,-1202.0,187.0,-318.0,0.0,0.0,0.0
19:43:40.973000,-28.0,226.0,-47.0,-978.0,-46.0,-320.0,0.0,0.0,0.0
19:43:40.977000,-53.0,145.0,-101.0,-978.0,-46.0,-320.0,0.0,0.0,0.0
19:43:40.982000,-91.0,74.0,-119.0,-696.0,-428.0,-291.0,0.0,0.0,0.0
19:43:40.987000,-100.0,-9.0,32.0,-696.0,-428.0,-291.0,0.0,0.0,0.0
19:43:40.991000,-119.0,-64.0,179.0,-478.0,-645.0,-253.0,0.0,0.0,0.0
19:43:40.996000,-172.0,-113.0,322.0,-478.0,-645.0,-253.0,0.0,0.0,0.0
19:43:41.001000,-230.0,-151.0,200.0,-482.0,-737.0,-210.0,0.0,0.0,0.0
19:43:41.006000,-282.0,-214.0,93.0,-482.0,-737.0,-210.0,0.0,0.0,0.0
19:43:41.010000,-217.0,-274.0,37.0,-482.0,-737.0,-210.0,0.0,0.0,0.0
19:43:41.015000,-95.0,-316.0,105.0,-405.0,-1005.0,-160.0,0.0,0.0,0.0
19:43:41.020000,-91.0,-300.0,240.0,-405.0,-1005.0,-160.0,0.0,0.0,0.0
19:43:41.024000,-163.0,-344.0,72.0,-459.0,-1191.0,-122.0,0.0,0.0,0.0
19:43:41.029000,-123.0,-345.0,-65.0,-459.0,-1191.0,-122.0,0.0,0.0,0.0
19:43:41.034000,-81.0,-352.0,-144.0,-613.0,-1090.0,-95.0,0.0,0.0,0.0
19:43:41.038000,-42.0,-383.0,-337.0,-613.0,-1090.0,-95.0,0.0,0.0,0.0
19:43:41.043000,-81.0,-384.0,-383.0,-633.0,-919.0,-85.0,0.0,0.0,0.0
19:43:41.048000,-108.0,-382.0,-319.0,-633.0,-919.0,-85.0,0.0,0.0,0.0
19:43:41.053000,-108.0,-382.0,-319.0,-727.0,-679.0,-86.0,0.0,0.0,0.0
19:43:41.057000,-128.0,-381.0,-361.0,-727.0,-679.0,-86.0,0.0,0.0,0.0
19:43:41.062000,-157.0,-395.0,-616.0,-839.0,-558.0,-63.0,0.0,0.0,0.0
19:43:41.067000,-177.0,-387.0,-770.0,-839.0,-558.0,-63.0,0.0,0.0,0.0
19:43:41.071000,-140.0,-413.0,-785.0,-827.0,-646.0,-15.0,0.0,0.0,0.0
19:43:41.076000,-86.0,-420.0,-511.0,-827.0,-646.0,-15.0,0.0,0.0,0.0
19:43:41.081000,-86.0,-406.0,-212.0,-689.0,-672.0,13.0,0.0,0.0,0.0
19:43:41.085000,-45.0,-427.0,-254.0,-689.0,-672.0,13.0,0.0,0.0,0.0
19:43:41.090000,-70.0,-410.0,-372.0,-730.0,-653.0,32.0,0.0,0.0,0.0
19:43:41.095000,-71.0,-422.0,-359.0,-730.0,-653.0,32.0,0.0,0.0,0.0
19:43:41.100000,-86.0,-378.0,-378.0,-880.0,-702.0,34.0,0.0,0.0,0.0
19:43:41.104000,-45.0,-368.0,-248.0,-880.0,-702.0,34.0,0.0,0.0,0.0
19:43:41.109000,-21.0,-331.0,-163.0,-893.0,-785.0,37.0,0.0,0.0,0.0
19:43:41.114000,16.0,-278.0,-136.0,-893.0,-785.0,37.0,0.0,0.0,0.0
19:43:41.118000,54.0,-258.0,-129.0,-893.0,-785.0,37.0,0.0,0.0,0.0
19:43:41.123000,70.0,-236.0,-263.0,-918.0,-866.0,68.0,0.0,0.0,0.0
19:43:41.128000,90.0,-177.0,-474.0,-918.0,-866.0,68.0,0.0,0.0,0.0
19:43:41.132000,124.0,-102.0,-591.0,-888.0,-706.0,97.0,0.0,0.0,0.0
19:43:41.137000,165.0,-74.0,-706.0,-888.0,-706.0,97.0,0.0,0.0,0.0
19:43:41.142000,180.0,-52.0,-572.0,-871.0,-662.0,96.0,0.0,0.0,0.0
19:43:41.147000,191.0,-23.0,-433.0,-871.0,-662.0,96.0,0.0,0.0,0.0
19:43:41.151000,234.0,-23.0,-418.0,-832.0,-654.0,60.0,0.0,0.0,0.0
19:43:41.156000,313.0,-30.0,-470.0,-832.0,-654.0,60.0,0.0,0.0,0.0
19:43:41.161000,366.0,-42.0,-511.0,-775.0,-567.0,21.0,0.0,0.0,0.0
19:43:41.165000,366.0,-42.0,-511.0,-775.0,-567.0,21.0,0.0,0.0,0.0
19:43:41.170000,293.0,-20.0,-526.0,-785.0,-612.0,39.0,0.0,0.0,0.0
19:43:41.175000,282.0,-11.0,-262.0,-785.0,-612.0,39.0,0.0,0.0,0.0
19:43:41.179000,212.0,14.0,-147.0,-883.0,-464.0,48.0,0.0,0.0,0.0
19:43:41.184000,196.0,23.0,-280.0,-883.0,-464.0,48.0,0.0,0.0,0.0
19:43:41.189000,196.0,22.0,-240.0,-875.0,-417.0,14.0,0.0,0.0,0.0
19:43:41.194000,182.0,16.0,-313.0,-875.0,-417.0,14.0,0.0,0.0,0.0
19:43:41.198000,305.0,-8.0,-291.0,-705.0,-501.0,-23.0,0.0,0.0,0.0
19:43:41.203000,334.0,-46.0,-122.0,-705.0,-501.0,-23.0,0.0,0.0,0.0
19:43:41.208000,250.0,-57.0,-150.0,-776.0,-393.0,-43.0,0.0,0.0,0.0
19:43:41.212000,289.0,-87.0,-173.0,-776.0,-393.0,-43.0,0.0,0.0,0.0
19:43:41.217000,259.0,-104.0,-89.0,-821.0,-424.0,-49.0,0.0,0.0,0.0
19:43:41.222000,244.0,-86.0,28.0,-821.0,-424.0,-49.0,0.0,0.0,0.0
19:43:41.226000,249.0,-102.0,-90.0,-821.0,-424.0,-49.0,0.0,0.0,0.0
19:43:41.231000,234.0,-158.0,-242.0,-901.0,-553.0,-62.0,0.0,0.0,0.0
19:43:41.236000,113.0,-172.0,-173.0,-901.0,-553.0,-62.0,0.0,0.0,0.0
19:43:41.241000,35.0,-156.0,-154.0,-858.0,-413.0,-40.0,0.0,0.0,0.0
19:43:41.245000,32.0,-154.0,-81.0,-858.0,-413.0,-40.0,0.0,0.0,0.0
19:43:41.250000,46.0,-159.0,97.0,-702.0,-400.0,-44.0,0.0,0.0,0.0
19:43:41.255000,12.0,-175.0,199.0,-702.0,-400.0,-44.0,0.0,0.0,0.0
19:43:41.259000,-18.0,-175.0,98.0,-824.0,-414.0,-60.0,0.0,0.0,0.0
19:43:41.264000,-14.0,-190.0,-62.0,-824.0,-414.0,-60.0,0.0,0.0,0.0
19:43:41.269000,-26.0,-227.0,-92.0,-896.0,-372.0,-36.0,0.0,0.0,0.0
19:43:41.273000,-26.0,-227.0,-92.0,-896.0,-372.0,-36.0,0.0,0.0,0.0
19:43:41.278000,-58.0,-237.0,-49.0,-833.0,-446.0,-18.0,0.0,0.0,0.0
19:43:41.283000,-69.0,-219.0,-87.0,-833.0,-446.0,-18.0,0.0,0.0,0.0
19:43:41.288000,-119.0,-222.0,-186.0,-826.0,-481.0,0.0,0.0,0.0,0.0
19:43:41.292000,-69.0,-253.0,-204.0,-826.0,-481.0,0.0,0.0,0.0,0.0
19:43:41.297000,-60.0,-263.0,-59.0,-815.0,-546.0,14.0,0.0,0.0,0.0
19:43:41.302000,-113.0,-234.0,-16.0,-815.0,-546.0,14.0,0.0,0.0,0.0
19:43:41.306000,-72.0,-247.0,-52.0,-868.0,-534.0,20.0,0.0,0.0,0.0
19:43:41.311000,-86.0,-256.0,-52.0,-868.0,-534.0,20.0,0.0,0.0,0.0
19:43:41.316000,-103.0,-243.0,-98.0,-962.0,-464.0,39.0,0.0,0.0,0.0
19:43:41.320000,-159.0,-233.0,-191.0,-962.0,-464.0,39.0,0.0,0.0,0.0
19:43:41.325000,-130.0,-219.0,-228.0,-890.0,-485.0,53.0,0.0,0.0,0.0
19:43:41.330000,-80.0,-197.0,-184.0,-890.0,-485.0,53.0,0.0,0.0,0.0
19:43:41.335000,-110.0,-173.0,-191.0,-890.0,-485.0,53.0,0.0,0.0,0.0
19:43:41.339000,-103.0,-160.0,-203.0,-943.0,-536.0,64.0,0.0,0.0,0.0
19:43:41.344000,-68.0,-146.0,-42.0,-943.0,-536.0,64.0,0.0,0.0,0.0
19:43:41.349000,-49.0,-121.0,52.0,-1003.0,-505.0,59.0,0.0,0.0,0.0
19:43:41.353000,-37.0,-128.0,-49.0,-1003.0,-505.0,59.0,0.0,0.0,0.0
19:43:41.358000,-91.0,-140.0,-76.0,-966.0,-446.0,54.0,0.0,0.0,0.0
19:43:41.363000,-137.0,-116.0,-37.0,-966.0,-446.0,54.0,0.0,0.0,0.0
19:43:41.367000,-101.0,-118.0,-51.0,-976.0,-493.0,57.0,0.0,0.0,0.0
19:43:41.372000,-117.0,-114.0,-72.0,-976.0,-493.0,57.0,0.0,0.0,0.0
19:43:41.377000,-151.0,-75.0,-56.0,-916.0,-510.0,56.0,0.0,0.0,0.0
19:43:41.382000,-151.0,-75.0,-56.0,-916.0,-510.0,56.0,0.0,0.0,0.0
19:43:41.386000,-185.0,-31.0,-62.0,-930.0,-433.0,74.0,0.0,0.0,0.0
19:43:41.391000,-131.0,-25.0,-105.0,-930.0,-433.0,74.0,0.0,0.0,0.0
19:43:41.395000,-93.0,-11.0,-141.0,-1029.0,-497.0,70.0,0.0,0.0,0.0
19:43:41.400000,-53.0,-27.0,-180.0,-1029.0,-497.0,70.0,0.0,0.0,0.0
19:43:41.405000,-7.0,-25.0,-168.0,-983.0,-512.0,44.0,0.0,0.0,0.0
19:43:41.410000,56.0,-2.0,-182.0,-983.0,-512.0,44.0,0.0,0.0,0.0
19:43:41.414000,69.0,-4.0,-170.0,-847.0,-503.0,51.0,0.0,0.0,0.0
19:43:41.419000,16.0,-19.0,-74.0,-847.0,-503.0,51.0,0.0,0.0,0.0
19:43:41.424000,21.0,-18.0,-76.0,-864.0,-534.0,64.0,0.0,0.0,0.0
19:43:41.429000,-2.0,-23.0,-178.0,-864.0,-534.0,64.0,0.0,0.0,0.0
19:43:41.433000,11.0,-21.0,-161.0,-877.0,-417.0,48.0,0.0,0.0,0.0
19:43:41.438000,35.0,-7.0,-51.0,-877.0,-417.0,48.0,0.0,0.0,0.0
19:43:41.443000,18.0,5.0,-65.0,-877.0,-355.0,48.0,0.0,0.0,0.0
19:43:41.447000,29.0,-1.0,-147.0,-887.0,-361.0,33.0,0.0,0.0,0.0
19:43:41.452000,36.0,9.0,-169.0,-887.0,-361.0,33.0,0.0,0.0,0.0
19:43:41.457000,86.0,14.0,-135.0,-946.0,-423.0,20.0,0.0,0.0,0.0
19:43:41.461000,121.0,-3.0,-112.0,-946.0,-423.0,20.0,0.0,0.0,0.0
19:43:41.466000,105.0,4.0,-115.0,-855.0,-404.0,27.0,0.0,0.0,0.0
19:43:41.471000,77.0,-4.0,-207.0,-855.0,-404.0,27.0,0.0,0.0,0.0
19:43:41.476000,53.0,-7.0,-289.0,-830.0,-379.0,45.0,0.0,0.0,0.0
19:43:41.480000,26.0,2.0,-223.0,-830.0,-379.0,45.0,0.0,0.0,0.0
19:43:41.485000,20.0,12.0,-175.0,-869.0,-404.0,40.0,0.0,0.0,0.0
19:43:41.490000,20.0,12.0,-175.0,-869.0,-404.0,40.0,0.0,0.0,0.0
19:43:41.494000,-12.0,26.0,-181.0,-920.0,-403.0,46.0,0.0,0.0,0.0
19:43:41.499000,-65.0,47.0,-168.0,-920.0,-403.0,46.0,0.0,0.0,0.0
19:43:41.504000,-96.0,42.0,-157.0,-985.0,-408.0,61.0,0.0,0.0,0.0
19:43:41.508000,-95.0,36.0,-109.0,-985.0,-408.0,61.0,0.0,0.0,0.0
19:43:41.513000,-119.0,40.0,-26.0,-894.0,-391.0,46.0,0.0,0.0,0.0
19:43:41.518000,-114.0,28.0,-21.0,-894.0,-391.0,46.0,0.0,0.0,0.0
19:43:41.523000,-114.0,21.0,-67.0,-813.0,-327.0,23.0,0.0,0.0,0.0
19:43:41.527000,-98.0,-7.0,-109.0,-813.0,-327.0,23.0,0.0,0.0,0.0
19:43:41.532000,-90.0,-33.0,-97.0,-813.0,-362.0,4.0,0.0,0.0,0.0
19:43:41.537000,-79.0,-44.0,-95.0,-813.0,-362.0,4.0,0.0,0.0,0.0
19:43:41.541000,-106.0,-46.0,-88.0,-838.0,-391.0,-1.0,0.0,0.0,0.0
19:43:41.546000,-70.0,-60.0,-86.0,-838.0,-391.0,-1.0,0.0,0.0,0.0
19:43:41.551000,-33.0,-63.0,-133.0,-850.0,-315.0,7.0,0.0,0.0,0.0
19:43:41.555000,-50.0,-63.0,-154.0,-850.0,-315.0,7.0,0.0,0.0,0.0
19:43:41.560000,-74.0,-70.0,-147.0,-850.0,-315.0,7.0,0.0,0.0,0.0
19:43:41.565000,-79.0,-68.0,-142.0,-824.0,-335.0,29.0,0.0,0.0,0.0
19:43:41.570000,-105.0,-63.0,-91.0,-824.0,-335.0,29.0,0.0,0.0,0.0
19:43:41.574000,-121.0,-51.0,-23.0,-829.0,-387.0,39.0,0.0,0.0,0.0
19:43:41.579000,-130.0,-30.0,-73.0,-829.0,-387.0,39.0,0.0,0.0,0.0
19:43:41.584000,-131.0,-22.0,-109.0,-933.0,-369.0,33.0,0.0,0.0,0.0
19:43:41.588000,-93.0,-16.0,-109.0,-933.0,-369.0,33.0,0.0,0.0,0.0
19:43:41.593000,-86.0,0.0,-96.0,-961.0,-347.0,42.0,0.0,0.0,0.0
19:43:41.598000,-83.0,16.0,-118.0,-961.0,-347.0,42.0,0.0,0.0,0.0
19:43:41.602000,-83.0,16.0,-118.0,-911.0,-383.0,58.0,0.0,0.0,0.0
19:43:41.607000,-75.0,36.0,-188.0,-911.0,-383.0,58.0,0.0,0.0,0.0
19:43:41.612000,-51.0,52.0,-215.0,-925.0,-439.0,59.0,0.0,0.0,0.0
19:43:41.617000,-25.0,64.0,-154.0,-925.0,-439.0,59.0,0.0,0.0,0.0
19:43:41.621000,-17.0,63.0,-108.0,-923.0,-454.0,49.0,0.0,0.0,0.0
19:43:41.626000,-21.0,61.0,-94.0,-923.0,-454.0,49.0,0.0,0.0,0.0
19:43:41.631000,-18.0,59.0,-77.0,-885.0,-405.0,35.0,0.0,0.0,0.0
19:43:41.635000,3.0,60.0,-79.0,-885.0,-405.0,35.0,0.0,0.0,0.0
19:43:41.640000,39.0,53.0,-100.0,-892.0,-385.0,15.0,0.0,0.0,0.0
19:43:41.645000,80.0,46.0,-86.0,-892.0,-385.0,15.0,0.0,0.0,0.0
19:43:41.649000,94.0,41.0,-78.0,-912.0,-358.0,9.0,0.0,0.0,0.0
19:43:41.654000,114.0,41.0,-98.0,-912.0,-358.0,9.0,0.0,0.0,0.0
19:43:41.659000,116.0,38.0,-85.0,-823.0,-321.0,22.0,0.0,0.0,0.0
19:43:41.664000,93.0,32.0,-88.0,-823.0,-321.0,22.0,0.0,0.0,0.0
19:43:41.668000,56.0,24.0,-124.0,-823.0,-321.0,22.0,0.0,0.0,0.0
19:43:41.673000,31.0,28.0,-155.0,-799.0,-315.0,35.0,0.0,0.0,0.0
19:43:41.678000,29.0,19.0,-168.0,-799.0,-315.0,35.0,0.0,0.0,0.0
19:43:41.682000,14.0,7.0,-111.0,-846.0,-303.0,33.0,0.0,0.0,0.0
19:43:41.687000,8.0,-7.0,-81.0,-846.0,-303.0,33.0,0.0,0.0,0.0
19:43:41.692000,-9.0,-14.0,-120.0,-872.0,-320.0,23.0,0.0,0.0,0.0
19:43:41.696000,-40.0,-11.0,-172.0,-872.0,-320.0,23.0,0.0,0.0,0.0
19:43:41.701000,-50.0,-8.0,-123.0,-909.0,-302.0,24.0,0.0,0.0,0.0
19:43:41.706000,-49.0,-4.0,-42.0,-909.0,-302.0,24.0,0.0,0.0,0.0
19:43:41.710000,-49.0,-4.0,-42.0,-903.0,-282.0,31.0,0.0,0.0,0.0
19:43:41.715000,-51.0,0.0,18.0,-903.0,-282.0,31.0,0.0,0.0,0.0
19:43:41.720000,-42.0,2.0,48.0,-944.0,-343.0,35.0,0.0,0.0,0.0
19:43:41.725000,-41.0,7.0,4.0,-944.0,-343.0,35.0,0.0,0.0,0.0
19:43:41.729000,-49.0,17.0,-41.0,-1013.0,-369.0,36.0,0.0,0.0,0.0
19:43:41.734000,-46.0,22.0,-45.0,-1013.0,-369.0,36.0,0.0,0.0,0.0
19:43:41.739000,-54.0,29.0,-52.0,-949.0,-322.0,43.0,0.0,0.0,0.0
19:43:41.743000,-71.0,37.0,-55.0,-949.0,-322.0,43.0,0.0,0.0,0.0
19:43:41.748000,-84.0,45.0,-39.0,-889.0,-327.0,44.0,0.0,0.0,0.0
19:43:41.753000,-80.0,46.0,-23.0,-889.0,-327.0,44.0,0.0,0.0,0.0
19:43:41.757000,-66.0,41.0,-19.0,-939.0,-383.0,31.0,0.0,0.0,0.0
19:43:41.762000,-46.0,36.0,-8.0,-939.0,-383.0,31.0,0.0,0.0,0.0
19:43:41.767000,-39.0,30.0,18.0,-946.0,-366.0,21.0,0.0,0.0,0.0
19:43:41.772000,-45.0,30.0,36.0,-946.0,-366.0,21.0,0.0,0.0,0.0
19:43:41.776000,-56.0,26.0,4.0,-946.0,-366.0,21.0,0.0,0.0,0.0
19:43:41.781000,-69.0,31.0,-53.0,-894.0,-295.0,20.0,0.0,0.0,0.0
19:43:41.786000,-74.0,39.0,-94.0,-894.0,-295.0,20.0,0.0,0.0,0.0
19:43:41.790000,-53.0,32.0,-119.0,-876.0,-278.0,15.0,0.0,0.0,0.0
19:43:41.795000,-29.0,20.0,-140.0,-876.0,-278.0,15.0,0.0,0.0,0.0
19:43:41.800000,-17.0,8.0,-136.0,-875.0,-333.0,9.0,0.0,0.0,0.0
19:43:41.804000,-24.0,8.0,-161.0,-875.0,-333.0,9.0,0.0,0.0,0.0
19:43:41.809000,-56.0,17.0,-184.0,-863.0,-378.0,4.0,0.0,0.0,0.0
19:43:41.814000,-66.0,16.0,-157.0,-863.0,-378.0,4.0,0.0,0.0,0.0
19:43:41.819000,-66.0,16.0,-157.0,-887.0,-395.0,-5.0,0.0,0.0,0.0
19:43:41.823000,-60.0,7.0,-156.0,-887.0,-395.0,-5.0,0.0,0.0,0.0
19:43:41.828000,-60.0,0.0,-177.0,-916.0,-413.0,-13.0,0.0,0.0,0.0
19:43:41.833000,-35.0,-7.0,-123.0,-916.0,-413.0,-13.0,0.0,0.0,0.0
19:43:41.837000,-9.0,-25.0,-76.0,-917.0,-414.0,-14.0,0.0,0.0,0.0
19:43:41.842000,11.0,-35.0,-98.0,-917.0,-414.0,-14.0,0.0,0.0,0.0
19:43:41.847000,35.0,-30.0,-168.0,-913.0,-375.0,-8.0,0.0,0.0,0.0
19:43:41.851000,34.0,-21.0,-178.0,-913.0,-375.0,-8.0,0.0,0.0,0.0
19:43:41.856000,40.0,-7.0,-133.0,-914.0,-352.0,0.0,0.0,0.0,0.0
19:43:41.861000,67.0,0.0,-98.0,-914.0,-352.0,0.0,0.0,0.0,0.0
19:43:41.866000,75.0,-2.0,-108.0,-933.0,-353.0,17.0,0.0,0.0,0.0
19:43:41.870000,64.0,2.0,-123.0,-933.0,-353.0,17.0,0.0,0.0,0.0
19:43:41.875000,72.0,21.0,-123.0,-943.0,-348.0,23.0,0.0,0.0,0.0
19:43:41.880000,82.0,35.0,-116.0,-943.0,-348.0,23.0,0.0,0.0,0.0
19:43:41.884000,91.0,37.0,-152.0,-943.0,-348.0,23.0,0.0,0.0,0.0
19:43:41.889000,105.0,38.0,-196.0,-968.0,-338.0,15.0,0.0,0.0,0.0
19:43:41.894000,113.0,36.0,-200.0,-968.0,-338.0,15.0,0.0,0.0,0.0
19:43:41.898000,100.0,28.0,-167.0,-958.0,-324.0,13.0,0.0,0.0,0.0
19:43:41.903000,100.0,21.0,-134.0,-958.0,-324.0,13.0,0.0,0.0,0.0
19:43:41.908000,104.0,16.0,-140.0,-910.0,-316.0,12.0,0.0,0.0,0.0
19:43:41.913000,97.0,11.0,-165.0,-910.0,-316.0,12.0,0.0,0.0,0.0
19:43:41.917000,82.0,8.0,-162.0,-921.0,-303.0,12.0,0.0,0.0,0.0
19:43:41.922000,73.0,2.0,-156.0,-921.0,-303.0,12.0,0.0,0.0,0.0
19:43:41.927000,73.0,2.0,-156.0,-938.0,-279.0,17.0,0.0,0.0,0.0
19:43:41.931000,58.0,0.0,-156.0,-938.0,-279.0,17.0,0.0,0.0,0.0
19:43:41.936000,39.0,5.0,-165.0,-924.0,-248.0,23.0,0.0,0.0,0.0
19:43:41.941000,25.0,14.0,-181.0,-924.0,-248.0,23.0,0.0,0.0,0.0
19:43:41.945000,15.0,23.0,-204.0,-943.0,-219.0,26.0,0.0,0.0,0.0
19:43:41.950000,2.0,31.0,-224.0,-943.0,-219.0,26.0,0.0,0.0,0.0
19:43:41.955000,-16.0,39.0,-223.0,-974.0,-227.0,28.0,0.0,0.0,0.0
19:43:41.960000,-40.0,51.0,-194.0,-974.0,-227.0,28.0,0.0,0.0,0.0
19:43:41.964000,-65.0,66.0,-177.0,-987.0,-256.0,25.0,0.0,0.0,0.0
19:43:41.969000,-84.0,75.0,-187.0,-987.0,-256.0,25.0,0.0,0.0,0.0
19:43:41.974000,-90.0,85.0,-192.0,-992.0,-258.0,15.0,0.0,0.0,0.0
19:43:41.978000,-99.0,97.0,-183.0,-992.0,-258.0,15.0,0.0,0.0,0.0
19:43:41.983000,-98.0,105.0,-176.0,-992.0,-272.0,5.0,0.0,0.0,0.0
19:43:41.988000,-88.0,105.0,-191.0,-992.0,-272.0,5.0,0.0,0.0,0.0
19:43:41.992000,-82.0,112.0,-212.0,-992.0,-272.0,5.0,0.0,0.0,0.0
19:43:41.997000,-72.0,114.0,-213.0,-984.0,-296.0,4.0,0.0,0.0,0.0
19:43:42.002000,-59.0,116.0,-197.0,-984.0,-296.0,4.0,0.0,0.0,0.0
19:43:42.007000,-49.0,117.0,-191.0,-962.0,-314.0,4.0,0.0,0.0,0.0
19:43:42.011000,-39.0,119.0,-188.0,-962.0,-314.0,4.0,0.0,0.0,0.0
19:43:42.016000,-28.0,120.0,-191.0,-944.0,-311.0,2.0,0.0,0.0,0.0
19:43:42.021000,-15.0,119.0,-192.0,-944.0,-311.0,2.0,0.0,0.0,0.0
19:43:42.025000,-6.0,119.0,-191.0,-938.0,-295.0,-2.0,0.0,0.0,0.0
19:43:42.030000,5.0,123.0,-186.0,-938.0,-295.0,-2.0,0.0,0.0,0.0
19:43:42.035000,13.0,126.0,-182.0,-951.0,-293.0,-14.0,0.0,0.0,0.0
19:43:42.039000,13.0,126.0,-182.0,-951.0,-293.0,-14.0,0.0,0.0,0.0
19:43:42.044000,18.0,130.0,-186.0,-973.0,-286.0,-25.0,0.0,0.0,0.0
19:43:42.049000,28.0,128.0,-181.0,-973.0,-286.0,-25.0,0.0,0.0,0.0
19:43:42.054000,29.0,128.0,-169.0,-961.0,-269.0,-28.0,0.0,0.0,0.0
19:43:42.058000,35.0,127.0,-163.0,-961.0,-269.0,-28.0,0.0,0.0,0.0
19:43:42.063000,39.0,126.0,-170.0,-935.0,-258.0,-33.0,0.0,0.0,0.0
19:43:42.068000,46.0,121.0,-170.0,-935.0,-258.0,-33.0,0.0,0.0,0.0
19:43:42.072000,50.0,122.0,-174.0,-952.0,-262.0,-44.0,0.0,0.0,0.0
19:43:42.077000,49.0,118.0,-161.0,-952.0,-262.0,-44.0,0.0,0.0,0.0
19:43:42.082000,46.0,114.0,-122.0,-980.0,-272.0,-55.0,0.0,0.0,0.0
19:43:42.086000,51.0,109.0,-108.0,-980.0,-272.0,-55.0,0.0,0.0,0.0
19:43:42.091000,61.0,105.0,-112.0,-977.0,-270.0,-61.0,0.0,0.0,0.0
19:43:42.096000,63.0,100.0,-122.0,-977.0,-270.0,-61.0,0.0,0.0,0.0
19:43:42.101000,60.0,98.0,-116.0,-977.0,-270.0,-61.0,0.0,0.0,0.0
19:43:42.105000,56.0,95.0,-86.0,-958.0,-263.0,-64.0,0.0,0.0,0.0
19:43:42.110000,53.0,91.0,-74.0,-958.0,-263.0,-64.0,0.0,0.0,0.0
19:43:42.115000,46.0,88.0,-107.0,-972.0,-251.0,-64.0,0.0,0.0,0.0
19:43:42.119000,46.0,84.0,-140.0,-972.0,-251.0,-64.0,0.0,0.0,0.0
19:43:42.124000,45.0,81.0,-135.0,-986.0,-243.0,-59.0,0.0,0.0,0.0
19:43:42.129000,39.0,78.0,-107.0,-986.0,-243.0,-59.0,0.0,0.0,0.0
19:43:42.133000,39.0,75.0,-104.0,-969.0,-269.0,-54.0,0.0,0.0,0.0
19:43:42.138000,42.0,74.0,-138.0,-969.0,-269.0,-54.0,0.0,0.0,0.0
19:43:42.143000,46.0,71.0,-171.0,-974.0,-281.0,-52.0,0.0,0.0,0.0
19:43:42.148000,46.0,71.0,-171.0,-974.0,-281.0,-52.0,0.0,0.0,0.0
19:43:42.152000,41.0,71.0,-183.0,-968.0,-269.0,-51.0,0.0,0.0,0.0
19:43:42.157000,35.0,72.0,-189.0,-968.0,-269.0,-51.0,0.0,0.0,0.0
19:43:42.162000,25.0,75.0,-203.0,-961.0,-257.0,-49.0,0.0,0.0,0.0
19:43:42.166000,16.0,78.0,-217.0,-961.0,-257.0,-49.0,0.0,0.0,0.0
19:43:42.171000,11.0,79.0,-230.0,-982.0,-230.0,-47.0,0.0,0.0,0.0
19:43:42.176000,5.0,82.0,-231.0,-982.0,-230.0,-47.0,0.0,0.0,0.0
19:43:42.180000,0.0,86.0,-222.0,-994.0,-215.0,-44.0,0.0,0.0,0.0
19:43:42.185000,-2.0,86.0,-224.0,-994.0,-215.0,-44.0,0.0,0.0,0.0
19:43:42.190000,-1.0,84.0,-237.0,-1006.0,-211.0,-40.0,0.0,0.0,0.0
19:43:42.195000,-1.0,81.0,-235.0,-1006.0,-211.0,-40.0,0.0,0.0,0.0
19:43:42.199000,-3.0,79.0,-200.0,-1001.0,-219.0,-40.0,0.0,0.0,0.0
19:43:42.204000,-1.0,77.0,-165.0,-1001.0,-219.0,-40.0,0.0,0.0,0.0
19:43:42.209000,6.0,74.0,-179.0,-1004.0,-205.0,-44.0,0.0,0.0,0.0
19:43:42.213000,6.0,76.0,-212.0,-1004.0,-205.0,-44.0,0.0,0.0,0.0
19:43:42.218000,2.0,79.0,-199.0,-1004.0,-205.0,-44.0,0.0,0.0,0.0
19:43:42.223000,5.0,79.0,-170.0,-1014.0,-183.0,-50.0,0.0,0.0,0.0
19:43:42.227000,4.0,78.0,-168.0,-1014.0,-183.0,-50.0,0.0,0.0,0.0
19:43:42.232000,-2.0,83.0,-167.0,-1020.0,-177.0,-52.0,0.0,0.0,0.0
19:43:42.237000,-14.0,86.0,-161.0,-1020.0,-177.0,-52.0,0.0,0.0,0.0
19:43:42.242000,-32.0,95.0,-161.0,-1027.0,-155.0,-55.0,0.0,0.0,0.0
19:43:42.246000,-45.0,104.0,-156.0,-1027.0,-155.0,-55.0,0.0,0.0,0.0
19:43:42.251000,-56.0,111.0,-156.0,-1014.0,-152.0,-54.0,0.0,0.0,0.0
