hh:mm:ss.ms,gyroX[mdps],gyroY[mdps],gyroZ[mdps],accX[mg],accY[mg],accZ[mg],magX[mG],magY[mG],magZ[mG]
19:44:56.685000,-745.0,-196.0,-629.0,-1124.0,69.0,-41.0,0.0,0.0,0.0
19:44:56.690000,-749.0,-190.0,-634.0,-1121.0,51.0,-24.0,0.0,0.0,0.0
19:44:56.694000,-755.0,-180.0,-651.0,-1121.0,51.0,-24.0,0.0,0.0,0.0
19:44:56.699000,-762.0,-174.0,-662.0,-1137.0,-5.0,-11.0,0.0,0.0,0.0
19:44:56.704000,-774.0,-164.0,-652.0,-1137.0,-5.0,-11.0,0.0,0.0,0.0
19:44:56.708000,-781.0,-157.0,-652.0,-1110.0,-44.0,-8.0,0.0,0.0,0.0
19:44:56.713000,-781.0,-157.0,-652.0,-1110.0,-44.0,-8.0,0.0,0.0,0.0
19:44:56.718000,-785.0,-154.0,-672.0,-1066.0,-23.0,-7.0,0.0,0.0,0.0
19:44:56.723000,-791.0,-142.0,-681.0,-1066.0,-23.0,-7.0,0.0,0.0,0.0
19:44:56.727000,-797.0,-126.0,-705.0,-1077.0,15.0,-8.0,0.0,0.0,0.0
19:44:56.732000,-797.0,-116.0,-751.0,-1077.0,15.0,-8.0,0.0,0.0,0.0
19:44:56.737000,-795.0,-109.0,-774.0,-1134.0,8.0,0.0,0.0,0.0,0.0
19:44:56.741000,-791.0,-104.0,-781.0,-1134.0,8.0,0.0,0.0,0.0,0.0
19:44:56.746000,-779.0,-98.0,-777.0,-1162.0,-1.0,4.0,0.0,0.0,0.0
19:44:56.751000,-773.0,-88.0,-792.0,-1162.0,-1.0,4.0,0.0,0.0,0.0
19:44:56.755000,-773.0,-81.0,-821.0,-1183.0,62.0,6.0,0.0,0.0,0.0
19:44:56.760000,-773.0,-71.0,-832.0,-1183.0,62.0,6.0,0.0,0.0,0.0
19:44:56.765000,-774.0,-69.0,-816.0,-1193.0,127.0,18.0,0.0,0.0,0.0
19:44:56.770000,-779.0,-69.0,-800.0,-1193.0,127.0,18.0,0.0,0.0,0.0
19:44:56.774000,-779.0,-69.0,-814.0,-1193.0,127.0,18.0,0.0,0.0,0.0
19:44:56.779000,-784.0,-72.0,-824.0,-1158.0,162.0,29.0,0.0,0.0,0.0
19:44:56.784000,-798.0,-72.0,-812.0,-1158.0,162.0,29.0,0.0,0.0,0.0
19:44:56.788000,-804.0,-73.0,-812.0,-1125.0,206.0,38.0,0.0,0.0,0.0
19:44:56.792000,-814.0,-72.0,-817.0,-1081.0,242.0,46.0,0.0,0.0,0.0
19:44:56.798000,-831.0,-70.0,-809.0,-1081.0,242.0,46.0,0.0,0.0,0.0
19:44:56.802000,-849.0,-63.0,-788.0,-1081.0,242.0,46.0,0.0,0.0,0.0
19:44:56.807000,-867.0,-53.0,-778.0,-1039.0,294.0,47.0,0.0,0.0,0.0
19:44:56.812000,-889.0,-38.0,-784.0,-1039.0,294.0,47.0,0.0,0.0,0.0
19:44:56.817000,-912.0,-14.0,-778.0,-1051.0,371.0,38.0,0.0,0.0,0.0
19:44:56.821000,-912.0,-14.0,-778.0,-1051.0,371.0,38.0,0.0,0.0,0.0
19:44:56.826000,-935.0,13.0,-752.0,-1091.0,428.0,25.0,0.0,0.0,0.0
19:44:56.831000,-959.0,44.0,-732.0,-1091.0,428.0,25.0,0.0,0.0,0.0
19:44:56.835000,-984.0,77.0,-719.0,-1126.0,443.0,14.0,0.0,0.0,0.0
19:44:56.840000,-1007.0,119.0,-702.0,-1126.0,443.0,14.0,0.0,0.0,0.0
19:44:56.845000,-1029.0,159.0,-667.0,-1134.0,436.0,4.0,0.0,0.0,0.0
19:44:56.849000,-1048.0,198.0,-637.0,-1134.0,436.0,4.0,0.0,0.0,0.0
19:44:56.854000,-1065.0,233.0,-612.0,-1095.0,417.0,0.0,0.0,0.0,0.0
19:44:56.859000,-1079.0,263.0,-579.0,-1095.0,417.0,0.0,0.0,0.0,0.0
19:44:56.864000,-1090.0,290.0,-549.0,-1024.0,391.0,2.0,0.0,0.0,0.0
19:44:56.868000,-1096.0,312.0,-520.0,-1024.0,391.0,2.0,0.0,0.0,0.0
19:44:56.873000,-1096.0,331.0,-493.0,-928.0,353.0,3.0,0.0,0.0,0.0
19:44:56.878000,-1090.0,351.0,-476.0,-928.0,353.0,3.0,0.0,0.0,0.0
19:44:56.882000,-1078.0,368.0,-475.0,-928.0,353.0,3.0,0.0,0.0,0.0
19:44:56.887000,-1063.0,378.0,-480.0,-849.0,324.0,-1.0,0.0,0.0,0.0
19:44:56.892000,-1045.0,387.0,-489.0,-849.0,324.0,-1.0,0.0,0.0,0.0
19:44:56.896000,-1029.0,392.0,-487.0,-796.0,310.0,-9.0,0.0,0.0,0.0
19:44:56.901000,-1007.0,397.0,-482.0,-796.0,310.0,-9.0,0.0,0.0,0.0
19:44:56.906000,-985.0,398.0,-482.0,-759.0,305.0,-20.0,0.0,0.0,0.0
19:44:56.911000,-963.0,397.0,-492.0,-759.0,305.0,-20.0,0.0,0.0,0.0
19:44:56.915000,-947.0,392.0,-483.0,-752.0,317.0,-35.0,0.0,0.0,0.0
19:44:56.920000,-930.0,382.0,-464.0,-752.0,317.0,-35.0,0.0,0.0,0.0
19:44:56.925000,-916.0,370.0,-456.0,-771.0,342.0,-52.0,0.0,0.0,0.0
19:44:56.929000,-916.0,370.0,-456.0,-771.0,342.0,-52.0,0.0,0.0,0.0
19:44:56.934000,-906.0,357.0,-463.0,-797.0,391.0,-71.0,0.0,0.0,0.0
19:44:56.939000,-900.0,343.0,-466.0,-797.0,391.0,-71.0,0.0,0.0,0.0
19:44:56.943000,-896.0,329.0,-453.0,-812.0,444.0,-89.0,0.0,0.0,0.0
19:44:56.948000,-890.0,317.0,-437.0,-812.0,444.0,-89.0,0.0,0.0,0.0
19:44:56.953000,-885.0,308.0,-425.0,-823.0,461.0,-106.0,0.0,0.0,0.0
19:44:56.958000,-877.0,302.0,-410.0,-823.0,461.0,-106.0,0.0,0.0,0.0
19:44:56.962000,-872.0,296.0,-382.0,-834.0,450.0,-121.0,0.0,0.0,0.0
19:44:56.967000,-865.0,293.0,-348.0,-834.0,450.0,-121.0,0.0,0.0,0.0
19:44:56.972000,-863.0,289.0,-318.0,-843.0,438.0,-127.0,0.0,0.0,0.0
19:44:56.976000,-863.0,289.0,-276.0,-843.0,438.0,-127.0,0.0,0.0,0.0
19:44:56.981000,-868.0,296.0,-238.0,-839.0,438.0,-128.0,0.0,0.0,0.0
19:44:56.986000,-874.0,302.0,-201.0,-839.0,438.0,-128.0,0.0,0.0,0.0
19:44:56.990000,-884.0,306.0,-179.0,-839.0,453.0,-128.0,0.0,0.0,0.0
19:44:56.995000,-896.0,310.0,-151.0,-830.0,453.0,-125.0,0.0,0.0,0.0
19:44:57.000000,-912.0,315.0,-125.0,-830.0,453.0,-125.0,0.0,0.0,0.0
19:44:57.005000,-931.0,322.0,-105.0,-825.0,470.0,-117.0,0.0,0.0,0.0
19:44:57.009000,-955.0,332.0,-78.0,-825.0,470.0,-117.0,0.0,0.0,0.0
19:44:57.014000,-982.0,345.0,-67.0,-823.0,475.0,-105.0,0.0,0.0,0.0
19:44:57.019000,-1010.0,361.0,-59.0,-823.0,475.0,-105.0,0.0,0.0,0.0
19:44:57.023000,-1037.0,380.0,-58.0,-824.0,472.0,-89.0,0.0,0.0,0.0
19:44:57.028000,-1069.0,406.0,-38.0,-824.0,472.0,-89.0,0.0,0.0,0.0
19:44:57.033000,-1095.0,436.0,-14.0,-827.0,451.0,-75.0,0.0,0.0,0.0
19:44:57.037000,-1095.0,436.0,-14.0,-827.0,451.0,-75.0,0.0,0.0,0.0
19:44:57.042000,-1120.0,470.0,-11.0,-855.0,425.0,-67.0,0.0,0.0,0.0
19:44:57.047000,-1145.0,508.0,-27.0,-855.0,425.0,-67.0,0.0,0.0,0.0
19:44:57.052000,-1172.0,548.0,-29.0,-886.0,412.0,-65.0,0.0,0.0,0.0
19:44:57.056000,-1197.0,595.0,-21.0,-886.0,412.0,-65.0,0.0,0.0,0.0
19:44:57.061000,-1217.0,644.0,-19.0,-899.0,394.0,-69.0,0.0,0.0,0.0
19:44:57.066000,-1233.0,695.0,-36.0,-899.0,394.0,-69.0,0.0,0.0,0.0
19:44:57.070000,-1246.0,743.0,-54.0,-902.0,367.0,-74.0,0.0,0.0,0.0
19:44:57.075000,-1257.0,787.0,-60.0,-902.0,367.0,-74.0,0.0,0.0,0.0
19:44:57.080000,-1260.0,827.0,-58.0,-876.0,326.0,-74.0,0.0,0.0,0.0
19:44:57.084000,-1260.0,865.0,-58.0,-876.0,326.0,-74.0,0.0,0.0,0.0
19:44:57.089000,-1258.0,903.0,-56.0,-838.0,278.0,-66.0,0.0,0.0,0.0
19:44:57.094000,-1254.0,938.0,-46.0,-838.0,278.0,-66.0,0.0,0.0,0.0
19:44:57.098000,-1248.0,970.0,-39.0,-816.0,248.0,-55.0,0.0,0.0,0.0
19:44:57.103000,-1243.0,998.0,-35.0,-816.0,248.0,-55.0,0.0,0.0,0.0
19:44:57.108000,-1238.0,1024.0,-33.0,-816.0,248.0,-55.0,0.0,0.0,0.0
19:44:57.113000,-1231.0,1050.0,-30.0,-809.0,237.0,-50.0,0.0,0.0,0.0
19:44:57.117000,-1224.0,1074.0,-31.0,-809.0,237.0,-50.0,0.0,0.0,0.0
19:44:57.122000,-1213.0,1096.0,-33.0,-794.0,231.0,-58.0,0.0,0.0,0.0
19:44:57.127000,-1199.0,1115.0,-46.0,-794.0,231.0,-58.0,0.0,0.0,0.0
19:44:57.131000,-1185.0,1129.0,-67.0,-764.0,228.0,-85.0,0.0,0.0,0.0
19:44:57.136000,-1169.0,1138.0,-81.0,-764.0,228.0,-85.0,0.0,0.0,0.0
19:44:57.141000,-1152.0,1141.0,-76.0,-728.0,216.0,-131.0,0.0,0.0,0.0
19:44:57.145000,-1135.0,1140.0,-60.0,-728.0,216.0,-131.0,0.0,0.0,0.0
19:44:57.150000,-1135.0,1140.0,-60.0,-683.0,190.0,-181.0,0.0,0.0,0.0
19:44:57.155000,-1121.0,1131.0,-45.0,-683.0,190.0,-181.0,0.0,0.0,0.0
19:44:57.160000,-1108.0,1116.0,-28.0,-617.0,170.0,-219.0,0.0,0.0,0.0
19:44:57.164000,-1096.0,1096.0,-14.0,-617.0,170.0,-219.0,0.0,0.0,0.0
19:44:57.169000,-1087.0,1071.0,2.0,-524.0,157.0,-247.0,0.0,0.0,0.0
19:44:57.174000,-1077.0,1040.0,18.0,-524.0,157.0,-247.0,0.0,0.0,0.0
19:44:57.178000,-1069.0,1008.0,29.0,-434.0,141.0,-272.0,0.0,0.0,0.0
19:44:57.183000,-1061.0,975.0,39.0,-434.0,141.0,-272.0,0.0,0.0,0.0
19:44:57.188000,-1055.0,944.0,46.0,-380.0,131.0,-298.0,0.0,0.0,0.0
19:44:57.192000,-1052.0,914.0,46.0,-380.0,131.0,-298.0,0.0,0.0,0.0
19:44:57.197000,-1051.0,889.0,44.0,-366.0,127.0,-322.0,0.0,0.0,0.0
19:44:57.202000,-1050.0,866.0,46.0,-366.0,127.0,-322.0,0.0,0.0,0.0
19:44:57.207000,-1050.0,849.0,50.0,-374.0,118.0,-344.0,0.0,0.0,0.0
19:44:57.211000,-1049.0,837.0,49.0,-374.0,118.0,-344.0,0.0,0.0,0.0
19:44:57.216000,-1049.0,828.0,48.0,-374.0,118.0,-344.0,0.0,0.0,0.0
19:44:57.221000,-1051.0,819.0,53.0,-404.0,110.0,-374.0,0.0,0.0,0.0
19:44:57.225000,-1052.0,809.0,74.0,-404.0,110.0,-374.0,0.0,0.0,0.0
19:44:57.230000,-1050.0,800.0,109.0,-433.0,89.0,-398.0,0.0,0.0,0.0
19:44:57.235000,-1040.0,787.0,153.0,-433.0,89.0,-398.0,0.0,0.0,0.0
19:44:57.239000,-1024.0,774.0,198.0,-405.0,26.0,-416.0,0.0,0.0,0.0
19:44:57.244000,-1003.0,762.0,240.0,-405.0,26.0,-416.0,0.0,0.0,0.0
19:44:57.249000,-980.0,752.0,280.0,-342.0,-48.0,-438.0,0.0,0.0,0.0
19:44:57.254000,-956.0,746.0,318.0,-342.0,-48.0,-438.0,0.0,0.0,0.0
19:44:57.258000,-956.0,746.0,318.0,-300.0,-100.0,-462.0,0.0,0.0,0.0
19:44:57.262000,-933.0,742.0,351.0,-300.0,-100.0,-462.0,0.0,0.0,0.0
19:44:57.268000,-912.0,739.0,379.0,-285.0,-132.0,-488.0,0.0,0.0,0.0
19:44:57.272000,-892.0,733.0,402.0,-285.0,-132.0,-488.0,0.0,0.0,0.0
19:44:57.277000,-877.0,730.0,420.0,-271.0,-148.0,-516.0,0.0,0.0,0.0
19:44:57.282000,-865.0,725.0,441.0,-271.0,-148.0,-516.0,0.0,0.0,0.0
19:44:57.286000,-857.0,723.0,464.0,-237.0,-168.0,-542.0,0.0,0.0,0.0
19:44:57.291000,-851.0,722.0,487.0,-237.0,-168.0,-542.0,0.0,0.0,0.0
19:44:57.296000,-842.0,727.0,501.0,-182.0,-196.0,-576.0,0.0,0.0,0.0
19:44:57.301000,-830.0,732.0,498.0,-182.0,-196.0,-576.0,0.0,0.0,0.0
19:44:57.305000,-817.0,742.0,476.0,-143.0,-210.0,-627.0,0.0,0.0,0.0
19:44:57.310000,-801.0,753.0,441.0,-143.0,-210.0,-627.0,0.0,0.0,0.0
19:44:57.315000,-778.0,765.0,391.0,-138.0,-216.0,-685.0,0.0,0.0,0.0
19:44:57.319000,-751.0,778.0,326.0,-138.0,-216.0,-685.0,0.0,0.0,0.0
19:44:57.324000,-721.0,791.0,248.0,-138.0,-216.0,-685.0,0.0,0.0,0.0
19:44:57.329000,-691.0,802.0,161.0,-155.0,-215.0,-732.0,0.0,0.0,0.0
19:44:57.333000,-663.0,809.0,74.0,-155.0,-215.0,-732.0,0.0,0.0,0.0
19:44:57.338000,-638.0,815.0,-6.0,-164.0,-187.0,-754.0,0.0,0.0,0.0
19:44:57.343000,-615.0,821.0,-72.0,-164.0,-187.0,-754.0,0.0,0.0,0.0
19:44:57.348000,-597.0,830.0,-119.0,-158.0,-157.0,-761.0,0.0,0.0,0.0
19:44:57.352000,-588.0,844.0,-144.0,-158.0,-157.0,-761.0,0.0,0.0,0.0
19:44:57.357000,-588.0,861.0,-147.0,-164.0,-149.0,-777.0,0.0,0.0,0.0
19:44:57.362000,-602.0,878.0,-135.0,-164.0,-149.0,-777.0,0.0,0.0,0.0
19:44:57.366000,-602.0,878.0,-135.0,-202.0,-134.0,-810.0,0.0,0.0,0.0
19:44:57.371000,-626.0,896.0,-119.0,-202.0,-134.0,-810.0,0.0,0.0,0.0
19:44:57.376000,-659.0,915.0,-101.0,-237.0,-97.0,-850.0,0.0,0.0,0.0
19:44:57.380000,-700.0,934.0,-83.0,-237.0,-97.0,-850.0,0.0,0.0,0.0
19:44:57.385000,-742.0,951.0,-70.0,-222.0,-76.0,-896.0,0.0,0.0,0.0
19:44:57.390000,-779.0,964.0,-63.0,-222.0,-76.0,-896.0,0.0,0.0,0.0
19:44:57.395000,-809.0,973.0,-60.0,-154.0,-115.0,-945.0,0.0,0.0,0.0
19:44:57.399000,-826.0,976.0,-60.0,-154.0,-115.0,-945.0,0.0,0.0,0.0
19:44:57.404000,-830.0,973.0,-63.0,-78.0,-201.0,-1000.0,0.0,0.0,0.0
19:44:57.409000,-821.0,967.0,-67.0,-78.0,-201.0,-1000.0,0.0,0.0,0.0
19:44:57.413000,-800.0,965.0,-72.0,-30.0,-289.0,-1094.0,0.0,0.0,0.0
19:44:57.418000,-771.0,956.0,-84.0,-30.0,-289.0,-1094.0,0.0,0.0,0.0
19:44:57.423000,-734.0,935.0,-105.0,-2.0,-346.0,-1196.0,0.0,0.0,0.0
19:44:57.427000,-687.0,903.0,-125.0,-2.0,-346.0,-1196.0,0.0,0.0,0.0
19:44:57.432000,-639.0,865.0,-145.0,51.0,-361.0,-1251.0,0.0,0.0,0.0
19:44:57.437000,-592.0,826.0,-179.0,51.0,-361.0,-1251.0,0.0,0.0,0.0
19:44:57.442000,-558.0,784.0,-231.0,51.0,-361.0,-1251.0,0.0,0.0,0.0
19:44:57.446000,-553.0,742.0,-286.0,102.0,-295.0,-1249.0,0.0,0.0,0.0
19:44:57.451000,-560.0,695.0,-306.0,102.0,-295.0,-1249.0,0.0,0.0,0.0
19:44:57.456000,-578.0,648.0,-305.0,141.0,-165.0,-1204.0,0.0,0.0,0.0
19:44:57.460000,-612.0,607.0,-303.0,141.0,-165.0,-1204.0,0.0,0.0,0.0
19:44:57.465000,-658.0,576.0,-301.0,174.0,-76.0,-1159.0,0.0,0.0,0.0
19:44:57.470000,-715.0,548.0,-287.0,174.0,-76.0,-1159.0,0.0,0.0,0.0
19:44:57.474000,-715.0,548.0,-287.0,115.0,-5.0,-1121.0,0.0,0.0,0.0
19:44:57.479000,-778.0,520.0,-275.0,115.0,-5.0,-1121.0,0.0,0.0,0.0
19:44:57.484000,-840.0,492.0,-286.0,46.0,60.0,-1087.0,0.0,0.0,0.0
19:44:57.489000,-898.0,463.0,-304.0,46.0,60.0,-1087.0,0.0,0.0,0.0
19:44:57.493000,-945.0,436.0,-311.0,43.0,34.0,-1063.0,0.0,0.0,0.0
19:44:57.498000,-979.0,410.0,-307.0,43.0,34.0,-1063.0,0.0,0.0,0.0
19:44:57.503000,-1003.0,382.0,-302.0,10.0,-61.0,-1041.0,0.0,0.0,0.0
19:44:57.507000,-1019.0,350.0,-302.0,10.0,-61.0,-1041.0,0.0,0.0,0.0
19:44:57.512000,-1028.0,316.0,-308.0,-14.0,-140.0,-1013.0,0.0,0.0,0.0
19:44:57.517000,-1036.0,280.0,-315.0,-14.0,-140.0,-1013.0,0.0,0.0,0.0
19:44:57.521000,-1045.0,246.0,-319.0,32.0,-172.0,-983.0,0.0,0.0,0.0
19:44:57.526000,-1059.0,212.0,-322.0,32.0,-172.0,-983.0,0.0,0.0,0.0
19:44:57.531000,-1074.0,179.0,-329.0,70.0,-165.0,-945.0,0.0,0.0,0.0
19:44:57.536000,-1094.0,149.0,-348.0,70.0,-165.0,-945.0,0.0,0.0,0.0
19:44:57.540000,-1119.0,126.0,-380.0,70.0,-165.0,-945.0,0.0,0.0,0.0
19:44:57.545000,-1150.0,107.0,-417.0,43.0,-132.0,-905.0,0.0,0.0,0.0
19:44:57.550000,-1185.0,93.0,-443.0,-19.0,-104.0,-869.0,0.0,0.0,0.0
19:44:57.554000,-1224.0,81.0,-457.0,-19.0,-104.0,-869.0,0.0,0.0,0.0
19:44:57.559000,-1260.0,70.0,-471.0,-19.0,-104.0,-869.0,0.0,0.0,0.0
19:44:57.564000,-1297.0,58.0,-493.0,-73.0,-110.0,-838.0,0.0,0.0,0.0
19:44:57.568000,-1332.0,48.0,-520.0,-73.0,-110.0,-838.0,0.0,0.0,0.0
19:44:57.573000,-1365.0,39.0,-542.0,-104.0,-128.0,-811.0,0.0,0.0,0.0
19:44:57.578000,-1397.0,30.0,-557.0,-104.0,-128.0,-811.0,0.0,0.0,0.0
19:44:57.583000,-1430.0,18.0,-573.0,-105.0,-148.0,-788.0,0.0,0.0,0.0
19:44:57.587000,-1430.0,18.0,-573.0,-105.0,-148.0,-788.0,0.0,0.0,0.0
19:44:57.592000,-1460.0,3.0,-591.0,-95.0,-172.0,-768.0,0.0,0.0,0.0
19:44:57.597000,-1487.0,-8.0,-605.0,-95.0,-172.0,-768.0,0.0,0.0,0.0
19:44:57.601000,-1513.0,-18.0,-620.0,-79.0,-189.0,-758.0,0.0,0.0,0.0
19:44:57.606000,-1537.0,-30.0,-641.0,-79.0,-189.0,-758.0,0.0,0.0,0.0
19:44:57.611000,-1560.0,-39.0,-673.0,-69.0,-192.0,-756.0,0.0,0.0,0.0
19:44:57.615000,-1586.0,-48.0,-703.0,-69.0,-192.0,-756.0,0.0,0.0,0.0
19:44:57.620000,-1611.0,-55.0,-730.0,-94.0,-191.0,-762.0,0.0,0.0,0.0
19:44:57.625000,-1638.0,-57.0,-763.0,-94.0,-191.0,-762.0,0.0,0.0,0.0
19:44:57.630000,-1668.0,-58.0,-791.0,-142.0,-196.0,-772.0,0.0,0.0,0.0
19:44:57.634000,-1701.0,-60.0,-809.0,-142.0,-196.0,-772.0,0.0,0.0,0.0
19:44:57.639000,-1736.0,-63.0,-830.0,-187.0,-201.0,-778.0,0.0,0.0,0.0
19:44:57.644000,-1770.0,-65.0,-860.0,-187.0,-201.0,-778.0,0.0,0.0,0.0
19:44:57.648000,-1801.0,-68.0,-886.0,-187.0,-201.0,-778.0,0.0,0.0,0.0
19:44:57.653000,-1827.0,-74.0,-912.0,-191.0,-215.0,-791.0,0.0,0.0,0.0
19:44:57.658000,-1854.0,-85.0,-940.0,-174.0,-237.0,-809.0,0.0,0.0,0.0
19:44:57.662000,-1878.0,-101.0,-959.0,-174.0,-237.0,-809.0,0.0,0.0,0.0
19:44:57.667000,-1892.0,-117.0,-961.0,-174.0,-237.0,-809.0,0.0,0.0,0.0
19:44:57.672000,-1904.0,-133.0,-966.0,-171.0,-289.0,-829.0,0.0,0.0,0.0
19:44:57.677000,-1913.0,-147.0,-955.0,-171.0,-289.0,-829.0,0.0,0.0,0.0
19:44:57.681000,-1924.0,-165.0,-938.0,-166.0,-360.0,-848.0,0.0,0.0,0.0
19:44:57.686000,-1936.0,-186.0,-932.0,-166.0,-360.0,-848.0,0.0,0.0,0.0
19:44:57.691000,-1947.0,-206.0,-933.0,-177.0,-390.0,-858.0,0.0,0.0,0.0
19:44:57.695000,-1947.0,-206.0,-933.0,-177.0,-390.0,-858.0,0.0,0.0,0.0
19:44:57.700000,-1958.0,-224.0,-922.0,-181.0,-414.0,-863.0,0.0,0.0,0.0
19:44:57.705000,-1955.0,-240.0,-891.0,-181.0,-414.0,-863.0,0.0,0.0,0.0
19:44:57.709000,-1953.0,-261.0,-841.0,-147.0,-510.0,-865.0,0.0,0.0,0.0
19:44:57.714000,-1989.0,-282.0,-788.0,-147.0,-510.0,-865.0,0.0,0.0,0.0
19:44:57.719000,-1953.0,-333.0,-808.0,-159.0,-608.0,-876.0,0.0,0.0,0.0
19:44:57.724000,-1932.0,-387.0,-856.0,-159.0,-608.0,-876.0,0.0,0.0,0.0
19:44:57.728000,-1936.0,-431.0,-875.0,-205.0,-632.0,-855.0,0.0,0.0,0.0
19:44:57.733000,-1954.0,-461.0,-883.0,-205.0,-632.0,-855.0,0.0,0.0,0.0
19:44:57.738000,-1959.0,-501.0,-885.0,-195.0,-639.0,-821.0,0.0,0.0,0.0
19:44:57.742000,-1954.0,-545.0,-879.0,-195.0,-639.0,-821.0,0.0,0.0,0.0
19:44:57.747000,-1955.0,-582.0,-893.0,-170.0,-678.0,-811.0,0.0,0.0,0.0
19:44:57.752000,-1947.0,-609.0,-921.0,-170.0,-678.0,-811.0,0.0,0.0,0.0
19:44:57.756000,-1929.0,-632.0,-966.0,-170.0,-678.0,-811.0,0.0,0.0,0.0
19:44:57.761000,-1916.0,-650.0,-982.0,-261.0,-730.0,-794.0,0.0,0.0,0.0
19:44:57.766000,-1920.0,-663.0,-949.0,-417.0,-772.0,-760.0,0.0,0.0,0.0
19:44:57.771000,-1897.0,-687.0,-933.0,-417.0,-772.0,-760.0,0.0,0.0,0.0
19:44:57.775000,-1861.0,-706.0,-1040.0,-417.0,-772.0,-760.0,0.0,0.0,0.0
19:44:57.780000,-1833.0,-715.0,-1047.0,-458.0,-780.0,-724.0,0.0,0.0,0.0
19:44:57.785000,-1793.0,-729.0,-1004.0,-458.0,-780.0,-724.0,0.0,0.0,0.0
19:44:57.789000,-1768.0,-731.0,-1048.0,-459.0,-779.0,-696.0,0.0,0.0,0.0
19:44:57.794000,-1757.0,-740.0,-1086.0,-459.0,-779.0,-696.0,0.0,0.0,0.0
19:44:57.799000,-1740.0,-755.0,-1098.0,-603.0,-834.0,-659.0,0.0,0.0,0.0
19:44:57.803000,-1740.0,-755.0,-1098.0,-603.0,-834.0,-659.0,0.0,0.0,0.0
19:44:57.808000,-1696.0,-739.0,-1092.0,-735.0,-899.0,-645.0,0.0,0.0,0.0
19:44:57.813000,-1633.0,-705.0,-1014.0,-735.0,-899.0,-645.0,0.0,0.0,0.0
19:44:57.818000,-1608.0,-686.0,-918.0,-660.0,-905.0,-627.0,0.0,0.0,0.0
19:44:57.822000,-1508.0,-669.0,-975.0,-660.0,-905.0,-627.0,0.0,0.0,0.0
19:44:57.827000,-1544.0,-655.0,-1061.0,-623.0,-850.0,-574.0,0.0,0.0,0.0
19:44:57.832000,-1539.0,-641.0,-1045.0,-623.0,-850.0,-574.0,0.0,0.0,0.0
19:44:57.836000,-1464.0,-629.0,-920.0,-683.0,-867.0,-542.0,0.0,0.0,0.0
19:44:57.841000,-1396.0,-616.0,-805.0,-683.0,-867.0,-542.0,0.0,0.0,0.0
19:44:57.846000,-1341.0,-609.0,-841.0,-734.0,-952.0,-529.0,0.0,0.0,0.0
19:44:57.850000,-1285.0,-599.0,-959.0,-734.0,-952.0,-529.0,0.0,0.0,0.0
19:44:57.855000,-1222.0,-589.0,-1001.0,-713.0,-954.0,-508.0,0.0,0.0,0.0
19:44:57.860000,-1172.0,-583.0,-936.0,-713.0,-954.0,-508.0,0.0,0.0,0.0
19:44:57.865000,-1114.0,-581.0,-821.0,-713.0,-937.0,-486.0,0.0,0.0,0.0
19:44:57.869000,-1063.0,-569.0,-807.0,-670.0,-937.0,-486.0,0.0,0.0,0.0
19:44:57.874000,-1033.0,-553.0,-912.0,-712.0,-895.0,-456.0,0.0,0.0,0.0
19:44:57.879000,-996.0,-542.0,-1005.0,-712.0,-895.0,-456.0,0.0,0.0,0.0
19:44:57.883000,-947.0,-539.0,-991.0,-712.0,-895.0,-456.0,0.0,0.0,0.0
19:44:57.888000,-933.0,-534.0,-891.0,-692.0,-838.0,-425.0,0.0,0.0,0.0
19:44:57.893000,-924.0,-524.0,-812.0,-692.0,-838.0,-425.0,0.0,0.0,0.0
19:44:57.897000,-906.0,-509.0,-800.0,-677.0,-815.0,-393.0,0.0,0.0,0.0
19:44:57.902000,-898.0,-498.0,-805.0,-677.0,-815.0,-393.0,0.0,0.0,0.0
19:44:57.907000,-903.0,-493.0,-787.0,-724.0,-774.0,-361.0,0.0,0.0,0.0
19:44:57.912000,-914.0,-487.0,-732.0,-724.0,-774.0,-361.0,0.0,0.0,0.0
19:44:57.916000,-914.0,-487.0,-732.0,-764.0,-766.0,-338.0,0.0,0.0,0.0
19:44:57.921000,-903.0,-478.0,-706.0,-764.0,-766.0,-338.0,0.0,0.0,0.0
19:44:57.926000,-892.0,-464.0,-691.0,-797.0,-760.0,-328.0,0.0,0.0,0.0
19:44:57.930000,-892.0,-445.0,-635.0,-797.0,-760.0,-328.0,0.0,0.0,0.0
19:44:57.935000,-894.0,-427.0,-585.0,-840.0,-719.0,-320.0,0.0,0.0,0.0
19:44:57.940000,-896.0,-406.0,-580.0,-840.0,-719.0,-320.0,0.0,0.0,0.0
19:44:57.944000,-893.0,-391.0,-608.0,-860.0,-692.0,-305.0,0.0,0.0,0.0
19:44:57.949000,-889.0,-376.0,-599.0,-860.0,-692.0,-305.0,0.0,0.0,0.0
19:44:57.954000,-882.0,-359.0,-526.0,-820.0,-695.0,-296.0,0.0,0.0,0.0
19:44:57.959000,-884.0,-336.0,-491.0,-820.0,-695.0,-296.0,0.0,0.0,0.0
19:44:57.963000,-900.0,-319.0,-525.0,-801.0,-653.0,-276.0,0.0,0.0,0.0
19:44:57.968000,-912.0,-310.0,-550.0,-801.0,-653.0,-276.0,0.0,0.0,0.0
19:44:57.973000,-917.0,-294.0,-513.0,-806.0,-644.0,-261.0,0.0,0.0,0.0
19:44:57.977000,-900.0,-280.0,-448.0,-806.0,-644.0,-261.0,0.0,0.0,0.0
19:44:57.982000,-870.0,-263.0,-431.0,-831.0,-694.0,-263.0,0.0,0.0,0.0
19:44:57.987000,-852.0,-246.0,-457.0,-831.0,-694.0,-263.0,0.0,0.0,0.0
19:44:57.991000,-845.0,-222.0,-465.0,-831.0,-694.0,-263.0,0.0,0.0,0.0
19:44:57.996000,-837.0,-200.0,-452.0,-836.0,-655.0,-259.0,0.0,0.0,0.0
19:44:58.001000,-818.0,-185.0,-447.0,-836.0,-655.0,-259.0,0.0,0.0,0.0
19:44:58.006000,-807.0,-172.0,-492.0,-781.0,-561.0,-256.0,0.0,0.0,0.0
19:44:58.010000,-806.0,-156.0,-512.0,-781.0,-561.0,-256.0,0.0,0.0,0.0
19:44:58.015000,-811.0,-143.0,-463.0,-747.0,-484.0,-249.0,0.0,0.0,0.0
19:44:58.020000,-772.0,-137.0,-457.0,-747.0,-484.0,-249.0,0.0,0.0,0.0
19:44:58.024000,-772.0,-137.0,-457.0,-774.0,-452.0,-253.0,0.0,0.0,0.0
19:44:58.029000,-758.0,-131.0,-475.0,-774.0,-452.0,-253.0,0.0,0.0,0.0
19:44:58.034000,-741.0,-130.0,-456.0,-804.0,-428.0,-260.0,0.0,0.0,0.0
19:44:58.038000,-716.0,-134.0,-387.0,-804.0,-428.0,-260.0,0.0,0.0,0.0
19:44:58.043000,-694.0,-140.0,-318.0,-827.0,-387.0,-255.0,0.0,0.0,0.0
19:44:58.048000,-679.0,-145.0,-270.0,-827.0,-387.0,-255.0,0.0,0.0,0.0
19:44:58.053000,-657.0,-156.0,-229.0,-848.0,-379.0,-252.0,0.0,0.0,0.0
19:44:58.057000,-623.0,-170.0,-202.0,-848.0,-379.0,-252.0,0.0,0.0,0.0
19:44:58.062000,-589.0,-181.0,-173.0,-849.0,-411.0,-249.0,0.0,0.0,0.0
19:44:58.067000,-554.0,-193.0,-115.0,-849.0,-411.0,-249.0,0.0,0.0,0.0
19:44:58.071000,-511.0,-203.0,-49.0,-906.0,-430.0,-224.0,0.0,0.0,0.0
19:44:58.076000,-480.0,-205.0,-1.0,-906.0,-430.0,-224.0,0.0,0.0,0.0
19:44:58.081000,-450.0,-205.0,44.0,-882.0,-401.0,-202.0,0.0,0.0,0.0
19:44:58.085000,-421.0,-211.0,95.0,-882.0,-401.0,-202.0,0.0,0.0,0.0
19:44:58.090000,-408.0,-212.0,116.0,-787.0,-343.0,-203.0,0.0,0.0,0.0
19:44:58.095000,-402.0,-207.0,102.0,-787.0,-343.0,-203.0,0.0,0.0,0.0
19:44:58.100000,-386.0,-208.0,100.0,-787.0,-343.0,-203.0,0.0,0.0,0.0
19:44:58.104000,-356.0,-208.0,135.0,-828.0,-360.0,-205.0,0.0,0.0,0.0
19:44:58.109000,-332.0,-204.0,205.0,-828.0,-360.0,-205.0,0.0,0.0,0.0
19:44:58.114000,-298.0,-204.0,258.0,-899.0,-408.0,-212.0,0.0,0.0,0.0
19:44:58.118000,-274.0,-197.0,282.0,-899.0,-408.0,-212.0,0.0,0.0,0.0
19:44:58.123000,-254.0,-190.0,288.0,-929.0,-377.0,-215.0,0.0,0.0,0.0
19:44:58.128000,-234.0,-178.0,283.0,-929.0,-377.0,-215.0,0.0,0.0,0.0
19:44:58.132000,-234.0,-178.0,283.0,-977.0,-318.0,-213.0,0.0,0.0,0.0
19:44:58.137000,-224.0,-165.0,270.0,-977.0,-318.0,-213.0,0.0,0.0,0.0
19:44:58.142000,-217.0,-154.0,256.0,-1026.0,-286.0,-208.0,0.0,0.0,0.0
19:44:58.146000,-214.0,-142.0,237.0,-1026.0,-286.0,-208.0,0.0,0.0,0.0
19:44:58.151000,-207.0,-130.0,211.0,-1030.0,-272.0,-197.0,0.0,0.0,0.0
19:44:58.156000,-205.0,-117.0,204.0,-1030.0,-272.0,-197.0,0.0,0.0,0.0
19:44:58.161000,-198.0,-109.0,212.0,-1000.0,-285.0,-188.0,0.0,0.0,0.0
19:44:58.165000,-193.0,-100.0,210.0,-1000.0,-285.0,-188.0,0.0,0.0,0.0
19:44:58.170000,-188.0,-91.0,202.0,-987.0,-293.0,-185.0,0.0,0.0,0.0
19:44:58.175000,-177.0,-84.0,192.0,-987.0,-293.0,-185.0,0.0,0.0,0.0
19:44:58.179000,-170.0,-77.0,176.0,-1014.0,-262.0,-190.0,0.0,0.0,0.0
19:44:58.184000,-161.0,-77.0,157.0,-1014.0,-262.0,-190.0,0.0,0.0,0.0
19:44:58.189000,-153.0,-81.0,138.0,-1053.0,-221.0,-193.0,0.0,0.0,0.0
19:44:58.194000,-139.0,-86.0,122.0,-1053.0,-221.0,-193.0,0.0,0.0,0.0
19:44:58.198000,-126.0,-97.0,125.0,-1053.0,-221.0,-193.0,0.0,0.0,0.0
19:44:58.203000,-103.0,-111.0,139.0,-1063.0,-229.0,-197.0,0.0,0.0,0.0
19:44:58.208000,-81.0,-126.0,151.0,-1063.0,-229.0,-197.0,0.0,0.0,0.0
19:44:58.212000,-53.0,-137.0,163.0,-1037.0,-268.0,-205.0,0.0,0.0,0.0
19:44:58.217000,-24.0,-151.0,166.0,-1037.0,-268.0,-205.0,0.0,0.0,0.0
19:44:58.222000,5.0,-165.0,177.0,-1014.0,-289.0,-208.0,0.0,0.0,0.0
19:44:58.226000,31.0,-178.0,186.0,-1014.0,-289.0,-208.0,0.0,0.0,0.0
19:44:58.231000,58.0,-190.0,198.0,-1011.0,-295.0,-215.0,0.0,0.0,0.0
19:44:58.236000,83.0,-203.0,205.0,-1011.0,-295.0,-215.0,0.0,0.0,0.0
19:44:58.241000,83.0,-203.0,205.0,-1024.0,-289.0,-223.0,0.0,0.0,0.0
19:44:58.245000,104.0,-217.0,195.0,-1024.0,-289.0,-223.0,0.0,0.0,0.0
19:44:58.250000,123.0,-224.0,166.0,-1043.0,-286.0,-224.0,0.0,0.0,0.0
19:44:58.255000,141.0,-229.0,151.0,-1043.0,-286.0,-224.0,0.0,0.0,0.0
19:44:58.259000,149.0,-228.0,152.0,-1057.0,-288.0,-222.0,0.0,0.0,0.0
19:44:58.264000,158.0,-224.0,151.0,-1057.0,-288.0,-222.0,0.0,0.0,0.0
19:44:58.269000,160.0,-217.0,144.0,-1079.0,-263.0,-213.0,0.0,0.0,0.0
19:44:58.273000,142.0,-205.0,129.0,-1079.0,-263.0,-213.0,0.0,0.0,0.0
19:44:58.278000,116.0,-193.0,107.0,-1129.0,-200.0,-200.0,0.0,0.0,0.0
19:44:58.283000,84.0,-182.0,83.0,-1129.0,-200.0,-200.0,0.0,0.0,0.0
19:44:58.288000,60.0,-169.0,73.0,-1190.0,-152.0,-197.0,0.0,0.0,0.0
19:44:58.292000,35.0,-156.0,93.0,-1190.0,-152.0,-197.0,0.0,0.0,0.0
19:44:58.297000,16.0,-139.0,117.0,-1245.0,-146.0,-197.0,0.0,0.0,0.0
19:44:58.302000,-2.0,-119.0,117.0,-1245.0,-146.0,-197.0,0.0,0.0,0.0
19:44:58.306000,-18.0,-97.0,109.0,-1245.0,-146.0,-197.0,0.0,0.0,0.0
19:44:58.311000,-21.0,-81.0,108.0,-1298.0,-156.0,-185.0,0.0,0.0,0.0
19:44:58.316000,-17.0,-60.0,142.0,-1334.0,-208.0,-175.0,0.0,0.0,0.0
19:44:58.320000,-11.0,-37.0,214.0,-1334.0,-208.0,-175.0,0.0,0.0,0.0
19:44:58.325000,-5.0,-6.0,239.0,-1334.0,-208.0,-175.0,0.0,0.0,0.0
19:44:58.330000,37.0,20.0,226.0,-1349.0,-296.0,-183.0,0.0,0.0,0.0
19:44:58.335000,86.0,46.0,163.0,-1349.0,-296.0,-183.0,0.0,0.0,0.0
19:44:58.339000,132.0,67.0,18.0,-1367.0,-295.0,-189.0,0.0,0.0,0.0
19:44:58.344000,184.0,77.0,-86.0,-1367.0,-295.0,-189.0,0.0,0.0,0.0
19:44:58.349000,214.0,81.0,-65.0,-1350.0,-230.0,-172.0,0.0,0.0,0.0
19:44:58.353000,214.0,81.0,-65.0,-1350.0,-230.0,-172.0,0.0,0.0,0.0
19:44:58.358000,203.0,102.0,7.0,-1286.0,-214.0,-157.0,0.0,0.0,0.0
19:44:58.363000,187.0,116.0,-10.0,-1286.0,-214.0,-157.0,0.0,0.0,0.0
19:44:58.367000,203.0,94.0,-178.0,-1338.0,-57.0,-154.0,0.0,0.0,0.0
19:44:58.372000,236.0,50.0,-513.0,-1338.0,-57.0,-154.0,0.0,0.0,0.0
19:44:58.377000,151.0,47.0,-711.0,-1292.0,-59.0,-159.0,0.0,0.0,0.0
19:44:58.382000,118.0,56.0,-385.0,-1292.0,-59.0,-159.0,0.0,0.0,0.0
19:44:58.386000,138.0,32.0,-23.0,-1112.0,-118.0,-197.0,0.0,0.0,0.0
19:44:58.391000,81.0,33.0,16.0,-1112.0,-118.0,-197.0,0.0,0.0,0.0
19:44:58.396000,-5.0,39.0,-140.0,-1362.0,123.0,-248.0,0.0,0.0,0.0
19:44:58.400000,21.0,3.0,-303.0,-1362.0,123.0,-248.0,0.0,0.0,0.0
19:44:58.405000,-11.0,-15.0,-295.0,-1470.0,40.0,-292.0,0.0,0.0,0.0
19:44:58.410000,56.0,-19.0,-337.0,-1470.0,40.0,-292.0,0.0,0.0,0.0
19:44:58.414000,160.0,-49.0,-490.0,-1470.0,40.0,-292.0,0.0,0.0,0.0
19:44:58.419000,162.0,-77.0,-596.0,-1366.0,-158.0,-335.0,0.0,0.0,0.0
19:44:58.424000,137.0,-72.0,-590.0,-1366.0,-158.0,-335.0,0.0,0.0,0.0
19:44:58.429000,93.0,-53.0,-488.0,-1361.0,-54.0,-329.0,0.0,0.0,0.0
19:44:58.433000,26.0,-55.0,-495.0,-1361.0,-54.0,-329.0,0.0,0.0,0.0
19:44:58.438000,-7.0,-53.0,-198.0,-1286.0,61.0,-297.0,0.0,0.0,0.0
19:44:58.443000,21.0,-50.0,161.0,-1286.0,61.0,-297.0,0.0,0.0,0.0
19:44:58.447000,69.0,-95.0,-175.0,-1380.0,51.0,-298.0,0.0,0.0,0.0
19:44:58.452000,116.0,-133.0,-662.0,-1380.0,51.0,-298.0,0.0,0.0,0.0
19:44:58.457000,146.0,-108.0,-630.0,-1386.0,12.0,-291.0,0.0,0.0,0.0
19:44:58.461000,146.0,-108.0,-630.0,-1386.0,12.0,-291.0,0.0,0.0,0.0
19:44:58.466000,100.0,-135.0,-100.0,-1153.0,-61.0,-263.0,0.0,0.0,0.0
19:44:58.471000,-65.0,-100.0,217.0,-1153.0,-61.0,-263.0,0.0,0.0,0.0
19:44:58.476000,-120.0,-181.0,-121.0,-989.0,28.0,-233.0,0.0,0.0,0.0
19:44:58.480000,-153.0,-201.0,-660.0,-989.0,28.0,-233.0,0.0,0.0,0.0
19:44:58.485000,-133.0,-204.0,-450.0,-878.0,-229.0,-206.0,0.0,0.0,0.0
19:44:58.490000,-146.0,-189.0,-135.0,-878.0,-229.0,-206.0,0.0,0.0,0.0
19:44:58.494000,-114.0,-221.0,-33.0,-942.0,-738.0,-161.0,0.0,0.0,0.0
19:44:58.499000,-136.0,-203.0,-84.0,-942.0,-738.0,-161.0,0.0,0.0,0.0
19:44:58.504000,-178.0,-144.0,30.0,-784.0,-965.0,-102.0,0.0,0.0,0.0
19:44:58.508000,-159.0,-180.0,79.0,-784.0,-965.0,-102.0,0.0,0.0,0.0
19:44:58.513000,-233.0,-185.0,161.0,-490.0,-1195.0,-35.0,0.0,0.0,0.0
19:44:58.518000,-224.0,-168.0,172.0,-490.0,-1195.0,-35.0,0.0,0.0,0.0
19:44:58.523000,-133.0,-94.0,250.0,-490.0,-1195.0,-35.0,0.0,0.0,0.0
19:44:58.527000,-57.0,-99.0,25.0,-542.0,-1403.0,-7.0,0.0,0.0,0.0
19:44:58.532000,189.0,-166.0,-140.0,-542.0,-1403.0,-7.0,0.0,0.0,0.0
19:44:58.537000,86.0,-144.0,-191.0,-640.0,-1577.0,-8.0,0.0,0.0,0.0
19:44:58.541000,93.0,-112.0,-322.0,-640.0,-1577.0,-8.0,0.0,0.0,0.0
19:44:58.546000,104.0,-91.0,-435.0,-686.0,-1210.0,39.0,0.0,0.0,0.0
19:44:58.551000,212.0,6.0,-287.0,-686.0,-1210.0,39.0,0.0,0.0,0.0
19:44:58.555000,312.0,-49.0,-391.0,-642.0,-1015.0,45.0,0.0,0.0,0.0
19:44:58.560000,287.0,-42.0,-609.0,-642.0,-1015.0,45.0,0.0,0.0,0.0
19:44:58.565000,128.0,-53.0,-683.0,-763.0,-933.0,47.0,0.0,0.0,0.0
19:44:58.570000,128.0,-53.0,-683.0,-763.0,-933.0,47.0,0.0,0.0,0.0
19:44:58.574000,-63.0,30.0,-512.0,-683.0,-498.0,99.0,0.0,0.0,0.0
19:44:58.579000,-42.0,107.0,-462.0,-683.0,-498.0,99.0,0.0,0.0,0.0
19:44:58.584000,27.0,126.0,-544.0,-684.0,-575.0,119.0,0.0,0.0,0.0
19:44:58.588000,12.0,153.0,-583.0,-684.0,-575.0,119.0,0.0,0.0,0.0
19:44:58.593000,43.0,180.0,-422.0,-995.0,-748.0,131.0,0.0,0.0,0.0
19:44:58.598000,28.0,161.0,-274.0,-995.0,-748.0,131.0,0.0,0.0,0.0
19:44:58.602000,-170.0,190.0,-392.0,-948.0,-527.0,142.0,0.0,0.0,0.0
19:44:58.607000,-221.0,277.0,-455.0,-948.0,-527.0,142.0,0.0,0.0,0.0
19:44:58.611000,-175.0,264.0,-478.0,-735.0,-522.0,141.0,0.0,0.0,0.0
19:44:58.617000,-127.0,233.0,-512.0,-735.0,-522.0,141.0,0.0,0.0,0.0
19:44:58.621000,-98.0,226.0,-487.0,-678.0,-804.0,114.0,0.0,0.0,0.0
19:44:58.626000,-40.0,231.0,-313.0,-678.0,-804.0,114.0,0.0,0.0,0.0
19:44:58.631000,37.0,196.0,-309.0,-678.0,-866.0,114.0,0.0,0.0,0.0
19:44:58.635000,182.0,128.0,-191.0,-821.0,-872.0,75.0,0.0,0.0,0.0
19:44:58.640000,194.0,174.0,-109.0,-821.0,-872.0,75.0,0.0,0.0,0.0
19:44:58.645000,250.0,116.0,-443.0,-843.0,-755.0,39.0,0.0,0.0,0.0
19:44:58.649000,194.0,77.0,-810.0,-843.0,-755.0,39.0,0.0,0.0,0.0
19:44:58.654000,32.0,159.0,-630.0,-630.0,-583.0,56.0,0.0,0.0,0.0
19:44:58.659000,-23.0,201.0,-319.0,-630.0,-583.0,56.0,0.0,0.0,0.0
19:44:58.664000,-74.0,245.0,-248.0,-570.0,-559.0,77.0,0.0,0.0,0.0
19:44:58.668000,22.0,235.0,-125.0,-570.0,-559.0,77.0,0.0,0.0,0.0
19:44:58.673000,153.0,222.0,-162.0,-776.0,-727.0,18.0,0.0,0.0,0.0
19:44:58.678000,153.0,222.0,-162.0,-776.0,-727.0,18.0,0.0,0.0,0.0
19:44:58.682000,259.0,196.0,-483.0,-850.0,-704.0,-8.0,0.0,0.0,0.0
19:44:58.687000,311.0,179.0,-675.0,-850.0,-704.0,-8.0,0.0,0.0,0.0
19:44:58.692000,128.0,225.0,-519.0,-759.0,-615.0,4.0,0.0,0.0,0.0
19:44:58.696000,-21.0,245.0,-479.0,-759.0,-615.0,4.0,0.0,0.0,0.0
19:44:58.701000,45.0,213.0,-378.0,-709.0,-607.0,-19.0,0.0,0.0,0.0
19:44:58.706000,75.0,252.0,-323.0,-709.0,-607.0,-19.0,0.0,0.0,0.0
19:44:58.710000,224.0,259.0,-88.0,-729.0,-697.0,-60.0,0.0,0.0,0.0
19:44:58.715000,251.0,243.0,100.0,-729.0,-697.0,-60.0,0.0,0.0,0.0
19:44:58.720000,262.0,219.0,-240.0,-903.0,-605.0,-58.0,0.0,0.0,0.0
19:44:58.725000,263.0,163.0,-793.0,-903.0,-605.0,-58.0,0.0,0.0,0.0
19:44:58.729000,134.0,163.0,-1022.0,-695.0,-389.0,-56.0,0.0,0.0,0.0
19:44:58.734000,-11.0,211.0,-700.0,-695.0,-389.0,-56.0,0.0,0.0,0.0
19:44:58.739000,-84.0,226.0,-396.0,-500.0,-483.0,-93.0,0.0,0.0,0.0
19:44:58.743000,-58.0,166.0,-383.0,-500.0,-483.0,-93.0,0.0,0.0,0.0
19:44:58.748000,-91.0,187.0,-359.0,-500.0,-483.0,-93.0,0.0,0.0,0.0
19:44:58.753000,-137.0,160.0,-239.0,-833.0,-679.0,-138.0,0.0,0.0,0.0
19:44:58.757000,-183.0,201.0,-64.0,-833.0,-679.0,-138.0,0.0,0.0,0.0
19:44:58.762000,-154.0,188.0,152.0,-897.0,-647.0,-153.0,0.0,0.0,0.0
19:44:58.767000,-165.0,216.0,100.0,-897.0,-647.0,-153.0,0.0,0.0,0.0
19:44:58.772000,-140.0,200.0,-297.0,-795.0,-447.0,-146.0,0.0,0.0,0.0
19:44:58.776000,-140.0,200.0,-297.0,-795.0,-447.0,-146.0,0.0,0.0,0.0
19:44:58.781000,-79.0,142.0,-298.0,-755.0,-499.0,-157.0,0.0,0.0,0.0
19:44:58.786000,-141.0,158.0,-241.0,-755.0,-499.0,-157.0,0.0,0.0,0.0
19:44:58.790000,-141.0,158.0,-241.0,-684.0,-596.0,-184.0,0.0,0.0,0.0
19:44:58.795000,-102.0,149.0,-407.0,-684.0,-596.0,-184.0,0.0,0.0,0.0
19:44:58.800000,7.0,95.0,-340.0,-749.0,-592.0,-223.0,0.0,0.0,0.0
19:44:58.804000,-46.0,65.0,-268.0,-749.0,-592.0,-223.0,0.0,0.0,0.0
19:44:58.809000,-38.0,42.0,-324.0,-798.0,-620.0,-244.0,0.0,0.0,0.0
19:44:58.814000,-33.0,19.0,-266.0,-798.0,-620.0,-244.0,0.0,0.0,0.0
19:44:58.819000,-97.0,20.0,-170.0,-689.0,-637.0,-236.0,0.0,0.0,0.0
19:44:58.823000,-100.0,17.0,-121.0,-689.0,-637.0,-236.0,0.0,0.0,0.0
19:44:58.828000,-49.0,-7.0,-33.0,-655.0,-608.0,-244.0,0.0,0.0,0.0
19:44:58.833000,-23.0,-3.0,101.0,-655.0,-608.0,-244.0,0.0,0.0,0.0
19:44:58.837000,6.0,-26.0,-43.0,-818.0,-522.0,-251.0,0.0,0.0,0.0
19:44:58.842000,51.0,-95.0,-309.0,-818.0,-522.0,-251.0,0.0,0.0,0.0
19:44:58.847000,9.0,-85.0,-427.0,-746.0,-475.0,-213.0,0.0,0.0,0.0
19:44:58.851000,-8.0,-37.0,-511.0,-746.0,-475.0,-213.0,0.0,0.0,0.0
19:44:58.856000,66.0,-62.0,-291.0,-746.0,-475.0,-213.0,0.0,0.0,0.0
19:44:58.861000,71.0,-123.0,-170.0,-660.0,-657.0,-190.0,0.0,0.0,0.0
19:44:58.866000,9.0,-130.0,-429.0,-660.0,-657.0,-190.0,0.0,0.0,0.0
19:44:58.870000,-11.0,-103.0,-625.0,-727.0,-590.0,-181.0,0.0,0.0,0.0
19:44:58.875000,46.0,-95.0,-468.0,-727.0,-590.0,-181.0,0.0,0.0,0.0
19:44:58.880000,121.0,-141.0,-140.0,-732.0,-563.0,-190.0,0.0,0.0,0.0
19:44:58.884000,78.0,-140.0,-100.0,-732.0,-563.0,-190.0,0.0,0.0,0.0
19:44:58.889000,80.0,-156.0,-241.0,-807.0,-577.0,-194.0,0.0,0.0,0.0
19:44:58.894000,63.0,-167.0,-220.0,-807.0,-577.0,-194.0,0.0,0.0,0.0
19:44:58.898000,63.0,-167.0,-220.0,-799.0,-417.0,-160.0,0.0,0.0,0.0
19:44:58.903000,84.0,-167.0,-221.0,-799.0,-417.0,-160.0,0.0,0.0,0.0
19:44:58.908000,117.0,-200.0,-355.0,-773.0,-462.0,-134.0,0.0,0.0,0.0
19:44:58.913000,132.0,-234.0,-381.0,-773.0,-462.0,-134.0,0.0,0.0,0.0
19:44:58.917000,92.0,-231.0,-334.0,-785.0,-475.0,-109.0,0.0,0.0,0.0
19:44:58.922000,83.0,-213.0,-327.0,-785.0,-475.0,-109.0,0.0,0.0,0.0
19:44:58.927000,57.0,-189.0,-316.0,-867.0,-465.0,-96.0,0.0,0.0,0.0
19:44:58.931000,67.0,-189.0,-309.0,-867.0,-465.0,-96.0,0.0,0.0,0.0
19:44:58.936000,35.0,-183.0,-292.0,-965.0,-511.0,-76.0,0.0,0.0,0.0
19:44:58.941000,2.0,-163.0,-221.0,-965.0,-511.0,-76.0,0.0,0.0,0.0
19:44:58.945000,11.0,-158.0,-162.0,-927.0,-476.0,-55.0,0.0,0.0,0.0
19:44:58.950000,-3.0,-160.0,-226.0,-927.0,-476.0,-55.0,0.0,0.0,0.0
19:44:58.955000,-63.0,-144.0,-328.0,-853.0,-387.0,-39.0,0.0,0.0,0.0
19:44:58.960000,-44.0,-119.0,-325.0,-853.0,-387.0,-39.0,0.0,0.0,0.0
19:44:58.964000,-16.0,-136.0,-180.0,-853.0,-387.0,-39.0,0.0,0.0,0.0
19:44:58.969000,49.0,-149.0,-56.0,-817.0,-483.0,-37.0,0.0,0.0,0.0
19:44:58.974000,59.0,-166.0,-35.0,-817.0,-483.0,-37.0,0.0,0.0,0.0
19:44:58.978000,-4.0,-125.0,-121.0,-881.0,-492.0,-48.0,0.0,0.0,0.0
19:44:58.983000,44.0,-118.0,-263.0,-881.0,-492.0,-48.0,0.0,0.0,0.0
19:44:58.988000,44.0,-108.0,-171.0,-924.0,-405.0,-57.0,0.0,0.0,0.0
19:44:58.992000,100.0,-120.0,-121.0,-924.0,-405.0,-57.0,0.0,0.0,0.0
19:44:58.997000,159.0,-130.0,-296.0,-930.0,-447.0,-63.0,0.0,0.0,0.0
19:44:59.002000,170.0,-123.0,-471.0,-930.0,-447.0,-63.0,0.0,0.0,0.0
19:44:59.007000,170.0,-123.0,-471.0,-864.0,-429.0,-46.0,0.0,0.0,0.0
19:44:59.011000,204.0,-133.0,-435.0,-864.0,-429.0,-46.0,0.0,0.0,0.0
19:44:59.016000,174.0,-126.0,-361.0,-779.0,-387.0,-26.0,0.0,0.0,0.0
19:44:59.021000,104.0,-135.0,-442.0,-779.0,-387.0,-26.0,0.0,0.0,0.0
19:44:59.025000,56.0,-105.0,-556.0,-792.0,-399.0,-35.0,0.0,0.0,0.0
19:44:59.030000,32.0,-107.0,-554.0,-792.0,-399.0,-35.0,0.0,0.0,0.0
19:44:59.035000,28.0,-89.0,-479.0,-844.0,-443.0,-56.0,0.0,0.0,0.0
19:44:59.039000,-2.0,-91.0,-394.0,-844.0,-443.0,-56.0,0.0,0.0,0.0
19:44:59.044000,-49.0,-68.0,-236.0,-945.0,-445.0,-53.0,0.0,0.0,0.0
19:44:59.049000,-78.0,-35.0,-280.0,-945.0,-445.0,-53.0,0.0,0.0,0.0
19:44:59.054000,-72.0,-7.0,-327.0,-1008.0,-386.0,-50.0,0.0,0.0,0.0
19:44:59.058000,-79.0,6.0,-304.0,-1008.0,-386.0,-50.0,0.0,0.0,0.0
19:44:59.063000,1.0,14.0,-200.0,-923.0,-371.0,-63.0,0.0,0.0,0.0
19:44:59.068000,56.0,-9.0,-172.0,-923.0,-371.0,-63.0,0.0,0.0,0.0
19:44:59.072000,74.0,-13.0,-289.0,-923.0,-371.0,-63.0,0.0,0.0,0.0
19:44:59.076000,46.0,-14.0,-350.0,-829.0,-403.0,-59.0,0.0,0.0,0.0
19:44:59.082000,36.0,-24.0,-205.0,-829.0,-403.0,-59.0,0.0,0.0,0.0
19:44:59.086000,45.0,-40.0,-206.0,-807.0,-404.0,-46.0,0.0,0.0,0.0
19:44:59.091000,-23.0,-44.0,-396.0,-807.0,-404.0,-46.0,0.0,0.0,0.0
19:44:59.096000,-37.0,-37.0,-486.0,-852.0,-259.0,-39.0,0.0,0.0,0.0
19:44:59.101000,-39.0,-32.0,-406.0,-852.0,-259.0,-39.0,0.0,0.0,0.0
19:44:59.105000,-29.0,-28.0,-422.0,-894.0,-230.0,-51.0,0.0,0.0,0.0
19:44:59.110000,-30.0,-9.0,-499.0,-894.0,-230.0,-51.0,0.0,0.0,0.0
19:44:59.115000,-30.0,-9.0,-499.0,-926.0,-352.0,-71.0,0.0,0.0,0.0
19:44:59.119000,-35.0,-16.0,-509.0,-926.0,-352.0,-71.0,0.0,0.0,0.0
19:44:59.124000,-28.0,-7.0,-504.0,-978.0,-343.0,-74.0,0.0,0.0,0.0
19:44:59.129000,-75.0,11.0,-485.0,-978.0,-343.0,-74.0,0.0,0.0,0.0
19:44:59.133000,-101.0,25.0,-461.0,-953.0,-293.0,-73.0,0.0,0.0,0.0
19:44:59.138000,-110.0,55.0,-418.0,-953.0,-293.0,-73.0,0.0,0.0,0.0
19:44:59.143000,-128.0,66.0,-391.0,-973.0,-313.0,-66.0,0.0,0.0,0.0
19:44:59.148000,-127.0,94.0,-427.0,-973.0,-313.0,-66.0,0.0,0.0,0.0
19:44:59.152000,-62.0,109.0,-508.0,-1063.0,-306.0,-65.0,0.0,0.0,0.0
19:44:59.157000,-17.0,106.0,-561.0,-1063.0,-306.0,-65.0,0.0,0.0,0.0
19:44:59.162000,-51.0,140.0,-508.0,-1108.0,-368.0,-77.0,0.0,0.0,0.0
19:44:59.166000,-40.0,149.0,-489.0,-1108.0,-368.0,-77.0,0.0,0.0,0.0
19:44:59.171000,-57.0,169.0,-515.0,-1134.0,-483.0,-97.0,0.0,0.0,0.0
19:44:59.176000,-71.0,191.0,-507.0,-1134.0,-483.0,-97.0,0.0,0.0,0.0
19:44:59.180000,-38.0,201.0,-497.0,-1134.0,-483.0,-97.0,0.0,0.0,0.0
19:44:59.185000,28.0,175.0,-508.0,-1068.0,-430.0,-123.0,0.0,0.0,0.0
19:44:59.190000,27.0,148.0,-436.0,-1068.0,-430.0,-123.0,0.0,0.0,0.0
19:44:59.195000,-9.0,160.0,-289.0,-903.0,-419.0,-125.0,0.0,0.0,0.0
19:44:59.199000,31.0,145.0,-299.0,-903.0,-419.0,-125.0,0.0,0.0,0.0
19:44:59.204000,81.0,146.0,-493.0,-917.0,-379.0,-130.0,0.0,0.0,0.0
19:44:59.209000,108.0,119.0,-648.0,-917.0,-379.0,-130.0,0.0,0.0,0.0
19:44:59.213000,117.0,112.0,-681.0,-983.0,-255.0,-126.0,0.0,0.0,0.0
19:44:59.218000,115.0,107.0,-575.0,-983.0,-255.0,-126.0,0.0,0.0,0.0
19:44:59.223000,125.0,115.0,-506.0,-910.0,-355.0,-104.0,0.0,0.0,0.0
19:44:59.227000,125.0,115.0,-506.0,-910.0,-355.0,-104.0,0.0,0.0,0.0
19:44:59.232000,116.0,116.0,-510.0,-920.0,-429.0,-104.0,0.0,0.0,0.0
19:44:59.237000,88.0,121.0,-543.0,-920.0,-429.0,-104.0,0.0,0.0,0.0
19:44:59.242000,67.0,138.0,-594.0,-990.0,-337.0,-102.0,0.0,0.0,0.0
19:44:59.246000,65.0,143.0,-618.0,-990.0,-337.0,-102.0,0.0,0.0,0.0
19:44:59.251000,28.0,144.0,-616.0,-998.0,-341.0,-95.0,0.0,0.0,0.0
19:44:59.256000,-18.0,174.0,-559.0,-998.0,-341.0,-95.0,0.0,0.0,0.0
19:44:59.260000,-36.0,199.0,-529.0,-976.0,-286.0,-90.0,0.0,0.0,0.0
19:44:59.265000,-28.0,200.0,-529.0,-976.0,-286.0,-90.0,0.0,0.0,0.0
19:44:59.270000,-12.0,198.0,-594.0,-972.0,-221.0,-83.0,0.0,0.0,0.0
19:44:59.274000,-28.0,226.0,-687.0,-972.0,-221.0,-83.0,0.0,0.0,0.0
19:44:59.279000,-4.0,233.0,-705.0,-991.0,-296.0,-82.0,0.0,0.0,0.0
19:44:59.284000,-11.0,233.0,-697.0,-991.0,-296.0,-82.0,0.0,0.0,0.0
19:44:59.289000,-40.0,233.0,-692.0,-991.0,-296.0,-82.0,0.0,0.0,0.0
19:44:59.293000,-72.0,238.0,-686.0,-967.0,-256.0,-82.0,0.0,0.0,0.0
19:44:59.298000,-81.0,242.0,-655.0,-967.0,-256.0,-82.0,0.0,0.0,0.0
19:44:59.303000,-82.0,242.0,-602.0,-955.0,-227.0,-89.0,0.0,0.0,0.0
19:44:59.307000,-81.0,243.0,-574.0,-955.0,-227.0,-89.0,0.0,0.0,0.0
19:44:59.312000,-68.0,245.0,-625.0,-1014.0,-258.0,-114.0,0.0,0.0,0.0
19:44:59.317000,-68.0,245.0,-674.0,-1014.0,-258.0,-114.0,0.0,0.0,0.0
19:44:59.321000,-61.0,240.0,-644.0,-1031.0,-237.0,-125.0,0.0,0.0,0.0
19:44:59.326000,-42.0,238.0,-619.0,-1031.0,-237.0,-125.0,0.0,0.0,0.0
19:44:59.331000,-21.0,235.0,-597.0,-983.0,-243.0,-132.0,0.0,0.0,0.0
19:44:59.336000,-21.0,235.0,-597.0,-983.0,-243.0,-132.0,0.0,0.0,0.0
19:44:59.340000,-13.0,219.0,-588.0,-984.0,-251.0,-141.0,0.0,0.0,0.0
19:44:59.345000,0.0,208.0,-584.0,-984.0,-251.0,-141.0,0.0,0.0,0.0
19:44:59.350000,37.0,200.0,-603.0,-994.0,-234.0,-159.0,0.0,0.0,0.0
19:44:59.354000,63.0,184.0,-660.0,-994.0,-234.0,-159.0,0.0,0.0,0.0
19:44:59.359000,75.0,171.0,-681.0,-932.0,-229.0,-180.0,0.0,0.0,0.0
19:44:59.364000,88.0,163.0,-667.0,-932.0,-229.0,-180.0,0.0,0.0,0.0
19:44:59.368000,107.0,156.0,-648.0,-891.0,-196.0,-190.0,0.0,0.0,0.0
19:44:59.373000,131.0,149.0,-646.0,-891.0,-196.0,-190.0,0.0,0.0,0.0
19:44:59.378000,158.0,135.0,-679.0,-930.0,-159.0,-220.0,0.0,0.0,0.0
19:44:59.383000,186.0,121.0,-712.0,-930.0,-159.0,-220.0,0.0,0.0,0.0
19:44:59.387000,211.0,99.0,-701.0,-937.0,-187.0,-242.0,0.0,0.0,0.0
19:44:59.392000,235.0,69.0,-656.0,-937.0,-187.0,-242.0,0.0,0.0,0.0
19:44:59.397000,264.0,37.0,-630.0,-937.0,-187.0,-242.0,0.0,0.0,0.0
19:44:59.401000,287.0,7.0,-653.0,-874.0,-171.0,-247.0,0.0,0.0,0.0
19:44:59.406000,302.0,-16.0,-690.0,-874.0,-171.0,-247.0,0.0,0.0,0.0
19:44:59.411000,312.0,-35.0,-668.0,-841.0,-86.0,-263.0,0.0,0.0,0.0
19:44:59.415000,311.0,-53.0,-614.0,-841.0,-86.0,-263.0,0.0,0.0,0.0
19:44:59.420000,309.0,-74.0,-567.0,-858.0,-38.0,-242.0,0.0,0.0,0.0
19:44:59.425000,315.0,-112.0,-557.0,-858.0,-38.0,-242.0,0.0,0.0,0.0
19:44:59.430000,310.0,-109.0,-604.0,-881.0,49.0,-130.0,0.0,0.0,0.0
19:44:59.434000,293.0,-79.0,-647.0,-881.0,49.0,-130.0,0.0,0.0,0.0
19:44:59.439000,265.0,-95.0,-651.0,-999.0,169.0,-111.0,0.0,0.0,0.0
19:44:59.444000,265.0,-95.0,-651.0,-999.0,169.0,-111.0,0.0,0.0,0.0
19:44:59.448000,245.0,-114.0,-609.0,-1129.0,112.0,-196.0,0.0,0.0,0.0
19:44:59.453000,231.0,-93.0,-566.0,-1129.0,112.0,-196.0,0.0,0.0,0.0
19:44:59.458000,212.0,-70.0,-513.0,-1150.0,26.0,-190.0,0.0,0.0,0.0
19:44:59.462000,195.0,-49.0,-477.0,-1150.0,26.0,-190.0,0.0,0.0,0.0
19:44:59.467000,180.0,-33.0,-467.0,-1170.0,14.0,-178.0,0.0,0.0,0.0
19:44:59.472000,179.0,-18.0,-477.0,-1170.0,14.0,-178.0,0.0,0.0,0.0
19:44:59.477000,172.0,3.0,-485.0,-1153.0,-6.0,-204.0,0.0,0.0,0.0
19:44:59.481000,165.0,13.0,-480.0,-1153.0,-6.0,-204.0,0.0,0.0,0.0
19:44:59.486000,155.0,24.0,-460.0,-1036.0,8.0,-194.0,0.0,0.0,0.0
19:44:59.491000,155.0,20.0,-441.0,-1036.0,8.0,-194.0,0.0,0.0,0.0
19:44:59.495000,152.0,9.0,-459.0,-925.0,53.0,-176.0,0.0,0.0,0.0
19:44:59.500000,161.0,4.0,-499.0,-925.0,53.0,-176.0,0.0,0.0,0.0
19:44:59.505000,164.0,-4.0,-526.0,-925.0,118.0,-132.0,0.0,0.0,0.0
19:44:59.509000,171.0,-18.0,-534.0,-863.0,118.0,-132.0,0.0,0.0,0.0
19:44:59.514000,181.0,-16.0,-534.0,-863.0,118.0,-132.0,0.0,0.0,0.0
19:44:59.519000,200.0,1.0,-557.0,-934.0,144.0,-127.0,0.0,0.0,0.0
19:44:59.524000,205.0,18.0,-629.0,-934.0,144.0,-127.0,0.0,0.0,0.0
19:44:59.528000,166.0,28.0,-700.0,-1145.0,139.0,-176.0,0.0,0.0,0.0
19:44:59.533000,119.0,13.0,-711.0,-1145.0,139.0,-176.0,0.0,0.0,0.0
19:44:59.538000,80.0,-1.0,-656.0,-1279.0,162.0,-148.0,0.0,0.0,0.0
19:44:59.542000,21.0,11.0,-582.0,-1279.0,162.0,-148.0,0.0,0.0,0.0
19:44:59.546000,21.0,11.0,-582.0,-1270.0,182.0,-105.0,0.0,0.0,0.0
19:44:59.552000,-6.0,28.0,-544.0,-1270.0,182.0,-105.0,0.0,0.0,0.0
19:44:59.556000,-16.0,37.0,-522.0,-1243.0,125.0,-99.0,0.0,0.0,0.0
19:44:59.561000,0.0,34.0,-520.0,-1243.0,125.0,-99.0,0.0,0.0,0.0
19:44:59.566000,7.0,38.0,-532.0,-1236.0,28.0,-135.0,0.0,0.0,0.0
19:44:59.571000,16.0,39.0,-539.0,-1236.0,28.0,-135.0,0.0,0.0,0.0
19:44:59.575000,23.0,49.0,-519.0,-1184.0,42.0,-188.0,0.0,0.0,0.0
19:44:59.580000,8.0,56.0,-485.0,-1184.0,42.0,-188.0,0.0,0.0,0.0
19:44:59.585000,-9.0,55.0,-461.0,-1110.0,142.0,-194.0,0.0,0.0,0.0
19:44:59.589000,-23.0,58.0,-462.0,-1110.0,142.0,-194.0,0.0,0.0,0.0
19:44:59.594000,-28.0,70.0,-464.0,-1041.0,148.0,-181.0,0.0,0.0,0.0
19:44:59.599000,-14.0,70.0,-465.0,-1041.0,148.0,-181.0,0.0,0.0,0.0
19:44:59.603000,18.0,72.0,-462.0,-1023.0,94.0,-191.0,0.0,0.0,0.0
19:44:59.608000,40.0,74.0,-465.0,-1023.0,94.0,-191.0,0.0,0.0,0.0
19:44:59.613000,58.0,65.0,-466.0,-1016.0,97.0,-192.0,0.0,0.0,0.0
19:44:59.618000,71.0,57.0,-465.0,-1016.0,97.0,-192.0,0.0,0.0,0.0
19:44:59.622000,73.0,52.0,-464.0,-1016.0,97.0,-192.0,0.0,0.0,0.0
19:44:59.627000,85.0,44.0,-459.0,-983.0,124.0,-176.0,0.0,0.0,0.0
19:44:59.632000,107.0,32.0,-450.0,-983.0,124.0,-176.0,0.0,0.0,0.0
19:44:59.636000,121.0,19.0,-440.0,-955.0,132.0,-167.0,0.0,0.0,0.0
19:44:59.641000,131.0,13.0,-415.0,-955.0,132.0,-167.0,0.0,0.0,0.0
19:44:59.646000,129.0,12.0,-382.0,-939.0,144.0,-177.0,0.0,0.0,0.0
19:44:59.650000,122.0,9.0,-360.0,-939.0,144.0,-177.0,0.0,0.0,0.0
19:44:59.655000,128.0,3.0,-345.0,-960.0,198.0,-181.0,0.0,0.0,0.0
19:44:59.659000,128.0,3.0,-345.0,-960.0,198.0,-181.0,0.0,0.0,0.0
19:44:59.665000,142.0,-4.0,-333.0,-995.0,243.0,-182.0,0.0,0.0,0.0
19:44:59.669000,146.0,-4.0,-326.0,-995.0,243.0,-182.0,0.0,0.0,0.0
19:44:59.674000,139.0,1.0,-303.0,-1018.0,248.0,-195.0,0.0,0.0,0.0
19:44:59.679000,137.0,5.0,-301.0,-1018.0,248.0,-195.0,0.0,0.0,0.0
19:44:59.683000,130.0,4.0,-326.0,-1076.0,295.0,-194.0,0.0,0.0,0.0
19:44:59.688000,122.0,-1.0,-364.0,-1076.0,295.0,-194.0,0.0,0.0,0.0
19:44:59.693000,105.0,4.0,-359.0,-1114.0,346.0,-187.0,0.0,0.0,0.0
19:44:59.697000,84.0,17.0,-308.0,-1114.0,346.0,-187.0,0.0,0.0,0.0
19:44:59.702000,70.0,26.0,-234.0,-1073.0,355.0,-190.0,0.0,0.0,0.0
19:44:59.707000,55.0,35.0,-154.0,-1073.0,355.0,-190.0,0.0,0.0,0.0
19:44:59.712000,60.0,31.0,-168.0,-1075.0,369.0,-206.0,0.0,0.0,0.0
19:44:59.716000,63.0,38.0,-310.0,-1075.0,369.0,-206.0,0.0,0.0,0.0
19:44:59.721000,58.0,39.0,-348.0,-1030.0,365.0,-210.0,0.0,0.0,0.0
19:44:59.726000,53.0,39.0,-284.0,-1030.0,365.0,-210.0,0.0,0.0,0.0
19:44:59.730000,67.0,29.0,-198.0,-933.0,364.0,-189.0,0.0,0.0,0.0
19:44:59.735000,69.0,9.0,-177.0,-933.0,364.0,-189.0,0.0,0.0,0.0
19:44:59.740000,63.0,-8.0,-160.0,-933.0,364.0,-189.0,0.0,0.0,0.0
19:44:59.744000,79.0,-28.0,-141.0,-940.0,368.0,-170.0,0.0,0.0,0.0
19:44:59.749000,94.0,-53.0,-111.0,-940.0,368.0,-170.0,0.0,0.0,0.0
19:44:59.754000,115.0,-79.0,-83.0,-968.0,334.0,-162.0,0.0,0.0,0.0
19:44:59.759000,120.0,-105.0,-102.0,-968.0,334.0,-162.0,0.0,0.0,0.0
19:44:59.763000,122.0,-128.0,-108.0,-940.0,327.0,-148.0,0.0,0.0,0.0
