hh:mm:ss.ms,gyroX[mdps],gyroY[mdps],gyroZ[mdps],accX[mg],accY[mg],accZ[mg],magX[mG],magY[mG],magZ[mG]
19:44:22.109000,-93.0,-287.0,-331.0,-1074.0,-473.0,9.0,0.0,0.0,0.0
19:44:22.114000,-137.0,-263.0,-384.0,-1074.0,-291.0,-11.0,0.0,0.0,0.0
19:44:22.119000,-203.0,-232.0,-428.0,-1211.0,-291.0,-11.0,0.0,0.0,0.0
19:44:22.123000,-245.0,-205.0,-429.0,-1211.0,-291.0,-11.0,0.0,0.0,0.0
19:44:22.128000,-280.0,-179.0,-403.0,-1227.0,-245.0,-35.0,0.0,0.0,0.0
19:44:22.133000,-305.0,-141.0,-381.0,-1227.0,-245.0,-35.0,0.0,0.0,0.0
19:44:22.137000,-315.0,-112.0,-403.0,-1176.0,-285.0,-63.0,0.0,0.0,0.0
19:44:22.142000,-337.0,-79.0,-433.0,-1176.0,-285.0,-63.0,0.0,0.0,0.0
19:44:22.147000,-347.0,-71.0,-450.0,-1117.0,-266.0,-90.0,0.0,0.0,0.0
19:44:22.151000,-320.0,-58.0,-473.0,-1117.0,-266.0,-90.0,0.0,0.0,0.0
19:44:22.156000,-322.0,-52.0,-476.0,-1048.0,-229.0,-112.0,0.0,0.0,0.0
19:44:22.161000,-343.0,-74.0,-449.0,-1048.0,-229.0,-112.0,0.0,0.0,0.0
19:44:22.166000,-343.0,-74.0,-449.0,-974.0,-236.0,-103.0,0.0,0.0,0.0
19:44:22.170000,-315.0,-84.0,-449.0,-974.0,-236.0,-103.0,0.0,0.0,0.0
19:44:22.175000,-317.0,-102.0,-483.0,-890.0,-260.0,-60.0,0.0,0.0,0.0
19:44:22.180000,-285.0,-126.0,-469.0,-890.0,-260.0,-60.0,0.0,0.0,0.0
19:44:22.184000,-267.0,-142.0,-466.0,-819.0,-244.0,-32.0,0.0,0.0,0.0
19:44:22.189000,-268.0,-163.0,-496.0,-819.0,-244.0,-32.0,0.0,0.0,0.0
19:44:22.194000,-280.0,-178.0,-499.0,-835.0,-195.0,-16.0,0.0,0.0,0.0
19:44:22.198000,-301.0,-184.0,-486.0,-835.0,-195.0,-16.0,0.0,0.0,0.0
19:44:22.203000,-337.0,-185.0,-479.0,-934.0,-135.0,-8.0,0.0,0.0,0.0
19:44:22.208000,-378.0,-200.0,-487.0,-934.0,-135.0,-8.0,0.0,0.0,0.0
19:44:22.213000,-445.0,-212.0,-529.0,-1044.0,-35.0,-3.0,0.0,0.0,0.0
19:44:22.217000,-509.0,-225.0,-614.0,-1044.0,-35.0,-3.0,0.0,0.0,0.0
19:44:22.222000,-568.0,-238.0,-691.0,-1109.0,101.0,27.0,0.0,0.0,0.0
19:44:22.227000,-646.0,-274.0,-708.0,-1109.0,101.0,27.0,0.0,0.0,0.0
19:44:22.231000,-728.0,-289.0,-679.0,-1109.0,101.0,27.0,0.0,0.0,0.0
19:44:22.236000,-795.0,-263.0,-696.0,-1115.0,109.0,54.0,0.0,0.0,0.0
19:44:22.241000,-836.0,-225.0,-736.0,-1115.0,109.0,54.0,0.0,0.0,0.0
19:44:22.245000,-836.0,-177.0,-753.0,-1158.0,-40.0,10.0,0.0,0.0,0.0
19:44:22.250000,-814.0,-137.0,-775.0,-1158.0,-40.0,10.0,0.0,0.0,0.0
19:44:22.255000,-767.0,-119.0,-840.0,-1254.0,-221.0,-60.0,0.0,0.0,0.0
19:44:22.260000,-714.0,-112.0,-875.0,-1254.0,-221.0,-60.0,0.0,0.0,0.0
19:44:22.264000,-641.0,-110.0,-875.0,-1255.0,-350.0,-88.0,0.0,0.0,0.0
19:44:22.269000,-574.0,-113.0,-891.0,-1255.0,-350.0,-88.0,0.0,0.0,0.0
19:44:22.274000,-574.0,-113.0,-891.0,-1118.0,-339.0,-81.0,0.0,0.0,0.0
19:44:22.278000,-506.0,-109.0,-949.0,-1118.0,-339.0,-81.0,0.0,0.0,0.0
19:44:22.283000,-450.0,-98.0,-1036.0,-996.0,-238.0,-67.0,0.0,0.0,0.0
19:44:22.288000,-412.0,-89.0,-1080.0,-996.0,-238.0,-67.0,0.0,0.0,0.0
19:44:22.292000,-378.0,-79.0,-1080.0,-959.0,-154.0,-58.0,0.0,0.0,0.0
19:44:22.297000,-356.0,-70.0,-1078.0,-959.0,-154.0,-58.0,0.0,0.0,0.0
19:44:22.302000,-344.0,-58.0,-1095.0,-946.0,-62.0,-49.0,0.0,0.0,0.0
19:44:22.307000,-343.0,-51.0,-1094.0,-946.0,-62.0,-49.0,0.0,0.0,0.0
19:44:22.311000,-352.0,-49.0,-1072.0,-942.0,48.0,-34.0,0.0,0.0,0.0
19:44:22.316000,-351.0,-42.0,-1083.0,-942.0,48.0,-34.0,0.0,0.0,0.0
19:44:22.321000,-363.0,-37.0,-1082.0,-954.0,114.0,-16.0,0.0,0.0,0.0
19:44:22.325000,-371.0,-37.0,-1054.0,-954.0,114.0,-16.0,0.0,0.0,0.0
19:44:22.330000,-385.0,-37.0,-1015.0,-967.0,133.0,-3.0,0.0,0.0,0.0
19:44:22.335000,-393.0,-32.0,-970.0,-967.0,133.0,-3.0,0.0,0.0,0.0
19:44:22.339000,-399.0,-28.0,-936.0,-967.0,133.0,-3.0,0.0,0.0,0.0
19:44:22.344000,-407.0,-21.0,-912.0,-971.0,150.0,5.0,0.0,0.0,0.0
19:44:22.349000,-414.0,-11.0,-886.0,-971.0,150.0,5.0,0.0,0.0,0.0
19:44:22.354000,-420.0,0.0,-851.0,-985.0,173.0,11.0,0.0,0.0,0.0
19:44:22.358000,-420.0,17.0,-813.0,-985.0,173.0,11.0,0.0,0.0,0.0
19:44:22.363000,-425.0,37.0,-801.0,-1009.0,188.0,7.0,0.0,0.0,0.0
19:44:22.368000,-430.0,58.0,-795.0,-1009.0,188.0,7.0,0.0,0.0,0.0
19:44:22.372000,-430.0,58.0,-795.0,-1041.0,218.0,-2.0,0.0,0.0,0.0
19:44:22.377000,-451.0,95.0,-756.0,-1041.0,218.0,-2.0,0.0,0.0,0.0
19:44:22.382000,-451.0,95.0,-756.0,-1054.0,261.0,-6.0,0.0,0.0,0.0
19:44:22.386000,-465.0,111.0,-742.0,-1054.0,261.0,-6.0,0.0,0.0,0.0
19:44:22.391000,-483.0,121.0,-730.0,-1028.0,299.0,-3.0,0.0,0.0,0.0
19:44:22.396000,-499.0,124.0,-708.0,-1028.0,299.0,-3.0,0.0,0.0,0.0
19:44:22.401000,-517.0,123.0,-681.0,-973.0,326.0,5.0,0.0,0.0,0.0
19:44:22.405000,-531.0,120.0,-655.0,-973.0,326.0,5.0,0.0,0.0,0.0
19:44:22.410000,-542.0,115.0,-628.0,-916.0,343.0,13.0,0.0,0.0,0.0
19:44:22.415000,-553.0,112.0,-601.0,-916.0,343.0,13.0,0.0,0.0,0.0
19:44:22.419000,-565.0,108.0,-576.0,-897.0,356.0,14.0,0.0,0.0,0.0
19:44:22.424000,-574.0,111.0,-556.0,-897.0,356.0,14.0,0.0,0.0,0.0
19:44:22.429000,-577.0,112.0,-546.0,-914.0,373.0,6.0,0.0,0.0,0.0
19:44:22.433000,-582.0,118.0,-547.0,-914.0,373.0,6.0,0.0,0.0,0.0
19:44:22.438000,-585.0,123.0,-551.0,-945.0,391.0,-2.0,0.0,0.0,0.0
19:44:22.443000,-585.0,127.0,-550.0,-945.0,391.0,-2.0,0.0,0.0,0.0
19:44:22.448000,-582.0,128.0,-534.0,-945.0,391.0,-2.0,0.0,0.0,0.0
19:44:22.452000,-576.0,127.0,-510.0,-957.0,394.0,-6.0,0.0,0.0,0.0
19:44:22.457000,-569.0,125.0,-500.0,-957.0,394.0,-6.0,0.0,0.0,0.0
19:44:22.462000,-564.0,122.0,-506.0,-951.0,396.0,-6.0,0.0,0.0,0.0
19:44:22.466000,-567.0,119.0,-507.0,-951.0,396.0,-6.0,0.0,0.0,0.0
19:44:22.471000,-571.0,120.0,-501.0,-932.0,421.0,0.0,0.0,0.0,0.0
19:44:22.476000,-583.0,126.0,-501.0,-932.0,421.0,0.0,0.0,0.0,0.0
19:44:22.480000,-595.0,133.0,-499.0,-916.0,466.0,10.0,0.0,0.0,0.0
19:44:22.485000,-613.0,142.0,-504.0,-916.0,466.0,10.0,0.0,0.0,0.0
19:44:22.490000,-613.0,142.0,-504.0,-913.0,503.0,23.0,0.0,0.0,0.0
19:44:22.495000,-634.0,149.0,-523.0,-913.0,503.0,23.0,0.0,0.0,0.0
19:44:22.499000,-660.0,154.0,-539.0,-907.0,533.0,51.0,0.0,0.0,0.0
19:44:22.504000,-687.0,155.0,-553.0,-907.0,533.0,51.0,0.0,0.0,0.0
19:44:22.509000,-716.0,150.0,-562.0,-877.0,547.0,95.0,0.0,0.0,0.0
19:44:22.513000,-746.0,140.0,-576.0,-877.0,547.0,95.0,0.0,0.0,0.0
19:44:22.518000,-775.0,126.0,-590.0,-837.0,540.0,141.0,0.0,0.0,0.0
19:44:22.523000,-802.0,110.0,-595.0,-837.0,540.0,141.0,0.0,0.0,0.0
19:44:22.527000,-827.0,95.0,-597.0,-826.0,529.0,177.0,0.0,0.0,0.0
19:44:22.532000,-853.0,83.0,-602.0,-826.0,529.0,177.0,0.0,0.0,0.0
19:44:22.537000,-878.0,72.0,-603.0,-860.0,525.0,196.0,0.0,0.0,0.0
19:44:22.542000,-903.0,64.0,-601.0,-860.0,525.0,196.0,0.0,0.0,0.0
19:44:22.546000,-924.0,59.0,-592.0,-912.0,521.0,197.0,0.0,0.0,0.0
19:44:22.551000,-942.0,54.0,-579.0,-912.0,521.0,197.0,0.0,0.0,0.0
19:44:22.556000,-956.0,53.0,-563.0,-951.0,501.0,179.0,0.0,0.0,0.0
19:44:22.560000,-967.0,50.0,-543.0,-951.0,501.0,179.0,0.0,0.0,0.0
19:44:22.565000,-977.0,49.0,-522.0,-951.0,501.0,179.0,0.0,0.0,0.0
19:44:22.570000,-987.0,42.0,-496.0,-978.0,482.0,152.0,0.0,0.0,0.0
19:44:22.574000,-998.0,34.0,-457.0,-978.0,482.0,152.0,0.0,0.0,0.0
19:44:22.579000,-1010.0,24.0,-410.0,-984.0,474.0,132.0,0.0,0.0,0.0
19:44:22.584000,-1019.0,18.0,-363.0,-984.0,474.0,132.0,0.0,0.0,0.0
19:44:22.589000,-1031.0,17.0,-319.0,-970.0,467.0,117.0,0.0,0.0,0.0
19:44:22.593000,-1043.0,21.0,-283.0,-970.0,467.0,117.0,0.0,0.0,0.0
19:44:22.598000,-1059.0,28.0,-253.0,-983.0,471.0,97.0,0.0,0.0,0.0
19:44:22.603000,-1059.0,28.0,-253.0,-983.0,471.0,97.0,0.0,0.0,0.0
19:44:22.607000,-1080.0,40.0,-226.0,-1031.0,491.0,76.0,0.0,0.0,0.0
19:44:22.612000,-1106.0,61.0,-196.0,-1031.0,491.0,76.0,0.0,0.0,0.0
19:44:22.617000,-1134.0,88.0,-154.0,-1067.0,500.0,55.0,0.0,0.0,0.0
19:44:22.621000,-1167.0,122.0,-107.0,-1067.0,500.0,55.0,0.0,0.0,0.0
19:44:22.626000,-1201.0,158.0,-71.0,-1075.0,487.0,35.0,0.0,0.0,0.0
19:44:22.631000,-1240.0,198.0,-44.0,-1075.0,487.0,35.0,0.0,0.0,0.0
19:44:22.636000,-1284.0,240.0,-17.0,-1045.0,474.0,22.0,0.0,0.0,0.0
19:44:22.640000,-1336.0,282.0,15.0,-1045.0,474.0,22.0,0.0,0.0,0.0
19:44:22.645000,-1394.0,323.0,49.0,-979.0,462.0,18.0,0.0,0.0,0.0
19:44:22.650000,-1453.0,361.0,83.0,-979.0,462.0,18.0,0.0,0.0,0.0
19:44:22.654000,-1513.0,392.0,108.0,-907.0,449.0,19.0,0.0,0.0,0.0
19:44:22.659000,-1569.0,419.0,126.0,-907.0,449.0,19.0,0.0,0.0,0.0
19:44:22.664000,-1613.0,441.0,140.0,-907.0,449.0,19.0,0.0,0.0,0.0
19:44:22.668000,-1645.0,459.0,144.0,-828.0,411.0,22.0,0.0,0.0,0.0
19:44:22.673000,-1664.0,473.0,141.0,-828.0,411.0,22.0,0.0,0.0,0.0
19:44:22.677000,-1668.0,485.0,133.0,-737.0,325.0,24.0,0.0,0.0,0.0
19:44:22.683000,-1657.0,496.0,113.0,-737.0,325.0,24.0,0.0,0.0,0.0
19:44:22.687000,-1635.0,508.0,82.0,-671.0,224.0,13.0,0.0,0.0,0.0
19:44:22.692000,-1607.0,525.0,49.0,-671.0,224.0,13.0,0.0,0.0,0.0
19:44:22.697000,-1575.0,543.0,4.0,-664.0,155.0,-12.0,0.0,0.0,0.0
19:44:22.701000,-1543.0,560.0,-46.0,-664.0,155.0,-12.0,0.0,0.0,0.0
19:44:22.706000,-1514.0,579.0,-100.0,-696.0,142.0,-47.0,0.0,0.0,0.0
19:44:22.711000,-1514.0,579.0,-100.0,-696.0,142.0,-47.0,0.0,0.0,0.0
19:44:22.715000,-1493.0,597.0,-154.0,-728.0,185.0,-81.0,0.0,0.0,0.0
19:44:22.720000,-1479.0,614.0,-200.0,-728.0,185.0,-81.0,0.0,0.0,0.0
19:44:22.725000,-1474.0,627.0,-241.0,-732.0,254.0,-102.0,0.0,0.0,0.0
19:44:22.730000,-1471.0,637.0,-280.0,-732.0,254.0,-102.0,0.0,0.0,0.0
19:44:22.734000,-1471.0,640.0,-312.0,-710.0,302.0,-117.0,0.0,0.0,0.0
19:44:22.739000,-1471.0,641.0,-329.0,-710.0,302.0,-117.0,0.0,0.0,0.0
19:44:22.744000,-1469.0,641.0,-332.0,-695.0,306.0,-135.0,0.0,0.0,0.0
19:44:22.748000,-1463.0,644.0,-328.0,-695.0,306.0,-135.0,0.0,0.0,0.0
19:44:22.753000,-1453.0,645.0,-319.0,-705.0,286.0,-159.0,0.0,0.0,0.0
19:44:22.758000,-1443.0,648.0,-304.0,-705.0,286.0,-159.0,0.0,0.0,0.0
19:44:22.762000,-1432.0,655.0,-280.0,-729.0,270.0,-184.0,0.0,0.0,0.0
19:44:22.767000,-1421.0,661.0,-247.0,-729.0,270.0,-184.0,0.0,0.0,0.0
19:44:22.772000,-1410.0,667.0,-203.0,-729.0,270.0,-184.0,0.0,0.0,0.0
19:44:22.777000,-1399.0,672.0,-156.0,-737.0,249.0,-199.0,0.0,0.0,0.0
19:44:22.781000,-1388.0,674.0,-115.0,-737.0,249.0,-199.0,0.0,0.0,0.0
19:44:22.786000,-1378.0,674.0,-77.0,-707.0,230.0,-202.0,0.0,0.0,0.0
19:44:22.791000,-1368.0,674.0,-38.0,-707.0,230.0,-202.0,0.0,0.0,0.0
19:44:22.795000,-1358.0,674.0,0.0,-655.0,220.0,-199.0,0.0,0.0,0.0
19:44:22.800000,-1344.0,675.0,37.0,-655.0,220.0,-199.0,0.0,0.0,0.0
19:44:22.805000,-1328.0,675.0,63.0,-612.0,197.0,-194.0,0.0,0.0,0.0
19:44:22.809000,-1306.0,676.0,82.0,-612.0,197.0,-194.0,0.0,0.0,0.0
19:44:22.814000,-1280.0,682.0,102.0,-587.0,159.0,-194.0,0.0,0.0,0.0
19:44:22.819000,-1280.0,682.0,102.0,-587.0,159.0,-194.0,0.0,0.0,0.0
19:44:22.824000,-1248.0,692.0,119.0,-585.0,118.0,-213.0,0.0,0.0,0.0
19:44:22.828000,-1213.0,704.0,127.0,-585.0,118.0,-213.0,0.0,0.0,0.0
19:44:22.833000,-1178.0,717.0,128.0,-607.0,94.0,-244.0,0.0,0.0,0.0
19:44:22.838000,-1141.0,732.0,127.0,-607.0,94.0,-244.0,0.0,0.0,0.0
19:44:22.842000,-1103.0,751.0,126.0,-622.0,85.0,-277.0,0.0,0.0,0.0
19:44:22.847000,-1066.0,770.0,129.0,-622.0,85.0,-277.0,0.0,0.0,0.0
19:44:22.852000,-1029.0,785.0,142.0,-606.0,65.0,-302.0,0.0,0.0,0.0
19:44:22.856000,-992.0,798.0,166.0,-606.0,65.0,-302.0,0.0,0.0,0.0
19:44:22.861000,-951.0,811.0,199.0,-557.0,18.0,-322.0,0.0,0.0,0.0
19:44:22.866000,-905.0,825.0,235.0,-557.0,18.0,-322.0,0.0,0.0,0.0
19:44:22.871000,-855.0,841.0,275.0,-502.0,-60.0,-355.0,0.0,0.0,0.0
19:44:22.875000,-800.0,858.0,314.0,-502.0,-60.0,-355.0,0.0,0.0,0.0
19:44:22.880000,-744.0,880.0,342.0,-502.0,-131.0,-355.0,0.0,0.0,0.0
19:44:22.885000,-690.0,904.0,357.0,-470.0,-131.0,-401.0,0.0,0.0,0.0
19:44:22.889000,-644.0,929.0,358.0,-470.0,-131.0,-401.0,0.0,0.0,0.0
19:44:22.894000,-604.0,958.0,354.0,-453.0,-143.0,-450.0,0.0,0.0,0.0
19:44:22.899000,-574.0,988.0,341.0,-453.0,-143.0,-450.0,0.0,0.0,0.0
19:44:22.903000,-551.0,1017.0,315.0,-426.0,-113.0,-491.0,0.0,0.0,0.0
19:44:22.908000,-539.0,1045.0,277.0,-426.0,-113.0,-491.0,0.0,0.0,0.0
19:44:22.913000,-535.0,1064.0,236.0,-378.0,-61.0,-516.0,0.0,0.0,0.0
19:44:22.918000,-535.0,1076.0,194.0,-378.0,-61.0,-516.0,0.0,0.0,0.0
19:44:22.922000,-535.0,1083.0,149.0,-307.0,-9.0,-526.0,0.0,0.0,0.0
19:44:22.927000,-535.0,1083.0,149.0,-307.0,-9.0,-526.0,0.0,0.0,0.0
19:44:22.932000,-531.0,1082.0,105.0,-222.0,6.0,-533.0,0.0,0.0,0.0
19:44:22.936000,-522.0,1075.0,58.0,-222.0,6.0,-533.0,0.0,0.0,0.0
19:44:22.941000,-508.0,1066.0,9.0,-146.0,-11.0,-547.0,0.0,0.0,0.0
19:44:22.946000,-489.0,1057.0,-38.0,-146.0,-11.0,-547.0,0.0,0.0,0.0
19:44:22.950000,-464.0,1051.0,-85.0,-101.0,-31.0,-573.0,0.0,0.0,0.0
19:44:22.955000,-438.0,1052.0,-129.0,-101.0,-31.0,-573.0,0.0,0.0,0.0
19:44:22.960000,-415.0,1055.0,-162.0,-115.0,-28.0,-611.0,0.0,0.0,0.0
19:44:22.965000,-398.0,1065.0,-182.0,-115.0,-28.0,-611.0,0.0,0.0,0.0
19:44:22.969000,-388.0,1079.0,-185.0,-180.0,4.0,-654.0,0.0,0.0,0.0
19:44:22.974000,-385.0,1101.0,-171.0,-180.0,4.0,-654.0,0.0,0.0,0.0
19:44:22.979000,-387.0,1128.0,-145.0,-246.0,54.0,-695.0,0.0,0.0,0.0
19:44:22.983000,-403.0,1159.0,-119.0,-246.0,54.0,-695.0,0.0,0.0,0.0
19:44:22.988000,-433.0,1192.0,-94.0,-297.0,137.0,-731.0,0.0,0.0,0.0
19:44:22.993000,-478.0,1225.0,-65.0,-297.0,137.0,-731.0,0.0,0.0,0.0
19:44:22.997000,-535.0,1251.0,-32.0,-297.0,137.0,-731.0,0.0,0.0,0.0
19:44:23.002000,-602.0,1271.0,-10.0,-297.0,228.0,-768.0,0.0,0.0,0.0
19:44:23.007000,-669.0,1285.0,-6.0,-297.0,228.0,-768.0,0.0,0.0,0.0
19:44:23.012000,-735.0,1290.0,-15.0,-219.0,285.0,-820.0,0.0,0.0,0.0
19:44:23.016000,-795.0,1290.0,-33.0,-219.0,285.0,-820.0,0.0,0.0,0.0
19:44:23.021000,-854.0,1287.0,-59.0,-110.0,302.0,-886.0,0.0,0.0,0.0
19:44:23.026000,-909.0,1279.0,-91.0,-110.0,302.0,-886.0,0.0,0.0,0.0
19:44:23.030000,-961.0,1262.0,-123.0,-29.0,292.0,-958.0,0.0,0.0,0.0
19:44:23.035000,-1010.0,1240.0,-149.0,-29.0,292.0,-958.0,0.0,0.0,0.0
19:44:23.040000,-1010.0,1240.0,-149.0,19.0,271.0,-1033.0,0.0,0.0,0.0
19:44:23.044000,-1057.0,1212.0,-170.0,19.0,271.0,-1033.0,0.0,0.0,0.0
19:44:23.049000,-1102.0,1180.0,-182.0,58.0,248.0,-1096.0,0.0,0.0,0.0
19:44:23.054000,-1147.0,1143.0,-182.0,58.0,248.0,-1096.0,0.0,0.0,0.0
19:44:23.059000,-1190.0,1103.0,-170.0,81.0,220.0,-1137.0,0.0,0.0,0.0
19:44:23.063000,-1228.0,1058.0,-147.0,81.0,220.0,-1137.0,0.0,0.0,0.0
19:44:23.068000,-1263.0,1007.0,-115.0,88.0,171.0,-1148.0,0.0,0.0,0.0
19:44:23.073000,-1292.0,952.0,-77.0,88.0,171.0,-1148.0,0.0,0.0,0.0
19:44:23.077000,-1313.0,896.0,-38.0,89.0,105.0,-1135.0,0.0,0.0,0.0
19:44:23.082000,-1327.0,842.0,-5.0,89.0,105.0,-1135.0,0.0,0.0,0.0
19:44:23.087000,-1333.0,787.0,16.0,86.0,45.0,-1117.0,0.0,0.0,0.0
19:44:23.091000,-1333.0,735.0,31.0,86.0,45.0,-1117.0,0.0,0.0,0.0
19:44:23.096000,-1327.0,687.0,40.0,63.0,1.0,-1122.0,0.0,0.0,0.0
19:44:23.101000,-1320.0,641.0,44.0,63.0,1.0,-1122.0,0.0,0.0,0.0
19:44:23.106000,-1302.0,602.0,46.0,23.0,-50.0,-1145.0,0.0,0.0,0.0
19:44:23.110000,-1269.0,565.0,52.0,23.0,-50.0,-1145.0,0.0,0.0,0.0
19:44:23.115000,-1225.0,525.0,63.0,23.0,-50.0,-1145.0,0.0,0.0,0.0
19:44:23.120000,-1173.0,494.0,64.0,25.0,-163.0,-1101.0,0.0,0.0,0.0
19:44:23.124000,-1137.0,478.0,33.0,25.0,-163.0,-1101.0,0.0,0.0,0.0
19:44:23.129000,-1135.0,483.0,7.0,37.0,-228.0,-989.0,0.0,0.0,0.0
19:44:23.134000,-1146.0,497.0,16.0,37.0,-228.0,-989.0,0.0,0.0,0.0
19:44:23.138000,-1146.0,497.0,16.0,-45.0,-134.0,-902.0,0.0,0.0,0.0
19:44:23.143000,-1167.0,525.0,62.0,-45.0,-134.0,-902.0,0.0,0.0,0.0
19:44:23.148000,-1167.0,525.0,62.0,-145.0,-103.0,-875.0,0.0,0.0,0.0
19:44:23.153000,-1169.0,541.0,65.0,-145.0,-103.0,-875.0,0.0,0.0,0.0
19:44:23.157000,-1166.0,553.0,60.0,-180.0,-195.0,-880.0,0.0,0.0,0.0
19:44:23.162000,-1159.0,548.0,56.0,-180.0,-195.0,-880.0,0.0,0.0,0.0
19:44:23.167000,-1154.0,527.0,53.0,-120.0,-242.0,-871.0,0.0,0.0,0.0
19:44:23.171000,-1156.0,499.0,58.0,-120.0,-242.0,-871.0,0.0,0.0,0.0
19:44:23.176000,-1163.0,472.0,74.0,-12.0,-232.0,-844.0,0.0,0.0,0.0
19:44:23.181000,-1167.0,451.0,97.0,-12.0,-232.0,-844.0,0.0,0.0,0.0
19:44:23.185000,-1166.0,434.0,116.0,20.0,-239.0,-816.0,0.0,0.0,0.0
19:44:23.190000,-1162.0,424.0,112.0,20.0,-239.0,-816.0,0.0,0.0,0.0
19:44:23.195000,-1157.0,417.0,84.0,-43.0,-283.0,-797.0,0.0,0.0,0.0
19:44:23.200000,-1150.0,414.0,51.0,-43.0,-283.0,-797.0,0.0,0.0,0.0
19:44:23.204000,-1148.0,414.0,30.0,-119.0,-325.0,-782.0,0.0,0.0,0.0
19:44:23.209000,-1147.0,413.0,9.0,-119.0,-325.0,-782.0,0.0,0.0,0.0
19:44:23.214000,-1151.0,410.0,-17.0,-119.0,-325.0,-782.0,0.0,0.0,0.0
19:44:23.218000,-1157.0,405.0,-56.0,-150.0,-336.0,-758.0,0.0,0.0,0.0
19:44:23.223000,-1164.0,394.0,-103.0,-150.0,-336.0,-758.0,0.0,0.0,0.0
19:44:23.228000,-1169.0,380.0,-147.0,-142.0,-319.0,-721.0,0.0,0.0,0.0
19:44:23.232000,-1172.0,367.0,-185.0,-142.0,-319.0,-721.0,0.0,0.0,0.0
19:44:23.237000,-1178.0,351.0,-220.0,-87.0,-320.0,-685.0,0.0,0.0,0.0
19:44:23.242000,-1190.0,334.0,-254.0,-87.0,-320.0,-685.0,0.0,0.0,0.0
19:44:23.247000,-1208.0,322.0,-287.0,-22.0,-324.0,-661.0,0.0,0.0,0.0
19:44:23.251000,-1239.0,314.0,-313.0,-22.0,-324.0,-661.0,0.0,0.0,0.0
19:44:23.256000,-1239.0,314.0,-313.0,-1.0,-282.0,-647.0,0.0,0.0,0.0
19:44:23.261000,-1285.0,309.0,-331.0,-1.0,-282.0,-647.0,0.0,0.0,0.0
19:44:23.265000,-1341.0,305.0,-350.0,-33.0,-213.0,-637.0,0.0,0.0,0.0
19:44:23.270000,-1411.0,307.0,-369.0,-33.0,-213.0,-637.0,0.0,0.0,0.0
19:44:23.275000,-1491.0,311.0,-390.0,-82.0,-170.0,-625.0,0.0,0.0,0.0
19:44:23.279000,-1577.0,316.0,-419.0,-82.0,-170.0,-625.0,0.0,0.0,0.0
19:44:23.284000,-1668.0,327.0,-464.0,-110.0,-150.0,-612.0,0.0,0.0,0.0
19:44:23.289000,-1759.0,344.0,-522.0,-110.0,-150.0,-612.0,0.0,0.0,0.0
19:44:23.294000,-1850.0,365.0,-595.0,-119.0,-153.0,-596.0,0.0,0.0,0.0
19:44:23.298000,-1934.0,382.0,-684.0,-119.0,-153.0,-596.0,0.0,0.0,0.0
19:44:23.303000,-2011.0,395.0,-792.0,-147.0,-180.0,-587.0,0.0,0.0,0.0
19:44:23.308000,-2077.0,399.0,-912.0,-147.0,-180.0,-587.0,0.0,0.0,0.0
19:44:23.312000,-2132.0,400.0,-1019.0,-170.0,-238.0,-597.0,0.0,0.0,0.0
19:44:23.317000,-2176.0,399.0,-1099.0,-170.0,-238.0,-597.0,0.0,0.0,0.0
19:44:23.322000,-2208.0,396.0,-1155.0,-170.0,-238.0,-597.0,0.0,0.0,0.0
19:44:23.326000,-2221.0,389.0,-1212.0,-136.0,-344.0,-631.0,0.0,0.0,0.0
19:44:23.331000,-2230.0,382.0,-1274.0,-136.0,-344.0,-631.0,0.0,0.0,0.0
19:44:23.336000,-2241.0,365.0,-1306.0,-105.0,-440.0,-668.0,0.0,0.0,0.0
19:44:23.341000,-2245.0,345.0,-1297.0,-105.0,-440.0,-668.0,0.0,0.0,0.0
19:44:23.345000,-2247.0,323.0,-1268.0,-84.0,-489.0,-698.0,0.0,0.0,0.0
19:44:23.350000,-2251.0,292.0,-1230.0,-84.0,-489.0,-698.0,0.0,0.0,0.0
19:44:23.355000,-2255.0,264.0,-1192.0,-40.0,-533.0,-722.0,0.0,0.0,0.0
19:44:23.359000,-2270.0,238.0,-1142.0,-40.0,-533.0,-722.0,0.0,0.0,0.0
19:44:23.364000,-2270.0,238.0,-1142.0,30.0,-607.0,-741.0,0.0,0.0,0.0
19:44:23.369000,-2267.0,209.0,-1066.0,30.0,-607.0,-741.0,0.0,0.0,0.0
19:44:23.373000,-2228.0,170.0,-1038.0,65.0,-677.0,-773.0,0.0,0.0,0.0
19:44:23.378000,-2202.0,121.0,-1051.0,65.0,-677.0,-773.0,0.0,0.0,0.0
19:44:23.383000,-2174.0,72.0,-1045.0,19.0,-736.0,-799.0,0.0,0.0,0.0
19:44:23.388000,-2144.0,18.0,-1030.0,19.0,-736.0,-799.0,0.0,0.0,0.0
19:44:23.392000,-2109.0,-40.0,-995.0,-22.0,-784.0,-797.0,0.0,0.0,0.0
19:44:23.397000,-2093.0,-105.0,-975.0,-22.0,-784.0,-797.0,0.0,0.0,0.0
19:44:23.402000,-2067.0,-163.0,-999.0,-53.0,-774.0,-788.0,0.0,0.0,0.0
19:44:23.406000,-2031.0,-186.0,-982.0,-53.0,-774.0,-788.0,0.0,0.0,0.0
19:44:23.411000,-2111.0,-225.0,-910.0,-77.0,-864.0,-751.0,0.0,0.0,0.0
19:44:23.416000,-2027.0,-268.0,-952.0,-77.0,-864.0,-751.0,0.0,0.0,0.0
19:44:23.420000,-1976.0,-290.0,-1052.0,-156.0,-945.0,-731.0,0.0,0.0,0.0
19:44:23.425000,-1918.0,-305.0,-1126.0,-156.0,-945.0,-731.0,0.0,0.0,0.0
19:44:23.430000,-1915.0,-320.0,-1133.0,-156.0,-945.0,-731.0,0.0,0.0,0.0
19:44:23.434000,-1934.0,-339.0,-1147.0,-267.0,-917.0,-721.0,0.0,0.0,0.0
19:44:23.439000,-1925.0,-359.0,-1229.0,-267.0,-917.0,-721.0,0.0,0.0,0.0
19:44:23.444000,-1785.0,-343.0,-1264.0,-422.0,-977.0,-707.0,0.0,0.0,0.0
19:44:23.449000,-1712.0,-355.0,-1216.0,-422.0,-977.0,-707.0,0.0,0.0,0.0
19:44:23.453000,-1751.0,-385.0,-1190.0,-398.0,-1091.0,-713.0,0.0,0.0,0.0
19:44:23.458000,-1694.0,-424.0,-1227.0,-398.0,-1091.0,-713.0,0.0,0.0,0.0
19:44:23.463000,-1644.0,-429.0,-1212.0,-267.0,-1100.0,-705.0,0.0,0.0,0.0
19:44:23.467000,-1630.0,-444.0,-1096.0,-267.0,-1100.0,-705.0,0.0,0.0,0.0
19:44:23.472000,-1593.0,-471.0,-1036.0,-259.0,-1055.0,-688.0,0.0,0.0,0.0
19:44:23.477000,-1593.0,-471.0,-1036.0,-259.0,-1055.0,-688.0,0.0,0.0,0.0
19:44:23.481000,-1549.0,-485.0,-1040.0,-257.0,-1005.0,-659.0,0.0,0.0,0.0
19:44:23.486000,-1513.0,-506.0,-1041.0,-257.0,-1005.0,-659.0,0.0,0.0,0.0
19:44:23.491000,-1413.0,-541.0,-1034.0,-362.0,-866.0,-616.0,0.0,0.0,0.0
19:44:23.496000,-1472.0,-555.0,-1025.0,-362.0,-866.0,-616.0,0.0,0.0,0.0
19:44:23.500000,-1504.0,-549.0,-931.0,-448.0,-982.0,-567.0,0.0,0.0,0.0
19:44:23.505000,-1453.0,-547.0,-851.0,-448.0,-982.0,-567.0,0.0,0.0,0.0
19:44:23.510000,-1396.0,-543.0,-885.0,-456.0,-1238.0,-541.0,0.0,0.0,0.0
19:44:23.514000,-1344.0,-538.0,-957.0,-456.0,-1238.0,-541.0,0.0,0.0,0.0
19:44:23.519000,-1290.0,-539.0,-987.0,-430.0,-1178.0,-522.0,0.0,0.0,0.0
19:44:23.524000,-1265.0,-536.0,-915.0,-430.0,-1178.0,-522.0,0.0,0.0,0.0
19:44:23.528000,-1225.0,-537.0,-812.0,-452.0,-1024.0,-486.0,0.0,0.0,0.0
19:44:23.533000,-1178.0,-533.0,-788.0,-452.0,-1024.0,-486.0,0.0,0.0,0.0
19:44:23.538000,-1128.0,-530.0,-846.0,-452.0,-1024.0,-486.0,0.0,0.0,0.0
19:44:23.543000,-1095.0,-541.0,-855.0,-579.0,-998.0,-442.0,0.0,0.0,0.0
19:44:23.547000,-1057.0,-557.0,-809.0,-579.0,-998.0,-442.0,0.0,0.0,0.0
19:44:23.552000,-1014.0,-562.0,-766.0,-610.0,-1096.0,-396.0,0.0,0.0,0.0
19:44:23.557000,-966.0,-555.0,-753.0,-610.0,-1096.0,-396.0,0.0,0.0,0.0
19:44:23.561000,-905.0,-540.0,-767.0,-527.0,-1162.0,-365.0,0.0,0.0,0.0
19:44:23.566000,-865.0,-525.0,-807.0,-527.0,-1162.0,-365.0,0.0,0.0,0.0
19:44:23.571000,-842.0,-508.0,-830.0,-502.0,-1069.0,-342.0,0.0,0.0,0.0
19:44:23.575000,-842.0,-508.0,-830.0,-502.0,-1069.0,-342.0,0.0,0.0,0.0
19:44:23.580000,-798.0,-466.0,-845.0,-557.0,-935.0,-316.0,0.0,0.0,0.0
19:44:23.585000,-798.0,-466.0,-845.0,-557.0,-935.0,-316.0,0.0,0.0,0.0
19:44:23.590000,-785.0,-441.0,-896.0,-682.0,-837.0,-294.0,0.0,0.0,0.0
19:44:23.594000,-758.0,-412.0,-912.0,-682.0,-837.0,-294.0,0.0,0.0,0.0
19:44:23.599000,-729.0,-383.0,-883.0,-803.0,-835.0,-278.0,0.0,0.0,0.0
19:44:23.604000,-700.0,-358.0,-858.0,-803.0,-835.0,-278.0,0.0,0.0,0.0
19:44:23.608000,-669.0,-331.0,-871.0,-886.0,-849.0,-269.0,0.0,0.0,0.0
19:44:23.613000,-646.0,-305.0,-874.0,-886.0,-849.0,-269.0,0.0,0.0,0.0
19:44:23.618000,-616.0,-283.0,-835.0,-915.0,-819.0,-259.0,0.0,0.0,0.0
19:44:23.622000,-588.0,-264.0,-790.0,-915.0,-819.0,-259.0,0.0,0.0,0.0
19:44:23.627000,-557.0,-243.0,-748.0,-879.0,-784.0,-253.0,0.0,0.0,0.0
19:44:23.632000,-534.0,-222.0,-711.0,-879.0,-784.0,-253.0,0.0,0.0,0.0
19:44:23.637000,-513.0,-201.0,-692.0,-841.0,-712.0,-256.0,0.0,0.0,0.0
19:44:23.641000,-492.0,-180.0,-664.0,-841.0,-712.0,-256.0,0.0,0.0,0.0
19:44:23.646000,-474.0,-163.0,-630.0,-841.0,-712.0,-256.0,0.0,0.0,0.0
19:44:23.651000,-458.0,-147.0,-600.0,-837.0,-635.0,-264.0,0.0,0.0,0.0
19:44:23.655000,-443.0,-133.0,-575.0,-837.0,-635.0,-264.0,0.0,0.0,0.0
19:44:23.660000,-435.0,-116.0,-541.0,-850.0,-595.0,-278.0,0.0,0.0,0.0
19:44:23.665000,-421.0,-103.0,-504.0,-850.0,-595.0,-278.0,0.0,0.0,0.0
19:44:23.669000,-406.0,-95.0,-474.0,-859.0,-581.0,-298.0,0.0,0.0,0.0
19:44:23.674000,-392.0,-91.0,-453.0,-859.0,-581.0,-298.0,0.0,0.0,0.0
19:44:23.679000,-378.0,-86.0,-449.0,-889.0,-566.0,-315.0,0.0,0.0,0.0
19:44:23.684000,-371.0,-87.0,-443.0,-889.0,-566.0,-315.0,0.0,0.0,0.0
19:44:23.688000,-368.0,-89.0,-419.0,-899.0,-541.0,-325.0,0.0,0.0,0.0
19:44:23.693000,-368.0,-89.0,-419.0,-899.0,-541.0,-325.0,0.0,0.0,0.0
19:44:23.698000,-363.0,-90.0,-380.0,-848.0,-496.0,-340.0,0.0,0.0,0.0
19:44:23.702000,-359.0,-90.0,-358.0,-848.0,-496.0,-340.0,0.0,0.0,0.0
19:44:23.707000,-345.0,-93.0,-364.0,-895.0,-386.0,-338.0,0.0,0.0,0.0
19:44:23.712000,-327.0,-88.0,-389.0,-895.0,-386.0,-338.0,0.0,0.0,0.0
19:44:23.716000,-340.0,-92.0,-438.0,-934.0,-227.0,-349.0,0.0,0.0,0.0
19:44:23.721000,-340.0,-116.0,-422.0,-934.0,-227.0,-349.0,0.0,0.0,0.0
19:44:23.726000,-343.0,-144.0,-401.0,-934.0,-251.0,-365.0,0.0,0.0,0.0
19:44:23.731000,-329.0,-150.0,-430.0,-934.0,-251.0,-365.0,0.0,0.0,0.0
19:44:23.735000,-262.0,-176.0,-421.0,-981.0,-407.0,-362.0,0.0,0.0,0.0
19:44:23.740000,-245.0,-168.0,-389.0,-981.0,-407.0,-362.0,0.0,0.0,0.0
19:44:23.745000,-216.0,-163.0,-326.0,-970.0,-398.0,-371.0,0.0,0.0,0.0
19:44:23.749000,-210.0,-148.0,-273.0,-970.0,-398.0,-371.0,0.0,0.0,0.0
19:44:23.754000,-210.0,-132.0,-270.0,-970.0,-281.0,-370.0,0.0,0.0,0.0
19:44:23.759000,-214.0,-119.0,-261.0,-972.0,-281.0,-370.0,0.0,0.0,0.0
19:44:23.763000,-220.0,-112.0,-243.0,-972.0,-281.0,-370.0,0.0,0.0,0.0
19:44:23.768000,-233.0,-107.0,-224.0,-1005.0,-203.0,-364.0,0.0,0.0,0.0
19:44:23.773000,-237.0,-101.0,-229.0,-1005.0,-203.0,-364.0,0.0,0.0,0.0
19:44:23.778000,-226.0,-101.0,-251.0,-1049.0,-197.0,-371.0,0.0,0.0,0.0
19:44:23.782000,-215.0,-103.0,-257.0,-1049.0,-197.0,-371.0,0.0,0.0,0.0
19:44:23.787000,-202.0,-109.0,-256.0,-1068.0,-200.0,-379.0,0.0,0.0,0.0
19:44:23.792000,-188.0,-114.0,-275.0,-1068.0,-200.0,-379.0,0.0,0.0,0.0
19:44:23.796000,-165.0,-118.0,-296.0,-1045.0,-183.0,-370.0,0.0,0.0,0.0
19:44:23.801000,-140.0,-121.0,-292.0,-1045.0,-183.0,-370.0,0.0,0.0,0.0
19:44:23.806000,-140.0,-121.0,-292.0,-1009.0,-209.0,-356.0,0.0,0.0,0.0
19:44:23.810000,-112.0,-123.0,-269.0,-1009.0,-209.0,-356.0,0.0,0.0,0.0
19:44:23.815000,-84.0,-122.0,-259.0,-1019.0,-235.0,-344.0,0.0,0.0,0.0
19:44:23.820000,-62.0,-119.0,-258.0,-1019.0,-235.0,-344.0,0.0,0.0,0.0
19:44:23.825000,-51.0,-113.0,-268.0,-1076.0,-171.0,-328.0,0.0,0.0,0.0
19:44:23.829000,-51.0,-104.0,-272.0,-1076.0,-171.0,-328.0,0.0,0.0,0.0
19:44:23.834000,-68.0,-95.0,-292.0,-1164.0,-33.0,-313.0,0.0,0.0,0.0
19:44:23.839000,-87.0,-94.0,-340.0,-1164.0,-33.0,-313.0,0.0,0.0,0.0
19:44:23.843000,-102.0,-95.0,-346.0,-1246.0,33.0,-304.0,0.0,0.0,0.0
19:44:23.848000,-102.0,-99.0,-340.0,-1246.0,33.0,-304.0,0.0,0.0,0.0
19:44:23.853000,-81.0,-102.0,-321.0,-1276.0,-49.0,-304.0,0.0,0.0,0.0
19:44:23.857000,-69.0,-111.0,-260.0,-1276.0,-49.0,-304.0,0.0,0.0,0.0
19:44:23.862000,-51.0,-112.0,-209.0,-1284.0,-111.0,-312.0,0.0,0.0,0.0
19:44:23.867000,-18.0,-115.0,-245.0,-1284.0,-111.0,-312.0,0.0,0.0,0.0
19:44:23.872000,14.0,-123.0,-264.0,-1284.0,-111.0,-312.0,0.0,0.0,0.0
19:44:23.876000,34.0,-133.0,-228.0,-1332.0,-68.0,-322.0,0.0,0.0,0.0
19:44:23.881000,44.0,-140.0,-250.0,-1332.0,-68.0,-322.0,0.0,0.0,0.0
19:44:23.886000,71.0,-151.0,-241.0,-1383.0,-31.0,-332.0,0.0,0.0,0.0
19:44:23.890000,95.0,-166.0,-201.0,-1383.0,-31.0,-332.0,0.0,0.0,0.0
19:44:23.895000,108.0,-184.0,-188.0,-1427.0,-37.0,-353.0,0.0,0.0,0.0
19:44:23.900000,122.0,-193.0,-193.0,-1427.0,-37.0,-353.0,0.0,0.0,0.0
19:44:23.904000,130.0,-204.0,-243.0,-1474.0,-13.0,-379.0,0.0,0.0,0.0
19:44:23.909000,179.0,-221.0,-342.0,-1474.0,-13.0,-379.0,0.0,0.0,0.0
19:44:23.914000,179.0,-221.0,-342.0,-1493.0,-13.0,-404.0,0.0,0.0,0.0
19:44:23.919000,245.0,-246.0,-411.0,-1493.0,-13.0,-404.0,0.0,0.0,0.0
19:44:23.923000,258.0,-296.0,-406.0,-1470.0,-110.0,-400.0,0.0,0.0,0.0
19:44:23.928000,230.0,-326.0,-350.0,-1470.0,-110.0,-400.0,0.0,0.0,0.0
19:44:23.933000,226.0,-334.0,-334.0,-1497.0,-119.0,-391.0,0.0,0.0,0.0
19:44:23.937000,264.0,-355.0,-518.0,-1497.0,-119.0,-391.0,0.0,0.0,0.0
19:44:23.942000,261.0,-368.0,-666.0,-1537.0,-40.0,-386.0,0.0,0.0,0.0
19:44:23.947000,290.0,-373.0,-857.0,-1537.0,-40.0,-386.0,0.0,0.0,0.0
19:44:23.951000,217.0,-383.0,-735.0,-1526.0,-163.0,-344.0,0.0,0.0,0.0
19:44:23.956000,173.0,-378.0,-528.0,-1526.0,-163.0,-344.0,0.0,0.0,0.0
19:44:23.961000,156.0,-390.0,-702.0,-1506.0,-191.0,-282.0,0.0,0.0,0.0
19:44:23.966000,200.0,-380.0,-948.0,-1506.0,-191.0,-282.0,0.0,0.0,0.0
19:44:23.970000,228.0,-384.0,-1192.0,-1441.0,-282.0,-217.0,0.0,0.0,0.0
19:44:23.975000,229.0,-366.0,-961.0,-1441.0,-282.0,-217.0,0.0,0.0,0.0
19:44:23.980000,163.0,-341.0,-851.0,-1441.0,-282.0,-217.0,0.0,0.0,0.0
19:44:23.984000,88.0,-333.0,-969.0,-1404.0,-447.0,-137.0,0.0,0.0,0.0
19:44:23.989000,35.0,-312.0,-737.0,-1404.0,-447.0,-137.0,0.0,0.0,0.0
19:44:23.994000,19.0,-267.0,-453.0,-1249.0,-609.0,-81.0,0.0,0.0,0.0
19:44:23.998000,15.0,-236.0,-441.0,-1249.0,-609.0,-81.0,0.0,0.0,0.0
19:44:24.003000,81.0,-250.0,-523.0,-1037.0,-931.0,-52.0,0.0,0.0,0.0
19:44:24.008000,44.0,-266.0,-597.0,-1037.0,-931.0,-52.0,0.0,0.0,0.0
19:44:24.013000,-79.0,-245.0,-202.0,-795.0,-1076.0,0.0,0.0,0.0,0.0
19:44:24.017000,-125.0,-240.0,-116.0,-795.0,-1076.0,0.0,0.0,0.0,0.0
19:44:24.022000,-125.0,-240.0,-116.0,-634.0,-949.0,20.0,0.0,0.0,0.0
19:44:24.027000,-179.0,-250.0,-509.0,-634.0,-949.0,20.0,0.0,0.0,0.0
19:44:24.031000,-270.0,-266.0,-687.0,-581.0,-801.0,8.0,0.0,0.0,0.0
19:44:24.036000,-281.0,-252.0,-507.0,-581.0,-801.0,8.0,0.0,0.0,0.0
19:44:24.041000,-289.0,-272.0,-441.0,-617.0,-852.0,9.0,0.0,0.0,0.0
19:44:24.045000,-326.0,-294.0,-552.0,-617.0,-852.0,9.0,0.0,0.0,0.0
19:44:24.050000,-185.0,-328.0,-618.0,-731.0,-868.0,2.0,0.0,0.0,0.0
19:44:24.055000,-157.0,-350.0,-592.0,-731.0,-868.0,2.0,0.0,0.0,0.0
19:44:24.060000,-192.0,-360.0,-622.0,-820.0,-693.0,9.0,0.0,0.0,0.0
19:44:24.064000,-163.0,-399.0,-715.0,-820.0,-693.0,9.0,0.0,0.0,0.0
19:44:24.069000,-153.0,-387.0,-651.0,-914.0,-552.0,26.0,0.0,0.0,0.0
19:44:24.074000,-186.0,-371.0,-677.0,-914.0,-552.0,26.0,0.0,0.0,0.0
19:44:24.078000,-257.0,-340.0,-705.0,-866.0,-577.0,42.0,0.0,0.0,0.0
19:44:24.083000,-238.0,-340.0,-661.0,-866.0,-577.0,42.0,0.0,0.0,0.0
19:44:24.088000,-250.0,-343.0,-555.0,-866.0,-577.0,42.0,0.0,0.0,0.0
19:44:24.092000,-277.0,-318.0,-404.0,-831.0,-590.0,67.0,0.0,0.0,0.0
19:44:24.097000,-256.0,-241.0,-324.0,-831.0,-590.0,67.0,0.0,0.0,0.0
19:44:24.102000,-189.0,-230.0,-405.0,-895.0,-684.0,57.0,0.0,0.0,0.0
19:44:24.107000,-162.0,-219.0,-338.0,-895.0,-684.0,57.0,0.0,0.0,0.0
19:44:24.111000,-182.0,-170.0,-182.0,-867.0,-818.0,53.0,0.0,0.0,0.0
19:44:24.116000,-169.0,-142.0,-177.0,-867.0,-818.0,53.0,0.0,0.0,0.0
19:44:24.121000,66.0,-105.0,-240.0,-831.0,-705.0,51.0,0.0,0.0,0.0
19:44:24.125000,124.0,-63.0,-569.0,-831.0,-705.0,51.0,0.0,0.0,0.0
19:44:24.130000,124.0,-63.0,-569.0,-912.0,-717.0,30.0,0.0,0.0,0.0
19:44:24.135000,94.0,-2.0,-499.0,-912.0,-717.0,30.0,0.0,0.0,0.0
19:44:24.139000,83.0,17.0,-248.0,-842.0,-859.0,29.0,0.0,0.0,0.0
19:44:24.144000,117.0,6.0,18.0,-842.0,-859.0,29.0,0.0,0.0,0.0
19:44:24.149000,100.0,37.0,-11.0,-756.0,-584.0,6.0,0.0,0.0,0.0
19:44:24.154000,191.0,91.0,-117.0,-756.0,-584.0,6.0,0.0,0.0,0.0
19:44:24.158000,247.0,110.0,-171.0,-808.0,-470.0,-26.0,0.0,0.0,0.0
19:44:24.163000,309.0,113.0,-368.0,-808.0,-470.0,-26.0,0.0,0.0,0.0
19:44:24.168000,264.0,93.0,-498.0,-785.0,-752.0,-24.0,0.0,0.0,0.0
19:44:24.172000,187.0,99.0,-35.0,-785.0,-752.0,-24.0,0.0,0.0,0.0
19:44:24.177000,188.0,105.0,254.0,-709.0,-551.0,-30.0,0.0,0.0,0.0
19:44:24.182000,188.0,89.0,-91.0,-709.0,-551.0,-30.0,0.0,0.0,0.0
19:44:24.186000,200.0,74.0,-583.0,-752.0,-201.0,-55.0,0.0,0.0,0.0
19:44:24.191000,267.0,84.0,-915.0,-752.0,-201.0,-55.0,0.0,0.0,0.0
19:44:24.196000,210.0,82.0,-661.0,-671.0,-637.0,-70.0,0.0,0.0,0.0
19:44:24.201000,97.0,73.0,-125.0,-671.0,-637.0,-70.0,0.0,0.0,0.0
19:44:24.205000,55.0,39.0,47.0,-671.0,-637.0,-70.0,0.0,0.0,0.0
19:44:24.210000,24.0,64.0,193.0,-666.0,-704.0,-97.0,0.0,0.0,0.0
19:44:24.215000,126.0,42.0,194.0,-666.0,-704.0,-97.0,0.0,0.0,0.0
19:44:24.219000,25.0,-11.0,-38.0,-902.0,-270.0,-135.0,0.0,0.0,0.0
19:44:24.224000,-5.0,1.0,-474.0,-902.0,-270.0,-135.0,0.0,0.0,0.0
19:44:24.229000,65.0,-11.0,-656.0,-844.0,-295.0,-128.0,0.0,0.0,0.0
19:44:24.233000,-68.0,-22.0,-319.0,-844.0,-295.0,-128.0,0.0,0.0,0.0
19:44:24.238000,-99.0,-34.0,70.0,-602.0,-519.0,-81.0,0.0,0.0,0.0
19:44:24.243000,-99.0,-34.0,70.0,-602.0,-519.0,-81.0,0.0,0.0,0.0
19:44:24.248000,-189.0,1.0,53.0,-690.0,-447.0,-74.0,0.0,0.0,0.0
19:44:24.252000,-210.0,10.0,-235.0,-690.0,-447.0,-74.0,0.0,0.0,0.0
19:44:24.257000,-193.0,-10.0,-196.0,-867.0,-436.0,-111.0,0.0,0.0,0.0
19:44:24.262000,-182.0,-37.0,55.0,-867.0,-436.0,-111.0,0.0,0.0,0.0
19:44:24.266000,-207.0,-21.0,193.0,-808.0,-500.0,-111.0,0.0,0.0,0.0
19:44:24.271000,-249.0,-12.0,107.0,-808.0,-500.0,-111.0,0.0,0.0,0.0
19:44:24.276000,-173.0,-12.0,-82.0,-830.0,-377.0,-106.0,0.0,0.0,0.0
19:44:24.281000,-124.0,-30.0,-230.0,-830.0,-377.0,-106.0,0.0,0.0,0.0
19:44:24.285000,-107.0,-47.0,-318.0,-865.0,-594.0,-99.0,0.0,0.0,0.0
19:44:24.290000,-247.0,-88.0,-149.0,-865.0,-594.0,-99.0,0.0,0.0,0.0
19:44:24.295000,-331.0,-63.0,67.0,-734.0,-637.0,-99.0,0.0,0.0,0.0
19:44:24.299000,-216.0,-30.0,205.0,-734.0,-637.0,-99.0,0.0,0.0,0.0
19:44:24.304000,-156.0,-29.0,93.0,-734.0,-637.0,-99.0,0.0,0.0,0.0
19:44:24.309000,-126.0,-27.0,-42.0,-833.0,-461.0,-109.0,0.0,0.0,0.0
19:44:24.313000,-110.0,-28.0,-157.0,-964.0,-647.0,-79.0,0.0,0.0,0.0
19:44:24.318000,-172.0,-43.0,-116.0,-964.0,-647.0,-79.0,0.0,0.0,0.0
19:44:24.323000,-151.0,-32.0,189.0,-964.0,-647.0,-79.0,0.0,0.0,0.0
19:44:24.327000,-138.0,-21.0,189.0,-815.0,-691.0,-72.0,0.0,0.0,0.0
19:44:24.332000,-91.0,19.0,-27.0,-815.0,-691.0,-72.0,0.0,0.0,0.0
19:44:24.337000,-80.0,46.0,-55.0,-873.0,-538.0,-96.0,0.0,0.0,0.0
19:44:24.342000,28.0,43.0,-63.0,-873.0,-538.0,-96.0,0.0,0.0,0.0
19:44:24.346000,140.0,21.0,-310.0,-950.0,-570.0,-89.0,0.0,0.0,0.0
19:44:24.351000,140.0,21.0,-310.0,-950.0,-570.0,-89.0,0.0,0.0,0.0
19:44:24.356000,137.0,1.0,-335.0,-788.0,-724.0,-46.0,0.0,0.0,0.0
19:44:24.360000,21.0,-29.0,-159.0,-788.0,-724.0,-46.0,0.0,0.0,0.0
19:44:24.365000,-65.0,-25.0,-181.0,-715.0,-677.0,-48.0,0.0,0.0,0.0
19:44:24.370000,-7.0,-9.0,-275.0,-715.0,-677.0,-48.0,0.0,0.0,0.0
19:44:24.374000,78.0,7.0,-79.0,-791.0,-554.0,-97.0,0.0,0.0,0.0
19:44:24.379000,157.0,-5.0,44.0,-791.0,-554.0,-97.0,0.0,0.0,0.0
19:44:24.384000,210.0,-58.0,-235.0,-976.0,-546.0,-87.0,0.0,0.0,0.0
19:44:24.389000,217.0,-57.0,-466.0,-976.0,-546.0,-87.0,0.0,0.0,0.0
19:44:24.393000,198.0,-42.0,-457.0,-922.0,-549.0,-45.0,0.0,0.0,0.0
19:44:24.398000,122.0,-32.0,-524.0,-922.0,-549.0,-45.0,0.0,0.0,0.0
19:44:24.403000,58.0,-44.0,-548.0,-694.0,-551.0,-33.0,0.0,0.0,0.0
19:44:24.407000,103.0,-42.0,-459.0,-694.0,-551.0,-33.0,0.0,0.0,0.0
19:44:24.412000,104.0,-58.0,-236.0,-694.0,-551.0,-33.0,0.0,0.0,0.0
19:44:24.417000,65.0,-72.0,-107.0,-777.0,-436.0,-37.0,0.0,0.0,0.0
19:44:24.421000,1.0,-82.0,-147.0,-777.0,-436.0,-37.0,0.0,0.0,0.0
19:44:24.426000,30.0,-42.0,-220.0,-914.0,-376.0,-43.0,0.0,0.0,0.0
19:44:24.431000,105.0,-53.0,-262.0,-914.0,-376.0,-43.0,0.0,0.0,0.0
19:44:24.436000,148.0,-74.0,-233.0,-855.0,-399.0,-40.0,0.0,0.0,0.0
19:44:24.440000,152.0,-98.0,-248.0,-855.0,-399.0,-40.0,0.0,0.0,0.0
19:44:24.445000,134.0,-91.0,-303.0,-824.0,-356.0,-10.0,0.0,0.0,0.0
19:44:24.450000,138.0,-74.0,-426.0,-824.0,-356.0,-10.0,0.0,0.0,0.0
19:44:24.454000,136.0,-52.0,-448.0,-848.0,-345.0,25.0,0.0,0.0,0.0
19:44:24.459000,136.0,-52.0,-448.0,-848.0,-345.0,25.0,0.0,0.0,0.0
19:44:24.464000,122.0,-56.0,-413.0,-829.0,-480.0,53.0,0.0,0.0,0.0
19:44:24.468000,37.0,-79.0,-306.0,-829.0,-480.0,53.0,0.0,0.0,0.0
19:44:24.473000,38.0,-79.0,-65.0,-829.0,-426.0,58.0,0.0,0.0,0.0
19:44:24.478000,25.0,-63.0,80.0,-829.0,-426.0,58.0,0.0,0.0,0.0
19:44:24.483000,4.0,-44.0,7.0,-881.0,-248.0,45.0,0.0,0.0,0.0
19:44:24.487000,0.0,-51.0,-193.0,-881.0,-248.0,45.0,0.0,0.0,0.0
19:44:24.492000,7.0,-19.0,-302.0,-896.0,-353.0,33.0,0.0,0.0,0.0
19:44:24.497000,31.0,-4.0,-261.0,-896.0,-353.0,33.0,0.0,0.0,0.0
19:44:24.501000,34.0,5.0,-107.0,-845.0,-432.0,23.0,0.0,0.0,0.0
19:44:24.506000,47.0,7.0,-72.0,-845.0,-432.0,23.0,0.0,0.0,0.0
19:44:24.510000,45.0,20.0,-102.0,-870.0,-308.0,29.0,0.0,0.0,0.0
19:44:24.515000,39.0,33.0,-108.0,-870.0,-308.0,29.0,0.0,0.0,0.0
19:44:24.520000,37.0,39.0,-99.0,-870.0,-339.0,29.0,0.0,0.0,0.0
19:44:24.525000,32.0,57.0,-158.0,-935.0,-315.0,28.0,0.0,0.0,0.0
19:44:24.530000,23.0,71.0,-196.0,-935.0,-315.0,28.0,0.0,0.0,0.0
19:44:24.534000,8.0,74.0,-146.0,-926.0,-359.0,27.0,0.0,0.0,0.0
19:44:24.539000,-14.0,77.0,-78.0,-926.0,-359.0,27.0,0.0,0.0,0.0
19:44:24.544000,-18.0,86.0,-55.0,-874.0,-421.0,23.0,0.0,0.0,0.0
19:44:24.548000,-9.0,75.0,-23.0,-874.0,-421.0,23.0,0.0,0.0,0.0
19:44:24.553000,0.0,75.0,36.0,-874.0,-457.0,18.0,0.0,0.0,0.0
19:44:24.558000,10.0,79.0,34.0,-874.0,-457.0,18.0,0.0,0.0,0.0
19:44:24.562000,31.0,72.0,-32.0,-921.0,-405.0,15.0,0.0,0.0,0.0
19:44:24.567000,31.0,72.0,-32.0,-921.0,-405.0,15.0,0.0,0.0,0.0
19:44:24.572000,14.0,68.0,-86.0,-923.0,-399.0,24.0,0.0,0.0,0.0
19:44:24.577000,11.0,63.0,-146.0,-923.0,-399.0,24.0,0.0,0.0,0.0
19:44:24.581000,-20.0,60.0,-168.0,-894.0,-427.0,36.0,0.0,0.0,0.0
19:44:24.586000,-82.0,56.0,-88.0,-894.0,-427.0,36.0,0.0,0.0,0.0
19:44:24.591000,-78.0,61.0,42.0,-932.0,-413.0,16.0,0.0,0.0,0.0
19:44:24.595000,-67.0,73.0,89.0,-932.0,-413.0,16.0,0.0,0.0,0.0
19:44:24.600000,-66.0,75.0,44.0,-1023.0,-350.0,-3.0,0.0,0.0,0.0
19:44:24.605000,-53.0,74.0,-60.0,-1023.0,-350.0,-3.0,0.0,0.0,0.0
19:44:24.609000,-47.0,93.0,-87.0,-1019.0,-401.0,-5.0,0.0,0.0,0.0
19:44:24.614000,-40.0,106.0,-90.0,-1019.0,-401.0,-5.0,0.0,0.0,0.0
19:44:24.619000,-42.0,113.0,-112.0,-936.0,-466.0,0.0,0.0,0.0,0.0
19:44:24.624000,-32.0,114.0,-131.0,-936.0,-466.0,0.0,0.0,0.0,0.0
19:44:24.628000,-11.0,116.0,-143.0,-901.0,-452.0,4.0,0.0,0.0,0.0
19:44:24.633000,-2.0,120.0,-142.0,-901.0,-452.0,4.0,0.0,0.0,0.0
19:44:24.638000,2.0,127.0,-112.0,-901.0,-452.0,4.0,0.0,0.0,0.0
19:44:24.642000,2.0,131.0,-92.0,-919.0,-476.0,1.0,0.0,0.0,0.0
19:44:24.647000,13.0,133.0,-107.0,-919.0,-476.0,1.0,0.0,0.0,0.0
19:44:24.652000,38.0,142.0,-198.0,-978.0,-477.0,-5.0,0.0,0.0,0.0
19:44:24.656000,60.0,157.0,-272.0,-978.0,-477.0,-5.0,0.0,0.0,0.0
19:44:24.661000,71.0,162.0,-207.0,-1005.0,-466.0,-18.0,0.0,0.0,0.0
19:44:24.666000,72.0,161.0,-119.0,-1005.0,-466.0,-18.0,0.0,0.0,0.0
19:44:24.671000,71.0,168.0,-110.0,-958.0,-475.0,-22.0,0.0,0.0,0.0
19:44:24.675000,70.0,175.0,-137.0,-958.0,-475.0,-22.0,0.0,0.0,0.0
19:44:24.680000,70.0,175.0,-137.0,-931.0,-437.0,-20.0,0.0,0.0,0.0
19:44:24.685000,68.0,177.0,-154.0,-931.0,-437.0,-20.0,0.0,0.0,0.0
19:44:24.689000,70.0,177.0,-169.0,-944.0,-406.0,-26.0,0.0,0.0,0.0
19:44:24.694000,67.0,177.0,-212.0,-944.0,-406.0,-26.0,0.0,0.0,0.0
19:44:24.699000,51.0,178.0,-239.0,-939.0,-403.0,-32.0,0.0,0.0,0.0
19:44:24.703000,35.0,179.0,-223.0,-939.0,-403.0,-32.0,0.0,0.0,0.0
19:44:24.708000,17.0,175.0,-217.0,-927.0,-383.0,-36.0,0.0,0.0,0.0
19:44:24.713000,-2.0,165.0,-230.0,-927.0,-383.0,-36.0,0.0,0.0,0.0
19:44:24.718000,-11.0,152.0,-240.0,-931.0,-372.0,-45.0,0.0,0.0,0.0
19:44:24.722000,-15.0,139.0,-253.0,-931.0,-372.0,-45.0,0.0,0.0,0.0
19:44:24.727000,-16.0,133.0,-273.0,-937.0,-383.0,-55.0,0.0,0.0,0.0
19:44:24.732000,-14.0,123.0,-298.0,-937.0,-383.0,-55.0,0.0,0.0,0.0
19:44:24.736000,-17.0,114.0,-291.0,-913.0,-394.0,-55.0,0.0,0.0,0.0
19:44:24.741000,-27.0,107.0,-268.0,-913.0,-394.0,-55.0,0.0,0.0,0.0
19:44:24.745000,-28.0,98.0,-287.0,-892.0,-373.0,-53.0,0.0,0.0,0.0
19:44:24.750000,-30.0,96.0,-322.0,-892.0,-373.0,-53.0,0.0,0.0,0.0
19:44:24.755000,-40.0,98.0,-342.0,-892.0,-373.0,-53.0,0.0,0.0,0.0
19:44:24.760000,-53.0,100.0,-348.0,-899.0,-327.0,-53.0,0.0,0.0,0.0
19:44:24.765000,-66.0,102.0,-346.0,-899.0,-327.0,-53.0,0.0,0.0,0.0
19:44:24.769000,-78.0,105.0,-328.0,-914.0,-296.0,-54.0,0.0,0.0,0.0
19:44:24.774000,-84.0,107.0,-308.0,-914.0,-296.0,-54.0,0.0,0.0,0.0
19:44:24.779000,-86.0,109.0,-303.0,-928.0,-309.0,-61.0,0.0,0.0,0.0
19:44:24.783000,-88.0,110.0,-301.0,-928.0,-309.0,-61.0,0.0,0.0,0.0
19:44:24.788000,-88.0,110.0,-301.0,-936.0,-329.0,-68.0,0.0,0.0,0.0
19:44:24.793000,-103.0,117.0,-300.0,-936.0,-329.0,-68.0,0.0,0.0,0.0
19:44:24.797000,-123.0,122.0,-298.0,-946.0,-307.0,-70.0,0.0,0.0,0.0
19:44:24.802000,-137.0,126.0,-292.0,-946.0,-307.0,-70.0,0.0,0.0,0.0
19:44:24.807000,-150.0,132.0,-270.0,-949.0,-294.0,-74.0,0.0,0.0,0.0
19:44:24.812000,-150.0,133.0,-277.0,-949.0,-294.0,-74.0,0.0,0.0,0.0
19:44:24.816000,-144.0,128.0,-329.0,-951.0,-299.0,-80.0,0.0,0.0,0.0
19:44:24.821000,-142.0,124.0,-364.0,-951.0,-299.0,-80.0,0.0,0.0,0.0
19:44:24.826000,-135.0,122.0,-345.0,-911.0,-334.0,-85.0,0.0,0.0,0.0
19:44:24.830000,-121.0,120.0,-294.0,-911.0,-334.0,-85.0,0.0,0.0,0.0
19:44:24.835000,-109.0,118.0,-276.0,-892.0,-345.0,-93.0,0.0,0.0,0.0
19:44:24.839000,-100.0,113.0,-284.0,-892.0,-345.0,-93.0,0.0,0.0,0.0
19:44:24.844000,-90.0,113.0,-288.0,-922.0,-309.0,-98.0,0.0,0.0,0.0
19:44:24.849000,-88.0,111.0,-287.0,-922.0,-309.0,-98.0,0.0,0.0,0.0
19:44:24.854000,-84.0,113.0,-282.0,-922.0,-309.0,-98.0,0.0,0.0,0.0
19:44:24.859000,-78.0,114.0,-263.0,-938.0,-310.0,-103.0,0.0,0.0,0.0
19:44:24.863000,-72.0,118.0,-262.0,-938.0,-313.0,-108.0,0.0,0.0,0.0
19:44:24.868000,-65.0,119.0,-266.0,-957.0,-313.0,-108.0,0.0,0.0,0.0
19:44:24.873000,-54.0,118.0,-255.0,-957.0,-313.0,-108.0,0.0,0.0,0.0
19:44:24.877000,-33.0,116.0,-259.0,-946.0,-331.0,-114.0,0.0,0.0,0.0
19:44:24.882000,-7.0,111.0,-286.0,-946.0,-331.0,-114.0,0.0,0.0,0.0
19:44:24.887000,6.0,106.0,-305.0,-914.0,-359.0,-126.0,0.0,0.0,0.0
19:44:24.891000,20.0,101.0,-319.0,-914.0,-359.0,-126.0,0.0,0.0,0.0
19:44:24.896000,20.0,101.0,-319.0,-913.0,-350.0,-133.0,0.0,0.0,0.0
19:44:24.901000,31.0,101.0,-323.0,-913.0,-350.0,-133.0,0.0,0.0,0.0
19:44:24.906000,45.0,94.0,-311.0,-935.0,-351.0,-135.0,0.0,0.0,0.0
19:44:24.910000,65.0,85.0,-317.0,-935.0,-351.0,-135.0,0.0,0.0,0.0
19:44:24.915000,77.0,80.0,-336.0,-939.0,-351.0,-137.0,0.0,0.0,0.0
19:44:24.920000,91.0,72.0,-338.0,-939.0,-351.0,-137.0,0.0,0.0,0.0
19:44:24.924000,104.0,65.0,-346.0,-929.0,-320.0,-134.0,0.0,0.0,0.0
19:44:24.929000,112.0,60.0,-370.0,-929.0,-320.0,-134.0,0.0,0.0,0.0
19:44:24.934000,119.0,53.0,-396.0,-946.0,-294.0,-129.0,0.0,0.0,0.0
19:44:24.938000,121.0,48.0,-401.0,-946.0,-294.0,-129.0,0.0,0.0,0.0
19:44:24.943000,123.0,44.0,-389.0,-982.0,-287.0,-127.0,0.0,0.0,0.0
19:44:24.948000,118.0,44.0,-382.0,-982.0,-287.0,-127.0,0.0,0.0,0.0
19:44:24.953000,114.0,45.0,-379.0,-1030.0,-282.0,-128.0,0.0,0.0,0.0
19:44:24.957000,112.0,45.0,-399.0,-1030.0,-282.0,-128.0,0.0,0.0,0.0
19:44:24.962000,109.0,46.0,-426.0,-1030.0,-282.0,-128.0,0.0,0.0,0.0
19:44:24.967000,99.0,48.0,-446.0,-1065.0,-271.0,-126.0,0.0,0.0,0.0
19:44:24.971000,87.0,52.0,-448.0,-1065.0,-271.0,-126.0,0.0,0.0,0.0
19:44:24.976000,81.0,63.0,-445.0,-1069.0,-291.0,-122.0,0.0,0.0,0.0
19:44:24.981000,75.0,71.0,-463.0,-1069.0,-336.0,-121.0,0.0,0.0,0.0
19:44:24.985000,73.0,80.0,-497.0,-1100.0,-336.0,-121.0,0.0,0.0,0.0
19:44:24.990000,79.0,86.0,-548.0,-1100.0,-336.0,-121.0,0.0,0.0,0.0
19:44:24.995000,86.0,89.0,-594.0,-1135.0,-340.0,-125.0,0.0,0.0,0.0
19:44:25.000000,94.0,90.0,-633.0,-1135.0,-340.0,-125.0,0.0,0.0,0.0
19:44:25.004000,94.0,90.0,-633.0,-1107.0,-276.0,-129.0,0.0,0.0,0.0
19:44:25.009000,99.0,87.0,-672.0,-1107.0,-276.0,-129.0,0.0,0.0,0.0
19:44:25.014000,96.0,85.0,-697.0,-1058.0,-201.0,-127.0,0.0,0.0,0.0
19:44:25.018000,94.0,83.0,-709.0,-1058.0,-201.0,-127.0,0.0,0.0,0.0
19:44:25.023000,97.0,81.0,-718.0,-1053.0,-185.0,-122.0,0.0,0.0,0.0
19:44:25.028000,101.0,78.0,-728.0,-1053.0,-185.0,-122.0,0.0,0.0,0.0
19:44:25.032000,110.0,74.0,-738.0,-1077.0,-209.0,-120.0,0.0,0.0,0.0
19:44:25.037000,123.0,73.0,-739.0,-1077.0,-209.0,-120.0,0.0,0.0,0.0
19:44:25.042000,147.0,69.0,-725.0,-1069.0,-232.0,-121.0,0.0,0.0,0.0
19:44:25.046000,166.0,67.0,-715.0,-1069.0,-232.0,-121.0,0.0,0.0,0.0
19:44:25.051000,177.0,68.0,-703.0,-1067.0,-230.0,-120.0,0.0,0.0,0.0
19:44:25.056000,181.0,69.0,-697.0,-1067.0,-230.0,-120.0,0.0,0.0,0.0
19:44:25.061000,182.0,69.0,-700.0,-1080.0,-192.0,-116.0,0.0,0.0,0.0
19:44:25.065000,185.0,70.0,-704.0,-1080.0,-192.0,-116.0,0.0,0.0,0.0
19:44:25.070000,192.0,75.0,-709.0,-1080.0,-192.0,-116.0,0.0,0.0,0.0
19:44:25.075000,194.0,81.0,-720.0,-1086.0,-165.0,-115.0,0.0,0.0,0.0
19:44:25.079000,189.0,89.0,-729.0,-1086.0,-165.0,-115.0,0.0,0.0,0.0
19:44:25.084000,184.0,102.0,-739.0,-1102.0,-148.0,-115.0,0.0,0.0,0.0
19:44:25.089000,181.0,116.0,-758.0,-1102.0,-148.0,-115.0,0.0,0.0,0.0
19:44:25.093000,175.0,133.0,-778.0,-1107.0,-122.0,-116.0,0.0,0.0,0.0
19:44:25.098000,168.0,148.0,-788.0,-1107.0,-122.0,-116.0,0.0,0.0,0.0
19:44:25.103000,161.0,164.0,-789.0,-1110.0,-111.0,-120.0,0.0,0.0,0.0
19:44:25.108000,158.0,179.0,-796.0,-1110.0,-111.0,-120.0,0.0,0.0,0.0
19:44:25.112000,158.0,196.0,-807.0,-1118.0,-106.0,-125.0,0.0,0.0,0.0
19:44:25.117000,158.0,196.0,-807.0,-1118.0,-106.0,-125.0,0.0,0.0,0.0
19:44:25.122000,161.0,214.0,-817.0,-1112.0,-99.0,-132.0,0.0,0.0,0.0
19:44:25.126000,163.0,229.0,-823.0,-1112.0,-99.0,-132.0,0.0,0.0,0.0
19:44:25.131000,163.0,245.0,-830.0,-1091.0,-87.0,-142.0,0.0,0.0,0.0
19:44:25.136000,163.0,261.0,-840.0,-1091.0,-87.0,-142.0,0.0,0.0,0.0
19:44:25.140000,165.0,275.0,-842.0,-1075.0,-67.0,-153.0,0.0,0.0,0.0
19:44:25.145000,171.0,288.0,-841.0,-1075.0,-67.0,-153.0,0.0,0.0,0.0
19:44:25.150000,180.0,298.0,-844.0,-1077.0,-57.0,-169.0,0.0,0.0,0.0
19:44:25.155000,192.0,303.0,-851.0,-1077.0,-57.0,-169.0,0.0,0.0,0.0
19:44:25.159000,204.0,301.0,-856.0,-1069.0,-51.0,-180.0,0.0,0.0,0.0
19:44:25.164000,217.0,293.0,-857.0,-1069.0,-51.0,-180.0,0.0,0.0,0.0
19:44:25.169000,230.0,284.0,-855.0,-1022.0,-36.0,-185.0,0.0,0.0,0.0
19:44:25.173000,240.0,273.0,-856.0,-1022.0,-36.0,-185.0,0.0,0.0,0.0
19:44:25.178000,248.0,258.0,-857.0,-1022.0,-36.0,-185.0,0.0,0.0,0.0
19:44:25.183000,256.0,239.0,-855.0,-977.0,-13.0,-190.0,0.0,0.0,0.0
19:44:25.187000,263.0,219.0,-852.0,-977.0,-13.0,-190.0,0.0,0.0,0.0
