hh:mm:ss.ms,gyroX[mdps],gyroY[mdps],gyroZ[mdps],accX[mg],accY[mg],accZ[mg],magX[mG],magY[mG],magZ[mG]
19:45:43.945000,-266.0,-296.0,-630.0,-1085.0,-31.0,-56.0,0.0,0.0,0.0
19:45:43.950000,-301.0,-272.0,-603.0,-1164.0,-13.0,-78.0,0.0,0.0,0.0
19:45:43.955000,-351.0,-232.0,-567.0,-1164.0,-13.0,-78.0,0.0,0.0,0.0
19:45:43.959000,-389.0,-213.0,-512.0,-1174.0,-41.0,-66.0,0.0,0.0,0.0
19:45:43.964000,-417.0,-182.0,-500.0,-1174.0,-41.0,-66.0,0.0,0.0,0.0
19:45:43.969000,-439.0,-137.0,-562.0,-1123.0,-33.0,-46.0,0.0,0.0,0.0
19:45:43.973000,-463.0,-112.0,-630.0,-1123.0,-33.0,-46.0,0.0,0.0,0.0
19:45:43.978000,-499.0,-86.0,-659.0,-1084.0,18.0,-26.0,0.0,0.0,0.0
19:45:43.983000,-555.0,-36.0,-639.0,-1084.0,18.0,-26.0,0.0,0.0,0.0
19:45:43.987000,-571.0,23.0,-662.0,-1064.0,-22.0,-68.0,0.0,0.0,0.0
19:45:43.992000,-616.0,35.0,-508.0,-1064.0,-22.0,-68.0,0.0,0.0,0.0
19:45:43.997000,-620.0,49.0,-462.0,-1144.0,-97.0,-131.0,0.0,0.0,0.0
19:45:44.002000,-656.0,100.0,-575.0,-1144.0,-97.0,-131.0,0.0,0.0,0.0
19:45:44.006000,-632.0,112.0,-606.0,-1083.0,-253.0,-142.0,0.0,0.0,0.0
19:45:44.011000,-577.0,84.0,-619.0,-1083.0,-253.0,-142.0,0.0,0.0,0.0
19:45:44.016000,-518.0,33.0,-617.0,-1083.0,-253.0,-142.0,0.0,0.0,0.0
19:45:44.020000,-531.0,66.0,-643.0,-1031.0,-273.0,-136.0,0.0,0.0,0.0
19:45:44.025000,-471.0,49.0,-539.0,-1031.0,-273.0,-136.0,0.0,0.0,0.0
19:45:44.030000,-407.0,-4.0,-503.0,-1141.0,-146.0,-131.0,0.0,0.0,0.0
19:45:44.034000,-343.0,-41.0,-502.0,-1141.0,-146.0,-131.0,0.0,0.0,0.0
19:45:44.039000,-307.0,-68.0,-539.0,-1061.0,-166.0,-99.0,0.0,0.0,0.0
19:45:44.044000,-264.0,-70.0,-612.0,-1061.0,-166.0,-99.0,0.0,0.0,0.0
19:45:44.049000,-264.0,-70.0,-612.0,-1015.0,-77.0,-56.0,0.0,0.0,0.0
19:45:44.053000,-226.0,-107.0,-688.0,-1015.0,-77.0,-56.0,0.0,0.0,0.0
19:45:44.058000,-238.0,-156.0,-623.0,-1057.0,6.0,-4.0,0.0,0.0,0.0
19:45:44.063000,-261.0,-169.0,-480.0,-1057.0,6.0,-4.0,0.0,0.0,0.0
19:45:44.067000,-270.0,-169.0,-546.0,-1114.0,84.0,28.0,0.0,0.0,0.0
19:45:44.072000,-312.0,-167.0,-690.0,-1114.0,84.0,28.0,0.0,0.0,0.0
19:45:44.077000,-338.0,-142.0,-732.0,-1066.0,192.0,0.0,0.0,0.0,0.0
19:45:44.081000,-390.0,-113.0,-711.0,-1066.0,192.0,0.0,0.0,0.0,0.0
19:45:44.086000,-471.0,-73.0,-624.0,-1037.0,189.0,4.0,0.0,0.0,0.0
19:45:44.091000,-530.0,-32.0,-511.0,-1037.0,189.0,4.0,0.0,0.0,0.0
19:45:44.096000,-568.0,4.0,-534.0,-1194.0,231.0,14.0,0.0,0.0,0.0
19:45:44.100000,-601.0,37.0,-578.0,-1194.0,231.0,14.0,0.0,0.0,0.0
19:45:44.105000,-623.0,74.0,-550.0,-1301.0,209.0,17.0,0.0,0.0,0.0
19:45:44.110000,-636.0,103.0,-515.0,-1301.0,209.0,17.0,0.0,0.0,0.0
19:45:44.114000,-632.0,128.0,-445.0,-1301.0,209.0,17.0,0.0,0.0,0.0
19:45:44.118000,-610.0,156.0,-354.0,-1255.0,65.0,9.0,0.0,0.0,0.0
19:45:44.124000,-589.0,177.0,-343.0,-1255.0,65.0,9.0,0.0,0.0,0.0
19:45:44.128000,-584.0,193.0,-317.0,-1194.0,45.0,-4.0,0.0,0.0,0.0
19:45:44.133000,-574.0,200.0,-271.0,-1194.0,45.0,-4.0,0.0,0.0,0.0
19:45:44.138000,-571.0,217.0,-240.0,-1133.0,111.0,-12.0,0.0,0.0,0.0
19:45:44.143000,-574.0,227.0,-214.0,-1133.0,111.0,-12.0,0.0,0.0,0.0
19:45:44.147000,-581.0,226.0,-184.0,-1071.0,156.0,-18.0,0.0,0.0,0.0
19:45:44.152000,-592.0,223.0,-161.0,-1071.0,156.0,-18.0,0.0,0.0,0.0
19:45:44.157000,-592.0,223.0,-161.0,-1026.0,191.0,-11.0,0.0,0.0,0.0
19:45:44.161000,-601.0,224.0,-142.0,-1026.0,191.0,-11.0,0.0,0.0,0.0
19:45:44.166000,-610.0,226.0,-123.0,-955.0,199.0,-7.0,0.0,0.0,0.0
19:45:44.171000,-618.0,234.0,-120.0,-955.0,199.0,-7.0,0.0,0.0,0.0
19:45:44.175000,-629.0,242.0,-135.0,-939.0,202.0,-11.0,0.0,0.0,0.0
19:45:44.180000,-644.0,253.0,-150.0,-939.0,202.0,-11.0,0.0,0.0,0.0
19:45:44.185000,-660.0,266.0,-135.0,-978.0,199.0,-13.0,0.0,0.0,0.0
19:45:44.190000,-679.0,284.0,-133.0,-978.0,199.0,-13.0,0.0,0.0,0.0
19:45:44.194000,-697.0,308.0,-151.0,-1006.0,207.0,-16.0,0.0,0.0,0.0
19:45:44.199000,-716.0,337.0,-170.0,-1006.0,207.0,-16.0,0.0,0.0,0.0
19:45:44.204000,-735.0,368.0,-190.0,-1014.0,233.0,-20.0,0.0,0.0,0.0
19:45:44.208000,-753.0,399.0,-216.0,-1014.0,233.0,-20.0,0.0,0.0,0.0
19:45:44.213000,-768.0,426.0,-245.0,-997.0,237.0,-21.0,0.0,0.0,0.0
19:45:44.218000,-775.0,455.0,-275.0,-997.0,237.0,-21.0,0.0,0.0,0.0
19:45:44.222000,-777.0,478.0,-315.0,-997.0,237.0,-21.0,0.0,0.0,0.0
19:45:44.227000,-773.0,499.0,-347.0,-961.0,218.0,-19.0,0.0,0.0,0.0
19:45:44.232000,-762.0,515.0,-378.0,-961.0,218.0,-19.0,0.0,0.0,0.0
19:45:44.237000,-743.0,527.0,-407.0,-915.0,187.0,-23.0,0.0,0.0,0.0
19:45:44.241000,-717.0,534.0,-429.0,-915.0,187.0,-23.0,0.0,0.0,0.0
19:45:44.246000,-688.0,539.0,-438.0,-868.0,147.0,-32.0,0.0,0.0,0.0
19:45:44.251000,-655.0,535.0,-431.0,-868.0,147.0,-32.0,0.0,0.0,0.0
19:45:44.255000,-620.0,529.0,-413.0,-833.0,117.0,-44.0,0.0,0.0,0.0
19:45:44.260000,-585.0,522.0,-389.0,-833.0,117.0,-44.0,0.0,0.0,0.0
19:45:44.265000,-585.0,522.0,-389.0,-825.0,117.0,-57.0,0.0,0.0,0.0
19:45:44.269000,-553.0,514.0,-371.0,-825.0,117.0,-57.0,0.0,0.0,0.0
19:45:44.274000,-520.0,506.0,-340.0,-835.0,147.0,-71.0,0.0,0.0,0.0
19:45:44.279000,-494.0,499.0,-301.0,-835.0,147.0,-71.0,0.0,0.0,0.0
19:45:44.284000,-476.0,494.0,-269.0,-851.0,188.0,-80.0,0.0,0.0,0.0
19:45:44.288000,-464.0,493.0,-233.0,-851.0,188.0,-80.0,0.0,0.0,0.0
19:45:44.293000,-460.0,499.0,-191.0,-859.0,226.0,-77.0,0.0,0.0,0.0
19:45:44.298000,-466.0,510.0,-147.0,-859.0,226.0,-77.0,0.0,0.0,0.0
19:45:44.302000,-475.0,522.0,-116.0,-874.0,269.0,-66.0,0.0,0.0,0.0
19:45:44.307000,-487.0,538.0,-94.0,-874.0,269.0,-66.0,0.0,0.0,0.0
19:45:44.312000,-496.0,552.0,-58.0,-877.0,284.0,-55.0,0.0,0.0,0.0
19:45:44.316000,-496.0,567.0,-18.0,-877.0,284.0,-55.0,0.0,0.0,0.0
19:45:44.321000,-488.0,586.0,0.0,-867.0,253.0,-54.0,0.0,0.0,0.0
19:45:44.326000,-473.0,609.0,1.0,-867.0,253.0,-54.0,0.0,0.0,0.0
19:45:44.331000,-459.0,634.0,5.0,-867.0,253.0,-54.0,0.0,0.0,0.0
19:45:44.335000,-440.0,659.0,21.0,-864.0,216.0,-55.0,0.0,0.0,0.0
19:45:44.340000,-419.0,684.0,31.0,-864.0,216.0,-55.0,0.0,0.0,0.0
19:45:44.345000,-396.0,711.0,31.0,-845.0,186.0,-49.0,0.0,0.0,0.0
19:45:44.349000,-374.0,744.0,34.0,-845.0,186.0,-49.0,0.0,0.0,0.0
19:45:44.354000,-350.0,777.0,30.0,-808.0,171.0,-48.0,0.0,0.0,0.0
19:45:44.359000,-328.0,806.0,8.0,-808.0,171.0,-48.0,0.0,0.0,0.0
19:45:44.363000,-312.0,830.0,-27.0,-793.0,188.0,-66.0,0.0,0.0,0.0
19:45:44.368000,-301.0,847.0,-56.0,-793.0,188.0,-66.0,0.0,0.0,0.0
19:45:44.373000,-298.0,861.0,-81.0,-809.0,241.0,-92.0,0.0,0.0,0.0
19:45:44.378000,-298.0,861.0,-81.0,-809.0,241.0,-92.0,0.0,0.0,0.0
19:45:44.382000,-305.0,873.0,-104.0,-825.0,299.0,-116.0,0.0,0.0,0.0
19:45:44.387000,-324.0,882.0,-118.0,-825.0,299.0,-116.0,0.0,0.0,0.0
19:45:44.392000,-352.0,889.0,-121.0,-826.0,344.0,-126.0,0.0,0.0,0.0
19:45:44.396000,-386.0,891.0,-118.0,-826.0,344.0,-126.0,0.0,0.0,0.0
19:45:44.401000,-424.0,891.0,-112.0,-797.0,355.0,-118.0,0.0,0.0,0.0
19:45:44.406000,-462.0,888.0,-91.0,-797.0,355.0,-118.0,0.0,0.0,0.0
19:45:44.410000,-495.0,883.0,-56.0,-747.0,309.0,-108.0,0.0,0.0,0.0
19:45:44.415000,-525.0,876.0,-18.0,-747.0,309.0,-108.0,0.0,0.0,0.0
19:45:44.420000,-557.0,869.0,16.0,-712.0,252.0,-105.0,0.0,0.0,0.0
19:45:44.425000,-589.0,865.0,44.0,-712.0,252.0,-105.0,0.0,0.0,0.0
19:45:44.429000,-626.0,862.0,66.0,-710.0,243.0,-109.0,0.0,0.0,0.0
19:45:44.434000,-660.0,858.0,84.0,-710.0,243.0,-109.0,0.0,0.0,0.0
19:45:44.439000,-695.0,860.0,95.0,-710.0,243.0,-109.0,0.0,0.0,0.0
19:45:44.443000,-725.0,864.0,102.0,-724.0,245.0,-121.0,0.0,0.0,0.0
19:45:44.448000,-751.0,866.0,108.0,-724.0,245.0,-121.0,0.0,0.0,0.0
19:45:44.453000,-774.0,868.0,105.0,-740.0,216.0,-138.0,0.0,0.0,0.0
19:45:44.457000,-791.0,866.0,95.0,-740.0,216.0,-138.0,0.0,0.0,0.0
19:45:44.462000,-806.0,865.0,93.0,-724.0,174.0,-154.0,0.0,0.0,0.0
19:45:44.467000,-816.0,867.0,93.0,-724.0,174.0,-154.0,0.0,0.0,0.0
19:45:44.472000,-818.0,868.0,71.0,-674.0,128.0,-171.0,0.0,0.0,0.0
19:45:44.476000,-816.0,873.0,44.0,-674.0,128.0,-171.0,0.0,0.0,0.0
19:45:44.481000,-814.0,879.0,32.0,-637.0,78.0,-192.0,0.0,0.0,0.0
19:45:44.486000,-814.0,879.0,32.0,-637.0,78.0,-192.0,0.0,0.0,0.0
19:45:44.490000,-807.0,889.0,30.0,-626.0,34.0,-217.0,0.0,0.0,0.0
19:45:44.495000,-798.0,901.0,27.0,-626.0,34.0,-217.0,0.0,0.0,0.0
19:45:44.500000,-788.0,914.0,14.0,-632.0,12.0,-247.0,0.0,0.0,0.0
19:45:44.504000,-771.0,928.0,-11.0,-632.0,12.0,-247.0,0.0,0.0,0.0
19:45:44.509000,-749.0,940.0,-29.0,-615.0,-2.0,-273.0,0.0,0.0,0.0
19:45:44.514000,-719.0,949.0,-32.0,-615.0,-2.0,-273.0,0.0,0.0,0.0
19:45:44.519000,-681.0,961.0,-34.0,-555.0,-49.0,-311.0,0.0,0.0,0.0
19:45:44.523000,-637.0,979.0,-38.0,-555.0,-49.0,-311.0,0.0,0.0,0.0
19:45:44.528000,-592.0,997.0,-43.0,-515.0,-87.0,-359.0,0.0,0.0,0.0
19:45:44.533000,-550.0,1014.0,-47.0,-515.0,-87.0,-359.0,0.0,0.0,0.0
19:45:44.537000,-518.0,1028.0,-47.0,-497.0,-81.0,-395.0,0.0,0.0,0.0
19:45:44.542000,-489.0,1038.0,-38.0,-497.0,-81.0,-395.0,0.0,0.0,0.0
19:45:44.547000,-465.0,1042.0,-26.0,-497.0,-81.0,-395.0,0.0,0.0,0.0
19:45:44.551000,-447.0,1042.0,-21.0,-440.0,-55.0,-418.0,0.0,0.0,0.0
19:45:44.556000,-434.0,1040.0,-18.0,-440.0,-55.0,-418.0,0.0,0.0,0.0
19:45:44.561000,-424.0,1043.0,-18.0,-356.0,-22.0,-432.0,0.0,0.0,0.0
19:45:44.566000,-423.0,1047.0,-23.0,-356.0,-22.0,-432.0,0.0,0.0,0.0
19:45:44.570000,-434.0,1053.0,-32.0,-291.0,20.0,-448.0,0.0,0.0,0.0
19:45:44.575000,-457.0,1057.0,-44.0,-291.0,20.0,-448.0,0.0,0.0,0.0
19:45:44.580000,-485.0,1057.0,-56.0,-258.0,79.0,-478.0,0.0,0.0,0.0
19:45:44.584000,-516.0,1052.0,-70.0,-258.0,79.0,-478.0,0.0,0.0,0.0
19:45:44.589000,-546.0,1042.0,-91.0,-228.0,128.0,-517.0,0.0,0.0,0.0
19:45:44.593000,-546.0,1042.0,-91.0,-228.0,128.0,-517.0,0.0,0.0,0.0
19:45:44.598000,-574.0,1026.0,-121.0,-193.0,141.0,-549.0,0.0,0.0,0.0
19:45:44.603000,-602.0,1005.0,-153.0,-193.0,141.0,-549.0,0.0,0.0,0.0
19:45:44.608000,-629.0,980.0,-179.0,-170.0,133.0,-564.0,0.0,0.0,0.0
19:45:44.613000,-654.0,955.0,-201.0,-170.0,133.0,-564.0,0.0,0.0,0.0
19:45:44.617000,-680.0,940.0,-228.0,-154.0,135.0,-570.0,0.0,0.0,0.0
19:45:44.622000,-711.0,933.0,-266.0,-154.0,135.0,-570.0,0.0,0.0,0.0
19:45:44.627000,-746.0,932.0,-310.0,-165.0,174.0,-587.0,0.0,0.0,0.0
19:45:44.631000,-785.0,940.0,-354.0,-165.0,174.0,-587.0,0.0,0.0,0.0
19:45:44.636000,-821.0,958.0,-394.0,-203.0,199.0,-628.0,0.0,0.0,0.0
19:45:44.641000,-853.0,982.0,-436.0,-203.0,199.0,-628.0,0.0,0.0,0.0
19:45:44.645000,-875.0,1009.0,-473.0,-248.0,161.0,-693.0,0.0,0.0,0.0
19:45:44.650000,-888.0,1037.0,-499.0,-248.0,161.0,-693.0,0.0,0.0,0.0
19:45:44.655000,-889.0,1064.0,-514.0,-248.0,80.0,-761.0,0.0,0.0,0.0
19:45:44.660000,-876.0,1091.0,-522.0,-266.0,80.0,-761.0,0.0,0.0,0.0
19:45:44.664000,-850.0,1113.0,-527.0,-266.0,80.0,-761.0,0.0,0.0,0.0
19:45:44.669000,-814.0,1129.0,-534.0,-234.0,-6.0,-822.0,0.0,0.0,0.0
19:45:44.674000,-772.0,1138.0,-546.0,-234.0,-6.0,-822.0,0.0,0.0,0.0
19:45:44.678000,-722.0,1143.0,-564.0,-185.0,-56.0,-867.0,0.0,0.0,0.0
19:45:44.683000,-671.0,1151.0,-595.0,-185.0,-56.0,-867.0,0.0,0.0,0.0
19:45:44.688000,-621.0,1160.0,-644.0,-152.0,-49.0,-898.0,0.0,0.0,0.0
19:45:44.692000,-578.0,1170.0,-704.0,-152.0,-49.0,-898.0,0.0,0.0,0.0
19:45:44.697000,-545.0,1175.0,-762.0,-149.0,3.0,-923.0,0.0,0.0,0.0
19:45:44.702000,-545.0,1175.0,-762.0,-149.0,3.0,-923.0,0.0,0.0,0.0
19:45:44.707000,-515.0,1173.0,-812.0,-128.0,73.0,-962.0,0.0,0.0,0.0
19:45:44.711000,-490.0,1166.0,-858.0,-128.0,73.0,-962.0,0.0,0.0,0.0
19:45:44.716000,-472.0,1157.0,-890.0,-50.0,138.0,-1003.0,0.0,0.0,0.0
19:45:44.721000,-454.0,1150.0,-905.0,-50.0,138.0,-1003.0,0.0,0.0,0.0
19:45:44.725000,-438.0,1148.0,-928.0,5.0,191.0,-1031.0,0.0,0.0,0.0
19:45:44.730000,-436.0,1152.0,-963.0,5.0,191.0,-1031.0,0.0,0.0,0.0
19:45:44.735000,-457.0,1159.0,-975.0,-29.0,247.0,-1067.0,0.0,0.0,0.0
19:45:44.739000,-494.0,1158.0,-942.0,-29.0,247.0,-1067.0,0.0,0.0,0.0
19:45:44.744000,-534.0,1145.0,-887.0,-78.0,304.0,-1102.0,0.0,0.0,0.0
19:45:44.749000,-576.0,1120.0,-847.0,-78.0,304.0,-1102.0,0.0,0.0,0.0
19:45:44.754000,-623.0,1085.0,-827.0,8.0,318.0,-1124.0,0.0,0.0,0.0
19:45:44.758000,-668.0,1044.0,-805.0,8.0,318.0,-1124.0,0.0,0.0,0.0
19:45:44.763000,-704.0,998.0,-753.0,202.0,306.0,-1134.0,0.0,0.0,0.0
19:45:44.768000,-741.0,949.0,-679.0,202.0,306.0,-1134.0,0.0,0.0,0.0
19:45:44.772000,-768.0,900.0,-639.0,202.0,306.0,-1134.0,0.0,0.0,0.0
19:45:44.777000,-793.0,860.0,-643.0,302.0,298.0,-1132.0,0.0,0.0,0.0
19:45:44.782000,-819.0,826.0,-669.0,302.0,298.0,-1132.0,0.0,0.0,0.0
19:45:44.786000,-833.0,796.0,-676.0,223.0,270.0,-1115.0,0.0,0.0,0.0
19:45:44.791000,-842.0,771.0,-649.0,223.0,270.0,-1115.0,0.0,0.0,0.0
19:45:44.796000,-844.0,748.0,-623.0,95.0,166.0,-1089.0,0.0,0.0,0.0
19:45:44.801000,-847.0,729.0,-627.0,95.0,166.0,-1089.0,0.0,0.0,0.0
19:45:44.805000,-851.0,711.0,-658.0,18.0,87.0,-1059.0,0.0,0.0,0.0
19:45:44.810000,-856.0,695.0,-693.0,18.0,87.0,-1059.0,0.0,0.0,0.0
19:45:44.815000,-856.0,695.0,-693.0,22.0,98.0,-1024.0,0.0,0.0,0.0
19:45:44.819000,-861.0,683.0,-700.0,22.0,98.0,-1024.0,0.0,0.0,0.0
19:45:44.824000,-867.0,669.0,-677.0,43.0,95.0,-996.0,0.0,0.0,0.0
19:45:44.829000,-879.0,653.0,-653.0,43.0,95.0,-996.0,0.0,0.0,0.0
19:45:44.833000,-902.0,636.0,-651.0,26.0,118.0,-969.0,0.0,0.0,0.0
19:45:44.838000,-934.0,620.0,-681.0,26.0,118.0,-969.0,0.0,0.0,0.0
19:45:44.843000,-980.0,611.0,-730.0,49.0,203.0,-932.0,0.0,0.0,0.0
19:45:44.848000,-1038.0,608.0,-779.0,49.0,203.0,-932.0,0.0,0.0,0.0
19:45:44.852000,-1105.0,608.0,-805.0,35.0,271.0,-891.0,0.0,0.0,0.0
19:45:44.857000,-1181.0,607.0,-795.0,35.0,271.0,-891.0,0.0,0.0,0.0
19:45:44.862000,-1269.0,604.0,-771.0,-32.0,294.0,-846.0,0.0,0.0,0.0
19:45:44.866000,-1359.0,594.0,-773.0,-32.0,294.0,-846.0,0.0,0.0,0.0
19:45:44.871000,-1449.0,577.0,-800.0,-36.0,302.0,-795.0,0.0,0.0,0.0
19:45:44.876000,-1535.0,552.0,-828.0,-36.0,302.0,-795.0,0.0,0.0,0.0
19:45:44.880000,-1623.0,518.0,-851.0,25.0,278.0,-743.0,0.0,0.0,0.0
19:45:44.885000,-1715.0,478.0,-880.0,25.0,278.0,-743.0,0.0,0.0,0.0
19:45:44.890000,-1804.0,425.0,-912.0,25.0,278.0,-743.0,0.0,0.0,0.0
19:45:44.895000,-1889.0,366.0,-933.0,117.0,227.0,-695.0,0.0,0.0,0.0
19:45:44.899000,-1969.0,302.0,-945.0,117.0,227.0,-695.0,0.0,0.0,0.0
19:45:44.904000,-2050.0,233.0,-963.0,198.0,163.0,-669.0,0.0,0.0,0.0
19:45:44.909000,-2132.0,165.0,-988.0,198.0,163.0,-669.0,0.0,0.0,0.0
19:45:44.913000,-2216.0,99.0,-1004.0,214.0,108.0,-670.0,0.0,0.0,0.0
19:45:44.918000,-2307.0,37.0,-1017.0,214.0,108.0,-670.0,0.0,0.0,0.0
19:45:44.923000,-2307.0,37.0,-1017.0,176.0,87.0,-684.0,0.0,0.0,0.0
19:45:44.927000,-2401.0,-17.0,-1032.0,176.0,87.0,-684.0,0.0,0.0,0.0
19:45:44.932000,-2496.0,-63.0,-1045.0,121.0,83.0,-705.0,0.0,0.0,0.0
19:45:44.937000,-2595.0,-104.0,-1061.0,121.0,83.0,-705.0,0.0,0.0,0.0
19:45:44.942000,-2695.0,-140.0,-1082.0,45.0,59.0,-725.0,0.0,0.0,0.0
19:45:44.946000,-2789.0,-170.0,-1105.0,45.0,59.0,-725.0,0.0,0.0,0.0
19:45:44.951000,-2877.0,-196.0,-1131.0,-6.0,-22.0,-731.0,0.0,0.0,0.0
19:45:44.956000,-2951.0,-217.0,-1159.0,-6.0,-22.0,-731.0,0.0,0.0,0.0
19:45:44.960000,-3013.0,-235.0,-1187.0,-1.0,-134.0,-730.0,0.0,0.0,0.0
19:45:44.965000,-3065.0,-256.0,-1213.0,-1.0,-134.0,-730.0,0.0,0.0,0.0
19:45:44.970000,-3103.0,-277.0,-1229.0,12.0,-250.0,-732.0,0.0,0.0,0.0
19:45:44.974000,-3129.0,-302.0,-1234.0,12.0,-250.0,-732.0,0.0,0.0,0.0
19:45:44.979000,-3143.0,-331.0,-1231.0,7.0,-380.0,-736.0,0.0,0.0,0.0
19:45:44.984000,-3141.0,-364.0,-1226.0,7.0,-380.0,-736.0,0.0,0.0,0.0
19:45:44.989000,-3133.0,-396.0,-1219.0,7.0,-380.0,-736.0,0.0,0.0,0.0
19:45:44.993000,-3117.0,-427.0,-1204.0,12.0,-499.0,-741.0,0.0,0.0,0.0
19:45:44.998000,-3098.0,-455.0,-1169.0,24.0,-595.0,-747.0,0.0,0.0,0.0
19:45:45.003000,-3082.0,-480.0,-1150.0,24.0,-595.0,-747.0,0.0,0.0,0.0
19:45:45.007000,-3056.0,-490.0,-1187.0,24.0,-595.0,-747.0,0.0,0.0,0.0
19:45:45.012000,-3050.0,-503.0,-1236.0,-31.0,-659.0,-749.0,0.0,0.0,0.0
19:45:45.017000,-3019.0,-513.0,-1227.0,-31.0,-659.0,-749.0,0.0,0.0,0.0
19:45:45.021000,-2993.0,-519.0,-1210.0,-121.0,-711.0,-751.0,0.0,0.0,0.0
19:45:45.026000,-2968.0,-523.0,-1206.0,-121.0,-711.0,-751.0,0.0,0.0,0.0
19:45:45.031000,-2968.0,-523.0,-1206.0,-189.0,-776.0,-748.0,0.0,0.0,0.0
19:45:45.036000,-2935.0,-521.0,-1199.0,-189.0,-776.0,-748.0,0.0,0.0,0.0
19:45:45.040000,-2913.0,-526.0,-1191.0,-245.0,-841.0,-730.0,0.0,0.0,0.0
19:45:45.045000,-2879.0,-525.0,-1205.0,-245.0,-841.0,-730.0,0.0,0.0,0.0
19:45:45.050000,-2821.0,-525.0,-1264.0,-305.0,-901.0,-713.0,0.0,0.0,0.0
19:45:45.054000,-2770.0,-536.0,-1288.0,-305.0,-901.0,-713.0,0.0,0.0,0.0
19:45:45.059000,-2723.0,-581.0,-1257.0,-377.0,-953.0,-708.0,0.0,0.0,0.0
19:45:45.064000,-2637.0,-586.0,-1201.0,-377.0,-953.0,-708.0,0.0,0.0,0.0
19:45:45.068000,-2551.0,-616.0,-1031.0,-451.0,-1033.0,-693.0,0.0,0.0,0.0
19:45:45.073000,-2466.0,-636.0,-947.0,-451.0,-1033.0,-693.0,0.0,0.0,0.0
19:45:45.078000,-2412.0,-624.0,-1094.0,-492.0,-1026.0,-663.0,0.0,0.0,0.0
19:45:45.083000,-2370.0,-639.0,-1253.0,-492.0,-1026.0,-663.0,0.0,0.0,0.0
19:45:45.087000,-2338.0,-648.0,-1376.0,-406.0,-956.0,-625.0,0.0,0.0,0.0
19:45:45.092000,-2272.0,-678.0,-1357.0,-406.0,-956.0,-625.0,0.0,0.0,0.0
19:45:45.097000,-2277.0,-682.0,-1212.0,-406.0,-956.0,-625.0,0.0,0.0,0.0
19:45:45.101000,-2217.0,-649.0,-1051.0,-379.0,-978.0,-585.0,0.0,0.0,0.0
19:45:45.106000,-2156.0,-640.0,-1009.0,-379.0,-978.0,-585.0,0.0,0.0,0.0
19:45:45.111000,-2016.0,-614.0,-1090.0,-512.0,-997.0,-556.0,0.0,0.0,0.0
19:45:45.115000,-2000.0,-625.0,-1131.0,-512.0,-997.0,-556.0,0.0,0.0,0.0
19:45:45.120000,-1948.0,-588.0,-1052.0,-580.0,-939.0,-512.0,0.0,0.0,0.0
19:45:45.125000,-1932.0,-574.0,-909.0,-580.0,-939.0,-512.0,0.0,0.0,0.0
19:45:45.130000,-1876.0,-557.0,-877.0,-588.0,-970.0,-449.0,0.0,0.0,0.0
19:45:45.134000,-1864.0,-537.0,-948.0,-588.0,-970.0,-449.0,0.0,0.0,0.0
19:45:45.139000,-1779.0,-537.0,-948.0,-709.0,-1083.0,-386.0,0.0,0.0,0.0
19:45:45.144000,-1779.0,-497.0,-988.0,-709.0,-1083.0,-386.0,0.0,0.0,0.0
19:45:45.148000,-1728.0,-469.0,-966.0,-679.0,-1133.0,-344.0,0.0,0.0,0.0
19:45:45.153000,-1645.0,-453.0,-948.0,-679.0,-1133.0,-344.0,0.0,0.0,0.0
19:45:45.158000,-1586.0,-433.0,-941.0,-538.0,-1036.0,-312.0,0.0,0.0,0.0
19:45:45.162000,-1557.0,-419.0,-854.0,-538.0,-1036.0,-312.0,0.0,0.0,0.0
19:45:45.167000,-1500.0,-406.0,-731.0,-617.0,-1027.0,-275.0,0.0,0.0,0.0
19:45:45.172000,-1467.0,-392.0,-740.0,-617.0,-1027.0,-275.0,0.0,0.0,0.0
19:45:45.177000,-1430.0,-370.0,-930.0,-731.0,-1071.0,-255.0,0.0,0.0,0.0
19:45:45.181000,-1363.0,-348.0,-1017.0,-731.0,-1071.0,-255.0,0.0,0.0,0.0
19:45:45.186000,-1320.0,-324.0,-924.0,-712.0,-1053.0,-242.0,0.0,0.0,0.0
19:45:45.191000,-1267.0,-305.0,-814.0,-712.0,-1053.0,-242.0,0.0,0.0,0.0
19:45:45.195000,-1204.0,-284.0,-823.0,-735.0,-1016.0,-232.0,0.0,0.0,0.0
19:45:45.200000,-1177.0,-262.0,-903.0,-735.0,-1016.0,-232.0,0.0,0.0,0.0
19:45:45.205000,-1141.0,-247.0,-936.0,-790.0,-938.0,-231.0,0.0,0.0,0.0
19:45:45.209000,-1093.0,-231.0,-948.0,-790.0,-938.0,-231.0,0.0,0.0,0.0
19:45:45.214000,-1073.0,-221.0,-849.0,-790.0,-938.0,-231.0,0.0,0.0,0.0
19:45:45.219000,-1053.0,-205.0,-693.0,-789.0,-968.0,-227.0,0.0,0.0,0.0
19:45:45.223000,-1052.0,-191.0,-653.0,-789.0,-968.0,-227.0,0.0,0.0,0.0
19:45:45.228000,-1013.0,-179.0,-648.0,-819.0,-982.0,-230.0,0.0,0.0,0.0
19:45:45.233000,-952.0,-172.0,-702.0,-819.0,-982.0,-230.0,0.0,0.0,0.0
19:45:45.238000,-927.0,-167.0,-812.0,-788.0,-921.0,-246.0,0.0,0.0,0.0
19:45:45.242000,-907.0,-161.0,-819.0,-788.0,-921.0,-246.0,0.0,0.0,0.0
19:45:45.247000,-886.0,-163.0,-735.0,-687.0,-889.0,-241.0,0.0,0.0,0.0
19:45:45.252000,-886.0,-163.0,-735.0,-687.0,-889.0,-241.0,0.0,0.0,0.0
19:45:45.256000,-852.0,-161.0,-647.0,-652.0,-907.0,-225.0,0.0,0.0,0.0
19:45:45.260000,-821.0,-153.0,-624.0,-652.0,-907.0,-225.0,0.0,0.0,0.0
19:45:45.266000,-782.0,-139.0,-651.0,-731.0,-919.0,-227.0,0.0,0.0,0.0
19:45:45.270000,-739.0,-128.0,-664.0,-731.0,-919.0,-227.0,0.0,0.0,0.0
19:45:45.275000,-701.0,-116.0,-702.0,-815.0,-871.0,-234.0,0.0,0.0,0.0
19:45:45.280000,-676.0,-106.0,-735.0,-815.0,-871.0,-234.0,0.0,0.0,0.0
19:45:45.285000,-658.0,-95.0,-729.0,-865.0,-792.0,-235.0,0.0,0.0,0.0
19:45:45.289000,-641.0,-76.0,-736.0,-865.0,-792.0,-235.0,0.0,0.0,0.0
19:45:45.294000,-613.0,-63.0,-791.0,-897.0,-708.0,-233.0,0.0,0.0,0.0
19:45:45.299000,-607.0,-47.0,-826.0,-897.0,-708.0,-233.0,0.0,0.0,0.0
19:45:45.303000,-616.0,-30.0,-804.0,-886.0,-652.0,-222.0,0.0,0.0,0.0
19:45:45.308000,-609.0,-11.0,-740.0,-886.0,-652.0,-222.0,0.0,0.0,0.0
19:45:45.313000,-604.0,7.0,-725.0,-886.0,-652.0,-222.0,0.0,0.0,0.0
19:45:45.317000,-599.0,30.0,-784.0,-879.0,-643.0,-214.0,0.0,0.0,0.0
19:45:45.322000,-584.0,49.0,-826.0,-879.0,-643.0,-214.0,0.0,0.0,0.0
19:45:45.327000,-571.0,66.0,-809.0,-887.0,-593.0,-217.0,0.0,0.0,0.0
19:45:45.332000,-536.0,81.0,-784.0,-887.0,-593.0,-217.0,0.0,0.0,0.0
19:45:45.336000,-567.0,109.0,-767.0,-960.0,-517.0,-163.0,0.0,0.0,0.0
19:45:45.341000,-570.0,116.0,-729.0,-960.0,-517.0,-163.0,0.0,0.0,0.0
19:45:45.346000,-579.0,126.0,-704.0,-930.0,-436.0,-132.0,0.0,0.0,0.0
19:45:45.350000,-572.0,139.0,-783.0,-930.0,-436.0,-132.0,0.0,0.0,0.0
19:45:45.355000,-555.0,155.0,-856.0,-841.0,-404.0,-158.0,0.0,0.0,0.0
19:45:45.360000,-555.0,155.0,-856.0,-841.0,-404.0,-158.0,0.0,0.0,0.0
19:45:45.364000,-520.0,168.0,-839.0,-863.0,-448.0,-171.0,0.0,0.0,0.0
19:45:45.369000,-490.0,176.0,-768.0,-863.0,-448.0,-171.0,0.0,0.0,0.0
19:45:45.374000,-472.0,188.0,-692.0,-931.0,-450.0,-196.0,0.0,0.0,0.0
19:45:45.379000,-448.0,193.0,-623.0,-931.0,-450.0,-196.0,0.0,0.0,0.0
19:45:45.383000,-418.0,192.0,-606.0,-986.0,-437.0,-211.0,0.0,0.0,0.0
19:45:45.388000,-371.0,186.0,-571.0,-986.0,-437.0,-211.0,0.0,0.0,0.0
19:45:45.393000,-328.0,188.0,-496.0,-917.0,-453.0,-221.0,0.0,0.0,0.0
19:45:45.397000,-296.0,194.0,-435.0,-917.0,-453.0,-221.0,0.0,0.0,0.0
19:45:45.402000,-259.0,202.0,-392.0,-879.0,-433.0,-251.0,0.0,0.0,0.0
19:45:45.407000,-199.0,204.0,-394.0,-879.0,-433.0,-251.0,0.0,0.0,0.0
19:45:45.411000,-150.0,205.0,-482.0,-1004.0,-317.0,-281.0,0.0,0.0,0.0
19:45:45.416000,-114.0,209.0,-569.0,-1004.0,-317.0,-281.0,0.0,0.0,0.0
19:45:45.421000,-79.0,211.0,-585.0,-1004.0,-317.0,-281.0,0.0,0.0,0.0
19:45:45.426000,-39.0,205.0,-564.0,-1152.0,-235.0,-297.0,0.0,0.0,0.0
19:45:45.430000,11.0,199.0,-545.0,-1204.0,-270.0,-301.0,0.0,0.0,0.0
19:45:45.435000,64.0,191.0,-518.0,-1204.0,-270.0,-301.0,0.0,0.0,0.0
19:45:45.440000,119.0,184.0,-475.0,-1204.0,-270.0,-301.0,0.0,0.0,0.0
19:45:45.444000,170.0,187.0,-412.0,-1173.0,-293.0,-284.0,0.0,0.0,0.0
19:45:45.449000,227.0,193.0,-352.0,-1173.0,-293.0,-284.0,0.0,0.0,0.0
19:45:45.454000,283.0,202.0,-315.0,-1127.0,-298.0,-269.0,0.0,0.0,0.0
19:45:45.458000,335.0,214.0,-299.0,-1127.0,-298.0,-269.0,0.0,0.0,0.0
19:45:45.463000,371.0,228.0,-290.0,-1135.0,-282.0,-265.0,0.0,0.0,0.0
19:45:45.468000,371.0,228.0,-290.0,-1135.0,-282.0,-265.0,0.0,0.0,0.0
19:45:45.473000,399.0,240.0,-284.0,-1175.0,-223.0,-265.0,0.0,0.0,0.0
19:45:45.477000,414.0,252.0,-284.0,-1175.0,-223.0,-265.0,0.0,0.0,0.0
19:45:45.482000,420.0,261.0,-300.0,-1197.0,-119.0,-273.0,0.0,0.0,0.0
19:45:45.487000,410.0,268.0,-317.0,-1197.0,-119.0,-273.0,0.0,0.0,0.0
19:45:45.491000,389.0,269.0,-323.0,-1181.0,8.0,-278.0,0.0,0.0,0.0
19:45:45.495000,362.0,263.0,-318.0,-1181.0,8.0,-278.0,0.0,0.0,0.0
19:45:45.501000,320.0,256.0,-312.0,-1160.0,111.0,-281.0,0.0,0.0,0.0
19:45:45.505000,275.0,246.0,-315.0,-1160.0,111.0,-281.0,0.0,0.0,0.0
19:45:45.510000,236.0,234.0,-327.0,-1150.0,164.0,-287.0,0.0,0.0,0.0
19:45:45.515000,198.0,221.0,-337.0,-1150.0,164.0,-287.0,0.0,0.0,0.0
19:45:45.520000,159.0,207.0,-343.0,-1145.0,197.0,-309.0,0.0,0.0,0.0
19:45:45.524000,132.0,184.0,-366.0,-1145.0,197.0,-309.0,0.0,0.0,0.0
19:45:45.529000,101.0,158.0,-396.0,-1145.0,252.0,-332.0,0.0,0.0,0.0
19:45:45.534000,75.0,130.0,-396.0,-1200.0,252.0,-332.0,0.0,0.0,0.0
19:45:45.538000,41.0,113.0,-354.0,-1200.0,252.0,-332.0,0.0,0.0,0.0
19:45:45.543000,36.0,92.0,-337.0,-1285.0,231.0,-352.0,0.0,0.0,0.0
19:45:45.548000,35.0,73.0,-304.0,-1285.0,231.0,-352.0,0.0,0.0,0.0
19:45:45.552000,25.0,55.0,-249.0,-1325.0,154.0,-369.0,0.0,0.0,0.0
19:45:45.557000,12.0,32.0,-239.0,-1325.0,154.0,-369.0,0.0,0.0,0.0
19:45:45.562000,7.0,8.0,-245.0,-1344.0,187.0,-380.0,0.0,0.0,0.0
19:45:45.567000,18.0,-14.0,-221.0,-1344.0,187.0,-380.0,0.0,0.0,0.0
19:45:45.571000,28.0,-38.0,-219.0,-1310.0,240.0,-405.0,0.0,0.0,0.0
19:45:45.576000,40.0,-59.0,-207.0,-1310.0,240.0,-405.0,0.0,0.0,0.0
19:45:45.581000,40.0,-59.0,-207.0,-1276.0,260.0,-445.0,0.0,0.0,0.0
19:45:45.585000,51.0,-84.0,-193.0,-1276.0,260.0,-445.0,0.0,0.0,0.0
19:45:45.590000,52.0,-121.0,-217.0,-1313.0,337.0,-467.0,0.0,0.0,0.0
19:45:45.595000,69.0,-171.0,-210.0,-1313.0,337.0,-467.0,0.0,0.0,0.0
19:45:45.599000,72.0,-210.0,-177.0,-1292.0,397.0,-464.0,0.0,0.0,0.0
19:45:45.604000,84.0,-252.0,-187.0,-1292.0,397.0,-464.0,0.0,0.0,0.0
19:45:45.609000,116.0,-289.0,-158.0,-1232.0,346.0,-455.0,0.0,0.0,0.0
19:45:45.614000,75.0,-347.0,-65.0,-1232.0,346.0,-455.0,0.0,0.0,0.0
19:45:45.618000,51.0,-347.0,3.0,-1227.0,380.0,-434.0,0.0,0.0,0.0
19:45:45.623000,0.0,-322.0,-49.0,-1227.0,380.0,-434.0,0.0,0.0,0.0
19:45:45.628000,-35.0,-343.0,-301.0,-1326.0,347.0,-390.0,0.0,0.0,0.0
19:45:45.632000,-19.0,-323.0,-101.0,-1326.0,347.0,-390.0,0.0,0.0,0.0
19:45:45.637000,-54.0,-301.0,51.0,-1359.0,164.0,-310.0,0.0,0.0,0.0
19:45:45.642000,-123.0,-314.0,-6.0,-1359.0,164.0,-310.0,0.0,0.0,0.0
19:45:45.646000,-179.0,-315.0,34.0,-1359.0,164.0,-310.0,0.0,0.0,0.0
19:45:45.651000,-145.0,-288.0,118.0,-1191.0,168.0,-227.0,0.0,0.0,0.0
19:45:45.656000,-214.0,-268.0,-37.0,-1191.0,168.0,-227.0,0.0,0.0,0.0
19:45:45.661000,-317.0,-269.0,-156.0,-1113.0,114.0,-158.0,0.0,0.0,0.0
19:45:45.665000,-355.0,-245.0,-185.0,-1113.0,114.0,-158.0,0.0,0.0,0.0
19:45:45.670000,-335.0,-211.0,-25.0,-1040.0,-198.0,-107.0,0.0,0.0,0.0
19:45:45.675000,-255.0,-189.0,328.0,-1040.0,-198.0,-107.0,0.0,0.0,0.0
19:45:45.679000,-205.0,-184.0,453.0,-885.0,-697.0,-61.0,0.0,0.0,0.0
19:45:45.684000,-172.0,-184.0,305.0,-885.0,-697.0,-61.0,0.0,0.0,0.0
19:45:45.689000,-172.0,-184.0,305.0,-701.0,-1015.0,17.0,0.0,0.0,0.0
19:45:45.693000,-232.0,-147.0,378.0,-701.0,-1015.0,17.0,0.0,0.0,0.0
19:45:45.698000,-241.0,-118.0,68.0,-634.0,-1084.0,46.0,0.0,0.0,0.0
19:45:45.703000,-189.0,-109.0,-57.0,-634.0,-1084.0,46.0,0.0,0.0,0.0
19:45:45.708000,-190.0,-64.0,-80.0,-616.0,-1135.0,35.0,0.0,0.0,0.0
19:45:45.712000,-182.0,-76.0,-207.0,-616.0,-1135.0,35.0,0.0,0.0,0.0
19:45:45.717000,-128.0,-108.0,-116.0,-414.0,-1113.0,33.0,0.0,0.0,0.0
19:45:45.722000,-65.0,-97.0,84.0,-414.0,-1113.0,33.0,0.0,0.0,0.0
19:45:45.726000,19.0,-144.0,-58.0,-584.0,-1012.0,15.0,0.0,0.0,0.0
19:45:45.730000,74.0,-177.0,-499.0,-584.0,-1012.0,15.0,0.0,0.0,0.0
19:45:45.736000,76.0,-184.0,-632.0,-705.0,-778.0,0.0,0.0,0.0,0.0
19:45:45.740000,34.0,-196.0,-541.0,-705.0,-778.0,0.0,0.0,0.0,0.0
19:45:45.745000,-44.0,-204.0,-438.0,-516.0,-597.0,-36.0,0.0,0.0,0.0
19:45:45.750000,-53.0,-191.0,-205.0,-516.0,-597.0,-36.0,0.0,0.0,0.0
19:45:45.755000,-87.0,-179.0,-273.0,-516.0,-597.0,-36.0,0.0,0.0,0.0
19:45:45.759000,-7.0,-178.0,-437.0,-665.0,-580.0,-72.0,0.0,0.0,0.0
19:45:45.764000,-21.0,-204.0,-497.0,-665.0,-580.0,-72.0,0.0,0.0,0.0
19:45:45.769000,-46.0,-214.0,-606.0,-851.0,-662.0,-62.0,0.0,0.0,0.0
19:45:45.773000,-117.0,-228.0,-310.0,-851.0,-662.0,-62.0,0.0,0.0,0.0
19:45:45.778000,-61.0,-189.0,-11.0,-658.0,-660.0,-38.0,0.0,0.0,0.0
19:45:45.783000,18.0,-202.0,56.0,-658.0,-660.0,-38.0,0.0,0.0,0.0
19:45:45.787000,126.0,-165.0,-93.0,-574.0,-543.0,-58.0,0.0,0.0,0.0
19:45:45.792000,91.0,-189.0,-148.0,-574.0,-543.0,-58.0,0.0,0.0,0.0
19:45:45.797000,91.0,-189.0,-148.0,-783.0,-607.0,-51.0,0.0,0.0,0.0
19:45:45.802000,92.0,-172.0,-359.0,-783.0,-607.0,-51.0,0.0,0.0,0.0
19:45:45.806000,28.0,-180.0,-133.0,-661.0,-734.0,-19.0,0.0,0.0,0.0
19:45:45.811000,-56.0,-132.0,165.0,-661.0,-734.0,-19.0,0.0,0.0,0.0
19:45:45.816000,-44.0,-116.0,286.0,-617.0,-652.0,-35.0,0.0,0.0,0.0
19:45:45.820000,-70.0,-83.0,91.0,-617.0,-652.0,-35.0,0.0,0.0,0.0
19:45:45.825000,-8.0,-72.0,-286.0,-810.0,-617.0,-63.0,0.0,0.0,0.0
19:45:45.830000,10.0,-50.0,-329.0,-810.0,-617.0,-63.0,0.0,0.0,0.0
19:45:45.834000,23.0,-29.0,-100.0,-762.0,-760.0,-69.0,0.0,0.0,0.0
19:45:45.839000,55.0,-42.0,182.0,-762.0,-760.0,-69.0,0.0,0.0,0.0
19:45:45.844000,28.0,-41.0,480.0,-735.0,-758.0,-53.0,0.0,0.0,0.0
19:45:45.849000,42.0,-9.0,312.0,-735.0,-758.0,-53.0,0.0,0.0,0.0
19:45:45.853000,114.0,-14.0,-129.0,-866.0,-576.0,-59.0,0.0,0.0,0.0
19:45:45.858000,88.0,-2.0,-276.0,-866.0,-576.0,-59.0,0.0,0.0,0.0
19:45:45.863000,27.0,-3.0,-255.0,-866.0,-576.0,-59.0,0.0,0.0,0.0
19:45:45.867000,60.0,-27.0,-216.0,-886.0,-631.0,-60.0,0.0,0.0,0.0
19:45:45.872000,41.0,-42.0,12.0,-886.0,-631.0,-60.0,0.0,0.0,0.0
19:45:45.877000,56.0,-43.0,168.0,-746.0,-702.0,-56.0,0.0,0.0,0.0
19:45:45.881000,-8.0,-20.0,106.0,-746.0,-702.0,-56.0,0.0,0.0,0.0
19:45:45.886000,-37.0,-32.0,-156.0,-728.0,-598.0,-62.0,0.0,0.0,0.0
19:45:45.891000,-26.0,-15.0,-382.0,-728.0,-598.0,-62.0,0.0,0.0,0.0
19:45:45.896000,35.0,-49.0,-350.0,-891.0,-661.0,-54.0,0.0,0.0,0.0
19:45:45.900000,-16.0,-30.0,-232.0,-891.0,-661.0,-54.0,0.0,0.0,0.0
19:45:45.905000,-16.0,-30.0,-232.0,-898.0,-755.0,-52.0,0.0,0.0,0.0
19:45:45.910000,-56.0,-10.0,-34.0,-898.0,-755.0,-52.0,0.0,0.0,0.0
19:45:45.914000,-11.0,-4.0,26.0,-830.0,-714.0,-55.0,0.0,0.0,0.0
19:45:45.919000,40.0,-24.0,-110.0,-830.0,-714.0,-55.0,0.0,0.0,0.0
19:45:45.924000,84.0,-51.0,-305.0,-832.0,-684.0,-41.0,0.0,0.0,0.0
19:45:45.928000,66.0,-67.0,-326.0,-832.0,-684.0,-41.0,0.0,0.0,0.0
19:45:45.933000,21.0,-51.0,-329.0,-789.0,-604.0,-46.0,0.0,0.0,0.0
19:45:45.938000,-12.0,-42.0,-337.0,-789.0,-604.0,-46.0,0.0,0.0,0.0
19:45:45.943000,-82.0,-58.0,-63.0,-758.0,-575.0,-68.0,0.0,0.0,0.0
19:45:45.947000,-77.0,-53.0,-53.0,-758.0,-575.0,-68.0,0.0,0.0,0.0
19:45:45.952000,-53.0,-113.0,-420.0,-807.0,-684.0,-76.0,0.0,0.0,0.0
19:45:45.957000,-67.0,-110.0,-213.0,-807.0,-684.0,-76.0,0.0,0.0,0.0
19:45:45.961000,-11.0,-117.0,-5.0,-923.0,-706.0,-73.0,0.0,0.0,0.0
19:45:45.965000,-4.0,-151.0,-266.0,-923.0,-706.0,-73.0,0.0,0.0,0.0
19:45:45.971000,-15.0,-146.0,-645.0,-923.0,-706.0,-73.0,0.0,0.0,0.0
19:45:45.975000,-16.0,-115.0,-693.0,-929.0,-569.0,-65.0,0.0,0.0,0.0
19:45:45.980000,-34.0,-123.0,-485.0,-929.0,-569.0,-65.0,0.0,0.0,0.0
19:45:45.985000,-125.0,-68.0,-197.0,-829.0,-575.0,-54.0,0.0,0.0,0.0
19:45:45.990000,-138.0,-75.0,-333.0,-829.0,-575.0,-54.0,0.0,0.0,0.0
19:45:45.994000,-156.0,-58.0,-403.0,-931.0,-627.0,-53.0,0.0,0.0,0.0
19:45:45.999000,-132.0,-56.0,-107.0,-931.0,-627.0,-53.0,0.0,0.0,0.0
19:45:46.004000,-72.0,-88.0,10.0,-963.0,-533.0,-53.0,0.0,0.0,0.0
19:45:46.008000,-91.0,-100.0,-90.0,-963.0,-533.0,-53.0,0.0,0.0,0.0
19:45:46.013000,-110.0,-74.0,-102.0,-808.0,-503.0,-38.0,0.0,0.0,0.0
19:45:46.018000,-110.0,-74.0,-102.0,-808.0,-503.0,-38.0,0.0,0.0,0.0
19:45:46.022000,-61.0,-75.0,-130.0,-800.0,-540.0,-46.0,0.0,0.0,0.0
19:45:46.027000,-15.0,-95.0,-266.0,-800.0,-540.0,-46.0,0.0,0.0,0.0
19:45:46.032000,2.0,-98.0,-319.0,-807.0,-614.0,-63.0,0.0,0.0,0.0
19:45:46.037000,33.0,-89.0,-247.0,-807.0,-614.0,-63.0,0.0,0.0,0.0
19:45:46.041000,37.0,-84.0,-221.0,-841.0,-595.0,-53.0,0.0,0.0,0.0
19:45:46.046000,14.0,-98.0,-337.0,-841.0,-595.0,-53.0,0.0,0.0,0.0
19:45:46.051000,-21.0,-94.0,-435.0,-858.0,-553.0,-54.0,0.0,0.0,0.0
19:45:46.055000,-46.0,-78.0,-396.0,-858.0,-553.0,-54.0,0.0,0.0,0.0
19:45:46.060000,-44.0,-75.0,-385.0,-839.0,-569.0,-59.0,0.0,0.0,0.0
19:45:46.065000,-21.0,-88.0,-371.0,-839.0,-569.0,-59.0,0.0,0.0,0.0
19:45:46.069000,-44.0,-94.0,-434.0,-874.0,-520.0,-43.0,0.0,0.0,0.0
19:45:46.074000,-114.0,-79.0,-437.0,-874.0,-520.0,-43.0,0.0,0.0,0.0
19:45:46.079000,-131.0,-66.0,-413.0,-874.0,-520.0,-43.0,0.0,0.0,0.0
19:45:46.084000,-140.0,-57.0,-401.0,-903.0,-518.0,-50.0,0.0,0.0,0.0
19:45:46.088000,-98.0,-62.0,-338.0,-903.0,-518.0,-50.0,0.0,0.0,0.0
19:45:46.093000,-11.0,-100.0,-175.0,-878.0,-566.0,-69.0,0.0,0.0,0.0
19:45:46.098000,9.0,-88.0,-143.0,-878.0,-566.0,-69.0,0.0,0.0,0.0
19:45:46.102000,21.0,-99.0,-429.0,-824.0,-446.0,-55.0,0.0,0.0,0.0
19:45:46.107000,32.0,-90.0,-764.0,-824.0,-446.0,-55.0,0.0,0.0,0.0
19:45:46.112000,18.0,-96.0,-617.0,-833.0,-425.0,-38.0,0.0,0.0,0.0
19:45:46.116000,32.0,-86.0,-340.0,-833.0,-425.0,-38.0,0.0,0.0,0.0
19:45:46.121000,22.0,-102.0,-250.0,-862.0,-622.0,-38.0,0.0,0.0,0.0
19:45:46.126000,22.0,-102.0,-250.0,-862.0,-622.0,-38.0,0.0,0.0,0.0
19:45:46.131000,-60.0,-134.0,-240.0,-889.0,-556.0,-29.0,0.0,0.0,0.0
19:45:46.135000,-38.0,-115.0,-229.0,-889.0,-556.0,-29.0,0.0,0.0,0.0
19:45:46.140000,5.0,-77.0,-263.0,-911.0,-424.0,-34.0,0.0,0.0,0.0
19:45:46.145000,63.0,-62.0,-307.0,-911.0,-424.0,-34.0,0.0,0.0,0.0
19:45:46.149000,65.0,-88.0,-320.0,-854.0,-416.0,-11.0,0.0,0.0,0.0
19:45:46.154000,7.0,-100.0,-478.0,-854.0,-416.0,-11.0,0.0,0.0,0.0
19:45:46.159000,63.0,-42.0,-637.0,-877.0,-418.0,9.0,0.0,0.0,0.0
19:45:46.163000,21.0,-32.0,-518.0,-877.0,-418.0,9.0,0.0,0.0,0.0
19:45:46.168000,1.0,-15.0,-326.0,-960.0,-544.0,-4.0,0.0,0.0,0.0
19:45:46.173000,9.0,-32.0,-343.0,-960.0,-544.0,-4.0,0.0,0.0,0.0
19:45:46.178000,-34.0,-10.0,-292.0,-845.0,-499.0,17.0,0.0,0.0,0.0
19:45:46.182000,-37.0,-2.0,-80.0,-845.0,-499.0,17.0,0.0,0.0,0.0
19:45:46.187000,3.0,-3.0,-260.0,-845.0,-499.0,17.0,0.0,0.0,0.0
19:45:46.192000,35.0,-20.0,-520.0,-907.0,-342.0,28.0,0.0,0.0,0.0
19:45:46.196000,41.0,11.0,-366.0,-907.0,-342.0,28.0,0.0,0.0,0.0
19:45:46.200000,108.0,11.0,-245.0,-993.0,-463.0,15.0,0.0,0.0,0.0
19:45:46.206000,107.0,0.0,-349.0,-993.0,-463.0,15.0,0.0,0.0,0.0
19:45:46.210000,74.0,4.0,-409.0,-897.0,-449.0,25.0,0.0,0.0,0.0
19:45:46.215000,43.0,16.0,-408.0,-897.0,-449.0,25.0,0.0,0.0,0.0
19:45:46.220000,56.0,25.0,-553.0,-900.0,-275.0,42.0,0.0,0.0,0.0
19:45:46.225000,50.0,48.0,-541.0,-900.0,-275.0,42.0,0.0,0.0,0.0
19:45:46.229000,45.0,48.0,-378.0,-863.0,-320.0,42.0,0.0,0.0,0.0
19:45:46.234000,45.0,48.0,-378.0,-863.0,-320.0,42.0,0.0,0.0,0.0
19:45:46.239000,40.0,54.0,-258.0,-876.0,-371.0,43.0,0.0,0.0,0.0
19:45:46.243000,48.0,57.0,-142.0,-876.0,-371.0,43.0,0.0,0.0,0.0
19:45:46.248000,46.0,65.0,-105.0,-962.0,-369.0,34.0,0.0,0.0,0.0
19:45:46.253000,37.0,72.0,-182.0,-962.0,-369.0,34.0,0.0,0.0,0.0
19:45:46.257000,15.0,79.0,-274.0,-947.0,-305.0,28.0,0.0,0.0,0.0
19:45:46.262000,-11.0,84.0,-335.0,-947.0,-305.0,28.0,0.0,0.0,0.0
19:45:46.267000,-20.0,74.0,-380.0,-880.0,-285.0,21.0,0.0,0.0,0.0
19:45:46.272000,-2.0,76.0,-373.0,-880.0,-285.0,21.0,0.0,0.0,0.0
19:45:46.276000,0.0,84.0,-329.0,-870.0,-319.0,5.0,0.0,0.0,0.0
19:45:46.281000,0.0,87.0,-279.0,-870.0,-319.0,5.0,0.0,0.0,0.0
19:45:46.286000,-7.0,87.0,-235.0,-903.0,-279.0,-1.0,0.0,0.0,0.0
19:45:46.290000,-24.0,90.0,-237.0,-903.0,-279.0,-1.0,0.0,0.0,0.0
19:45:46.295000,-30.0,95.0,-235.0,-903.0,-310.0,-1.0,0.0,0.0,0.0
19:45:46.300000,-27.0,93.0,-154.0,-916.0,-286.0,-1.0,0.0,0.0,0.0
19:45:46.304000,-34.0,98.0,-62.0,-916.0,-286.0,-1.0,0.0,0.0,0.0
19:45:46.309000,-37.0,105.0,-30.0,-913.0,-315.0,-3.0,0.0,0.0,0.0
19:45:46.314000,-43.0,109.0,-59.0,-913.0,-315.0,-3.0,0.0,0.0,0.0
19:45:46.318000,-32.0,111.0,-115.0,-920.0,-284.0,0.0,0.0,0.0,0.0
19:45:46.323000,-24.0,107.0,-107.0,-920.0,-284.0,0.0,0.0,0.0,0.0
19:45:46.328000,-28.0,111.0,-51.0,-888.0,-324.0,0.0,0.0,0.0,0.0
19:45:46.333000,-24.0,118.0,-72.0,-888.0,-324.0,0.0,0.0,0.0,0.0
19:45:46.337000,-28.0,125.0,-126.0,-873.0,-326.0,-7.0,0.0,0.0,0.0
19:45:46.342000,-28.0,125.0,-126.0,-873.0,-326.0,-7.0,0.0,0.0,0.0
19:45:46.347000,-29.0,130.0,-128.0,-894.0,-261.0,-18.0,0.0,0.0,0.0
19:45:46.351000,-37.0,130.0,-87.0,-894.0,-261.0,-18.0,0.0,0.0,0.0
19:45:46.356000,-54.0,138.0,-84.0,-916.0,-252.0,-26.0,0.0,0.0,0.0
19:45:46.361000,-56.0,145.0,-97.0,-916.0,-252.0,-26.0,0.0,0.0,0.0
19:45:46.366000,-36.0,144.0,-93.0,-934.0,-283.0,-33.0,0.0,0.0,0.0
19:45:46.370000,-26.0,144.0,-58.0,-934.0,-283.0,-33.0,0.0,0.0,0.0
19:45:46.375000,-27.0,147.0,-14.0,-913.0,-336.0,-38.0,0.0,0.0,0.0
19:45:46.389000,-52.0,155.0,-80.0,-917.0,-341.0,-43.0,0.0,0.0,0.0
19:45:46.394000,-53.0,147.0,-123.0,-923.0,-342.0,-55.0,0.0,0.0,0.0
19:45:46.398000,-42.0,143.0,-128.0,-923.0,-342.0,-55.0,0.0,0.0,0.0
19:45:46.403000,-37.0,137.0,-56.0,-916.0,-381.0,-63.0,0.0,0.0,0.0
19:45:46.408000,-47.0,133.0,-33.0,-916.0,-381.0,-63.0,0.0,0.0,0.0
19:45:46.413000,-49.0,132.0,-91.0,-916.0,-381.0,-63.0,0.0,0.0,0.0
19:45:46.417000,-49.0,127.0,-156.0,-952.0,-369.0,-70.0,0.0,0.0,0.0
19:45:46.422000,-51.0,128.0,-144.0,-952.0,-369.0,-70.0,0.0,0.0,0.0
19:45:46.427000,-42.0,121.0,-81.0,-935.0,-355.0,-75.0,0.0,0.0,0.0
19:45:46.431000,-19.0,117.0,-98.0,-935.0,-355.0,-75.0,0.0,0.0,0.0
19:45:46.436000,-19.0,114.0,-171.0,-942.0,-366.0,-77.0,0.0,0.0,0.0
19:45:46.441000,-32.0,123.0,-198.0,-942.0,-366.0,-77.0,0.0,0.0,0.0
19:45:46.445000,-51.0,130.0,-208.0,-976.0,-322.0,-74.0,0.0,0.0,0.0
19:45:46.450000,-74.0,139.0,-205.0,-976.0,-322.0,-74.0,0.0,0.0,0.0
19:45:46.455000,-74.0,139.0,-205.0,-947.0,-294.0,-70.0,0.0,0.0,0.0
19:45:46.460000,-64.0,144.0,-240.0,-947.0,-294.0,-70.0,0.0,0.0,0.0
19:45:46.464000,-59.0,140.0,-240.0,-970.0,-302.0,-69.0,0.0,0.0,0.0
19:45:46.469000,-95.0,143.0,-263.0,-970.0,-302.0,-69.0,0.0,0.0,0.0
19:45:46.474000,-128.0,163.0,-308.0,-1042.0,-321.0,-71.0,0.0,0.0,0.0
19:45:46.478000,-128.0,175.0,-332.0,-1042.0,-321.0,-71.0,0.0,0.0,0.0
19:45:46.483000,-131.0,187.0,-325.0,-1110.0,-373.0,-76.0,0.0,0.0,0.0
19:45:46.488000,-136.0,200.0,-290.0,-1110.0,-373.0,-76.0,0.0,0.0,0.0
19:45:46.492000,-114.0,213.0,-277.0,-1090.0,-401.0,-69.0,0.0,0.0,0.0
19:45:46.497000,-118.0,224.0,-315.0,-1090.0,-401.0,-69.0,0.0,0.0,0.0
19:45:46.502000,-120.0,233.0,-339.0,-1050.0,-388.0,-57.0,0.0,0.0,0.0
19:45:46.507000,-116.0,235.0,-348.0,-1050.0,-388.0,-57.0,0.0,0.0,0.0
19:45:46.511000,-104.0,240.0,-373.0,-1054.0,-385.0,-56.0,0.0,0.0,0.0
19:45:46.516000,-86.0,242.0,-427.0,-1054.0,-385.0,-56.0,0.0,0.0,0.0
19:45:46.521000,-61.0,245.0,-463.0,-1054.0,-385.0,-56.0,0.0,0.0,0.0
19:45:46.525000,-39.0,244.0,-482.0,-1029.0,-380.0,-73.0,0.0,0.0,0.0
19:45:46.530000,-29.0,245.0,-466.0,-1029.0,-380.0,-73.0,0.0,0.0,0.0
19:45:46.535000,-24.0,241.0,-452.0,-1035.0,-361.0,-100.0,0.0,0.0,0.0
19:45:46.539000,-25.0,242.0,-499.0,-1035.0,-361.0,-100.0,0.0,0.0,0.0
19:45:46.544000,-23.0,242.0,-577.0,-1094.0,-318.0,-117.0,0.0,0.0,0.0
19:45:46.549000,1.0,240.0,-641.0,-1094.0,-318.0,-117.0,0.0,0.0,0.0
19:45:46.554000,4.0,240.0,-652.0,-1085.0,-294.0,-120.0,0.0,0.0,0.0
19:45:46.558000,11.0,246.0,-641.0,-1085.0,-294.0,-120.0,0.0,0.0,0.0
19:45:46.563000,11.0,246.0,-641.0,-1031.0,-288.0,-116.0,0.0,0.0,0.0
19:45:46.568000,12.0,256.0,-682.0,-1031.0,-288.0,-116.0,0.0,0.0,0.0
19:45:46.572000,0.0,266.0,-702.0,-1038.0,-272.0,-117.0,0.0,0.0,0.0
19:45:46.577000,2.0,267.0,-686.0,-1038.0,-272.0,-117.0,0.0,0.0,0.0
19:45:46.582000,-9.0,278.0,-697.0,-1094.0,-278.0,-127.0,0.0,0.0,0.0
19:45:46.586000,-4.0,285.0,-716.0,-1094.0,-278.0,-127.0,0.0,0.0,0.0
19:45:46.591000,0.0,289.0,-741.0,-1098.0,-318.0,-130.0,0.0,0.0,0.0
19:45:46.596000,19.0,290.0,-758.0,-1098.0,-318.0,-130.0,0.0,0.0,0.0
19:45:46.601000,32.0,291.0,-763.0,-1042.0,-320.0,-132.0,0.0,0.0,0.0
19:45:46.605000,28.0,300.0,-763.0,-1042.0,-320.0,-132.0,0.0,0.0,0.0
19:45:46.610000,32.0,310.0,-772.0,-1019.0,-252.0,-132.0,0.0,0.0,0.0
19:45:46.615000,29.0,312.0,-800.0,-1019.0,-252.0,-132.0,0.0,0.0,0.0
19:45:46.619000,29.0,316.0,-805.0,-1015.0,-249.0,-138.0,0.0,0.0,0.0
19:45:46.624000,46.0,317.0,-791.0,-1015.0,-249.0,-138.0,0.0,0.0,0.0
19:45:46.629000,54.0,309.0,-794.0,-1015.0,-249.0,-138.0,0.0,0.0,0.0
19:45:46.633000,67.0,301.0,-808.0,-988.0,-274.0,-149.0,0.0,0.0,0.0
19:45:46.638000,69.0,291.0,-833.0,-988.0,-274.0,-149.0,0.0,0.0,0.0
19:45:46.643000,72.0,282.0,-829.0,-980.0,-223.0,-162.0,0.0,0.0,0.0
19:45:46.648000,77.0,272.0,-827.0,-980.0,-223.0,-162.0,0.0,0.0,0.0
19:45:46.652000,83.0,259.0,-829.0,-992.0,-177.0,-174.0,0.0,0.0,0.0
19:45:46.657000,98.0,249.0,-820.0,-992.0,-177.0,-174.0,0.0,0.0,0.0
19:45:46.662000,113.0,238.0,-812.0,-979.0,-168.0,-183.0,0.0,0.0,0.0
19:45:46.666000,121.0,226.0,-815.0,-979.0,-168.0,-183.0,0.0,0.0,0.0
19:45:46.671000,121.0,226.0,-815.0,-978.0,-133.0,-193.0,0.0,0.0,0.0
19:45:46.676000,127.0,217.0,-809.0,-978.0,-133.0,-193.0,0.0,0.0,0.0
19:45:46.680000,130.0,207.0,-795.0,-995.0,-93.0,-198.0,0.0,0.0,0.0
19:45:46.685000,136.0,194.0,-793.0,-995.0,-93.0,-198.0,0.0,0.0,0.0
19:45:46.690000,142.0,179.0,-788.0,-992.0,-85.0,-206.0,0.0,0.0,0.0
19:45:46.695000,142.0,165.0,-777.0,-992.0,-85.0,-206.0,0.0,0.0,0.0
19:45:46.699000,137.0,152.0,-764.0,-989.0,-67.0,-208.0,0.0,0.0,0.0
19:45:46.704000,132.0,141.0,-759.0,-989.0,-67.0,-208.0,0.0,0.0,0.0
19:45:46.709000,122.0,131.0,-750.0,-998.0,-49.0,-206.0,0.0,0.0,0.0
19:45:46.713000,117.0,120.0,-734.0,-998.0,-49.0,-206.0,0.0,0.0,0.0
19:45:46.718000,117.0,111.0,-732.0,-979.0,-45.0,-202.0,0.0,0.0,0.0
19:45:46.723000,114.0,105.0,-744.0,-979.0,-45.0,-202.0,0.0,0.0,0.0
19:45:46.727000,109.0,102.0,-754.0,-959.0,-29.0,-204.0,0.0,0.0,0.0
19:45:46.732000,102.0,102.0,-753.0,-959.0,-29.0,-204.0,0.0,0.0,0.0
19:45:46.737000,95.0,102.0,-744.0,-972.0,-18.0,-208.0,0.0,0.0,0.0
19:45:46.742000,90.0,102.0,-733.0,-972.0,-18.0,-208.0,0.0,0.0,0.0
19:45:46.746000,81.0,98.0,-730.0,-972.0,-18.0,-208.0,0.0,0.0,0.0
19:45:46.751000,69.0,93.0,-725.0,-994.0,0.0,-209.0,0.0,0.0,0.0
19:45:46.756000,58.0,92.0,-722.0,-994.0,0.0,-209.0,0.0,0.0,0.0
19:45:46.760000,50.0,91.0,-730.0,-990.0,41.0,-208.0,0.0,0.0,0.0
19:45:46.765000,44.0,89.0,-740.0,-990.0,41.0,-208.0,0.0,0.0,0.0
19:45:46.770000,32.0,90.0,-741.0,-990.0,73.0,-208.0,0.0,0.0,0.0
19:45:46.774000,15.0,91.0,-727.0,-990.0,73.0,-208.0,0.0,0.0,0.0
19:45:46.778000,15.0,91.0,-727.0,-1019.0,97.0,-206.0,0.0,0.0,0.0
19:45:46.784000,-9.0,98.0,-709.0,-1019.0,97.0,-206.0,0.0,0.0,0.0
19:45:46.789000,-34.0,106.0,-701.0,-1061.0,111.0,-207.0,0.0,0.0,0.0
19:45:46.793000,-54.0,114.0,-694.0,-1061.0,111.0,-207.0,0.0,0.0,0.0
19:45:46.798000,-66.0,119.0,-687.0,-1082.0,114.0,-213.0,0.0,0.0,0.0
19:45:46.802000,-78.0,126.0,-687.0,-1082.0,114.0,-213.0,0.0,0.0,0.0
19:45:46.807000,-86.0,127.0,-703.0,-1072.0,140.0,-207.0,0.0,0.0,0.0
19:45:46.812000,-95.0,131.0,-725.0,-1072.0,140.0,-207.0,0.0,0.0,0.0
19:45:46.817000,-109.0,135.0,-718.0,-1057.0,157.0,-191.0,0.0,0.0,0.0
19:45:46.821000,-120.0,139.0,-693.0,-1057.0,157.0,-191.0,0.0,0.0,0.0
19:45:46.826000,-116.0,143.0,-707.0,-988.0,143.0,-160.0,0.0,0.0,0.0
19:45:46.831000,-109.0,144.0,-746.0,-988.0,143.0,-160.0,0.0,0.0,0.0
19:45:46.835000,-91.0,147.0,-745.0,-944.0,150.0,-140.0,0.0,0.0,0.0
19:45:46.840000,-70.0,163.0,-746.0,-944.0,150.0,-140.0,0.0,0.0,0.0
19:45:46.845000,-46.0,174.0,-777.0,-944.0,150.0,-140.0,0.0,0.0,0.0
19:45:46.850000,-49.0,184.0,-789.0,-993.0,198.0,-151.0,0.0,0.0,0.0
19:45:46.854000,-60.0,206.0,-809.0,-914.0,259.0,-183.0,0.0,0.0,0.0
19:45:46.859000,-66.0,212.0,-761.0,-914.0,259.0,-183.0,0.0,0.0,0.0
19:45:46.864000,-91.0,214.0,-662.0,-914.0,259.0,-183.0,0.0,0.0,0.0
19:45:46.868000,-134.0,242.0,-658.0,-955.0,322.0,-215.0,0.0,0.0,0.0
19:45:46.873000,-113.0,250.0,-735.0,-955.0,322.0,-215.0,0.0,0.0,0.0
19:45:46.878000,-98.0,234.0,-733.0,-944.0,312.0,-261.0,0.0,0.0,0.0
19:45:46.882000,-103.0,222.0,-693.0,-944.0,312.0,-261.0,0.0,0.0,0.0
19:45:46.887000,-109.0,223.0,-648.0,-990.0,324.0,-306.0,0.0,0.0,0.0
19:45:46.892000,-109.0,223.0,-648.0,-990.0,324.0,-306.0,0.0,0.0,0.0
19:45:46.897000,-92.0,214.0,-590.0,-988.0,315.0,-343.0,0.0,0.0,0.0
19:45:46.901000,-75.0,180.0,-536.0,-988.0,315.0,-343.0,0.0,0.0,0.0
19:45:46.906000,-83.0,153.0,-612.0,-879.0,310.0,-393.0,0.0,0.0,0.0
19:45:46.910000,-75.0,130.0,-638.0,-879.0,310.0,-393.0,0.0,0.0,0.0
19:45:46.915000,-52.0,103.0,-524.0,-1000.0,301.0,-432.0,0.0,0.0,0.0
19:45:46.920000,-32.0,61.0,-437.0,-1000.0,301.0,-432.0,0.0,0.0,0.0
19:45:46.925000,-53.0,28.0,-409.0,-1080.0,173.0,-443.0,0.0,0.0,0.0
19:45:46.929000,-4.0,-2.0,-352.0,-1080.0,173.0,-443.0,0.0,0.0,0.0
19:45:46.934000,35.0,-54.0,-355.0,-1134.0,102.0,-410.0,0.0,0.0,0.0
19:45:46.939000,38.0,-93.0,-352.0,-1134.0,102.0,-410.0,0.0,0.0,0.0
19:45:46.944000,85.0,-113.0,-268.0,-1087.0,81.0,-378.0,0.0,0.0,0.0
19:45:46.948000,125.0,-151.0,-281.0,-1087.0,81.0,-378.0,0.0,0.0,0.0
19:45:46.953000,133.0,-173.0,-353.0,-1087.0,81.0,-378.0,0.0,0.0,0.0
19:45:46.958000,163.0,-202.0,-344.0,-1076.0,121.0,-342.0,0.0,0.0,0.0
19:45:46.962000,179.0,-220.0,-325.0,-1076.0,121.0,-342.0,0.0,0.0,0.0
19:45:46.967000,188.0,-240.0,-317.0,-1056.0,190.0,-295.0,0.0,0.0,0.0
19:45:46.972000,195.0,-253.0,-330.0,-1056.0,190.0,-295.0,0.0,0.0,0.0
19:45:46.976000,177.0,-265.0,-351.0,-1000.0,259.0,-278.0,0.0,0.0,0.0
19:45:46.981000,156.0,-268.0,-320.0,-1000.0,259.0,-278.0,0.0,0.0,0.0
19:45:46.986000,154.0,-262.0,-304.0,-848.0,286.0,-253.0,0.0,0.0,0.0
19:45:46.991000,124.0,-254.0,-359.0,-848.0,286.0,-253.0,0.0,0.0,0.0
19:45:46.995000,90.0,-238.0,-360.0,-783.0,365.0,-222.0,0.0,0.0,0.0
19:45:47.000000,90.0,-238.0,-360.0,-783.0,365.0,-222.0,0.0,0.0,0.0
19:45:47.005000,48.0,-219.0,-308.0,-899.0,420.0,-210.0,0.0,0.0,0.0
19:45:47.009000,14.0,-197.0,-275.0,-899.0,420.0,-210.0,0.0,0.0,0.0
19:45:47.014000,-5.0,-179.0,-286.0,-960.0,358.0,-213.0,0.0,0.0,0.0
19:45:47.019000,-21.0,-158.0,-300.0,-960.0,358.0,-213.0,0.0,0.0,0.0
19:45:47.023000,-44.0,-136.0,-285.0,-970.0,342.0,-207.0,0.0,0.0,0.0
19:45:47.028000,-58.0,-121.0,-252.0,-970.0,342.0,-207.0,0.0,0.0,0.0
19:45:47.033000,-74.0,-109.0,-219.0,-948.0,363.0,-186.0,0.0,0.0,0.0
