hh:mm:ss.ms,gyroX[mdps],gyroY[mdps],gyroZ[mdps],accX[mg],accY[mg],accZ[mg],magX[mG],magY[mG],magZ[mG]
19:45:32.107000,-483.0,7.0,-858.0,-1147.0,-375.0,23.0,0.0,0.0,0.0
19:45:32.111000,-490.0,18.0,-847.0,-1147.0,-375.0,23.0,0.0,0.0,0.0
19:45:32.116000,-504.0,33.0,-854.0,-1170.0,-355.0,19.0,0.0,0.0,0.0
19:45:32.121000,-520.0,49.0,-868.0,-1170.0,-355.0,19.0,0.0,0.0,0.0
19:45:32.125000,-539.0,67.0,-859.0,-1160.0,-335.0,15.0,0.0,0.0,0.0
19:45:32.130000,-539.0,67.0,-859.0,-1160.0,-335.0,15.0,0.0,0.0,0.0
19:45:32.135000,-562.0,90.0,-876.0,-1159.0,-292.0,13.0,0.0,0.0,0.0
19:45:32.140000,-595.0,116.0,-904.0,-1159.0,-292.0,13.0,0.0,0.0,0.0
19:45:32.144000,-637.0,142.0,-906.0,-1138.0,-225.0,10.0,0.0,0.0,0.0
19:45:32.149000,-676.0,172.0,-908.0,-1138.0,-225.0,10.0,0.0,0.0,0.0
19:45:32.154000,-713.0,203.0,-930.0,-1141.0,-173.0,8.0,0.0,0.0,0.0
19:45:32.158000,-753.0,233.0,-961.0,-1141.0,-173.0,8.0,0.0,0.0,0.0
19:45:32.163000,-784.0,262.0,-990.0,-1142.0,-152.0,2.0,0.0,0.0,0.0
19:45:32.168000,-804.0,294.0,-1008.0,-1142.0,-152.0,2.0,0.0,0.0,0.0
19:45:32.172000,-823.0,331.0,-1030.0,-1114.0,-154.0,-3.0,0.0,0.0,0.0
19:45:32.177000,-837.0,371.0,-1038.0,-1114.0,-154.0,-3.0,0.0,0.0,0.0
19:45:32.182000,-851.0,409.0,-1038.0,-1103.0,-149.0,-9.0,0.0,0.0,0.0
19:45:32.187000,-852.0,444.0,-1066.0,-1103.0,-149.0,-9.0,0.0,0.0,0.0
19:45:32.191000,-852.0,483.0,-1108.0,-1212.0,-176.0,7.0,0.0,0.0,0.0
19:45:32.196000,-851.0,522.0,-1136.0,-1212.0,-176.0,7.0,0.0,0.0,0.0
19:45:32.201000,-835.0,557.0,-1106.0,-1212.0,-176.0,7.0,0.0,0.0,0.0
19:45:32.205000,-805.0,609.0,-1005.0,-1162.0,-247.0,14.0,0.0,0.0,0.0
19:45:32.210000,-750.0,653.0,-975.0,-1162.0,-247.0,14.0,0.0,0.0,0.0
19:45:32.215000,-750.0,662.0,-1120.0,-958.0,-216.0,-35.0,0.0,0.0,0.0
19:45:32.219000,-754.0,698.0,-1173.0,-958.0,-216.0,-35.0,0.0,0.0,0.0
19:45:32.224000,-726.0,725.0,-1063.0,-1065.0,-187.0,-20.0,0.0,0.0,0.0
19:45:32.229000,-739.0,746.0,-970.0,-1065.0,-187.0,-20.0,0.0,0.0,0.0
19:45:32.234000,-674.0,753.0,-912.0,-978.0,-183.0,23.0,0.0,0.0,0.0
19:45:32.238000,-590.0,748.0,-912.0,-978.0,-183.0,23.0,0.0,0.0,0.0
19:45:32.243000,-590.0,748.0,-912.0,-673.0,44.0,-29.0,0.0,0.0,0.0
19:45:32.248000,-569.0,742.0,-987.0,-673.0,44.0,-29.0,0.0,0.0,0.0
19:45:32.252000,-632.0,767.0,-1028.0,-634.0,241.0,-125.0,0.0,0.0,0.0
19:45:32.257000,-578.0,784.0,-919.0,-634.0,241.0,-125.0,0.0,0.0,0.0
19:45:32.262000,-600.0,767.0,-872.0,-899.0,181.0,-218.0,0.0,0.0,0.0
19:45:32.266000,-583.0,710.0,-908.0,-899.0,181.0,-218.0,0.0,0.0,0.0
19:45:32.271000,-518.0,645.0,-893.0,-1211.0,56.0,-228.0,0.0,0.0,0.0
19:45:32.276000,-501.0,591.0,-848.0,-1211.0,56.0,-228.0,0.0,0.0,0.0
19:45:32.281000,-498.0,548.0,-766.0,-1065.0,47.0,-218.0,0.0,0.0,0.0
19:45:32.285000,-507.0,523.0,-707.0,-1065.0,47.0,-218.0,0.0,0.0,0.0
19:45:32.290000,-517.0,507.0,-702.0,-773.0,214.0,-256.0,0.0,0.0,0.0
19:45:32.295000,-532.0,488.0,-720.0,-773.0,214.0,-256.0,0.0,0.0,0.0
19:45:32.299000,-553.0,460.0,-711.0,-761.0,319.0,-272.0,0.0,0.0,0.0
19:45:32.304000,-573.0,432.0,-625.0,-761.0,319.0,-272.0,0.0,0.0,0.0
19:45:32.309000,-599.0,411.0,-540.0,-881.0,269.0,-268.0,0.0,0.0,0.0
19:45:32.313000,-611.0,398.0,-496.0,-881.0,269.0,-268.0,0.0,0.0,0.0
19:45:32.318000,-637.0,382.0,-491.0,-881.0,269.0,-268.0,0.0,0.0,0.0
19:45:32.323000,-664.0,361.0,-484.0,-951.0,268.0,-274.0,0.0,0.0,0.0
19:45:32.328000,-692.0,326.0,-459.0,-951.0,268.0,-274.0,0.0,0.0,0.0
19:45:32.332000,-719.0,285.0,-424.0,-944.0,285.0,-248.0,0.0,0.0,0.0
19:45:32.337000,-744.0,255.0,-379.0,-944.0,285.0,-248.0,0.0,0.0,0.0
19:45:32.342000,-769.0,238.0,-339.0,-840.0,259.0,-205.0,0.0,0.0,0.0
19:45:32.346000,-782.0,224.0,-322.0,-840.0,259.0,-205.0,0.0,0.0,0.0
19:45:32.351000,-782.0,224.0,-322.0,-754.0,260.0,-195.0,0.0,0.0,0.0
19:45:32.356000,-784.0,215.0,-343.0,-754.0,260.0,-195.0,0.0,0.0,0.0
19:45:32.360000,-786.0,210.0,-370.0,-805.0,263.0,-194.0,0.0,0.0,0.0
19:45:32.364000,-780.0,205.0,-380.0,-805.0,263.0,-194.0,0.0,0.0,0.0
19:45:32.370000,-762.0,210.0,-395.0,-893.0,208.0,-203.0,0.0,0.0,0.0
19:45:32.375000,-747.0,221.0,-415.0,-893.0,208.0,-203.0,0.0,0.0,0.0
19:45:32.379000,-740.0,235.0,-434.0,-965.0,185.0,-224.0,0.0,0.0,0.0
19:45:32.384000,-737.0,250.0,-450.0,-965.0,185.0,-224.0,0.0,0.0,0.0
19:45:32.389000,-743.0,267.0,-455.0,-998.0,229.0,-236.0,0.0,0.0,0.0
19:45:32.393000,-749.0,282.0,-453.0,-998.0,229.0,-236.0,0.0,0.0,0.0
19:45:32.398000,-765.0,288.0,-448.0,-971.0,271.0,-241.0,0.0,0.0,0.0
19:45:32.403000,-774.0,291.0,-442.0,-971.0,271.0,-241.0,0.0,0.0,0.0
19:45:32.407000,-792.0,294.0,-436.0,-923.0,296.0,-238.0,0.0,0.0,0.0
19:45:32.412000,-802.0,289.0,-436.0,-923.0,296.0,-238.0,0.0,0.0,0.0
19:45:32.417000,-809.0,285.0,-427.0,-923.0,296.0,-238.0,0.0,0.0,0.0
19:45:32.421000,-819.0,278.0,-413.0,-888.0,310.0,-236.0,0.0,0.0,0.0
19:45:32.426000,-823.0,268.0,-409.0,-888.0,310.0,-236.0,0.0,0.0,0.0
19:45:32.431000,-833.0,258.0,-403.0,-895.0,326.0,-235.0,0.0,0.0,0.0
19:45:32.436000,-838.0,249.0,-385.0,-895.0,326.0,-235.0,0.0,0.0,0.0
19:45:32.440000,-850.0,241.0,-373.0,-912.0,344.0,-225.0,0.0,0.0,0.0
19:45:32.445000,-861.0,236.0,-373.0,-912.0,344.0,-225.0,0.0,0.0,0.0
19:45:32.450000,-875.0,233.0,-375.0,-917.0,353.0,-212.0,0.0,0.0,0.0
19:45:32.454000,-896.0,229.0,-373.0,-917.0,353.0,-212.0,0.0,0.0,0.0
19:45:32.459000,-896.0,229.0,-373.0,-941.0,366.0,-194.0,0.0,0.0,0.0
19:45:32.464000,-921.0,224.0,-371.0,-941.0,366.0,-194.0,0.0,0.0,0.0
19:45:32.468000,-947.0,225.0,-363.0,-965.0,374.0,-174.0,0.0,0.0,0.0
19:45:32.473000,-975.0,229.0,-352.0,-965.0,374.0,-174.0,0.0,0.0,0.0
19:45:32.478000,-1000.0,235.0,-341.0,-968.0,366.0,-159.0,0.0,0.0,0.0
19:45:32.483000,-1023.0,243.0,-336.0,-968.0,366.0,-159.0,0.0,0.0,0.0
19:45:32.487000,-1051.0,255.0,-344.0,-984.0,362.0,-145.0,0.0,0.0,0.0
19:45:32.492000,-1079.0,268.0,-334.0,-984.0,362.0,-145.0,0.0,0.0,0.0
19:45:32.497000,-1096.0,282.0,-308.0,-991.0,335.0,-137.0,0.0,0.0,0.0
19:45:32.501000,-1106.0,296.0,-291.0,-991.0,335.0,-137.0,0.0,0.0,0.0
19:45:32.506000,-1105.0,314.0,-289.0,-981.0,274.0,-138.0,0.0,0.0,0.0
19:45:32.511000,-1096.0,336.0,-277.0,-981.0,274.0,-138.0,0.0,0.0,0.0
19:45:32.515000,-1077.0,355.0,-257.0,-980.0,207.0,-151.0,0.0,0.0,0.0
19:45:32.520000,-1050.0,375.0,-240.0,-980.0,207.0,-151.0,0.0,0.0,0.0
19:45:32.525000,-1016.0,394.0,-239.0,-980.0,207.0,-151.0,0.0,0.0,0.0
19:45:32.530000,-980.0,410.0,-241.0,-979.0,160.0,-173.0,0.0,0.0,0.0
19:45:32.534000,-939.0,424.0,-231.0,-959.0,142.0,-193.0,0.0,0.0,0.0
19:45:32.539000,-896.0,434.0,-211.0,-959.0,142.0,-193.0,0.0,0.0,0.0
19:45:32.544000,-854.0,444.0,-204.0,-959.0,142.0,-193.0,0.0,0.0,0.0
19:45:32.548000,-816.0,452.0,-193.0,-913.0,131.0,-203.0,0.0,0.0,0.0
19:45:32.553000,-782.0,460.0,-175.0,-913.0,131.0,-203.0,0.0,0.0,0.0
19:45:32.558000,-757.0,468.0,-154.0,-870.0,136.0,-208.0,0.0,0.0,0.0
19:45:32.562000,-737.0,474.0,-132.0,-870.0,136.0,-208.0,0.0,0.0,0.0
19:45:32.567000,-737.0,474.0,-132.0,-849.0,173.0,-208.0,0.0,0.0,0.0
19:45:32.572000,-724.0,480.0,-94.0,-849.0,173.0,-208.0,0.0,0.0,0.0
19:45:32.577000,-711.0,485.0,-47.0,-839.0,198.0,-204.0,0.0,0.0,0.0
19:45:32.581000,-697.0,490.0,0.0,-839.0,198.0,-204.0,0.0,0.0,0.0
19:45:32.586000,-680.0,494.0,42.0,-833.0,187.0,-207.0,0.0,0.0,0.0
19:45:32.591000,-665.0,504.0,77.0,-833.0,187.0,-207.0,0.0,0.0,0.0
19:45:32.595000,-657.0,513.0,123.0,-840.0,183.0,-212.0,0.0,0.0,0.0
19:45:32.600000,-655.0,528.0,170.0,-840.0,183.0,-212.0,0.0,0.0,0.0
19:45:32.605000,-661.0,545.0,201.0,-853.0,210.0,-210.0,0.0,0.0,0.0
19:45:32.609000,-673.0,564.0,229.0,-853.0,210.0,-210.0,0.0,0.0,0.0
19:45:32.614000,-687.0,585.0,256.0,-844.0,237.0,-204.0,0.0,0.0,0.0
19:45:32.619000,-700.0,606.0,274.0,-844.0,237.0,-204.0,0.0,0.0,0.0
19:45:32.624000,-709.0,625.0,285.0,-815.0,229.0,-198.0,0.0,0.0,0.0
19:45:32.628000,-708.0,639.0,287.0,-815.0,229.0,-198.0,0.0,0.0,0.0
19:45:32.633000,-697.0,654.0,277.0,-815.0,229.0,-198.0,0.0,0.0,0.0
19:45:32.638000,-671.0,662.0,268.0,-782.0,173.0,-195.0,0.0,0.0,0.0
19:45:32.642000,-637.0,674.0,250.0,-782.0,173.0,-195.0,0.0,0.0,0.0
19:45:32.647000,-594.0,686.0,231.0,-732.0,86.0,-200.0,0.0,0.0,0.0
19:45:32.652000,-549.0,702.0,212.0,-732.0,86.0,-200.0,0.0,0.0,0.0
19:45:32.656000,-508.0,715.0,198.0,-685.0,20.0,-212.0,0.0,0.0,0.0
19:45:32.661000,-471.0,731.0,196.0,-685.0,20.0,-212.0,0.0,0.0,0.0
19:45:32.666000,-441.0,751.0,200.0,-667.0,2.0,-227.0,0.0,0.0,0.0
19:45:32.671000,-425.0,773.0,211.0,-667.0,2.0,-227.0,0.0,0.0,0.0
19:45:32.675000,-422.0,796.0,230.0,-680.0,32.0,-241.0,0.0,0.0,0.0
19:45:32.680000,-422.0,796.0,230.0,-680.0,32.0,-241.0,0.0,0.0,0.0
19:45:32.685000,-433.0,822.0,251.0,-706.0,90.0,-251.0,0.0,0.0,0.0
19:45:32.689000,-456.0,849.0,278.0,-706.0,90.0,-251.0,0.0,0.0,0.0
19:45:32.694000,-486.0,881.0,309.0,-713.0,133.0,-261.0,0.0,0.0,0.0
19:45:32.699000,-522.0,914.0,339.0,-713.0,133.0,-261.0,0.0,0.0,0.0
19:45:32.703000,-561.0,949.0,360.0,-713.0,150.0,-275.0,0.0,0.0,0.0
19:45:32.708000,-600.0,981.0,374.0,-713.0,150.0,-275.0,0.0,0.0,0.0
19:45:32.713000,-634.0,1010.0,378.0,-717.0,143.0,-288.0,0.0,0.0,0.0
19:45:32.718000,-661.0,1036.0,365.0,-717.0,143.0,-288.0,0.0,0.0,0.0
19:45:32.722000,-679.0,1057.0,343.0,-697.0,99.0,-303.0,0.0,0.0,0.0
19:45:32.727000,-688.0,1071.0,319.0,-697.0,99.0,-303.0,0.0,0.0,0.0
19:45:32.732000,-686.0,1075.0,294.0,-631.0,18.0,-311.0,0.0,0.0,0.0
19:45:32.736000,-675.0,1072.0,263.0,-631.0,18.0,-311.0,0.0,0.0,0.0
19:45:32.741000,-658.0,1066.0,226.0,-631.0,18.0,-311.0,0.0,0.0,0.0
19:45:32.746000,-638.0,1058.0,189.0,-533.0,-57.0,-312.0,0.0,0.0,0.0
19:45:32.750000,-616.0,1047.0,151.0,-533.0,-57.0,-312.0,0.0,0.0,0.0
19:45:32.755000,-598.0,1034.0,117.0,-460.0,-87.0,-310.0,0.0,0.0,0.0
19:45:32.760000,-583.0,1021.0,93.0,-460.0,-87.0,-310.0,0.0,0.0,0.0
19:45:32.765000,-573.0,1008.0,74.0,-438.0,-89.0,-308.0,0.0,0.0,0.0
19:45:32.769000,-569.0,1000.0,67.0,-438.0,-89.0,-308.0,0.0,0.0,0.0
19:45:32.774000,-570.0,998.0,62.0,-429.0,-84.0,-315.0,0.0,0.0,0.0
19:45:32.779000,-579.0,1003.0,56.0,-429.0,-84.0,-315.0,0.0,0.0,0.0
19:45:32.783000,-597.0,1008.0,53.0,-430.0,-56.0,-345.0,0.0,0.0,0.0
19:45:32.788000,-597.0,1008.0,53.0,-430.0,-56.0,-345.0,0.0,0.0,0.0
19:45:32.793000,-616.0,1013.0,53.0,-440.0,-26.0,-387.0,0.0,0.0,0.0
19:45:32.797000,-635.0,1015.0,58.0,-440.0,-26.0,-387.0,0.0,0.0,0.0
19:45:32.802000,-648.0,1013.0,65.0,-396.0,-47.0,-431.0,0.0,0.0,0.0
19:45:32.807000,-653.0,1008.0,71.0,-396.0,-47.0,-431.0,0.0,0.0,0.0
19:45:32.812000,-651.0,1005.0,72.0,-306.0,-104.0,-477.0,0.0,0.0,0.0
19:45:32.816000,-644.0,1001.0,73.0,-306.0,-104.0,-477.0,0.0,0.0,0.0
19:45:32.821000,-634.0,994.0,74.0,-238.0,-152.0,-519.0,0.0,0.0,0.0
19:45:32.825000,-620.0,984.0,72.0,-238.0,-152.0,-519.0,0.0,0.0,0.0
19:45:32.830000,-606.0,972.0,60.0,-188.0,-177.0,-547.0,0.0,0.0,0.0
19:45:32.835000,-591.0,961.0,30.0,-188.0,-177.0,-547.0,0.0,0.0,0.0
19:45:32.840000,-576.0,949.0,-18.0,-136.0,-157.0,-562.0,0.0,0.0,0.0
19:45:32.844000,-561.0,936.0,-84.0,-136.0,-157.0,-562.0,0.0,0.0,0.0
19:45:32.849000,-544.0,924.0,-159.0,-136.0,-157.0,-562.0,0.0,0.0,0.0
19:45:32.854000,-522.0,915.0,-240.0,-97.0,-112.0,-574.0,0.0,0.0,0.0
19:45:32.859000,-502.0,906.0,-326.0,-97.0,-112.0,-574.0,0.0,0.0,0.0
19:45:32.863000,-483.0,898.0,-413.0,-87.0,-74.0,-589.0,0.0,0.0,0.0
19:45:32.868000,-466.0,894.0,-487.0,-87.0,-74.0,-589.0,0.0,0.0,0.0
19:45:32.873000,-450.0,892.0,-541.0,-78.0,-51.0,-605.0,0.0,0.0,0.0
19:45:32.877000,-435.0,895.0,-571.0,-78.0,-51.0,-605.0,0.0,0.0,0.0
19:45:32.882000,-425.0,903.0,-583.0,-44.0,-57.0,-637.0,0.0,0.0,0.0
19:45:32.887000,-424.0,912.0,-583.0,-44.0,-57.0,-637.0,0.0,0.0,0.0
19:45:32.891000,-429.0,925.0,-567.0,-26.0,-68.0,-689.0,0.0,0.0,0.0
19:45:32.896000,-429.0,925.0,-567.0,-26.0,-68.0,-689.0,0.0,0.0,0.0
19:45:32.901000,-438.0,938.0,-536.0,-19.0,-67.0,-757.0,0.0,0.0,0.0
19:45:32.906000,-453.0,952.0,-499.0,-19.0,-67.0,-757.0,0.0,0.0,0.0
19:45:32.910000,-471.0,962.0,-459.0,3.0,-65.0,-827.0,0.0,0.0,0.0
19:45:32.915000,-490.0,973.0,-422.0,3.0,-65.0,-827.0,0.0,0.0,0.0
19:45:32.920000,-507.0,983.0,-388.0,31.0,-61.0,-893.0,0.0,0.0,0.0
19:45:32.924000,-519.0,989.0,-359.0,31.0,-61.0,-893.0,0.0,0.0,0.0
19:45:32.929000,-525.0,990.0,-332.0,61.0,-79.0,-963.0,0.0,0.0,0.0
19:45:32.934000,-523.0,994.0,-312.0,61.0,-79.0,-963.0,0.0,0.0,0.0
19:45:32.938000,-516.0,994.0,-301.0,70.0,-97.0,-1097.0,0.0,0.0,0.0
19:45:32.943000,-509.0,990.0,-296.0,70.0,-97.0,-1097.0,0.0,0.0,0.0
19:45:32.948000,-490.0,949.0,-281.0,119.0,-122.0,-1249.0,0.0,0.0,0.0
19:45:32.953000,-469.0,889.0,-231.0,119.0,-122.0,-1249.0,0.0,0.0,0.0
19:45:32.957000,-448.0,826.0,-164.0,119.0,-151.0,-1307.0,0.0,0.0,0.0
19:45:32.962000,-398.0,756.0,-161.0,258.0,-151.0,-1307.0,0.0,0.0,0.0
19:45:32.967000,-347.0,691.0,-200.0,258.0,-151.0,-1307.0,0.0,0.0,0.0
19:45:32.971000,-326.0,645.0,-198.0,382.0,-142.0,-1261.0,0.0,0.0,0.0
19:45:32.976000,-315.0,611.0,-170.0,382.0,-142.0,-1261.0,0.0,0.0,0.0
19:45:32.981000,-306.0,588.0,-196.0,388.0,-80.0,-1181.0,0.0,0.0,0.0
19:45:32.985000,-308.0,578.0,-291.0,388.0,-80.0,-1181.0,0.0,0.0,0.0
19:45:32.990000,-315.0,578.0,-395.0,219.0,-11.0,-1124.0,0.0,0.0,0.0
19:45:32.995000,-318.0,578.0,-452.0,219.0,-11.0,-1124.0,0.0,0.0,0.0
19:45:33.000000,-322.0,579.0,-462.0,67.0,-17.0,-1085.0,0.0,0.0,0.0
19:45:33.004000,-326.0,584.0,-465.0,67.0,-17.0,-1085.0,0.0,0.0,0.0
19:45:33.009000,-326.0,584.0,-465.0,96.0,-19.0,-1059.0,0.0,0.0,0.0
19:45:33.014000,-329.0,599.0,-494.0,96.0,-19.0,-1059.0,0.0,0.0,0.0
19:45:33.018000,-336.0,620.0,-548.0,92.0,31.0,-1039.0,0.0,0.0,0.0
19:45:33.023000,-347.0,641.0,-615.0,92.0,31.0,-1039.0,0.0,0.0,0.0
19:45:33.028000,-357.0,658.0,-669.0,2.0,37.0,-1019.0,0.0,0.0,0.0
19:45:33.032000,-366.0,673.0,-687.0,2.0,37.0,-1019.0,0.0,0.0,0.0
19:45:33.037000,-371.0,681.0,-683.0,-19.0,2.0,-998.0,0.0,0.0,0.0
19:45:33.042000,-378.0,683.0,-676.0,-19.0,2.0,-998.0,0.0,0.0,0.0
19:45:33.047000,-394.0,680.0,-682.0,19.0,0.0,-975.0,0.0,0.0,0.0
19:45:33.051000,-419.0,671.0,-695.0,19.0,0.0,-975.0,0.0,0.0,0.0
19:45:33.056000,-453.0,660.0,-706.0,77.0,54.0,-948.0,0.0,0.0,0.0
19:45:33.061000,-503.0,644.0,-697.0,77.0,54.0,-948.0,0.0,0.0,0.0
19:45:33.065000,-564.0,624.0,-683.0,128.0,129.0,-926.0,0.0,0.0,0.0
19:45:33.070000,-633.0,606.0,-668.0,128.0,129.0,-926.0,0.0,0.0,0.0
19:45:33.075000,-707.0,587.0,-651.0,128.0,129.0,-926.0,0.0,0.0,0.0
19:45:33.079000,-784.0,563.0,-640.0,127.0,180.0,-916.0,0.0,0.0,0.0
19:45:33.084000,-868.0,541.0,-640.0,127.0,180.0,-916.0,0.0,0.0,0.0
19:45:33.089000,-957.0,516.0,-642.0,90.0,207.0,-909.0,0.0,0.0,0.0
19:45:33.094000,-1050.0,490.0,-638.0,90.0,207.0,-909.0,0.0,0.0,0.0
19:45:33.098000,-1141.0,460.0,-625.0,70.0,215.0,-894.0,0.0,0.0,0.0
19:45:33.103000,-1228.0,429.0,-608.0,70.0,215.0,-894.0,0.0,0.0,0.0
19:45:33.108000,-1318.0,398.0,-601.0,84.0,188.0,-874.0,0.0,0.0,0.0
19:45:33.112000,-1402.0,366.0,-603.0,84.0,188.0,-874.0,0.0,0.0,0.0
19:45:33.117000,-1402.0,366.0,-603.0,99.0,158.0,-855.0,0.0,0.0,0.0
19:45:33.122000,-1484.0,332.0,-588.0,99.0,158.0,-855.0,0.0,0.0,0.0
19:45:33.126000,-1557.0,299.0,-555.0,86.0,114.0,-841.0,0.0,0.0,0.0
19:45:33.131000,-1619.0,261.0,-532.0,86.0,114.0,-841.0,0.0,0.0,0.0
19:45:33.136000,-1675.0,221.0,-543.0,47.0,28.0,-829.0,0.0,0.0,0.0
19:45:33.141000,-1722.0,181.0,-584.0,47.0,28.0,-829.0,0.0,0.0,0.0
19:45:33.145000,-1766.0,141.0,-621.0,51.0,-49.0,-817.0,0.0,0.0,0.0
19:45:33.150000,-1806.0,106.0,-636.0,51.0,-49.0,-817.0,0.0,0.0,0.0
19:45:33.155000,-1848.0,73.0,-655.0,73.0,-77.0,-808.0,0.0,0.0,0.0
19:45:33.159000,-1890.0,41.0,-715.0,73.0,-77.0,-808.0,0.0,0.0,0.0
19:45:33.164000,-1932.0,20.0,-800.0,67.0,-77.0,-803.0,0.0,0.0,0.0
19:45:33.169000,-1973.0,5.0,-865.0,67.0,-77.0,-803.0,0.0,0.0,0.0
19:45:33.173000,-2009.0,-14.0,-900.0,43.0,-103.0,-812.0,0.0,0.0,0.0
19:45:33.178000,-2042.0,-26.0,-926.0,43.0,-103.0,-812.0,0.0,0.0,0.0
19:45:33.183000,-2079.0,-40.0,-987.0,-47.0,-136.0,-833.0,0.0,0.0,0.0
19:45:33.188000,-2114.0,-55.0,-1068.0,-47.0,-136.0,-833.0,0.0,0.0,0.0
19:45:33.192000,-2142.0,-70.0,-1129.0,-47.0,-136.0,-833.0,0.0,0.0,0.0
19:45:33.197000,-2164.0,-95.0,-1154.0,-107.0,-159.0,-858.0,0.0,0.0,0.0
19:45:33.202000,-2179.0,-126.0,-1158.0,-107.0,-159.0,-858.0,0.0,0.0,0.0
19:45:33.206000,-2182.0,-159.0,-1150.0,-75.0,-229.0,-880.0,0.0,0.0,0.0
19:45:33.211000,-2177.0,-197.0,-1143.0,-75.0,-229.0,-880.0,0.0,0.0,0.0
19:45:33.216000,-2162.0,-235.0,-1132.0,-51.0,-345.0,-897.0,0.0,0.0,0.0
19:45:33.220000,-2151.0,-266.0,-1109.0,-51.0,-345.0,-897.0,0.0,0.0,0.0
19:45:33.225000,-2151.0,-266.0,-1109.0,-48.0,-442.0,-908.0,0.0,0.0,0.0
19:45:33.230000,-2143.0,-299.0,-1078.0,-48.0,-442.0,-908.0,0.0,0.0,0.0
19:45:33.235000,-2123.0,-326.0,-1056.0,-51.0,-495.0,-914.0,0.0,0.0,0.0
19:45:33.239000,-2111.0,-339.0,-1062.0,-51.0,-495.0,-914.0,0.0,0.0,0.0
19:45:33.244000,-2102.0,-348.0,-1079.0,-78.0,-528.0,-915.0,0.0,0.0,0.0
19:45:33.249000,-2105.0,-348.0,-1127.0,-78.0,-528.0,-915.0,0.0,0.0,0.0
19:45:33.253000,-2105.0,-346.0,-1229.0,-133.0,-582.0,-904.0,0.0,0.0,0.0
19:45:33.258000,-2098.0,-348.0,-1241.0,-133.0,-582.0,-904.0,0.0,0.0,0.0
19:45:33.263000,-2083.0,-357.0,-1170.0,-123.0,-664.0,-898.0,0.0,0.0,0.0
19:45:33.267000,-2056.0,-368.0,-1187.0,-123.0,-664.0,-898.0,0.0,0.0,0.0
19:45:33.272000,-2033.0,-386.0,-1308.0,-157.0,-619.0,-891.0,0.0,0.0,0.0
19:45:33.277000,-2037.0,-400.0,-1400.0,-157.0,-619.0,-891.0,0.0,0.0,0.0
19:45:33.282000,-2011.0,-420.0,-1388.0,-214.0,-600.0,-878.0,0.0,0.0,0.0
19:45:33.286000,-1978.0,-432.0,-1367.0,-214.0,-600.0,-878.0,0.0,0.0,0.0
19:45:33.291000,-1971.0,-482.0,-1402.0,-214.0,-600.0,-878.0,0.0,0.0,0.0
19:45:33.296000,-1948.0,-495.0,-1444.0,-219.0,-687.0,-853.0,0.0,0.0,0.0
19:45:33.300000,-1924.0,-515.0,-1428.0,-219.0,-687.0,-853.0,0.0,0.0,0.0
19:45:33.305000,-1866.0,-564.0,-1365.0,-289.0,-725.0,-837.0,0.0,0.0,0.0
19:45:33.310000,-1863.0,-560.0,-1276.0,-289.0,-725.0,-837.0,0.0,0.0,0.0
19:45:33.314000,-1883.0,-571.0,-1337.0,-371.0,-775.0,-834.0,0.0,0.0,0.0
19:45:33.319000,-1921.0,-576.0,-1456.0,-371.0,-775.0,-834.0,0.0,0.0,0.0
19:45:33.324000,-1946.0,-597.0,-1490.0,-420.0,-784.0,-801.0,0.0,0.0,0.0
19:45:33.329000,-1852.0,-592.0,-1405.0,-420.0,-784.0,-801.0,0.0,0.0,0.0
19:45:33.333000,-1852.0,-592.0,-1405.0,-414.0,-732.0,-781.0,0.0,0.0,0.0
19:45:33.338000,-1822.0,-576.0,-1244.0,-414.0,-732.0,-781.0,0.0,0.0,0.0
19:45:33.343000,-1787.0,-564.0,-1182.0,-410.0,-734.0,-760.0,0.0,0.0,0.0
19:45:33.347000,-1787.0,-558.0,-1162.0,-410.0,-734.0,-760.0,0.0,0.0,0.0
19:45:33.352000,-1722.0,-589.0,-1148.0,-508.0,-841.0,-711.0,0.0,0.0,0.0
19:45:33.357000,-1734.0,-559.0,-1091.0,-508.0,-841.0,-711.0,0.0,0.0,0.0
19:45:33.361000,-1683.0,-553.0,-1010.0,-533.0,-941.0,-684.0,0.0,0.0,0.0
19:45:33.366000,-1660.0,-531.0,-931.0,-533.0,-941.0,-684.0,0.0,0.0,0.0
19:45:33.371000,-1551.0,-513.0,-907.0,-422.0,-928.0,-679.0,0.0,0.0,0.0
19:45:33.376000,-1500.0,-514.0,-936.0,-422.0,-928.0,-679.0,0.0,0.0,0.0
19:45:33.380000,-1491.0,-509.0,-943.0,-446.0,-812.0,-663.0,0.0,0.0,0.0
19:45:33.385000,-1463.0,-515.0,-942.0,-446.0,-812.0,-663.0,0.0,0.0,0.0
19:45:33.390000,-1457.0,-520.0,-982.0,-564.0,-696.0,-633.0,0.0,0.0,0.0
19:45:33.394000,-1468.0,-512.0,-1037.0,-564.0,-696.0,-633.0,0.0,0.0,0.0
19:45:33.399000,-1442.0,-508.0,-1061.0,-564.0,-696.0,-633.0,0.0,0.0,0.0
19:45:33.404000,-1425.0,-504.0,-1041.0,-597.0,-713.0,-618.0,0.0,0.0,0.0
19:45:33.408000,-1383.0,-505.0,-959.0,-597.0,-713.0,-618.0,0.0,0.0,0.0
19:45:33.413000,-1347.0,-507.0,-943.0,-608.0,-757.0,-604.0,0.0,0.0,0.0
19:45:33.418000,-1343.0,-495.0,-821.0,-608.0,-757.0,-604.0,0.0,0.0,0.0
19:45:33.423000,-1333.0,-480.0,-627.0,-654.0,-752.0,-580.0,0.0,0.0,0.0
19:45:33.427000,-1320.0,-464.0,-595.0,-654.0,-752.0,-580.0,0.0,0.0,0.0
19:45:33.432000,-1265.0,-455.0,-630.0,-713.0,-827.0,-568.0,0.0,0.0,0.0
19:45:33.437000,-1213.0,-443.0,-560.0,-713.0,-827.0,-568.0,0.0,0.0,0.0
19:45:33.441000,-1142.0,-434.0,-431.0,-767.0,-937.0,-568.0,0.0,0.0,0.0
19:45:33.446000,-1142.0,-434.0,-431.0,-767.0,-937.0,-568.0,0.0,0.0,0.0
19:45:33.451000,-1103.0,-420.0,-429.0,-796.0,-935.0,-534.0,0.0,0.0,0.0
19:45:33.455000,-1052.0,-412.0,-608.0,-796.0,-935.0,-534.0,0.0,0.0,0.0
19:45:33.460000,-1057.0,-385.0,-705.0,-673.0,-913.0,-435.0,0.0,0.0,0.0
19:45:33.465000,-997.0,-371.0,-588.0,-673.0,-913.0,-435.0,0.0,0.0,0.0
19:45:33.470000,-1019.0,-372.0,-507.0,-448.0,-785.0,-386.0,0.0,0.0,0.0
19:45:33.474000,-990.0,-385.0,-509.0,-448.0,-785.0,-386.0,0.0,0.0,0.0
19:45:33.479000,-1019.0,-371.0,-521.0,-502.0,-594.0,-369.0,0.0,0.0,0.0
19:45:33.484000,-1018.0,-340.0,-518.0,-502.0,-594.0,-369.0,0.0,0.0,0.0
19:45:33.488000,-987.0,-319.0,-464.0,-753.0,-708.0,-333.0,0.0,0.0,0.0
19:45:33.493000,-942.0,-291.0,-413.0,-753.0,-708.0,-333.0,0.0,0.0,0.0
19:45:33.498000,-911.0,-275.0,-366.0,-904.0,-837.0,-325.0,0.0,0.0,0.0
19:45:33.502000,-917.0,-259.0,-296.0,-904.0,-837.0,-325.0,0.0,0.0,0.0
19:45:33.507000,-903.0,-237.0,-222.0,-904.0,-837.0,-325.0,0.0,0.0,0.0
19:45:33.512000,-894.0,-220.0,-254.0,-925.0,-755.0,-320.0,0.0,0.0,0.0
19:45:33.517000,-904.0,-207.0,-343.0,-925.0,-755.0,-320.0,0.0,0.0,0.0
19:45:33.521000,-903.0,-196.0,-356.0,-854.0,-688.0,-315.0,0.0,0.0,0.0
19:45:33.526000,-894.0,-182.0,-314.0,-854.0,-688.0,-315.0,0.0,0.0,0.0
19:45:33.531000,-877.0,-161.0,-314.0,-807.0,-723.0,-310.0,0.0,0.0,0.0
19:45:33.535000,-855.0,-135.0,-375.0,-807.0,-723.0,-310.0,0.0,0.0,0.0
19:45:33.540000,-833.0,-113.0,-432.0,-869.0,-771.0,-325.0,0.0,0.0,0.0
19:45:33.545000,-805.0,-98.0,-464.0,-869.0,-771.0,-325.0,0.0,0.0,0.0
19:45:33.549000,-780.0,-90.0,-505.0,-941.0,-761.0,-348.0,0.0,0.0,0.0
19:45:33.554000,-780.0,-90.0,-505.0,-941.0,-761.0,-348.0,0.0,0.0,0.0
19:45:33.559000,-762.0,-85.0,-553.0,-936.0,-706.0,-368.0,0.0,0.0,0.0
19:45:33.564000,-738.0,-81.0,-576.0,-936.0,-706.0,-368.0,0.0,0.0,0.0
19:45:33.568000,-722.0,-73.0,-562.0,-914.0,-668.0,-384.0,0.0,0.0,0.0
19:45:33.573000,-700.0,-70.0,-552.0,-914.0,-668.0,-384.0,0.0,0.0,0.0
19:45:33.578000,-663.0,-73.0,-594.0,-914.0,-662.0,-403.0,0.0,0.0,0.0
19:45:33.582000,-625.0,-81.0,-658.0,-914.0,-662.0,-403.0,0.0,0.0,0.0
19:45:33.587000,-592.0,-89.0,-663.0,-886.0,-610.0,-420.0,0.0,0.0,0.0
19:45:33.592000,-562.0,-95.0,-632.0,-886.0,-610.0,-420.0,0.0,0.0,0.0
19:45:33.596000,-548.0,-101.0,-612.0,-858.0,-507.0,-427.0,0.0,0.0,0.0
19:45:33.601000,-531.0,-106.0,-616.0,-858.0,-507.0,-427.0,0.0,0.0,0.0
19:45:33.606000,-523.0,-106.0,-583.0,-884.0,-453.0,-439.0,0.0,0.0,0.0
19:45:33.611000,-504.0,-109.0,-548.0,-884.0,-453.0,-439.0,0.0,0.0,0.0
19:45:33.615000,-485.0,-113.0,-576.0,-884.0,-453.0,-439.0,0.0,0.0,0.0
19:45:33.620000,-470.0,-114.0,-597.0,-931.0,-411.0,-457.0,0.0,0.0,0.0
19:45:33.625000,-461.0,-114.0,-578.0,-931.0,-411.0,-457.0,0.0,0.0,0.0
19:45:33.629000,-450.0,-115.0,-547.0,-969.0,-346.0,-469.0,0.0,0.0,0.0
19:45:33.634000,-432.0,-115.0,-542.0,-969.0,-346.0,-469.0,0.0,0.0,0.0
19:45:33.639000,-412.0,-114.0,-547.0,-1005.0,-316.0,-471.0,0.0,0.0,0.0
19:45:33.643000,-380.0,-107.0,-530.0,-1005.0,-316.0,-471.0,0.0,0.0,0.0
19:45:33.648000,-351.0,-79.0,-497.0,-1120.0,-320.0,-419.0,0.0,0.0,0.0
19:45:33.653000,-317.0,-65.0,-436.0,-1120.0,-320.0,-419.0,0.0,0.0,0.0
19:45:33.658000,-326.0,-58.0,-411.0,-1067.0,-311.0,-376.0,0.0,0.0,0.0
19:45:33.662000,-326.0,-58.0,-411.0,-1067.0,-311.0,-376.0,0.0,0.0,0.0
19:45:33.667000,-339.0,-61.0,-390.0,-938.0,-226.0,-349.0,0.0,0.0,0.0
19:45:33.672000,-375.0,-37.0,-405.0,-938.0,-226.0,-349.0,0.0,0.0,0.0
19:45:33.676000,-356.0,-28.0,-431.0,-1050.0,-221.0,-359.0,0.0,0.0,0.0
19:45:33.681000,-331.0,-23.0,-408.0,-1050.0,-221.0,-359.0,0.0,0.0,0.0
19:45:33.686000,-310.0,-14.0,-375.0,-1122.0,-262.0,-389.0,0.0,0.0,0.0
19:45:33.690000,-294.0,-14.0,-358.0,-1122.0,-262.0,-389.0,0.0,0.0,0.0
19:45:33.695000,-280.0,-14.0,-352.0,-1110.0,-213.0,-386.0,0.0,0.0,0.0
19:45:33.700000,-256.0,-16.0,-329.0,-1110.0,-213.0,-386.0,0.0,0.0,0.0
19:45:33.705000,-231.0,-24.0,-271.0,-1082.0,-221.0,-400.0,0.0,0.0,0.0
19:45:33.709000,-214.0,-27.0,-210.0,-1082.0,-221.0,-400.0,0.0,0.0,0.0
19:45:33.714000,-200.0,-32.0,-170.0,-1068.0,-231.0,-404.0,0.0,0.0,0.0
19:45:33.718000,-190.0,-42.0,-179.0,-1068.0,-231.0,-404.0,0.0,0.0,0.0
19:45:33.723000,-188.0,-49.0,-217.0,-1068.0,-168.0,-404.0,0.0,0.0,0.0
19:45:33.728000,-184.0,-52.0,-235.0,-1080.0,-166.0,-400.0,0.0,0.0,0.0
19:45:33.733000,-184.0,-56.0,-238.0,-1080.0,-166.0,-400.0,0.0,0.0,0.0
19:45:33.737000,-186.0,-56.0,-231.0,-1066.0,-139.0,-384.0,0.0,0.0,0.0
19:45:33.742000,-175.0,-58.0,-203.0,-1066.0,-139.0,-384.0,0.0,0.0,0.0
19:45:33.747000,-165.0,-67.0,-169.0,-1053.0,-147.0,-378.0,0.0,0.0,0.0
19:45:33.752000,-166.0,-75.0,-156.0,-1053.0,-147.0,-378.0,0.0,0.0,0.0
19:45:33.756000,-149.0,-75.0,-156.0,-1055.0,-121.0,-375.0,0.0,0.0,0.0
19:45:33.761000,-128.0,-107.0,-68.0,-1055.0,-121.0,-375.0,0.0,0.0,0.0
19:45:33.766000,-86.0,-119.0,-60.0,-1102.0,-137.0,-375.0,0.0,0.0,0.0
19:45:33.770000,-86.0,-119.0,-60.0,-1102.0,-137.0,-375.0,0.0,0.0,0.0
19:45:33.775000,-14.0,-139.0,-37.0,-1153.0,-214.0,-390.0,0.0,0.0,0.0
19:45:33.780000,68.0,-157.0,-11.0,-1153.0,-214.0,-390.0,0.0,0.0,0.0
19:45:33.784000,179.0,-177.0,-2.0,-1199.0,-304.0,-408.0,0.0,0.0,0.0
19:45:33.789000,299.0,-187.0,-18.0,-1199.0,-304.0,-408.0,0.0,0.0,0.0
19:45:33.794000,396.0,-186.0,-20.0,-1297.0,-361.0,-416.0,0.0,0.0,0.0
19:45:33.799000,480.0,-171.0,11.0,-1297.0,-361.0,-416.0,0.0,0.0,0.0
19:45:33.803000,585.0,-164.0,50.0,-1399.0,-276.0,-427.0,0.0,0.0,0.0
19:45:33.808000,655.0,-158.0,143.0,-1399.0,-276.0,-427.0,0.0,0.0,0.0
19:45:33.813000,700.0,-146.0,238.0,-1459.0,-118.0,-432.0,0.0,0.0,0.0
19:45:33.817000,716.0,-137.0,310.0,-1459.0,-118.0,-432.0,0.0,0.0,0.0
19:45:33.822000,692.0,-121.0,324.0,-1503.0,40.0,-407.0,0.0,0.0,0.0
19:45:33.827000,655.0,-105.0,355.0,-1503.0,40.0,-407.0,0.0,0.0,0.0
19:45:33.831000,618.0,-96.0,410.0,-1495.0,116.0,-378.0,0.0,0.0,0.0
19:45:33.836000,541.0,-84.0,397.0,-1495.0,116.0,-378.0,0.0,0.0,0.0
19:45:33.841000,445.0,-76.0,363.0,-1495.0,116.0,-378.0,0.0,0.0,0.0
19:45:33.846000,365.0,-59.0,287.0,-1538.0,130.0,-356.0,0.0,0.0,0.0
19:45:33.850000,311.0,-68.0,157.0,-1538.0,130.0,-356.0,0.0,0.0,0.0
19:45:33.855000,230.0,-71.0,219.0,-1568.0,163.0,-357.0,0.0,0.0,0.0
19:45:33.860000,158.0,-49.0,611.0,-1568.0,163.0,-357.0,0.0,0.0,0.0
19:45:33.864000,107.0,-34.0,770.0,-1531.0,108.0,-358.0,0.0,0.0,0.0
19:45:33.869000,3.0,-22.0,585.0,-1531.0,108.0,-358.0,0.0,0.0,0.0
19:45:33.874000,-51.0,-21.0,492.0,-1553.0,43.0,-322.0,0.0,0.0,0.0
19:45:33.878000,-98.0,-59.0,333.0,-1553.0,43.0,-322.0,0.0,0.0,0.0
19:45:33.883000,-98.0,-59.0,333.0,-1507.0,85.0,-278.0,0.0,0.0,0.0
19:45:33.888000,-57.0,-86.0,194.0,-1507.0,85.0,-278.0,0.0,0.0,0.0
19:45:33.893000,105.0,-123.0,63.0,-1421.0,-66.0,-279.0,0.0,0.0,0.0
19:45:33.897000,107.0,-140.0,-354.0,-1421.0,-66.0,-279.0,0.0,0.0,0.0
19:45:33.902000,12.0,-80.0,-499.0,-1348.0,-220.0,-270.0,0.0,0.0,0.0
19:45:33.907000,-89.0,-112.0,-201.0,-1348.0,-220.0,-270.0,0.0,0.0,0.0
19:45:33.911000,-188.0,-77.0,-122.0,-1276.0,-55.0,-191.0,0.0,0.0,0.0
19:45:33.916000,-281.0,-91.0,-340.0,-1276.0,-55.0,-191.0,0.0,0.0,0.0
19:45:33.921000,-254.0,-104.0,-469.0,-1233.0,-212.0,-146.0,0.0,0.0,0.0
19:45:33.925000,-272.0,-146.0,-522.0,-1233.0,-212.0,-146.0,0.0,0.0,0.0
19:45:33.930000,-346.0,-184.0,-387.0,-1077.0,-511.0,-126.0,0.0,0.0,0.0
19:45:33.935000,-374.0,-211.0,-156.0,-1077.0,-511.0,-126.0,0.0,0.0,0.0
19:45:33.940000,-530.0,-222.0,-11.0,-848.0,-398.0,-61.0,0.0,0.0,0.0
19:45:33.944000,-614.0,-180.0,-84.0,-848.0,-398.0,-61.0,0.0,0.0,0.0
19:45:33.949000,-636.0,-120.0,-18.0,-705.0,-669.0,-39.0,0.0,0.0,0.0
19:45:33.954000,-345.0,-250.0,-20.0,-705.0,-669.0,-39.0,0.0,0.0,0.0
19:45:33.958000,-384.0,-225.0,96.0,-705.0,-669.0,-39.0,0.0,0.0,0.0
19:45:33.963000,-539.0,-193.0,313.0,-504.0,-1180.0,-31.0,0.0,0.0,0.0
19:45:33.968000,-519.0,-221.0,133.0,-504.0,-1180.0,-31.0,0.0,0.0,0.0
19:45:33.972000,-365.0,-194.0,-200.0,-264.0,-1088.0,34.0,0.0,0.0,0.0
19:45:33.977000,-256.0,-213.0,-385.0,-264.0,-1088.0,34.0,0.0,0.0,0.0
19:45:33.982000,-172.0,-147.0,-267.0,-242.0,-1281.0,42.0,0.0,0.0,0.0
19:45:33.986000,52.0,-184.0,44.0,-242.0,-1281.0,42.0,0.0,0.0,0.0
19:45:33.991000,52.0,-184.0,44.0,-383.0,-1361.0,53.0,0.0,0.0,0.0
19:45:33.996000,-131.0,-181.0,-301.0,-383.0,-1361.0,53.0,0.0,0.0,0.0
19:45:34.001000,-305.0,-105.0,-700.0,-356.0,-759.0,84.0,0.0,0.0,0.0
19:45:34.005000,-194.0,-100.0,-994.0,-356.0,-759.0,84.0,0.0,0.0,0.0
19:45:34.010000,-88.0,-58.0,-1051.0,-423.0,-788.0,43.0,0.0,0.0,0.0
19:45:34.015000,122.0,-107.0,-1111.0,-423.0,-788.0,43.0,0.0,0.0,0.0
19:45:34.019000,21.0,19.0,-1165.0,-736.0,-929.0,-23.0,0.0,0.0,0.0
19:45:34.024000,115.0,-16.0,-1001.0,-736.0,-929.0,-23.0,0.0,0.0,0.0
19:45:34.029000,102.0,-67.0,-712.0,-751.0,-660.0,-22.0,0.0,0.0,0.0
19:45:34.033000,-191.0,0.0,-935.0,-751.0,-660.0,-22.0,0.0,0.0,0.0
19:45:34.038000,-176.0,35.0,-965.0,-562.0,-570.0,-5.0,0.0,0.0,0.0
19:45:34.043000,-197.0,22.0,-583.0,-562.0,-570.0,-5.0,0.0,0.0,0.0
19:45:34.048000,-153.0,12.0,-452.0,-593.0,-580.0,-59.0,0.0,0.0,0.0
19:45:34.052000,-242.0,108.0,-509.0,-593.0,-580.0,-59.0,0.0,0.0,0.0
19:45:34.057000,-298.0,85.0,-520.0,-593.0,-580.0,-59.0,0.0,0.0,0.0
19:45:34.062000,-238.0,13.0,-441.0,-705.0,-521.0,-69.0,0.0,0.0,0.0
19:45:34.066000,-117.0,-37.0,-324.0,-705.0,-521.0,-69.0,0.0,0.0,0.0
19:45:34.071000,-13.0,-65.0,-257.0,-634.0,-597.0,-63.0,0.0,0.0,0.0
19:45:34.076000,30.0,-85.0,-137.0,-634.0,-597.0,-63.0,0.0,0.0,0.0
19:45:34.080000,-32.0,-49.0,-120.0,-594.0,-730.0,-76.0,0.0,0.0,0.0
19:45:34.085000,-105.0,0.0,-35.0,-594.0,-730.0,-76.0,0.0,0.0,0.0
19:45:34.090000,-192.0,55.0,25.0,-597.0,-668.0,-71.0,0.0,0.0,0.0
19:45:34.095000,-241.0,22.0,-150.0,-597.0,-668.0,-71.0,0.0,0.0,0.0
19:45:34.099000,-241.0,22.0,-150.0,-558.0,-653.0,-72.0,0.0,0.0,0.0
19:45:34.104000,-252.0,-4.0,-326.0,-558.0,-653.0,-72.0,0.0,0.0,0.0
19:45:34.109000,-204.0,0.0,-513.0,-590.0,-584.0,-88.0,0.0,0.0,0.0
19:45:34.113000,-179.0,-12.0,-533.0,-590.0,-584.0,-88.0,0.0,0.0,0.0
19:45:34.118000,-156.0,-22.0,-541.0,-610.0,-650.0,-101.0,0.0,0.0,0.0
19:45:34.123000,-180.0,-53.0,-592.0,-610.0,-650.0,-101.0,0.0,0.0,0.0
19:45:34.127000,-218.0,-72.0,-494.0,-644.0,-747.0,-94.0,0.0,0.0,0.0
19:45:34.132000,-270.0,-40.0,-407.0,-644.0,-747.0,-94.0,0.0,0.0,0.0
19:45:34.137000,-323.0,-38.0,-441.0,-753.0,-660.0,-91.0,0.0,0.0,0.0
19:45:34.142000,-301.0,-37.0,-560.0,-753.0,-660.0,-91.0,0.0,0.0,0.0
19:45:34.146000,-170.0,-82.0,-604.0,-767.0,-636.0,-109.0,0.0,0.0,0.0
19:45:34.151000,-123.0,-118.0,-660.0,-767.0,-636.0,-109.0,0.0,0.0,0.0
19:45:34.156000,-110.0,-133.0,-658.0,-769.0,-677.0,-116.0,0.0,0.0,0.0
19:45:34.160000,-202.0,-141.0,-697.0,-769.0,-677.0,-116.0,0.0,0.0,0.0
19:45:34.165000,-242.0,-118.0,-613.0,-769.0,-677.0,-116.0,0.0,0.0,0.0
19:45:34.170000,-202.0,-158.0,-629.0,-753.0,-677.0,-95.0,0.0,0.0,0.0
19:45:34.174000,-247.0,-153.0,-694.0,-753.0,-677.0,-95.0,0.0,0.0,0.0
19:45:34.179000,-262.0,-97.0,-597.0,-661.0,-647.0,-75.0,0.0,0.0,0.0
19:45:34.184000,-265.0,-85.0,-520.0,-661.0,-647.0,-75.0,0.0,0.0,0.0
19:45:34.189000,-208.0,-67.0,-583.0,-733.0,-643.0,-86.0,0.0,0.0,0.0
19:45:34.193000,-72.0,-65.0,-730.0,-733.0,-643.0,-86.0,0.0,0.0,0.0
19:45:34.198000,-4.0,-78.0,-611.0,-877.0,-673.0,-114.0,0.0,0.0,0.0
19:45:34.203000,-45.0,-58.0,-445.0,-877.0,-673.0,-114.0,0.0,0.0,0.0
19:45:34.207000,-45.0,-58.0,-445.0,-949.0,-705.0,-128.0,0.0,0.0,0.0
19:45:34.212000,-41.0,-42.0,-401.0,-949.0,-705.0,-128.0,0.0,0.0,0.0
19:45:34.217000,-32.0,-29.0,-466.0,-872.0,-576.0,-119.0,0.0,0.0,0.0
19:45:34.221000,12.0,-5.0,-541.0,-872.0,-576.0,-119.0,0.0,0.0,0.0
19:45:34.226000,86.0,-21.0,-590.0,-781.0,-590.0,-104.0,0.0,0.0,0.0
19:45:34.231000,112.0,-28.0,-652.0,-781.0,-590.0,-104.0,0.0,0.0,0.0
19:45:34.236000,31.0,16.0,-661.0,-804.0,-643.0,-107.0,0.0,0.0,0.0
19:45:34.240000,20.0,37.0,-572.0,-804.0,-643.0,-107.0,0.0,0.0,0.0
19:45:34.245000,-68.0,42.0,-522.0,-914.0,-546.0,-112.0,0.0,0.0,0.0
19:45:34.250000,-139.0,75.0,-492.0,-914.0,-546.0,-112.0,0.0,0.0,0.0
19:45:34.254000,-160.0,77.0,-434.0,-910.0,-495.0,-114.0,0.0,0.0,0.0
19:45:34.259000,-113.0,51.0,-424.0,-910.0,-495.0,-114.0,0.0,0.0,0.0
19:45:34.264000,-92.0,58.0,-483.0,-808.0,-501.0,-114.0,0.0,0.0,0.0
19:45:34.268000,-21.0,65.0,-605.0,-808.0,-501.0,-114.0,0.0,0.0,0.0
19:45:34.273000,-14.0,72.0,-673.0,-808.0,-501.0,-114.0,0.0,0.0,0.0
19:45:34.278000,-23.0,76.0,-616.0,-829.0,-577.0,-100.0,0.0,0.0,0.0
19:45:34.283000,6.0,83.0,-534.0,-829.0,-577.0,-100.0,0.0,0.0,0.0
19:45:34.287000,4.0,110.0,-483.0,-885.0,-635.0,-99.0,0.0,0.0,0.0
19:45:34.292000,-11.0,131.0,-471.0,-885.0,-635.0,-99.0,0.0,0.0,0.0
19:45:34.297000,32.0,139.0,-527.0,-909.0,-568.0,-112.0,0.0,0.0,0.0
19:45:34.301000,82.0,133.0,-574.0,-909.0,-568.0,-112.0,0.0,0.0,0.0
19:45:34.306000,63.0,130.0,-581.0,-890.0,-505.0,-106.0,0.0,0.0,0.0
19:45:34.311000,42.0,139.0,-599.0,-890.0,-505.0,-106.0,0.0,0.0,0.0
19:45:34.315000,47.0,147.0,-664.0,-882.0,-517.0,-100.0,0.0,0.0,0.0
19:45:34.320000,47.0,147.0,-664.0,-882.0,-517.0,-100.0,0.0,0.0,0.0
19:45:34.325000,39.0,179.0,-690.0,-899.0,-564.0,-121.0,0.0,0.0,0.0
19:45:34.330000,57.0,215.0,-638.0,-899.0,-564.0,-121.0,0.0,0.0,0.0
19:45:34.334000,83.0,198.0,-613.0,-906.0,-600.0,-126.0,0.0,0.0,0.0
19:45:34.339000,56.0,189.0,-506.0,-906.0,-600.0,-126.0,0.0,0.0,0.0
19:45:34.344000,23.0,214.0,-368.0,-868.0,-473.0,-111.0,0.0,0.0,0.0
19:45:34.348000,48.0,252.0,-344.0,-868.0,-473.0,-111.0,0.0,0.0,0.0
19:45:34.353000,86.0,249.0,-399.0,-880.0,-386.0,-102.0,0.0,0.0,0.0
19:45:34.358000,103.0,244.0,-526.0,-880.0,-386.0,-102.0,0.0,0.0,0.0
19:45:34.362000,127.0,252.0,-634.0,-922.0,-442.0,-98.0,0.0,0.0,0.0
19:45:34.367000,116.0,273.0,-685.0,-922.0,-442.0,-98.0,0.0,0.0,0.0
19:45:34.372000,114.0,273.0,-732.0,-899.0,-475.0,-105.0,0.0,0.0,0.0
19:45:34.377000,89.0,291.0,-668.0,-899.0,-475.0,-105.0,0.0,0.0,0.0
19:45:34.381000,114.0,290.0,-532.0,-899.0,-475.0,-105.0,0.0,0.0,0.0
19:45:34.386000,124.0,296.0,-483.0,-836.0,-425.0,-110.0,0.0,0.0,0.0
19:45:34.391000,133.0,294.0,-567.0,-836.0,-425.0,-110.0,0.0,0.0,0.0
19:45:34.395000,129.0,294.0,-638.0,-838.0,-312.0,-106.0,0.0,0.0,0.0
19:45:34.400000,135.0,289.0,-592.0,-838.0,-312.0,-106.0,0.0,0.0,0.0
19:45:34.405000,118.0,295.0,-546.0,-898.0,-310.0,-101.0,0.0,0.0,0.0
19:45:34.409000,105.0,312.0,-560.0,-898.0,-310.0,-101.0,0.0,0.0,0.0
19:45:34.414000,102.0,314.0,-579.0,-919.0,-301.0,-108.0,0.0,0.0,0.0
19:45:34.419000,105.0,293.0,-574.0,-919.0,-301.0,-108.0,0.0,0.0,0.0
19:45:34.424000,114.0,270.0,-570.0,-925.0,-259.0,-110.0,0.0,0.0,0.0
19:45:34.428000,114.0,270.0,-570.0,-925.0,-259.0,-110.0,0.0,0.0,0.0
19:45:34.433000,106.0,268.0,-511.0,-898.0,-323.0,-116.0,0.0,0.0,0.0
19:45:34.438000,121.0,242.0,-403.0,-898.0,-323.0,-116.0,0.0,0.0,0.0
19:45:34.442000,137.0,217.0,-406.0,-856.0,-329.0,-126.0,0.0,0.0,0.0
19:45:34.447000,107.0,207.0,-434.0,-856.0,-329.0,-126.0,0.0,0.0,0.0
19:45:34.452000,84.0,190.0,-351.0,-814.0,-311.0,-119.0,0.0,0.0,0.0
19:45:34.456000,52.0,180.0,-207.0,-814.0,-311.0,-119.0,0.0,0.0,0.0
19:45:34.461000,22.0,183.0,-196.0,-826.0,-290.0,-123.0,0.0,0.0,0.0
19:45:34.466000,35.0,187.0,-308.0,-826.0,-290.0,-123.0,0.0,0.0,0.0
19:45:34.471000,45.0,179.0,-330.0,-851.0,-260.0,-137.0,0.0,0.0,0.0
19:45:34.475000,27.0,163.0,-256.0,-851.0,-260.0,-137.0,0.0,0.0,0.0
19:45:34.480000,9.0,145.0,-254.0,-850.0,-223.0,-136.0,0.0,0.0,0.0
19:45:34.485000,1.0,142.0,-351.0,-850.0,-223.0,-136.0,0.0,0.0,0.0
19:45:34.489000,-10.0,153.0,-414.0,-850.0,-223.0,-136.0,0.0,0.0,0.0
19:45:34.494000,-17.0,161.0,-414.0,-875.0,-192.0,-146.0,0.0,0.0,0.0
19:45:34.499000,-14.0,175.0,-380.0,-875.0,-192.0,-146.0,0.0,0.0,0.0
19:45:34.503000,36.0,169.0,-354.0,-911.0,-270.0,-162.0,0.0,0.0,0.0
19:45:34.508000,60.0,158.0,-346.0,-911.0,-270.0,-162.0,0.0,0.0,0.0
19:45:34.513000,54.0,140.0,-374.0,-941.0,-301.0,-157.0,0.0,0.0,0.0
19:45:34.518000,22.0,133.0,-397.0,-941.0,-301.0,-157.0,0.0,0.0,0.0
19:45:34.522000,16.0,118.0,-427.0,-911.0,-243.0,-146.0,0.0,0.0,0.0
19:45:34.527000,-14.0,88.0,-454.0,-911.0,-243.0,-146.0,0.0,0.0,0.0
19:45:34.532000,-26.0,89.0,-438.0,-886.0,-256.0,-154.0,0.0,0.0,0.0
19:45:34.536000,-26.0,89.0,-438.0,-886.0,-256.0,-154.0,0.0,0.0,0.0
19:45:34.541000,-16.0,57.0,-451.0,-930.0,-257.0,-172.0,0.0,0.0,0.0
19:45:34.546000,-25.0,37.0,-483.0,-930.0,-257.0,-172.0,0.0,0.0,0.0
19:45:34.550000,7.0,14.0,-530.0,-957.0,-193.0,-196.0,0.0,0.0,0.0
19:45:34.555000,23.0,-25.0,-605.0,-957.0,-193.0,-196.0,0.0,0.0,0.0
19:45:34.560000,-22.0,-9.0,-616.0,-935.0,-170.0,-209.0,0.0,0.0,0.0
19:45:34.565000,-10.0,-32.0,-677.0,-935.0,-170.0,-209.0,0.0,0.0,0.0
19:45:34.569000,-76.0,-22.0,-654.0,-931.0,-285.0,-206.0,0.0,0.0,0.0
19:45:34.574000,-58.0,-29.0,-513.0,-931.0,-285.0,-206.0,0.0,0.0,0.0
19:45:34.579000,-58.0,-28.0,-490.0,-975.0,-267.0,-211.0,0.0,0.0,0.0
19:45:34.583000,-49.0,-35.0,-579.0,-975.0,-267.0,-211.0,0.0,0.0,0.0
19:45:34.588000,-67.0,-44.0,-569.0,-984.0,-169.0,-204.0,0.0,0.0,0.0
19:45:34.593000,-65.0,-51.0,-501.0,-984.0,-169.0,-204.0,0.0,0.0,0.0
19:45:34.597000,-35.0,-60.0,-485.0,-984.0,-260.0,-204.0,0.0,0.0,0.0
19:45:34.602000,6.0,-79.0,-501.0,-934.0,-260.0,-204.0,0.0,0.0,0.0
19:45:34.607000,37.0,-109.0,-476.0,-934.0,-260.0,-204.0,0.0,0.0,0.0
19:45:34.612000,54.0,-130.0,-431.0,-889.0,-282.0,-215.0,0.0,0.0,0.0
19:45:34.616000,61.0,-139.0,-403.0,-889.0,-282.0,-215.0,0.0,0.0,0.0
19:45:34.621000,79.0,-146.0,-406.0,-874.0,-201.0,-218.0,0.0,0.0,0.0
19:45:34.626000,96.0,-144.0,-415.0,-874.0,-201.0,-218.0,0.0,0.0,0.0
19:45:34.630000,112.0,-139.0,-422.0,-904.0,-152.0,-221.0,0.0,0.0,0.0
19:45:34.635000,120.0,-135.0,-417.0,-904.0,-152.0,-221.0,0.0,0.0,0.0
19:45:34.640000,119.0,-133.0,-401.0,-937.0,-137.0,-216.0,0.0,0.0,0.0
19:45:34.644000,119.0,-133.0,-401.0,-937.0,-137.0,-216.0,0.0,0.0,0.0
19:45:34.649000,119.0,-118.0,-375.0,-938.0,-115.0,-207.0,0.0,0.0,0.0
19:45:34.654000,114.0,-99.0,-329.0,-938.0,-115.0,-207.0,0.0,0.0,0.0
19:45:34.659000,95.0,-86.0,-270.0,-961.0,-102.0,-197.0,0.0,0.0,0.0
19:45:34.663000,89.0,-72.0,-240.0,-961.0,-102.0,-197.0,0.0,0.0,0.0
19:45:34.668000,77.0,-52.0,-222.0,-1014.0,-112.0,-188.0,0.0,0.0,0.0
19:45:34.673000,51.0,-30.0,-196.0,-1014.0,-112.0,-188.0,0.0,0.0,0.0
19:45:34.677000,28.0,-15.0,-238.0,-1038.0,-107.0,-180.0,0.0,0.0,0.0
19:45:34.682000,4.0,-8.0,-263.0,-1038.0,-107.0,-180.0,0.0,0.0,0.0
19:45:34.687000,-14.0,3.0,-203.0,-997.0,-86.0,-175.0,0.0,0.0,0.0
19:45:34.691000,-41.0,18.0,-124.0,-997.0,-86.0,-175.0,0.0,0.0,0.0
19:45:34.696000,-60.0,37.0,-107.0,-1004.0,-82.0,-177.0,0.0,0.0,0.0
19:45:34.701000,-56.0,49.0,-135.0,-1004.0,-82.0,-177.0,0.0,0.0,0.0
19:45:34.706000,-42.0,59.0,-168.0,-1083.0,-114.0,-177.0,0.0,0.0,0.0
19:45:34.710000,-33.0,65.0,-233.0,-1083.0,-114.0,-177.0,0.0,0.0,0.0
19:45:34.715000,-23.0,70.0,-313.0,-1083.0,-114.0,-177.0,0.0,0.0,0.0
19:45:34.720000,-14.0,79.0,-378.0,-1127.0,-165.0,-174.0,0.0,0.0,0.0
19:45:34.724000,-2.0,85.0,-415.0,-1127.0,-165.0,-174.0,0.0,0.0,0.0
19:45:34.729000,13.0,81.0,-417.0,-1091.0,-193.0,-167.0,0.0,0.0,0.0
19:45:34.734000,37.0,78.0,-386.0,-1091.0,-193.0,-167.0,0.0,0.0,0.0
19:45:34.738000,66.0,77.0,-346.0,-1019.0,-229.0,-168.0,0.0,0.0,0.0
19:45:34.743000,90.0,79.0,-343.0,-1019.0,-229.0,-168.0,0.0,0.0,0.0
19:45:34.748000,98.0,75.0,-384.0,-1015.0,-237.0,-172.0,0.0,0.0,0.0
19:45:34.753000,87.0,79.0,-449.0,-1015.0,-237.0,-172.0,0.0,0.0,0.0
19:45:34.757000,87.0,79.0,-449.0,-1040.0,-217.0,-176.0,0.0,0.0,0.0
19:45:34.762000,95.0,82.0,-520.0,-1040.0,-217.0,-176.0,0.0,0.0,0.0
19:45:34.767000,113.0,79.0,-521.0,-993.0,-239.0,-192.0,0.0,0.0,0.0
19:45:34.771000,133.0,67.0,-490.0,-993.0,-239.0,-192.0,0.0,0.0,0.0
19:45:34.776000,157.0,57.0,-466.0,-949.0,-234.0,-209.0,0.0,0.0,0.0
19:45:34.781000,179.0,51.0,-443.0,-949.0,-234.0,-209.0,0.0,0.0,0.0
19:45:34.785000,202.0,47.0,-458.0,-975.0,-186.0,-231.0,0.0,0.0,0.0
19:45:34.790000,219.0,40.0,-489.0,-975.0,-186.0,-231.0,0.0,0.0,0.0
19:45:34.795000,228.0,31.0,-485.0,-972.0,-161.0,-242.0,0.0,0.0,0.0
19:45:34.800000,235.0,16.0,-464.0,-972.0,-161.0,-242.0,0.0,0.0,0.0
19:45:34.804000,245.0,-3.0,-473.0,-918.0,-127.0,-249.0,0.0,0.0,0.0
19:45:34.809000,246.0,-18.0,-491.0,-918.0,-127.0,-249.0,0.0,0.0,0.0
19:45:34.814000,240.0,-37.0,-485.0,-843.0,-75.0,-244.0,0.0,0.0,0.0
19:45:34.818000,232.0,-60.0,-469.0,-843.0,-75.0,-244.0,0.0,0.0,0.0
19:45:34.823000,226.0,-81.0,-475.0,-843.0,-75.0,-244.0,0.0,0.0,0.0
19:45:34.828000,217.0,-93.0,-487.0,-824.0,-10.0,-250.0,0.0,0.0,0.0
19:45:34.832000,205.0,-115.0,-476.0,-824.0,-10.0,-250.0,0.0,0.0,0.0
19:45:34.837000,192.0,-143.0,-452.0,-809.0,84.0,-200.0,0.0,0.0,0.0
19:45:34.842000,169.0,-150.0,-442.0,-809.0,84.0,-200.0,0.0,0.0,0.0
19:45:34.847000,144.0,-149.0,-445.0,-843.0,153.0,-130.0,0.0,0.0,0.0
19:45:34.851000,133.0,-156.0,-455.0,-843.0,153.0,-130.0,0.0,0.0,0.0
19:45:34.856000,116.0,-147.0,-470.0,-955.0,184.0,-76.0,0.0,0.0,0.0
19:45:34.861000,84.0,-115.0,-484.0,-955.0,184.0,-76.0,0.0,0.0,0.0
19:45:34.865000,84.0,-115.0,-484.0,-1131.0,200.0,-73.0,0.0,0.0,0.0
19:45:34.870000,36.0,-85.0,-481.0,-1131.0,200.0,-73.0,0.0,0.0,0.0
19:45:34.875000,-16.0,-75.0,-476.0,-1317.0,219.0,-83.0,0.0,0.0,0.0
19:45:34.879000,-82.0,-59.0,-469.0,-1317.0,219.0,-83.0,0.0,0.0,0.0
19:45:34.884000,-148.0,-42.0,-446.0,-1371.0,213.0,-25.0,0.0,0.0,0.0
19:45:34.889000,-196.0,-16.0,-410.0,-1371.0,213.0,-25.0,0.0,0.0,0.0
19:45:34.894000,-231.0,18.0,-385.0,-1361.0,137.0,-7.0,0.0,0.0,0.0
19:45:34.898000,-245.0,67.0,-393.0,-1361.0,137.0,-7.0,0.0,0.0,0.0
19:45:34.903000,-269.0,128.0,-429.0,-1382.0,64.0,-34.0,0.0,0.0,0.0
19:45:34.908000,-290.0,182.0,-455.0,-1382.0,64.0,-34.0,0.0,0.0,0.0
19:45:34.912000,-307.0,240.0,-464.0,-1431.0,-1.0,-100.0,0.0,0.0,0.0
19:45:34.917000,-324.0,296.0,-470.0,-1431.0,-1.0,-100.0,0.0,0.0,0.0
19:45:34.922000,-336.0,340.0,-480.0,-1406.0,-83.0,-165.0,0.0,0.0,0.0
19:45:34.926000,-336.0,364.0,-490.0,-1406.0,-83.0,-165.0,0.0,0.0,0.0
19:45:34.931000,-336.0,385.0,-494.0,-1406.0,-83.0,-165.0,0.0,0.0,0.0
19:45:34.936000,-327.0,403.0,-506.0,-1258.0,-118.0,-188.0,0.0,0.0,0.0
19:45:34.941000,-296.0,412.0,-526.0,-1258.0,-118.0,-188.0,0.0,0.0,0.0
19:45:34.945000,-252.0,411.0,-567.0,-1080.0,-120.0,-208.0,0.0,0.0,0.0
19:45:34.950000,-209.0,401.0,-623.0,-1080.0,-120.0,-208.0,0.0,0.0,0.0
19:45:34.955000,-152.0,376.0,-678.0,-977.0,-115.0,-245.0,0.0,0.0,0.0
19:45:34.959000,-77.0,341.0,-705.0,-977.0,-115.0,-245.0,0.0,0.0,0.0
19:45:34.964000,-3.0,310.0,-718.0,-900.0,-154.0,-255.0,0.0,0.0,0.0
19:45:34.969000,58.0,280.0,-720.0,-900.0,-154.0,-255.0,0.0,0.0,0.0
19:45:34.973000,58.0,280.0,-720.0,-859.0,-168.0,-258.0,0.0,0.0,0.0
19:45:34.978000,110.0,250.0,-689.0,-859.0,-168.0,-258.0,0.0,0.0,0.0
19:45:34.983000,154.0,219.0,-647.0,-906.0,-63.0,-278.0,0.0,0.0,0.0
19:45:34.988000,196.0,187.0,-621.0,-906.0,-63.0,-278.0,0.0,0.0,0.0
19:45:34.992000,224.0,157.0,-621.0,-966.0,44.0,-292.0,0.0,0.0,0.0
19:45:34.996000,238.0,134.0,-609.0,-966.0,44.0,-292.0,0.0,0.0,0.0
19:45:35.002000,242.0,114.0,-544.0,-970.0,111.0,-297.0,0.0,0.0,0.0
19:45:35.006000,249.0,90.0,-475.0,-970.0,111.0,-297.0,0.0,0.0,0.0
19:45:35.011000,254.0,66.0,-451.0,-971.0,212.0,-303.0,0.0,0.0,0.0
19:45:35.016000,237.0,51.0,-450.0,-971.0,212.0,-303.0,0.0,0.0,0.0
19:45:35.020000,207.0,37.0,-425.0,-993.0,316.0,-300.0,0.0,0.0,0.0
19:45:35.025000,179.0,25.0,-368.0,-993.0,316.0,-300.0,0.0,0.0,0.0
19:45:35.030000,143.0,19.0,-315.0,-1040.0,330.0,-293.0,0.0,0.0,0.0
19:45:35.035000,103.0,18.0,-267.0,-1040.0,330.0,-293.0,0.0,0.0,0.0
19:45:35.039000,70.0,16.0,-218.0,-1040.0,330.0,-293.0,0.0,0.0,0.0
19:45:35.044000,31.0,14.0,-177.0,-1063.0,299.0,-285.0,0.0,0.0,0.0
19:45:35.049000,-3.0,21.0,-148.0,-973.0,294.0,-272.0,0.0,0.0,0.0
19:45:35.053000,-27.0,29.0,-168.0,-973.0,294.0,-272.0,0.0,0.0,0.0
19:45:35.058000,-25.0,30.0,-285.0,-973.0,294.0,-272.0,0.0,0.0,0.0
19:45:35.063000,-23.0,52.0,-449.0,-932.0,314.0,-266.0,0.0,0.0,0.0
19:45:35.067000,-43.0,86.0,-437.0,-932.0,314.0,-266.0,0.0,0.0,0.0
19:45:35.072000,-57.0,105.0,-417.0,-951.0,247.0,-272.0,0.0,0.0,0.0
19:45:35.077000,-62.0,117.0,-469.0,-951.0,247.0,-272.0,0.0,0.0,0.0
19:45:35.082000,-79.0,117.0,-469.0,-1033.0,188.0,-280.0,0.0,0.0,0.0
19:45:35.086000,-79.0,128.0,-508.0,-1033.0,188.0,-280.0,0.0,0.0,0.0
19:45:35.091000,-103.0,144.0,-502.0,-1077.0,225.0,-280.0,0.0,0.0,0.0
19:45:35.096000,-126.0,145.0,-480.0,-1077.0,225.0,-280.0,0.0,0.0,0.0
19:45:35.100000,-154.0,138.0,-444.0,-936.0,297.0,-268.0,0.0,0.0,0.0
19:45:35.105000,-182.0,119.0,-434.0,-936.0,297.0,-268.0,0.0,0.0,0.0
19:45:35.109000,-205.0,93.0,-422.0,-818.0,377.0,-254.0,0.0,0.0,0.0
19:45:35.114000,-221.0,61.0,-366.0,-818.0,377.0,-254.0,0.0,0.0,0.0
19:45:35.119000,-233.0,25.0,-287.0,-767.0,376.0,-248.0,0.0,0.0,0.0
19:45:35.124000,-246.0,-12.0,-231.0,-767.0,376.0,-248.0,0.0,0.0,0.0
19:45:35.129000,-254.0,-48.0,-171.0,-764.0,369.0,-254.0,0.0,0.0,0.0
19:45:35.133000,-252.0,-93.0,-131.0,-764.0,369.0,-254.0,0.0,0.0,0.0
19:45:35.138000,-263.0,-136.0,-98.0,-778.0,416.0,-256.0,0.0,0.0,0.0
19:45:35.143000,-270.0,-182.0,-51.0,-778.0,416.0,-256.0,0.0,0.0,0.0
19:45:35.147000,-265.0,-226.0,0.0,-778.0,416.0,-256.0,0.0,0.0,0.0
19:45:35.152000,-268.0,-258.0,58.0,-782.0,443.0,-251.0,0.0,0.0,0.0
19:45:35.157000,-261.0,-289.0,99.0,-782.0,443.0,-251.0,0.0,0.0,0.0
19:45:35.161000,-252.0,-306.0,147.0,-816.0,420.0,-251.0,0.0,0.0,0.0
19:45:35.166000,-236.0,-321.0,178.0,-816.0,420.0,-251.0,0.0,0.0,0.0
19:45:35.171000,-229.0,-331.0,244.0,-870.0,368.0,-244.0,0.0,0.0,0.0
19:45:35.176000,-223.0,-332.0,327.0,-870.0,368.0,-244.0,0.0,0.0,0.0
19:45:35.180000,-214.0,-321.0,375.0,-899.0,304.0,-225.0,0.0,0.0,0.0
19:45:35.185000,-211.0,-307.0,409.0,-899.0,304.0,-225.0,0.0,0.0,0.0
