hh:mm:ss.ms,gyroX[mdps],gyroY[mdps],gyroZ[mdps],accX[mg],accY[mg],accZ[mg],magX[mG],magY[mG],magZ[mG]
19:30:52.329000,-480.0,-133.0,9.0,-1904.0,240.0,-318.0,625.0,-337.0,379.0
19:30:52.333000,-485.0,-133.0,-14.0,-1882.0,220.0,-337.0,625.0,-337.0,379.0
19:30:52.339000,-486.0,-126.0,-70.0,-1872.0,231.0,-352.0,618.0,-337.0,378.0
19:30:52.343000,-490.0,-109.0,-138.0,-1872.0,231.0,-352.0,618.0,-337.0,378.0
19:30:52.348000,-500.0,-82.0,-204.0,-1892.0,238.0,-374.0,624.0,-337.0,379.0
19:30:52.353000,-510.0,-51.0,-256.0,-1892.0,238.0,-374.0,624.0,-337.0,379.0
19:30:52.357000,-520.0,-17.0,-303.0,-1894.0,211.0,-386.0,624.0,-337.0,379.0
19:30:52.362000,-529.0,21.0,-362.0,-1882.0,196.0,-394.0,613.0,-340.0,381.0
19:30:52.367000,-537.0,62.0,-431.0,-1844.0,208.0,-399.0,613.0,-340.0,381.0
19:30:52.372000,-546.0,104.0,-497.0,-1777.0,233.0,-402.0,616.0,-340.0,376.0
19:30:52.376000,-551.0,142.0,-553.0,-1693.0,258.0,-401.0,616.0,-340.0,376.0
19:30:52.380000,-551.0,142.0,-553.0,-1608.0,279.0,-399.0,616.0,-340.0,376.0
19:30:52.386000,-550.0,203.0,-641.0,-1531.0,294.0,-392.0,607.0,-330.0,385.0
19:30:52.390000,-550.0,203.0,-641.0,-1463.0,304.0,-384.0,607.0,-330.0,385.0
19:30:52.395000,-540.0,219.0,-669.0,-1407.0,313.0,-378.0,613.0,-333.0,382.0
19:30:52.400000,-523.0,226.0,-692.0,-1361.0,330.0,-374.0,613.0,-333.0,382.0
19:30:52.404000,-504.0,225.0,-714.0,-1322.0,357.0,-371.0,613.0,-333.0,382.0
19:30:52.409000,-487.0,217.0,-729.0,-1293.0,391.0,-373.0,619.0,-325.0,387.0
19:30:52.414000,-477.0,207.0,-728.0,-1282.0,438.0,-384.0,619.0,-325.0,387.0
19:30:52.419000,-481.0,201.0,-719.0,-1290.0,503.0,-399.0,613.0,-321.0,397.0
19:30:52.423000,-505.0,205.0,-708.0,-1307.0,570.0,-410.0,613.0,-321.0,397.0
19:30:52.427000,-547.0,212.0,-687.0,-1314.0,612.0,-413.0,613.0,-321.0,397.0
19:30:52.433000,-602.0,226.0,-651.0,-1298.0,615.0,-413.0,618.0,-316.0,399.0
19:30:52.437000,-669.0,245.0,-607.0,-1260.0,593.0,-418.0,618.0,-316.0,399.0
19:30:52.442000,-743.0,269.0,-565.0,-1210.0,589.0,-425.0,598.0,-306.0,396.0
19:30:52.447000,-833.0,294.0,-534.0,-1135.0,608.0,-432.0,598.0,-306.0,396.0
19:30:52.452000,-936.0,322.0,-448.0,-1135.0,608.0,-432.0,583.0,-319.0,403.0
19:30:52.456000,-1034.0,346.0,-261.0,-1047.0,607.0,-443.0,583.0,-319.0,403.0
19:30:52.460000,-1076.0,354.0,-165.0,-1041.0,660.0,-458.0,583.0,-319.0,403.0
19:30:52.466000,-1099.0,360.0,-191.0,-1040.0,708.0,-462.0,595.0,-316.0,414.0
19:30:52.470000,-1091.0,349.0,-294.0,-932.0,648.0,-457.0,595.0,-316.0,414.0
19:30:52.475000,-1064.0,331.0,-444.0,-767.0,563.0,-451.0,591.0,-310.0,415.0
19:30:52.480000,-1011.0,291.0,-547.0,-606.0,485.0,-443.0,591.0,-310.0,415.0
19:30:52.484000,-975.0,246.0,-588.0,-544.0,420.0,-440.0,591.0,-310.0,415.0
19:30:52.489000,-921.0,191.0,-648.0,-631.0,418.0,-445.0,571.0,-312.0,424.0
19:30:52.494000,-904.0,142.0,-700.0,-783.0,464.0,-442.0,571.0,-312.0,424.0
19:30:52.499000,-898.0,100.0,-697.0,-887.0,491.0,-432.0,580.0,-310.0,417.0
19:30:52.503000,-898.0,100.0,-697.0,-919.0,489.0,-428.0,580.0,-310.0,417.0
19:30:52.507000,-909.0,60.0,-662.0,-898.0,493.0,-426.0,580.0,-310.0,417.0
19:30:52.513000,-929.0,23.0,-639.0,-841.0,516.0,-422.0,591.0,-313.0,435.0
19:30:52.517000,-959.0,-9.0,-593.0,-789.0,552.0,-410.0,591.0,-313.0,435.0
19:30:52.521000,-1001.0,-40.0,-511.0,-793.0,601.0,-395.0,574.0,-304.0,448.0
19:30:52.527000,-1049.0,-65.0,-442.0,-839.0,616.0,-375.0,574.0,-304.0,448.0
19:30:52.531000,-1105.0,-78.0,-414.0,-888.0,569.0,-359.0,574.0,-304.0,448.0
19:30:52.536000,-1152.0,-89.0,-418.0,-922.0,501.0,-345.0,579.0,-304.0,442.0
19:30:52.541000,-1190.0,-100.0,-435.0,-945.0,456.0,-328.0,579.0,-304.0,442.0
19:30:52.546000,-1220.0,-107.0,-462.0,-967.0,447.0,-316.0,585.0,-312.0,433.0
19:30:52.550000,-1237.0,-109.0,-502.0,-986.0,442.0,-301.0,585.0,-312.0,433.0
19:30:52.554000,-1250.0,-108.0,-536.0,-1006.0,429.0,-281.0,585.0,-312.0,433.0
19:30:52.560000,-1267.0,-97.0,-553.0,-1030.0,413.0,-269.0,576.0,-309.0,433.0
19:30:52.564000,-1295.0,-75.0,-562.0,-1061.0,402.0,-262.0,576.0,-309.0,433.0
19:30:52.569000,-1327.0,-44.0,-582.0,-1061.0,402.0,-262.0,567.0,-313.0,441.0
19:30:52.574000,-1367.0,-7.0,-622.0,-1095.0,411.0,-251.0,567.0,-313.0,441.0
19:30:52.578000,-1408.0,32.0,-661.0,-1111.0,432.0,-238.0,567.0,-313.0,441.0
19:30:52.583000,-1444.0,73.0,-673.0,-1101.0,449.0,-227.0,570.0,-316.0,445.0
19:30:52.588000,-1477.0,112.0,-653.0,-1078.0,433.0,-218.0,570.0,-316.0,445.0
19:30:52.593000,-1494.0,144.0,-638.0,-1057.0,378.0,-212.0,562.0,-318.0,444.0
19:30:52.597000,-1494.0,170.0,-652.0,-1039.0,311.0,-210.0,562.0,-318.0,444.0
19:30:52.601000,-1494.0,170.0,-652.0,-1001.0,248.0,-212.0,562.0,-318.0,444.0
19:30:52.607000,-1449.0,199.0,-675.0,-940.0,200.0,-222.0,565.0,-321.0,462.0
19:30:52.611000,-1449.0,199.0,-675.0,-875.0,173.0,-236.0,565.0,-321.0,462.0
19:30:52.616000,-1415.0,200.0,-682.0,-820.0,166.0,-250.0,555.0,-321.0,453.0
19:30:52.621000,-1386.0,188.0,-688.0,-781.0,190.0,-269.0,555.0,-321.0,453.0
19:30:52.625000,-1360.0,170.0,-702.0,-756.0,241.0,-288.0,555.0,-321.0,453.0
19:30:52.630000,-1347.0,147.0,-704.0,-733.0,290.0,-297.0,556.0,-322.0,468.0
19:30:52.635000,-1344.0,125.0,-698.0,-703.0,323.0,-296.0,556.0,-322.0,468.0
19:30:52.640000,-1359.0,105.0,-690.0,-656.0,338.0,-284.0,546.0,-330.0,463.0
19:30:52.644000,-1386.0,84.0,-675.0,-597.0,344.0,-267.0,546.0,-330.0,463.0
19:30:52.648000,-1414.0,64.0,-661.0,-532.0,345.0,-248.0,546.0,-330.0,463.0
19:30:52.654000,-1442.0,49.0,-650.0,-476.0,330.0,-233.0,549.0,-331.0,475.0
19:30:52.658000,-1461.0,37.0,-635.0,-457.0,307.0,-222.0,549.0,-331.0,475.0
19:30:52.663000,-1463.0,27.0,-634.0,-457.0,307.0,-222.0,531.0,-339.0,474.0
19:30:52.668000,-1456.0,23.0,-645.0,-508.0,231.0,-198.0,531.0,-339.0,474.0
19:30:52.672000,-1432.0,23.0,-647.0,-508.0,231.0,-198.0,531.0,-339.0,474.0
19:30:52.677000,-1400.0,25.0,-644.0,-547.0,183.0,-187.0,532.0,-351.0,480.0
19:30:52.682000,-1368.0,30.0,-641.0,-589.0,160.0,-175.0,532.0,-351.0,480.0
19:30:52.687000,-1348.0,41.0,-630.0,-627.0,176.0,-160.0,532.0,-339.0,481.0
19:30:52.691000,-1344.0,56.0,-602.0,-651.0,228.0,-146.0,532.0,-339.0,481.0
19:30:52.699000,-1356.0,74.0,-558.0,-668.0,345.0,-118.0,526.0,-351.0,489.0
19:30:52.701000,-1383.0,95.0,-500.0,-668.0,345.0,-118.0,526.0,-351.0,489.0
19:30:52.705000,-1425.0,121.0,-434.0,-673.0,376.0,-107.0,526.0,-351.0,489.0
19:30:52.710000,-1472.0,155.0,-364.0,-685.0,386.0,-95.0,531.0,-349.0,486.0
19:30:52.715000,-1519.0,197.0,-293.0,-696.0,369.0,-91.0,531.0,-349.0,486.0
19:30:52.719000,-1519.0,197.0,-293.0,-686.0,323.0,-89.0,525.0,-364.0,487.0
19:30:52.724000,-1560.0,235.0,-219.0,-647.0,249.0,-83.0,525.0,-364.0,487.0
19:30:52.728000,-1584.0,268.0,-149.0,-596.0,169.0,-81.0,525.0,-364.0,487.0
19:30:52.734000,-1595.0,305.0,-93.0,-578.0,114.0,-85.0,526.0,-370.0,498.0
19:30:52.738000,-1586.0,344.0,-69.0,-598.0,81.0,-88.0,526.0,-370.0,498.0
19:30:52.743000,-1572.0,389.0,-77.0,-626.0,52.0,-90.0,507.0,-378.0,493.0
19:30:52.748000,-1558.0,434.0,-106.0,-642.0,47.0,-99.0,507.0,-378.0,493.0
19:30:52.752000,-1544.0,479.0,-138.0,-639.0,63.0,-109.0,507.0,-378.0,493.0
19:30:52.757000,-1535.0,527.0,-163.0,-624.0,83.0,-118.0,498.0,-400.0,504.0
19:30:52.762000,-1529.0,577.0,-188.0,-621.0,109.0,-137.0,498.0,-400.0,504.0
19:30:52.766000,-1531.0,630.0,-232.0,-628.0,138.0,-159.0,498.0,-409.0,504.0
19:30:52.771000,-1537.0,680.0,-281.0,-609.0,139.0,-180.0,498.0,-409.0,504.0
19:30:52.775000,-1533.0,716.0,-298.0,-557.0,102.0,-212.0,498.0,-409.0,504.0
19:30:52.781000,-1519.0,735.0,-283.0,-501.0,66.0,-243.0,489.0,-409.0,507.0
19:30:52.785000,-1500.0,747.0,-263.0,-501.0,66.0,-243.0,489.0,-409.0,507.0
19:30:52.790000,-1476.0,755.0,-237.0,-455.0,46.0,-269.0,489.0,-418.0,510.0
19:30:52.795000,-1458.0,756.0,-194.0,-411.0,27.0,-294.0,489.0,-418.0,510.0
19:30:52.799000,-1453.0,751.0,-143.0,-369.0,17.0,-315.0,489.0,-418.0,510.0
19:30:52.804000,-1465.0,749.0,-93.0,-334.0,45.0,-335.0,469.0,-430.0,510.0
19:30:52.809000,-1504.0,755.0,-51.0,-313.0,107.0,-351.0,469.0,-430.0,510.0
19:30:52.813000,-1563.0,763.0,-26.0,-310.0,170.0,-360.0,468.0,-439.0,525.0
19:30:52.818000,-1630.0,770.0,-11.0,-296.0,196.0,-363.0,468.0,-439.0,525.0
19:30:52.822000,-1630.0,770.0,-11.0,-253.0,176.0,-359.0,468.0,-439.0,525.0
19:30:52.828000,-1754.0,782.0,0.0,-193.0,132.0,-357.0,450.0,-450.0,523.0
19:30:52.832000,-1754.0,782.0,0.0,-132.0,78.0,-365.0,450.0,-450.0,523.0
19:30:52.837000,-1798.0,786.0,-11.0,-81.0,15.0,-389.0,442.0,-477.0,519.0
19:30:52.842000,-1824.0,782.0,-30.0,-48.0,-60.0,-423.0,442.0,-477.0,519.0
19:30:52.846000,-1835.0,774.0,-46.0,-41.0,-133.0,-453.0,442.0,-477.0,519.0
19:30:52.851000,-1833.0,762.0,-66.0,-51.0,-191.0,-478.0,435.0,-481.0,525.0
19:30:52.856000,-1822.0,747.0,-86.0,-59.0,-233.0,-502.0,435.0,-481.0,525.0
19:30:52.860000,-1809.0,730.0,-109.0,-55.0,-255.0,-523.0,426.0,-496.0,516.0
19:30:52.865000,-1800.0,709.0,-141.0,-34.0,-255.0,-539.0,426.0,-496.0,516.0
19:30:52.869000,-1794.0,686.0,-182.0,-5.0,-232.0,-562.0,426.0,-496.0,516.0
19:30:52.875000,-1797.0,662.0,-231.0,18.0,-184.0,-592.0,424.0,-510.0,516.0
19:30:52.879000,-1822.0,637.0,-285.0,40.0,-138.0,-635.0,424.0,-510.0,516.0
19:30:52.884000,-1865.0,618.0,-328.0,40.0,-138.0,-635.0,406.0,-513.0,516.0
19:30:52.889000,-1911.0,596.0,-352.0,125.0,-191.0,-712.0,406.0,-513.0,516.0
19:30:52.893000,-1936.0,576.0,-365.0,125.0,-191.0,-712.0,406.0,-513.0,516.0
19:30:52.898000,-1934.0,555.0,-389.0,174.0,-291.0,-763.0,396.0,-543.0,499.0
19:30:52.903000,-1907.0,531.0,-431.0,195.0,-391.0,-818.0,396.0,-543.0,499.0
19:30:52.907000,-1862.0,501.0,-484.0,185.0,-460.0,-860.0,394.0,-544.0,505.0
19:30:52.912000,-1818.0,473.0,-534.0,154.0,-482.0,-887.0,394.0,-544.0,505.0
19:30:52.916000,-1796.0,456.0,-578.0,111.0,-482.0,-892.0,394.0,-544.0,505.0
19:30:52.921000,-1806.0,449.0,-605.0,72.0,-436.0,-879.0,375.0,-571.0,501.0
19:30:52.926000,-1831.0,448.0,-606.0,60.0,-379.0,-864.0,375.0,-571.0,501.0
19:30:52.931000,-1858.0,443.0,-600.0,59.0,-340.0,-856.0,394.0,-567.0,490.0
19:30:52.936000,-1893.0,434.0,-609.0,40.0,-322.0,-859.0,394.0,-567.0,490.0
19:30:52.940000,-1893.0,434.0,-609.0,24.0,-332.0,-870.0,394.0,-567.0,490.0
19:30:52.945000,-1925.0,410.0,-626.0,40.0,-357.0,-886.0,390.0,-582.0,490.0
19:30:52.950000,-1959.0,367.0,-641.0,89.0,-356.0,-894.0,390.0,-582.0,490.0
19:30:52.954000,-2002.0,305.0,-648.0,158.0,-318.0,-877.0,382.0,-591.0,474.0
19:30:52.959000,-2058.0,231.0,-648.0,225.0,-269.0,-850.0,382.0,-591.0,474.0
19:30:52.963000,-2125.0,151.0,-657.0,270.0,-230.0,-831.0,382.0,-591.0,474.0
19:30:52.968000,-2202.0,70.0,-689.0,284.0,-208.0,-820.0,390.0,-612.0,465.0
19:30:52.973000,-2281.0,-20.0,-746.0,289.0,-194.0,-814.0,390.0,-612.0,465.0
19:30:52.978000,-2355.0,-120.0,-835.0,319.0,-162.0,-800.0,394.0,-618.0,450.0
19:30:52.983000,-2451.0,-217.0,-951.0,381.0,-91.0,-755.0,394.0,-618.0,450.0
19:30:52.987000,-2566.0,-301.0,-1075.0,435.0,-8.0,-702.0,394.0,-618.0,450.0
19:30:52.992000,-2668.0,-371.0,-1190.0,417.0,1.0,-654.0,390.0,-637.0,450.0
19:30:52.997000,-2753.0,-425.0,-1273.0,272.0,-83.0,-610.0,390.0,-637.0,450.0
19:30:53.001000,-2831.0,-466.0,-1328.0,23.0,-203.0,-575.0,393.0,-643.0,435.0
19:30:53.006000,-2907.0,-499.0,-1397.0,23.0,-203.0,-575.0,393.0,-643.0,435.0
19:30:53.011000,-2979.0,-533.0,-1481.0,-205.0,-317.0,-556.0,390.0,-651.0,412.0
19:30:53.015000,-3052.0,-575.0,-1542.0,-290.0,-410.0,-550.0,390.0,-651.0,412.0
19:30:53.020000,-3115.0,-625.0,-1551.0,-205.0,-453.0,-549.0,390.0,-651.0,412.0
19:30:53.025000,-3157.0,-688.0,-1507.0,-24.0,-460.0,-546.0,409.0,-663.0,400.0
19:30:53.030000,-3186.0,-758.0,-1460.0,152.0,-469.0,-540.0,409.0,-663.0,400.0
19:30:53.034000,-3210.0,-827.0,-1479.0,229.0,-485.0,-531.0,415.0,-678.0,387.0
19:30:53.039000,-3238.0,-882.0,-1549.0,193.0,-512.0,-526.0,415.0,-678.0,387.0
19:30:53.043000,-3238.0,-882.0,-1549.0,89.0,-569.0,-524.0,415.0,-678.0,387.0
19:30:53.048000,-3259.0,-924.0,-1593.0,-33.0,-647.0,-516.0,438.0,-691.0,360.0
19:30:53.053000,-3282.0,-960.0,-1568.0,-124.0,-718.0,-514.0,438.0,-691.0,360.0
19:30:53.058000,-3301.0,-988.0,-1500.0,-171.0,-767.0,-518.0,456.0,-685.0,331.0
19:30:53.062000,-3307.0,-1014.0,-1445.0,-191.0,-809.0,-518.0,456.0,-685.0,331.0
19:30:53.067000,-3303.0,-1031.0,-1440.0,-213.0,-863.0,-514.0,456.0,-685.0,331.0
19:30:53.072000,-3277.0,-1049.0,-1479.0,-226.0,-931.0,-510.0,466.0,-694.0,315.0
19:30:53.077000,-3235.0,-1071.0,-1502.0,-223.0,-988.0,-505.0,466.0,-694.0,315.0
19:30:53.081000,-3189.0,-1092.0,-1492.0,-242.0,-1009.0,-501.0,457.0,-699.0,289.0
19:30:53.086000,-3134.0,-1109.0,-1476.0,-286.0,-1021.0,-502.0,457.0,-699.0,289.0
19:30:53.090000,-3073.0,-1122.0,-1464.0,-337.0,-1042.0,-503.0,457.0,-699.0,289.0
19:30:53.095000,-2996.0,-1135.0,-1449.0,-391.0,-1063.0,-506.0,472.0,-694.0,262.0
19:30:53.100000,-2915.0,-1143.0,-1432.0,-435.0,-1091.0,-506.0,472.0,-694.0,262.0
19:30:53.105000,-2827.0,-1145.0,-1412.0,-435.0,-1091.0,-506.0,486.0,-697.0,240.0
19:30:53.109000,-2730.0,-1146.0,-1386.0,-468.0,-1138.0,-511.0,486.0,-697.0,240.0
19:30:53.114000,-2627.0,-1144.0,-1360.0,-491.0,-1138.0,-511.0,486.0,-697.0,240.0
19:30:53.119000,-2524.0,-1134.0,-1342.0,-516.0,-1136.0,-519.0,502.0,-690.0,220.0
19:30:53.123000,-2426.0,-1119.0,-1315.0,-569.0,-1129.0,-525.0,502.0,-690.0,220.0
19:30:53.128000,-2337.0,-1107.0,-1268.0,-569.0,-1129.0,-525.0,489.0,-685.0,202.0
19:30:53.133000,-2256.0,-1095.0,-1214.0,-601.0,-1163.0,-524.0,489.0,-685.0,202.0
19:30:53.138000,-2273.0,-1113.0,-1143.0,-667.0,-1274.0,-482.0,507.0,-673.0,178.0
19:30:53.142000,-2315.0,-1120.0,-1092.0,-859.0,-1822.0,-377.0,507.0,-673.0,178.0
19:30:53.146000,-2315.0,-1120.0,-1092.0,-1123.0,-1624.0,-496.0,507.0,-673.0,178.0
19:30:53.152000,-2060.0,-871.0,-1853.0,-1567.0,-852.0,-521.0,513.0,-673.0,162.0
19:30:53.156000,-2399.0,-820.0,-983.0,-2723.0,-1106.0,-284.0,513.0,-673.0,162.0
19:30:53.161000,-2399.0,-820.0,-983.0,-2718.0,-1467.0,-306.0,517.0,-669.0,159.0
19:30:53.166000,-1759.0,-1176.0,1017.0,-1049.0,-1153.0,-530.0,517.0,-669.0,159.0
19:30:53.170000,-1829.0,-622.0,597.0,15.0,-749.0,-393.0,517.0,-669.0,159.0
19:30:53.175000,-2480.0,-69.0,-1134.0,474.0,-699.0,-193.0,517.0,-676.0,139.0
19:30:53.180000,-2294.0,-196.0,-2332.0,885.0,-980.0,-279.0,517.0,-676.0,139.0
19:30:53.185000,-1764.0,-576.0,-2414.0,903.0,-1309.0,-282.0,520.0,-666.0,136.0
19:30:53.189000,-1496.0,-770.0,-2018.0,344.0,-1309.0,-277.0,520.0,-666.0,136.0
19:30:53.193000,-1275.0,-857.0,-1746.0,-381.0,-1158.0,-292.0,520.0,-666.0,136.0
19:30:53.199000,-1192.0,-862.0,-1630.0,-911.0,-1078.0,-304.0,534.0,-640.0,120.0
19:30:53.203000,-1134.0,-816.0,-1577.0,-1173.0,-1078.0,-333.0,534.0,-640.0,120.0
19:30:53.208000,-946.0,-866.0,-1395.0,-1173.0,-1078.0,-333.0,526.0,-637.0,108.0
19:30:53.213000,-805.0,-849.0,-1244.0,-1405.0,-1103.0,-373.0,526.0,-637.0,108.0
19:30:53.217000,-698.0,-824.0,-1102.0,-1478.0,-1037.0,-338.0,526.0,-637.0,108.0
19:30:53.222000,-833.0,-730.0,-996.0,-1478.0,-1037.0,-338.0,544.0,-616.0,97.0
19:30:53.227000,-811.0,-662.0,-1067.0,-1462.0,-927.0,-344.0,544.0,-616.0,97.0
19:30:53.232000,-758.0,-633.0,-1127.0,-1327.0,-715.0,-376.0,558.0,-622.0,93.0
19:30:53.236000,-788.0,-587.0,-1034.0,-1073.0,-674.0,-332.0,558.0,-622.0,93.0
19:30:53.240000,-782.0,-555.0,-886.0,-900.0,-561.0,-303.0,558.0,-622.0,93.0
19:30:53.246000,-808.0,-507.0,-834.0,-866.0,-561.0,-291.0,546.0,-612.0,90.0
19:30:53.250000,-789.0,-471.0,-826.0,-919.0,-557.0,-275.0,546.0,-612.0,90.0
19:30:53.255000,-772.0,-416.0,-825.0,-1000.0,-662.0,-280.0,555.0,-613.0,85.0
19:30:53.260000,-717.0,-354.0,-850.0,-1074.0,-755.0,-297.0,555.0,-613.0,85.0
19:30:53.264000,-717.0,-354.0,-850.0,-1153.0,-822.0,-302.0,555.0,-613.0,85.0
19:30:53.269000,-637.0,-306.0,-883.0,-1212.0,-846.0,-290.0,552.0,-607.0,73.0
19:30:53.274000,-592.0,-252.0,-915.0,-1243.0,-854.0,-281.0,552.0,-607.0,73.0
19:30:53.279000,-546.0,-204.0,-899.0,-1235.0,-827.0,-289.0,558.0,-585.0,72.0
19:30:53.283000,-454.0,-174.0,-872.0,-1191.0,-757.0,-301.0,558.0,-585.0,72.0
19:30:53.287000,-413.0,-145.0,-828.0,-1142.0,-739.0,-302.0,558.0,-585.0,72.0
19:30:53.293000,-381.0,-120.0,-735.0,-1134.0,-704.0,-318.0,561.0,-582.0,73.0
19:30:53.297000,-323.0,-94.0,-695.0,-1168.0,-623.0,-323.0,561.0,-582.0,73.0
19:30:53.302000,-302.0,-70.0,-719.0,-1184.0,-589.0,-315.0,559.0,-577.0,72.0
19:30:53.307000,-305.0,-42.0,-711.0,-1178.0,-589.0,-324.0,559.0,-577.0,72.0
19:30:53.311000,-289.0,-26.0,-695.0,-1150.0,-557.0,-327.0,559.0,-577.0,72.0
19:30:53.316000,-289.0,-18.0,-685.0,-1100.0,-520.0,-321.0,564.0,-573.0,63.0
19:30:53.321000,-295.0,-14.0,-670.0,-1056.0,-482.0,-322.0,564.0,-573.0,63.0
19:30:53.325000,-305.0,-9.0,-658.0,-1023.0,-454.0,-318.0,559.0,-574.0,67.0
19:30:53.330000,-329.0,0.0,-651.0,-1023.0,-454.0,-318.0,559.0,-574.0,67.0
19:30:53.335000,-331.0,2.0,-636.0,-996.0,-457.0,-315.0,556.0,-573.0,82.0
19:30:53.340000,-336.0,0.0,-609.0,-973.0,-472.0,-311.0,556.0,-573.0,82.0
19:30:53.344000,-331.0,-2.0,-585.0,-971.0,-485.0,-305.0,556.0,-573.0,82.0
19:30:53.349000,-303.0,-6.0,-583.0,-989.0,-490.0,-311.0,558.0,-553.0,69.0
19:30:53.354000,-275.0,-11.0,-579.0,-971.0,-496.0,-304.0,558.0,-553.0,69.0
19:30:53.359000,-235.0,-18.0,-567.0,-927.0,-529.0,-290.0,570.0,-553.0,67.0
19:30:53.363000,-179.0,-35.0,-560.0,-906.0,-567.0,-284.0,570.0,-553.0,67.0
19:30:53.367000,-179.0,-35.0,-560.0,-915.0,-574.0,-283.0,570.0,-553.0,67.0
19:30:53.373000,-60.0,-59.0,-615.0,-962.0,-535.0,-280.0,580.0,-550.0,72.0
19:30:53.377000,-60.0,-59.0,-615.0,-1014.0,-476.0,-269.0,580.0,-550.0,72.0
19:30:53.382000,-17.0,-65.0,-661.0,-1014.0,-423.0,-254.0,568.0,-550.0,64.0
19:30:53.387000,8.0,-63.0,-656.0,-984.0,-374.0,-236.0,568.0,-550.0,64.0
19:30:53.391000,22.0,-60.0,-619.0,-972.0,-321.0,-225.0,568.0,-550.0,64.0
19:30:53.396000,18.0,-57.0,-596.0,-964.0,-273.0,-220.0,576.0,-540.0,64.0
19:30:53.401000,4.0,-54.0,-583.0,-948.0,-240.0,-214.0,576.0,-540.0,64.0
19:30:53.406000,-21.0,-54.0,-559.0,-929.0,-242.0,-198.0,571.0,-546.0,64.0
19:30:53.410000,-67.0,-53.0,-518.0,-902.0,-251.0,-202.0,571.0,-546.0,64.0
19:30:53.414000,-70.0,-53.0,-494.0,-860.0,-187.0,-212.0,571.0,-546.0,64.0
19:30:53.420000,-72.0,-58.0,-476.0,-827.0,-117.0,-202.0,580.0,-531.0,69.0
19:30:53.424000,-91.0,-60.0,-459.0,-820.0,-109.0,-205.0,580.0,-531.0,69.0
19:30:53.429000,-93.0,-62.0,-420.0,-820.0,-109.0,-205.0,580.0,-535.0,67.0
19:30:53.434000,-100.0,-60.0,-359.0,-878.0,-173.0,-202.0,580.0,-535.0,67.0
19:30:53.438000,-95.0,-59.0,-329.0,-878.0,-164.0,-202.0,580.0,-535.0,67.0
19:30:53.443000,-90.0,-60.0,-329.0,-913.0,-164.0,-202.0,576.0,-528.0,55.0
19:30:53.448000,-87.0,-60.0,-321.0,-920.0,-149.0,-195.0,576.0,-528.0,55.0
19:30:53.453000,-91.0,-54.0,-297.0,-918.0,-136.0,-187.0,576.0,-528.0,69.0
19:30:53.457000,-102.0,-45.0,-273.0,-921.0,-117.0,-182.0,576.0,-528.0,69.0
19:30:53.461000,-109.0,-39.0,-250.0,-934.0,-103.0,-177.0,567.0,-529.0,67.0
19:30:53.467000,-121.0,-32.0,-225.0,-948.0,-101.0,-175.0,567.0,-529.0,67.0
19:30:53.471000,-127.0,-29.0,-205.0,-970.0,-104.0,-174.0,567.0,-529.0,67.0
19:30:53.476000,-129.0,-29.0,-186.0,-984.0,-108.0,-173.0,577.0,-525.0,67.0
19:30:53.481000,-130.0,-26.0,-166.0,-982.0,-108.0,-176.0,577.0,-525.0,67.0
19:30:53.485000,-128.0,-23.0,-157.0,-990.0,-93.0,-177.0,585.0,-519.0,66.0
19:30:53.490000,-128.0,-23.0,-157.0,-998.0,-70.0,-178.0,585.0,-519.0,66.0
19:30:53.494000,-126.0,-22.0,-164.0,-983.0,-55.0,-179.0,585.0,-519.0,66.0
19:30:53.500000,-119.0,-27.0,-161.0,-959.0,-54.0,-177.0,586.0,-516.0,61.0
19:30:53.504000,-109.0,-37.0,-138.0,-953.0,-42.0,-180.0,586.0,-516.0,61.0
19:30:53.509000,-100.0,-45.0,-112.0,-961.0,-13.0,-186.0,577.0,-523.0,72.0
19:30:53.514000,-93.0,-53.0,-87.0,-973.0,17.0,-192.0,577.0,-523.0,72.0
19:30:53.518000,-98.0,-53.0,-74.0,-984.0,33.0,-199.0,577.0,-523.0,72.0
19:30:53.523000,-116.0,-51.0,-37.0,-995.0,35.0,-206.0,579.0,-514.0,72.0
19:30:53.528000,-122.0,-54.0,-4.0,-1015.0,55.0,-216.0,579.0,-514.0,72.0
19:30:53.532000,-128.0,-46.0,6.0,-1052.0,75.0,-221.0,571.0,-517.0,61.0
19:30:53.537000,-139.0,-38.0,18.0,-1062.0,88.0,-232.0,571.0,-517.0,61.0
19:30:53.541000,-133.0,-35.0,-4.0,-1045.0,100.0,-238.0,571.0,-517.0,61.0
19:30:53.547000,-131.0,-35.0,-22.0,-1033.0,118.0,-234.0,580.0,-519.0,58.0
19:30:53.551000,-128.0,-32.0,-39.0,-1028.0,151.0,-233.0,580.0,-519.0,58.0
19:30:53.556000,-122.0,-32.0,-70.0,-1028.0,151.0,-233.0,582.0,-517.0,60.0
19:30:53.561000,-108.0,-35.0,-107.0,-1026.0,180.0,-232.0,582.0,-517.0,60.0
19:30:53.565000,-95.0,-37.0,-152.0,-1019.0,218.0,-233.0,582.0,-517.0,60.0
19:30:53.570000,-81.0,-42.0,-173.0,-1006.0,252.0,-234.0,568.0,-517.0,55.0
19:30:53.575000,-67.0,-44.0,-172.0,-1001.0,276.0,-238.0,568.0,-517.0,55.0
19:30:53.579000,-60.0,-42.0,-172.0,-1018.0,328.0,-243.0,571.0,-517.0,58.0
19:30:53.584000,-65.0,-32.0,-158.0,-1038.0,390.0,-249.0,571.0,-517.0,58.0
19:30:53.588000,-65.0,-32.0,-158.0,-1053.0,434.0,-260.0,571.0,-517.0,58.0
19:30:53.594000,-58.0,-32.0,-102.0,-1052.0,470.0,-259.0,576.0,-517.0,72.0
19:30:53.598000,-58.0,-32.0,-102.0,-1038.0,474.0,-260.0,576.0,-517.0,72.0
19:30:53.603000,-52.0,-34.0,-38.0,-1020.0,442.0,-270.0,573.0,-514.0,84.0
19:30:53.608000,-30.0,-42.0,40.0,-1017.0,414.0,-278.0,573.0,-514.0,84.0
19:30:53.612000,-13.0,-51.0,147.0,-1055.0,437.0,-283.0,573.0,-514.0,84.0
19:30:53.617000,10.0,-61.0,167.0,-1090.0,489.0,-287.0,579.0,-528.0,63.0
19:30:53.622000,44.0,-72.0,125.0,-1084.0,508.0,-278.0,579.0,-528.0,63.0
19:30:53.626000,67.0,-80.0,158.0,-1109.0,557.0,-268.0,568.0,-520.0,58.0
19:30:53.631000,85.0,-83.0,170.0,-1154.0,619.0,-249.0,568.0,-520.0,58.0
19:30:53.635000,57.0,-64.0,149.0,-1176.0,624.0,-224.0,568.0,-520.0,58.0
19:30:53.641000,34.0,-43.0,116.0,-1181.0,619.0,-210.0,571.0,-522.0,70.0
19:30:53.645000,10.0,-26.0,80.0,-1168.0,625.0,-199.0,571.0,-522.0,70.0
19:30:53.650000,-9.0,-7.0,43.0,-1168.0,625.0,-199.0,567.0,-532.0,57.0
19:30:53.655000,-41.0,18.0,-5.0,-1161.0,595.0,-188.0,567.0,-532.0,57.0
19:30:53.659000,-64.0,43.0,-44.0,-1161.0,595.0,-188.0,567.0,-532.0,57.0
19:30:53.664000,-61.0,59.0,-58.0,-1157.0,579.0,-199.0,573.0,-516.0,64.0
19:30:53.669000,-50.0,79.0,-79.0,-1183.0,604.0,-218.0,573.0,-516.0,64.0
19:30:53.673000,-48.0,104.0,-129.0,-1235.0,638.0,-235.0,567.0,-511.0,58.0
19:30:53.678000,-18.0,123.0,-173.0,-1273.0,658.0,-259.0,567.0,-511.0,58.0
19:30:53.682000,24.0,128.0,-184.0,-1295.0,715.0,-288.0,567.0,-511.0,58.0
19:30:53.688000,36.0,140.0,-187.0,-1318.0,777.0,-307.0,573.0,-525.0,52.0
19:30:53.692000,63.0,140.0,-182.0,-1372.0,823.0,-330.0,573.0,-525.0,52.0
19:30:53.697000,90.0,127.0,-186.0,-1433.0,884.0,-361.0,561.0,-517.0,70.0
19:30:53.702000,91.0,107.0,-210.0,-1415.0,922.0,-383.0,561.0,-517.0,70.0
19:30:53.706000,91.0,107.0,-210.0,-1351.0,971.0,-400.0,561.0,-517.0,70.0
19:30:53.711000,73.0,74.0,-249.0,-1315.0,1027.0,-432.0,576.0,-514.0,57.0
19:30:53.716000,60.0,47.0,-242.0,-1302.0,1089.0,-463.0,576.0,-514.0,57.0
19:30:53.720000,64.0,21.0,-179.0,-1306.0,1211.0,-462.0,565.0,-513.0,63.0
19:30:53.725000,65.0,-29.0,-143.0,-1306.0,1324.0,-453.0,565.0,-513.0,63.0
19:30:53.729000,45.0,-54.0,-63.0,-1335.0,1334.0,-444.0,565.0,-513.0,63.0
19:30:53.735000,37.0,-98.0,-23.0,-1391.0,1250.0,-436.0,576.0,-513.0,63.0
19:30:53.739000,25.0,-119.0,-23.0,-1391.0,1148.0,-415.0,576.0,-513.0,63.0
19:30:53.744000,3.0,-130.0,49.0,-1413.0,1087.0,-386.0,565.0,-526.0,57.0
19:30:53.749000,21.0,-135.0,130.0,-1499.0,1024.0,-355.0,565.0,-526.0,57.0
19:30:53.753000,18.0,-145.0,116.0,-1593.0,946.0,-336.0,565.0,-526.0,57.0
19:30:53.758000,-17.0,-97.0,-18.0,-1667.0,904.0,-296.0,573.0,-511.0,58.0
19:30:53.763000,-42.0,-125.0,-319.0,-1577.0,827.0,-267.0,573.0,-511.0,58.0
19:30:53.767000,-12.0,-106.0,-492.0,-1577.0,827.0,-267.0,574.0,-526.0,55.0
19:30:53.772000,42.0,-84.0,-455.0,-1433.0,649.0,-267.0,574.0,-526.0,55.0
19:30:53.776000,18.0,-14.0,-261.0,-1691.0,388.0,-216.0,574.0,-526.0,55.0
19:30:53.782000,-10.0,23.0,-175.0,-1691.0,388.0,-216.0,570.0,-519.0,55.0
19:30:53.786000,-112.0,24.0,-323.0,-1846.0,293.0,-193.0,570.0,-519.0,55.0
19:30:53.791000,-162.0,70.0,-561.0,-1742.0,368.0,-167.0,583.0,-510.0,61.0
19:30:53.796000,-220.0,175.0,-546.0,-1481.0,376.0,-151.0,583.0,-510.0,61.0
19:30:53.800000,-261.0,175.0,-481.0,-1339.0,185.0,-142.0,583.0,-510.0,61.0
19:30:53.805000,-291.0,184.0,-427.0,-1298.0,25.0,-120.0,577.0,-519.0,51.0
19:30:53.810000,-334.0,245.0,-487.0,-1313.0,-142.0,-124.0,577.0,-519.0,51.0
19:30:53.814000,-285.0,269.0,-333.0,-1308.0,-374.0,-135.0,580.0,-520.0,52.0
19:30:53.819000,-285.0,269.0,-333.0,-1219.0,-581.0,-133.0,580.0,-520.0,52.0
19:30:53.826000,-229.0,348.0,-164.0,-1138.0,-640.0,-114.0,570.0,-517.0,48.0
19:30:53.829000,-229.0,348.0,-164.0,-1138.0,-640.0,-114.0,570.0,-517.0,48.0
19:30:53.833000,-161.0,312.0,-419.0,-1087.0,-715.0,-89.0,570.0,-517.0,48.0
19:30:53.838000,-134.0,267.0,-564.0,-856.0,-776.0,-92.0,594.0,-519.0,54.0
19:30:53.843000,-123.0,238.0,-560.0,-700.0,-767.0,-117.0,594.0,-519.0,54.0
19:30:53.847000,-1.0,261.0,-387.0,-787.0,-875.0,-129.0,588.0,-511.0,66.0
19:30:53.852000,126.0,248.0,-299.0,-968.0,-1025.0,-107.0,588.0,-511.0,66.0
19:30:53.856000,182.0,258.0,-205.0,-1099.0,-939.0,-103.0,588.0,-511.0,66.0
19:30:53.861000,198.0,222.0,-367.0,-804.0,-779.0,-50.0,591.0,-511.0,54.0
19:30:53.866000,141.0,163.0,-235.0,-563.0,-498.0,-62.0,591.0,-511.0,54.0
19:30:53.871000,90.0,137.0,-495.0,-563.0,-498.0,-62.0,589.0,-502.0,64.0
19:30:53.876000,196.0,85.0,-714.0,-587.0,-519.0,-148.0,589.0,-502.0,64.0
19:30:53.880000,249.0,37.0,-572.0,-587.0,-519.0,-148.0,589.0,-502.0,64.0
19:30:53.885000,238.0,-73.0,-840.0,-830.0,-537.0,-130.0,594.0,-499.0,61.0
19:30:53.890000,89.0,-144.0,-938.0,-836.0,-298.0,-93.0,594.0,-499.0,61.0
19:30:53.894000,95.0,-224.0,-675.0,-508.0,-161.0,-112.0,594.0,-496.0,60.0
19:30:53.899000,125.0,-178.0,-732.0,-589.0,-98.0,-159.0,594.0,-496.0,60.0
19:30:53.903000,135.0,-163.0,-959.0,-949.0,-235.0,-164.0,594.0,-496.0,60.0
19:30:53.908000,142.0,-121.0,-613.0,-1135.0,-472.0,-155.0,595.0,-493.0,55.0
19:30:53.913000,32.0,-198.0,-413.0,-1097.0,-386.0,-89.0,595.0,-493.0,55.0
19:30:53.918000,-28.0,-157.0,-595.0,-985.0,-50.0,-59.0,598.0,-492.0,63.0
19:30:53.923000,-88.0,-137.0,-656.0,-825.0,53.0,-72.0,598.0,-492.0,63.0
19:30:53.927000,-88.0,-137.0,-656.0,-869.0,-32.0,-20.0,598.0,-492.0,63.0
19:30:53.932000,-116.0,-142.0,-669.0,-892.0,-286.0,-28.0,589.0,-487.0,61.0
19:30:53.937000,-126.0,-74.0,-360.0,-920.0,-504.0,-15.0,589.0,-487.0,61.0
19:30:53.941000,-58.0,-54.0,-220.0,-1175.0,-369.0,43.0,592.0,-484.0,60.0
19:30:53.946000,-83.0,-37.0,-333.0,-1230.0,-225.0,83.0,592.0,-484.0,60.0
19:30:53.950000,-93.0,-9.0,-411.0,-1135.0,-314.0,64.0,592.0,-484.0,60.0
19:30:53.955000,-82.0,67.0,-605.0,-1056.0,-446.0,134.0,594.0,-477.0,57.0
19:30:53.960000,-149.0,-56.0,-802.0,-741.0,-311.0,142.0,594.0,-477.0,57.0
19:30:53.965000,-212.0,-8.0,-480.0,-636.0,-54.0,51.0,606.0,-481.0,52.0
19:30:53.970000,-207.0,43.0,-312.0,-966.0,-139.0,40.0,606.0,-481.0,52.0
19:30:53.974000,-114.0,25.0,-309.0,-1166.0,-382.0,39.0,606.0,-481.0,52.0
19:30:53.979000,-89.0,42.0,-272.0,-1219.0,-375.0,-2.0,603.0,-472.0,42.0
19:30:53.984000,-15.0,148.0,-465.0,-1206.0,-294.0,28.0,603.0,-472.0,42.0
19:30:53.988000,-49.0,70.0,-498.0,-1206.0,-294.0,28.0,615.0,-468.0,51.0
19:30:53.993000,-172.0,95.0,-291.0,-929.0,-201.0,64.0,615.0,-468.0,51.0
19:30:53.997000,-289.0,78.0,-294.0,-737.0,13.0,28.0,615.0,-468.0,51.0
19:30:54.002000,-291.0,155.0,-341.0,-777.0,141.0,-11.0,600.0,-466.0,63.0
19:30:54.007000,-200.0,128.0,-382.0,-939.0,-35.0,-45.0,600.0,-466.0,63.0
19:30:54.012000,-172.0,121.0,-253.0,-1067.0,-331.0,-20.0,610.0,-465.0,60.0
19:30:54.017000,-94.0,146.0,-203.0,-1136.0,-337.0,-18.0,610.0,-465.0,60.0
19:30:54.021000,-94.0,146.0,-203.0,-1221.0,-233.0,-22.0,610.0,-465.0,60.0
19:30:54.026000,-105.0,18.0,-324.0,-1085.0,-176.0,9.0,606.0,-460.0,54.0
19:30:54.031000,-86.0,-37.0,-44.0,-691.0,-25.0,9.0,606.0,-460.0,54.0
19:30:54.035000,-86.0,-37.0,-44.0,-569.0,98.0,-17.0,592.0,-453.0,54.0
19:30:54.040000,-54.0,-72.0,92.0,-947.0,115.0,-37.0,592.0,-453.0,54.0
19:30:54.044000,42.0,-95.0,-180.0,-1212.0,-54.0,-52.0,592.0,-453.0,54.0
19:30:54.049000,102.0,-95.0,-352.0,-1122.0,-365.0,-55.0,610.0,-459.0,49.0
19:30:54.054000,51.0,-30.0,-196.0,-1095.0,-375.0,-60.0,610.0,-459.0,49.0
19:30:54.059000,0.0,-40.0,-52.0,-1024.0,-154.0,-60.0,594.0,-463.0,63.0
19:30:54.064000,-43.0,0.0,71.0,-967.0,-4.0,-99.0,594.0,-463.0,63.0
19:30:54.068000,-83.0,69.0,-88.0,-1064.0,-10.0,-72.0,594.0,-463.0,63.0
19:30:54.073000,-93.0,38.0,-305.0,-939.0,-162.0,-2.0,598.0,-456.0,54.0
19:30:54.078000,-109.0,-42.0,-142.0,-888.0,-153.0,-4.0,598.0,-456.0,54.0
19:30:54.082000,-115.0,-107.0,39.0,-945.0,-9.0,-48.0,607.0,-462.0,45.0
19:30:54.087000,-129.0,-56.0,-77.0,-1042.0,-2.0,-82.0,607.0,-462.0,45.0
19:30:54.091000,-28.0,-4.0,-405.0,-1122.0,-177.0,-60.0,607.0,-462.0,45.0
19:30:54.096000,102.0,16.0,-621.0,-1154.0,-365.0,-35.0,609.0,-454.0,54.0
19:30:54.101000,190.0,5.0,-564.0,-1154.0,-365.0,-35.0,609.0,-454.0,54.0
19:30:54.106000,154.0,-39.0,-100.0,-1186.0,-504.0,-4.0,610.0,-454.0,54.0
19:30:54.111000,15.0,0.0,58.0,-1179.0,-372.0,-6.0,610.0,-454.0,54.0
19:30:54.115000,-83.0,63.0,-1.0,-1196.0,-12.0,-47.0,610.0,-454.0,54.0
19:30:54.120000,-145.0,171.0,-179.0,-1127.0,246.0,-71.0,607.0,-459.0,46.0
19:30:54.125000,-110.0,144.0,-425.0,-1102.0,289.0,-73.0,607.0,-459.0,46.0
19:30:54.129000,-146.0,126.0,-431.0,-1020.0,81.0,-50.0,607.0,-457.0,45.0
19:30:54.134000,-127.0,132.0,-315.0,-942.0,-66.0,-66.0,607.0,-457.0,45.0
19:30:54.138000,-127.0,132.0,-315.0,-979.0,-80.0,-85.0,607.0,-457.0,45.0
19:30:54.143000,27.0,92.0,-175.0,-1025.0,-107.0,-80.0,615.0,-442.0,61.0
19:30:54.148000,27.0,92.0,-175.0,-1143.0,-177.0,-82.0,615.0,-442.0,61.0
19:30:54.153000,-35.0,101.0,-217.0,-1161.0,-212.0,-88.0,612.0,-448.0,60.0
19:30:54.158000,-135.0,128.0,-165.0,-996.0,-97.0,-109.0,612.0,-448.0,60.0
19:30:54.162000,-112.0,156.0,-53.0,-951.0,10.0,-102.0,612.0,-448.0,60.0
19:30:54.167000,-119.0,143.0,-174.0,-999.0,-30.0,-110.0,619.0,-445.0,37.0
19:30:54.172000,-75.0,178.0,-352.0,-1017.0,-180.0,-114.0,619.0,-445.0,37.0
19:30:54.176000,-63.0,117.0,-510.0,-929.0,-233.0,-122.0,603.0,-453.0,55.0
19:30:54.181000,-61.0,149.0,-315.0,-827.0,-183.0,-142.0,603.0,-453.0,55.0
19:30:54.185000,-77.0,153.0,35.0,-923.0,-84.0,-127.0,603.0,-453.0,55.0
19:30:54.190000,-116.0,194.0,126.0,-1086.0,11.0,-133.0,622.0,-457.0,46.0
19:30:54.195000,-74.0,188.0,-16.0,-1091.0,-41.0,-86.0,622.0,-457.0,46.0
19:30:54.200000,-63.0,151.0,-203.0,-1091.0,-41.0,-86.0,615.0,-439.0,57.0
19:30:54.205000,25.0,154.0,-317.0,-969.0,-139.0,-76.0,615.0,-439.0,57.0
19:30:54.209000,33.0,84.0,-360.0,-969.0,-139.0,-76.0,615.0,-439.0,57.0
19:30:54.214000,-109.0,81.0,-313.0,-873.0,-43.0,-32.0,621.0,-441.0,57.0
19:30:54.219000,-62.0,90.0,-271.0,-735.0,204.0,-67.0,621.0,-441.0,57.0
19:30:54.223000,-11.0,38.0,-313.0,-764.0,266.0,-78.0,618.0,-436.0,52.0
19:30:54.228000,-70.0,96.0,-443.0,-913.0,140.0,-59.0,618.0,-436.0,52.0
19:30:54.235000,2.0,161.0,-414.0,-1212.0,-277.0,-61.0,624.0,-436.0,70.0
19:30:54.237000,-52.0,135.0,-384.0,-1212.0,-277.0,-61.0,624.0,-436.0,70.0
19:30:54.242000,-52.0,135.0,-384.0,-1262.0,-308.0,-21.0,624.0,-436.0,70.0
19:30:54.247000,37.0,172.0,-231.0,-1100.0,-211.0,-67.0,622.0,-432.0,54.0
19:30:54.252000,35.0,176.0,99.0,-963.0,-214.0,-59.0,622.0,-432.0,54.0
19:30:54.256000,35.0,176.0,99.0,-1014.0,-172.0,-43.0,619.0,-433.0,58.0
19:30:54.261000,-37.0,205.0,243.0,-1129.0,-12.0,-63.0,619.0,-433.0,58.0
19:30:54.265000,4.0,236.0,20.0,-1126.0,12.0,-67.0,619.0,-433.0,58.0
19:30:54.270000,73.0,204.0,-177.0,-955.0,-85.0,-40.0,621.0,-423.0,69.0
19:30:54.275000,75.0,174.0,-249.0,-800.0,-99.0,-31.0,621.0,-423.0,69.0
19:30:54.279000,62.0,165.0,-261.0,-800.0,-30.0,-35.0,618.0,-438.0,61.0
19:30:54.284000,44.0,165.0,-272.0,-849.0,37.0,-51.0,618.0,-438.0,61.0
19:30:54.289000,32.0,184.0,-280.0,-906.0,15.0,-57.0,618.0,-438.0,61.0
19:30:54.294000,44.0,165.0,-237.0,-963.0,-59.0,-43.0,615.0,-430.0,61.0
19:30:54.299000,55.0,119.0,-281.0,-986.0,-81.0,-47.0,615.0,-430.0,61.0
19:30:54.303000,56.0,107.0,-501.0,-986.0,-81.0,-47.0,621.0,-424.0,63.0
19:30:54.308000,89.0,183.0,-664.0,-1020.0,-299.0,-89.0,621.0,-424.0,63.0
19:30:54.312000,137.0,177.0,-503.0,-1054.0,-438.0,-46.0,621.0,-424.0,63.0
19:30:54.317000,16.0,141.0,-367.0,-1054.0,-438.0,-46.0,631.0,-430.0,69.0
19:30:54.322000,27.0,136.0,-373.0,-1046.0,-229.0,25.0,631.0,-430.0,69.0
19:30:54.326000,109.0,114.0,-278.0,-844.0,-5.0,-51.0,627.0,-421.0,63.0
19:30:54.331000,132.0,123.0,-259.0,-844.0,-5.0,-51.0,627.0,-421.0,63.0
19:30:54.335000,98.0,130.0,-352.0,-1024.0,43.0,0.0,627.0,-421.0,63.0
19:30:54.341000,163.0,123.0,-488.0,-1099.0,22.0,21.0,634.0,-430.0,69.0
19:30:54.346000,212.0,105.0,-553.0,-1118.0,-27.0,-1.0,634.0,-430.0,69.0
19:30:54.350000,219.0,94.0,-521.0,-1107.0,-98.0,-11.0,634.0,-414.0,49.0
19:30:54.355000,159.0,95.0,-439.0,-1087.0,-47.0,-25.0,634.0,-414.0,49.0
19:30:54.359000,159.0,95.0,-439.0,-1057.0,190.0,-47.0,634.0,-414.0,49.0
19:30:54.364000,90.0,115.0,-539.0,-1038.0,395.0,-97.0,627.0,-424.0,66.0
19:30:54.369000,63.0,140.0,-665.0,-979.0,286.0,-122.0,627.0,-424.0,66.0
19:30:54.373000,14.0,160.0,-693.0,-1023.0,92.0,-45.0,633.0,-415.0,79.0
19:30:54.378000,19.0,145.0,-681.0,-990.0,-110.0,-38.0,633.0,-415.0,79.0
19:30:54.382000,-16.0,125.0,-611.0,-1073.0,-83.0,-144.0,633.0,-415.0,79.0
19:30:54.388000,-7.0,152.0,-686.0,-1223.0,-22.0,-134.0,637.0,-406.0,69.0
19:30:54.393000,2.0,175.0,-689.0,-1192.0,-134.0,-112.0,637.0,-406.0,69.0
19:30:54.397000,30.0,189.0,-622.0,-1193.0,-150.0,-123.0,630.0,-409.0,67.0
19:30:54.402000,74.0,198.0,-577.0,-1173.0,-124.0,-137.0,630.0,-409.0,67.0
19:30:54.406000,92.0,214.0,-512.0,-1165.0,-28.0,-143.0,630.0,-409.0,67.0
19:30:54.411000,97.0,249.0,-494.0,-1164.0,20.0,-114.0,639.0,-397.0,72.0
19:30:54.416000,86.0,283.0,-525.0,-1195.0,51.0,-107.0,639.0,-397.0,72.0
19:30:54.420000,95.0,302.0,-582.0,-1186.0,44.0,-111.0,637.0,-391.0,75.0
19:30:54.425000,91.0,319.0,-603.0,-1186.0,56.0,-138.0,637.0,-391.0,75.0
19:30:54.429000,73.0,344.0,-636.0,-1173.0,56.0,-138.0,637.0,-391.0,75.0
19:30:54.435000,67.0,348.0,-623.0,-1138.0,139.0,-159.0,627.0,-391.0,79.0
19:30:54.440000,43.0,354.0,-609.0,-1018.0,144.0,-147.0,627.0,-391.0,79.0
19:30:54.444000,24.0,343.0,-693.0,-990.0,184.0,-143.0,639.0,-385.0,75.0
19:30:54.449000,21.0,352.0,-786.0,-986.0,215.0,-139.0,639.0,-385.0,75.0
19:30:54.453000,23.0,364.0,-793.0,-981.0,169.0,-138.0,639.0,-385.0,75.0
19:30:54.458000,13.0,372.0,-796.0,-1061.0,133.0,-138.0,640.0,-375.0,73.0
19:30:54.462000,13.0,372.0,-796.0,-1098.0,107.0,-114.0,640.0,-375.0,73.0
19:30:54.468000,2.0,362.0,-728.0,-1065.0,151.0,-131.0,628.0,-372.0,100.0
19:30:54.472000,16.0,367.0,-688.0,-960.0,183.0,-154.0,628.0,-372.0,100.0
19:30:54.477000,16.0,367.0,-688.0,-941.0,199.0,-162.0,642.0,-364.0,87.0
19:30:54.482000,42.0,389.0,-724.0,-1004.0,212.0,-179.0,642.0,-364.0,87.0
19:30:54.486000,57.0,368.0,-809.0,-979.0,167.0,-191.0,642.0,-364.0,87.0
19:30:54.491000,42.0,380.0,-878.0,-1080.0,181.0,-211.0,655.0,-358.0,88.0
19:30:54.496000,9.0,404.0,-812.0,-1205.0,197.0,-189.0,655.0,-358.0,88.0
19:30:54.501000,0.0,421.0,-641.0,-1183.0,149.0,-169.0,645.0,-355.0,91.0
19:30:54.505000,0.0,450.0,-499.0,-1212.0,148.0,-179.0,645.0,-355.0,91.0
19:30:54.509000,17.0,464.0,-463.0,-1071.0,127.0,-174.0,645.0,-355.0,91.0
19:30:54.515000,20.0,454.0,-604.0,-721.0,257.0,-212.0,651.0,-351.0,90.0
19:30:54.519000,67.0,438.0,-928.0,-546.0,550.0,-264.0,651.0,-351.0,90.0
19:30:54.524000,79.0,432.0,-883.0,-546.0,600.0,-264.0,646.0,-345.0,94.0
19:30:54.529000,46.0,428.0,-593.0,-760.0,448.0,-202.0,646.0,-345.0,94.0
19:30:54.533000,12.0,448.0,-472.0,-934.0,362.0,-211.0,646.0,-345.0,94.0
19:30:54.538000,8.0,448.0,-559.0,-934.0,362.0,-211.0,649.0,-337.0,106.0
19:30:54.543000,58.0,415.0,-665.0,-866.0,287.0,-244.0,649.0,-337.0,106.0
19:30:54.548000,105.0,394.0,-604.0,-650.0,241.0,-316.0,663.0,-331.0,108.0
19:30:54.552000,102.0,378.0,-499.0,-720.0,409.0,-414.0,663.0,-331.0,108.0
19:30:54.560000,62.0,381.0,-485.0,-965.0,281.0,-430.0,646.0,-331.0,105.0
19:30:54.562000,44.0,375.0,-394.0,-965.0,281.0,-430.0,646.0,-331.0,105.0
19:30:54.566000,69.0,343.0,-331.0,-1017.0,330.0,-513.0,646.0,-331.0,105.0
19:30:54.571000,43.0,354.0,-377.0,-982.0,424.0,-492.0,643.0,-318.0,109.0
19:30:54.576000,72.0,329.0,-422.0,-914.0,403.0,-445.0,643.0,-318.0,109.0
19:30:54.580000,72.0,329.0,-422.0,-795.0,266.0,-465.0,648.0,-327.0,115.0
19:30:54.585000,116.0,281.0,-416.0,-780.0,375.0,-447.0,648.0,-327.0,115.0
19:30:54.589000,106.0,249.0,-421.0,-801.0,435.0,-443.0,648.0,-327.0,115.0
19:30:54.595000,91.0,194.0,-395.0,-846.0,387.0,-415.0,658.0,-324.0,120.0
19:30:54.599000,46.0,177.0,-357.0,-817.0,276.0,-406.0,658.0,-324.0,120.0
19:30:54.604000,97.0,104.0,-278.0,-788.0,200.0,-404.0,652.0,-319.0,115.0
19:30:54.609000,58.0,95.0,-192.0,-988.0,429.0,-373.0,652.0,-319.0,115.0
19:30:54.613000,-2.0,71.0,-98.0,-1027.0,476.0,-332.0,658.0,-316.0,118.0
19:30:54.618000,28.0,17.0,45.0,-909.0,369.0,-332.0,658.0,-316.0,118.0
19:30:54.622000,81.0,1.0,-49.0,-778.0,291.0,-302.0,658.0,-316.0,118.0
19:30:54.627000,113.0,-45.0,-228.0,-663.0,248.0,-263.0,666.0,-319.0,126.0
19:30:54.632000,113.0,-72.0,-411.0,-651.0,390.0,-256.0,666.0,-319.0,126.0
19:30:54.637000,69.0,-79.0,-570.0,-651.0,390.0,-256.0,654.0,-307.0,117.0
19:30:54.642000,42.0,-87.0,-490.0,-795.0,576.0,-206.0,654.0,-307.0,117.0
19:30:54.646000,4.0,-92.0,-414.0,-895.0,559.0,-199.0,654.0,-307.0,117.0
19:30:54.651000,-16.0,-73.0,-424.0,-895.0,559.0,-199.0,658.0,-306.0,118.0
19:30:54.656000,-40.0,-44.0,-457.0,-1015.0,467.0,-208.0,658.0,-306.0,118.0
19:30:54.660000,-21.0,-28.0,-518.0,-1101.0,358.0,-213.0,651.0,-312.0,114.0
19:30:54.665000,-30.0,-14.0,-585.0,-1149.0,298.0,-249.0,651.0,-312.0,114.0
19:30:54.669000,-68.0,16.0,-639.0,-1185.0,300.0,-267.0,651.0,-312.0,114.0
19:30:54.674000,-91.0,32.0,-625.0,-1196.0,347.0,-274.0,657.0,-297.0,108.0
19:30:54.679000,-120.0,60.0,-597.0,-1194.0,361.0,-272.0,657.0,-297.0,108.0
19:30:54.684000,-158.0,98.0,-592.0,-1174.0,363.0,-257.0,658.0,-297.0,112.0
19:30:54.689000,-171.0,124.0,-580.0,-1143.0,404.0,-246.0,658.0,-297.0,112.0
19:30:54.696000,-133.0,121.0,-542.0,-983.0,301.0,-263.0,664.0,-297.0,118.0
19:30:54.698000,-133.0,121.0,-542.0,-983.0,301.0,-263.0,664.0,-297.0,118.0
19:30:54.702000,-90.0,112.0,-502.0,-915.0,262.0,-262.0,664.0,-297.0,118.0
19:30:54.707000,-29.0,81.0,-513.0,-859.0,324.0,-261.0,658.0,-279.0,121.0
19:30:54.712000,5.0,70.0,-573.0,-800.0,416.0,-265.0,658.0,-279.0,121.0
19:30:54.717000,36.0,50.0,-644.0,-757.0,440.0,-259.0,658.0,-279.0,130.0
19:30:54.721000,51.0,35.0,-675.0,-742.0,441.0,-257.0,658.0,-279.0,130.0
19:30:54.726000,77.0,26.0,-651.0,-753.0,430.0,-275.0,658.0,-279.0,130.0
19:30:54.731000,98.0,14.0,-597.0,-780.0,416.0,-301.0,660.0,-276.0,124.0
19:30:54.736000,107.0,0.0,-507.0,-840.0,405.0,-327.0,660.0,-276.0,124.0
19:30:54.740000,95.0,8.0,-424.0,-946.0,429.0,-318.0,655.0,-271.0,135.0
19:30:54.745000,75.0,17.0,-376.0,-1026.0,473.0,-310.0,655.0,-271.0,135.0
19:30:54.749000,84.0,28.0,-342.0,-1006.0,505.0,-327.0,655.0,-271.0,135.0
19:30:54.754000,95.0,32.0,-323.0,-1006.0,556.0,-330.0,652.0,-261.0,126.0
19:30:54.759000,107.0,42.0,-320.0,-920.0,556.0,-330.0,652.0,-261.0,126.0
19:30:54.764000,124.0,42.0,-306.0,-803.0,559.0,-337.0,651.0,-262.0,120.0
19:30:54.768000,125.0,67.0,-359.0,-698.0,542.0,-362.0,651.0,-262.0,120.0
19:30:54.773000,84.0,109.0,-427.0,-743.0,574.0,-377.0,651.0,-262.0,120.0
19:30:54.778000,49.0,133.0,-389.0,-845.0,600.0,-366.0,643.0,-256.0,126.0
19:30:54.782000,30.0,149.0,-350.0,-851.0,584.0,-376.0,643.0,-256.0,126.0
19:30:54.787000,20.0,158.0,-373.0,-851.0,584.0,-376.0,640.0,-259.0,123.0
19:30:54.792000,21.0,157.0,-401.0,-836.0,591.0,-390.0,640.0,-259.0,123.0
19:30:54.796000,21.0,157.0,-401.0,-799.0,582.0,-406.0,640.0,-259.0,123.0
19:30:54.801000,23.0,132.0,-392.0,-772.0,579.0,-445.0,649.0,-255.0,130.0
19:30:54.806000,23.0,132.0,-392.0,-763.0,568.0,-471.0,649.0,-255.0,130.0
19:30:54.811000,29.0,109.0,-369.0,-792.0,550.0,-449.0,664.0,-255.0,126.0
19:30:54.815000,40.0,86.0,-354.0,-823.0,501.0,-449.0,664.0,-255.0,126.0
19:30:54.820000,56.0,58.0,-296.0,-833.0,458.0,-447.0,664.0,-255.0,126.0
19:30:54.825000,76.0,23.0,-218.0,-837.0,452.0,-417.0,648.0,-250.0,120.0
19:30:54.830000,97.0,-11.0,-161.0,-825.0,458.0,-391.0,648.0,-250.0,120.0
19:30:54.834000,107.0,-46.0,-102.0,-784.0,465.0,-382.0,657.0,-244.0,126.0
19:30:54.839000,121.0,-75.0,-42.0,-748.0,476.0,-373.0,657.0,-244.0,126.0
19:30:54.843000,135.0,-100.0,2.0,-729.0,482.0,-356.0,657.0,-244.0,126.0
19:30:54.848000,159.0,-124.0,32.0,-702.0,467.0,-338.0,664.0,-249.0,132.0
19:30:54.853000,187.0,-158.0,42.0,-687.0,457.0,-335.0,664.0,-249.0,132.0
19:30:54.858000,224.0,-191.0,35.0,-687.0,457.0,-335.0,646.0,-249.0,126.0
19:30:54.862000,247.0,-219.0,-8.0,-767.0,591.0,-316.0,646.0,-249.0,126.0
19:30:54.867000,262.0,-241.0,-53.0,-767.0,591.0,-316.0,646.0,-249.0,126.0
19:30:54.872000,256.0,-257.0,-69.0,-796.0,590.0,-284.0,655.0,-243.0,126.0
19:30:54.877000,237.0,-275.0,-55.0,-806.0,590.0,-284.0,655.0,-243.0,126.0
19:30:54.881000,206.0,-291.0,-22.0,-807.0,575.0,-265.0,654.0,-244.0,121.0
19:30:54.886000,179.0,-309.0,2.0,-823.0,579.0,-251.0,654.0,-244.0,121.0
19:30:54.890000,153.0,-326.0,8.0,-850.0,599.0,-243.0,654.0,-244.0,121.0
19:30:54.895000,123.0,-342.0,29.0,-858.0,593.0,-231.0,660.0,-241.0,112.0
19:30:54.900000,98.0,-353.0,67.0,-832.0,561.0,-219.0,660.0,-241.0,112.0
19:30:54.905000,70.0,-358.0,97.0,-805.0,540.0,-207.0,645.0,-238.0,108.0
19:30:54.909000,41.0,-358.0,114.0,-790.0,538.0,-192.0,645.0,-238.0,108.0
19:30:54.914000,41.0,-358.0,114.0,-761.0,536.0,-174.0,645.0,-238.0,108.0
19:30:54.919000,9.0,-347.0,147.0,-710.0,515.0,-156.0,669.0,-252.0,100.0
19:30:54.924000,-16.0,-337.0,193.0,-660.0,474.0,-145.0,669.0,-252.0,100.0
19:30:54.928000,-36.0,-321.0,249.0,-651.0,433.0,-145.0,649.0,-244.0,102.0
19:30:54.933000,-42.0,-307.0,269.0,-688.0,408.0,-153.0,649.0,-244.0,102.0
19:30:54.937000,-40.0,-290.0,234.0,-733.0,404.0,-166.0,649.0,-244.0,102.0
19:30:54.942000,-29.0,-273.0,161.0,-761.0,406.0,-185.0,660.0,-255.0,96.0
19:30:54.947000,-15.0,-253.0,92.0,-776.0,397.0,-201.0,660.0,-255.0,96.0
19:30:54.952000,-4.0,-239.0,32.0,-806.0,406.0,-215.0,661.0,-252.0,97.0
19:30:54.956000,15.0,-229.0,-38.0,-833.0,423.0,-230.0,661.0,-252.0,97.0
19:30:54.961000,30.0,-217.0,-109.0,-823.0,420.0,-241.0,661.0,-252.0,97.0
19:30:54.966000,46.0,-207.0,-149.0,-792.0,404.0,-250.0,655.0,-252.0,105.0
19:30:54.971000,61.0,-201.0,-158.0,-767.0,400.0,-257.0,655.0,-252.0,105.0
19:30:54.975000,76.0,-203.0,-144.0,-767.0,400.0,-257.0,652.0,-241.0,109.0
19:30:54.980000,85.0,-206.0,-108.0,-747.0,410.0,-262.0,652.0,-241.0,109.0
19:30:54.984000,92.0,-213.0,-54.0,-722.0,421.0,-263.0,652.0,-241.0,109.0
19:30:54.989000,102.0,-229.0,22.0,-704.0,430.0,-257.0,655.0,-246.0,97.0
19:30:54.994000,100.0,-238.0,113.0,-686.0,430.0,-247.0,655.0,-246.0,97.0
19:30:54.999000,95.0,-246.0,217.0,-669.0,428.0,-233.0,654.0,-235.0,91.0
19:30:55.003000,89.0,-252.0,331.0,-649.0,414.0,-214.0,654.0,-235.0,91.0
19:30:55.008000,89.0,-252.0,331.0,-619.0,386.0,-192.0,654.0,-235.0,91.0
19:30:55.013000,62.0,-246.0,550.0,-603.0,366.0,-169.0,669.0,-247.0,93.0
19:30:55.018000,42.0,-226.0,600.0,-597.0,357.0,-150.0,669.0,-247.0,93.0
19:30:55.022000,42.0,-226.0,600.0,-602.0,347.0,-132.0,666.0,-244.0,82.0
19:30:55.027000,16.0,-200.0,605.0,-627.0,339.0,-117.0,666.0,-244.0,82.0
19:30:55.031000,-7.0,-175.0,568.0,-655.0,324.0,-108.0,666.0,-244.0,82.0
19:30:55.036000,-28.0,-143.0,511.0,-685.0,303.0,-105.0,660.0,-243.0,82.0
19:30:55.041000,-49.0,-105.0,445.0,-718.0,286.0,-104.0,660.0,-243.0,82.0
19:30:55.046000,-65.0,-67.0,377.0,-744.0,272.0,-102.0,666.0,-256.0,79.0
19:30:55.050000,-79.0,-32.0,310.0,-749.0,264.0,-102.0,666.0,-256.0,79.0
19:30:55.058000,-88.0,23.0,196.0,-714.0,238.0,-105.0,669.0,-271.0,94.0
19:30:55.060000,-88.0,23.0,196.0,-714.0,238.0,-105.0,669.0,-271.0,94.0
19:30:55.064000,-88.0,43.0,158.0,-694.0,231.0,-107.0,669.0,-271.0,94.0
19:30:55.069000,-88.0,58.0,135.0,-680.0,236.0,-107.0,655.0,-264.0,93.0
19:30:55.074000,-85.0,65.0,121.0,-659.0,247.0,-113.0,655.0,-264.0,93.0
19:30:55.079000,-88.0,69.0,128.0,-659.0,247.0,-113.0,675.0,-255.0,90.0
19:30:55.083000,-96.0,67.0,156.0,-628.0,288.0,-122.0,675.0,-255.0,90.0
19:30:55.087000,-109.0,63.0,189.0,-602.0,288.0,-122.0,675.0,-255.0,90.0
19:30:55.093000,-127.0,62.0,228.0,-586.0,311.0,-131.0,679.0,-261.0,85.0
19:30:55.097000,-147.0,56.0,273.0,-578.0,314.0,-134.0,679.0,-261.0,85.0
19:30:55.102000,-166.0,51.0,327.0,-548.0,275.0,-129.0,666.0,-264.0,87.0
19:30:55.107000,-181.0,44.0,380.0,-548.0,275.0,-129.0,666.0,-264.0,87.0
19:30:55.111000,-185.0,35.0,423.0,-526.0,241.0,-123.0,666.0,-264.0,87.0
19:30:55.116000,-178.0,23.0,457.0,-502.0,203.0,-118.0,673.0,-259.0,96.0
19:30:55.121000,-154.0,5.0,482.0,-493.0,162.0,-112.0,673.0,-259.0,96.0
19:30:55.126000,-124.0,-9.0,483.0,-493.0,126.0,-109.0,672.0,-270.0,91.0
19:30:55.130000,-88.0,-22.0,476.0,-506.0,107.0,-108.0,672.0,-270.0,91.0
19:30:55.134000,-88.0,-22.0,476.0,-527.0,93.0,-105.0,672.0,-270.0,91.0
19:30:55.140000,-53.0,-35.0,473.0,-546.0,85.0,-101.0,664.0,-270.0,87.0
19:30:55.144000,-18.0,-44.0,462.0,-557.0,82.0,-98.0,664.0,-270.0,87.0
19:30:55.149000,6.0,-47.0,455.0,-571.0,90.0,-94.0,678.0,-270.0,102.0
19:30:55.154000,23.0,-49.0,451.0,-583.0,106.0,-91.0,678.0,-270.0,102.0
19:30:55.158000,35.0,-51.0,447.0,-577.0,119.0,-91.0,678.0,-270.0,102.0
19:30:55.163000,36.0,-52.0,449.0,-565.0,139.0,-93.0,679.0,-282.0,96.0
19:30:55.168000,30.0,-51.0,455.0,-561.0,161.0,-94.0,679.0,-282.0,96.0
19:30:55.173000,18.0,-47.0,465.0,-563.0,176.0,-95.0,681.0,-282.0,81.0
19:30:55.177000,3.0,-42.0,470.0,-560.0,175.0,-101.0,681.0,-282.0,81.0
19:30:55.181000,-11.0,-38.0,471.0,-547.0,161.0,-107.0,681.0,-282.0,81.0
19:30:55.187000,-22.0,-37.0,477.0,-533.0,146.0,-112.0,684.0,-289.0,91.0
19:30:55.191000,-32.0,-39.0,489.0,-529.0,138.0,-115.0,684.0,-289.0,91.0
19:30:55.196000,-39.0,-41.0,499.0,-530.0,133.0,-116.0,682.0,-291.0,81.0
19:30:55.201000,-47.0,-42.0,507.0,-530.0,133.0,-116.0,682.0,-291.0,81.0
19:30:55.205000,-57.0,-45.0,520.0,-522.0,120.0,-114.0,682.0,-291.0,81.0
19:30:55.210000,-65.0,-49.0,535.0,-508.0,101.0,-114.0,664.0,-292.0,99.0
19:30:55.215000,-70.0,-54.0,546.0,-494.0,80.0,-111.0,664.0,-292.0,99.0
19:30:55.220000,-72.0,-60.0,553.0,-482.0,56.0,-106.0,676.0,-312.0,85.0
19:30:55.224000,-65.0,-72.0,551.0,-475.0,33.0,-105.0,676.0,-312.0,85.0
19:30:55.228000,-65.0,-72.0,551.0,-481.0,22.0,-106.0,676.0,-312.0,85.0
19:30:55.234000,-44.0,-94.0,531.0,-497.0,21.0,-104.0,685.0,-298.0,91.0
19:30:55.238000,-35.0,-102.0,519.0,-516.0,21.0,-101.0,685.0,-298.0,91.0
19:30:55.243000,-35.0,-102.0,519.0,-525.0,17.0,-98.0,669.0,-316.0,87.0
19:30:55.248000,-25.0,-111.0,506.0,-527.0,14.0,-96.0,669.0,-316.0,87.0
19:30:55.252000,-13.0,-121.0,489.0,-529.0,19.0,-94.0,669.0,-316.0,87.0
19:30:55.257000,-5.0,-127.0,474.0,-536.0,32.0,-89.0,688.0,-313.0,82.0
19:30:55.262000,-5.0,-130.0,466.0,-545.0,45.0,-85.0,688.0,-313.0,82.0
19:30:55.267000,-11.0,-133.0,457.0,-545.0,51.0,-81.0,684.0,-309.0,78.0
19:30:55.271000,-22.0,-135.0,450.0,-540.0,50.0,-78.0,684.0,-309.0,78.0
19:30:55.275000,-37.0,-138.0,448.0,-544.0,55.0,-77.0,684.0,-309.0,78.0
19:30:55.281000,-55.0,-139.0,437.0,-557.0,68.0,-78.0,678.0,-318.0,84.0
19:30:55.285000,-73.0,-136.0,418.0,-569.0,75.0,-83.0,678.0,-318.0,84.0
19:30:55.290000,-91.0,-132.0,402.0,-581.0,66.0,-90.0,687.0,-324.0,88.0
19:30:55.295000,-106.0,-127.0,386.0,-594.0,57.0,-96.0,687.0,-324.0,88.0
19:30:55.299000,-116.0,-117.0,364.0,-606.0,48.0,-103.0,687.0,-324.0,88.0
19:30:55.304000,-121.0,-106.0,340.0,-606.0,48.0,-103.0,681.0,-334.0,79.0
19:30:55.309000,-117.0,-95.0,315.0,-616.0,35.0,-111.0,681.0,-334.0,79.0
19:30:55.314000,-108.0,-84.0,290.0,-625.0,23.0,-119.0,681.0,-328.0,93.0
19:30:55.318000,-98.0,-71.0,275.0,-631.0,13.0,-125.0,681.0,-328.0,93.0
19:30:55.322000,-84.0,-60.0,271.0,-634.0,3.0,-127.0,681.0,-328.0,93.0
19:30:55.328000,-74.0,-49.0,274.0,-638.0,0.0,-128.0,676.0,-330.0,76.0
19:30:55.332000,-65.0,-42.0,282.0,-639.0,2.0,-132.0,676.0,-330.0,76.0
19:30:55.337000,-65.0,-42.0,282.0,-643.0,12.0,-138.0,678.0,-324.0,93.0
19:30:55.342000,-65.0,-35.0,301.0,-654.0,33.0,-143.0,678.0,-324.0,93.0
19:30:55.346000,-65.0,-35.0,301.0,-662.0,59.0,-149.0,678.0,-324.0,93.0
19:30:55.351000,-74.0,-35.0,309.0,-660.0,80.0,-157.0,664.0,-336.0,94.0
19:30:55.356000,-88.0,-37.0,316.0,-647.0,90.0,-168.0,664.0,-336.0,94.0
19:30:55.361000,-100.0,-43.0,324.0,-635.0,100.0,-180.0,678.0,-342.0,75.0
19:30:55.365000,-109.0,-53.0,326.0,-632.0,121.0,-196.0,678.0,-342.0,75.0
19:30:55.369000,-115.0,-64.0,322.0,-633.0,152.0,-213.0,678.0,-342.0,75.0
19:30:55.375000,-121.0,-74.0,311.0,-633.0,177.0,-225.0,681.0,-349.0,79.0
19:30:55.379000,-127.0,-84.0,308.0,-631.0,183.0,-233.0,681.0,-349.0,79.0
19:30:55.384000,-134.0,-90.0,319.0,-634.0,182.0,-238.0,682.0,-343.0,79.0
19:30:55.389000,-142.0,-95.0,333.0,-643.0,184.0,-243.0,682.0,-343.0,79.0
19:30:55.393000,-150.0,-98.0,351.0,-657.0,184.0,-250.0,682.0,-343.0,79.0
19:30:55.398000,-159.0,-101.0,370.0,-685.0,189.0,-255.0,682.0,-348.0,73.0
19:30:55.403000,-169.0,-100.0,381.0,-720.0,200.0,-258.0,682.0,-348.0,73.0
19:30:55.408000,-179.0,-98.0,383.0,-720.0,200.0,-258.0,682.0,-355.0,79.0
