hh:mm:ss.ms,gyroX[mdps],gyroY[mdps],gyroZ[mdps],accX[mg],accY[mg],accZ[mg],magX[mG],magY[mG],magZ[mG]
19:45:19.746000,-483.0,-121.0,-32.0,-989.0,-708.0,46.0,0.0,0.0,0.0
19:45:19.751000,-386.0,-128.0,-103.0,-1021.0,-745.0,28.0,0.0,0.0,0.0
19:45:19.756000,-319.0,-135.0,-139.0,-1021.0,-745.0,28.0,0.0,0.0,0.0
19:45:19.760000,-289.0,-125.0,-212.0,-1076.0,-662.0,21.0,0.0,0.0,0.0
19:45:19.765000,-237.0,-117.0,-289.0,-1076.0,-662.0,21.0,0.0,0.0,0.0
19:45:19.770000,-177.0,-105.0,-322.0,-1063.0,-561.0,8.0,0.0,0.0,0.0
19:45:19.775000,-177.0,-81.0,-326.0,-1063.0,-561.0,8.0,0.0,0.0,0.0
19:45:19.779000,-177.0,-81.0,-326.0,-1033.0,-414.0,-6.0,0.0,0.0,0.0
19:45:19.784000,-175.0,-57.0,-320.0,-1033.0,-414.0,-6.0,0.0,0.0,0.0
19:45:19.789000,-190.0,-28.0,-318.0,-1086.0,-274.0,-15.0,0.0,0.0,0.0
19:45:19.793000,-203.0,1.0,-358.0,-1086.0,-274.0,-15.0,0.0,0.0,0.0
19:45:19.798000,-212.0,17.0,-395.0,-1129.0,-233.0,-24.0,0.0,0.0,0.0
19:45:19.803000,-210.0,25.0,-395.0,-1129.0,-233.0,-24.0,0.0,0.0,0.0
19:45:19.807000,-203.0,30.0,-406.0,-1098.0,-253.0,-31.0,0.0,0.0,0.0
19:45:19.812000,-188.0,32.0,-424.0,-1098.0,-253.0,-31.0,0.0,0.0,0.0
19:45:19.817000,-170.0,35.0,-426.0,-1077.0,-231.0,-47.0,0.0,0.0,0.0
19:45:19.822000,-165.0,30.0,-422.0,-1077.0,-231.0,-47.0,0.0,0.0,0.0
19:45:19.826000,-169.0,16.0,-402.0,-1048.0,-207.0,-51.0,0.0,0.0,0.0
19:45:19.831000,-167.0,3.0,-374.0,-1048.0,-207.0,-51.0,0.0,0.0,0.0
19:45:19.835000,-150.0,-15.0,-379.0,-1038.0,-159.0,-58.0,0.0,0.0,0.0
19:45:19.840000,-163.0,-23.0,-352.0,-1038.0,-159.0,-58.0,0.0,0.0,0.0
19:45:19.845000,-165.0,-41.0,-304.0,-1038.0,-159.0,-58.0,0.0,0.0,0.0
19:45:19.850000,-193.0,-63.0,-288.0,-1053.0,-129.0,-66.0,0.0,0.0,0.0
19:45:19.854000,-212.0,-81.0,-294.0,-1053.0,-129.0,-66.0,0.0,0.0,0.0
19:45:19.859000,-231.0,-98.0,-283.0,-1030.0,-150.0,-54.0,0.0,0.0,0.0
19:45:19.864000,-253.0,-112.0,-276.0,-1030.0,-150.0,-54.0,0.0,0.0,0.0
19:45:19.869000,-292.0,-113.0,-272.0,-978.0,-129.0,-48.0,0.0,0.0,0.0
19:45:19.873000,-348.0,-114.0,-244.0,-978.0,-129.0,-48.0,0.0,0.0,0.0
19:45:19.878000,-385.0,-112.0,-210.0,-919.0,-84.0,-38.0,0.0,0.0,0.0
19:45:19.883000,-421.0,-106.0,-216.0,-919.0,-84.0,-38.0,0.0,0.0,0.0
19:45:19.887000,-421.0,-106.0,-216.0,-916.0,-80.0,-30.0,0.0,0.0,0.0
19:45:19.892000,-452.0,-100.0,-277.0,-916.0,-80.0,-30.0,0.0,0.0,0.0
19:45:19.897000,-467.0,-98.0,-351.0,-938.0,-89.0,-29.0,0.0,0.0,0.0
19:45:19.901000,-483.0,-108.0,-425.0,-938.0,-89.0,-29.0,0.0,0.0,0.0
19:45:19.906000,-504.0,-113.0,-479.0,-910.0,-78.0,-27.0,0.0,0.0,0.0
19:45:19.911000,-511.0,-119.0,-513.0,-910.0,-78.0,-27.0,0.0,0.0,0.0
19:45:19.916000,-531.0,-130.0,-533.0,-960.0,-71.0,-19.0,0.0,0.0,0.0
19:45:19.920000,-551.0,-141.0,-574.0,-960.0,-71.0,-19.0,0.0,0.0,0.0
19:45:19.925000,-569.0,-154.0,-590.0,-988.0,-49.0,4.0,0.0,0.0,0.0
19:45:19.930000,-594.0,-170.0,-586.0,-988.0,-49.0,4.0,0.0,0.0,0.0
19:45:19.934000,-632.0,-190.0,-580.0,-913.0,9.0,11.0,0.0,0.0,0.0
19:45:19.939000,-669.0,-186.0,-565.0,-913.0,9.0,11.0,0.0,0.0,0.0
19:45:19.944000,-714.0,-175.0,-539.0,-854.0,45.0,-28.0,0.0,0.0,0.0
19:45:19.948000,-733.0,-156.0,-533.0,-854.0,45.0,-28.0,0.0,0.0,0.0
19:45:19.953000,-775.0,-155.0,-578.0,-971.0,42.0,-25.0,0.0,0.0,0.0
19:45:19.958000,-802.0,-163.0,-626.0,-971.0,42.0,-25.0,0.0,0.0,0.0
19:45:19.963000,-851.0,-170.0,-631.0,-971.0,42.0,-25.0,0.0,0.0,0.0
19:45:19.967000,-896.0,-142.0,-609.0,-1134.0,59.0,17.0,0.0,0.0,0.0
19:45:19.972000,-924.0,-133.0,-611.0,-1134.0,59.0,17.0,0.0,0.0,0.0
19:45:19.977000,-940.0,-102.0,-609.0,-1108.0,71.0,20.0,0.0,0.0,0.0
19:45:19.981000,-976.0,-74.0,-564.0,-1108.0,71.0,20.0,0.0,0.0,0.0
19:45:19.986000,-1003.0,-71.0,-565.0,-1042.0,55.0,20.0,0.0,0.0,0.0
19:45:19.991000,-1020.0,-46.0,-626.0,-1042.0,55.0,20.0,0.0,0.0,0.0
19:45:19.995000,-1020.0,-46.0,-626.0,-1022.0,98.0,-5.0,0.0,0.0,0.0
19:45:20.000000,-1035.0,-24.0,-666.0,-1022.0,98.0,-5.0,0.0,0.0,0.0
19:45:20.005000,-1054.0,0.0,-691.0,-1006.0,105.0,-21.0,0.0,0.0,0.0
19:45:20.010000,-1062.0,11.0,-710.0,-1006.0,105.0,-21.0,0.0,0.0,0.0
19:45:20.014000,-1050.0,7.0,-699.0,-1024.0,-24.0,-7.0,0.0,0.0,0.0
19:45:20.019000,-1042.0,-2.0,-661.0,-1024.0,-24.0,-7.0,0.0,0.0,0.0
19:45:20.024000,-1024.0,-18.0,-625.0,-1085.0,-128.0,-7.0,0.0,0.0,0.0
19:45:20.028000,-1009.0,-34.0,-597.0,-1085.0,-128.0,-7.0,0.0,0.0,0.0
19:45:20.033000,-982.0,-49.0,-583.0,-1096.0,-114.0,0.0,0.0,0.0,0.0
19:45:20.038000,-959.0,-56.0,-596.0,-1096.0,-114.0,0.0,0.0,0.0,0.0
19:45:20.042000,-939.0,-58.0,-629.0,-1060.0,-39.0,0.0,0.0,0.0,0.0
19:45:20.047000,-916.0,-56.0,-657.0,-1060.0,-39.0,0.0,0.0,0.0,0.0
19:45:20.052000,-899.0,-53.0,-683.0,-1085.0,52.0,0.0,0.0,0.0,0.0
19:45:20.057000,-887.0,-49.0,-711.0,-1085.0,52.0,0.0,0.0,0.0,0.0
19:45:20.061000,-889.0,-46.0,-740.0,-1085.0,52.0,0.0,0.0,0.0,0.0
19:45:20.066000,-891.0,-48.0,-788.0,-1179.0,107.0,17.0,0.0,0.0,0.0
19:45:20.071000,-890.0,-53.0,-812.0,-1164.0,89.0,47.0,0.0,0.0,0.0
19:45:20.075000,-896.0,-56.0,-794.0,-1164.0,89.0,47.0,0.0,0.0,0.0
19:45:20.080000,-902.0,-41.0,-767.0,-1164.0,89.0,47.0,0.0,0.0,0.0
19:45:20.085000,-919.0,-18.0,-774.0,-1081.0,88.0,61.0,0.0,0.0,0.0
19:45:20.089000,-943.0,-1.0,-795.0,-1081.0,88.0,61.0,0.0,0.0,0.0
19:45:20.094000,-971.0,11.0,-787.0,-1142.0,183.0,72.0,0.0,0.0,0.0
19:45:20.099000,-998.0,21.0,-770.0,-1142.0,183.0,72.0,0.0,0.0,0.0
19:45:20.104000,-1017.0,35.0,-772.0,-1225.0,244.0,94.0,0.0,0.0,0.0
19:45:20.108000,-1017.0,35.0,-772.0,-1225.0,244.0,94.0,0.0,0.0,0.0
19:45:20.113000,-1039.0,42.0,-784.0,-1229.0,243.0,117.0,0.0,0.0,0.0
19:45:20.118000,-1066.0,48.0,-777.0,-1229.0,243.0,117.0,0.0,0.0,0.0
19:45:20.122000,-1096.0,56.0,-754.0,-1196.0,270.0,145.0,0.0,0.0,0.0
19:45:20.127000,-1138.0,70.0,-721.0,-1196.0,270.0,145.0,0.0,0.0,0.0
19:45:20.132000,-1178.0,91.0,-705.0,-1142.0,327.0,160.0,0.0,0.0,0.0
19:45:20.136000,-1228.0,116.0,-693.0,-1142.0,327.0,160.0,0.0,0.0,0.0
19:45:20.141000,-1287.0,146.0,-666.0,-1124.0,399.0,160.0,0.0,0.0,0.0
19:45:20.146000,-1348.0,174.0,-633.0,-1124.0,399.0,160.0,0.0,0.0,0.0
19:45:20.151000,-1403.0,200.0,-609.0,-1122.0,447.0,164.0,0.0,0.0,0.0
19:45:20.155000,-1450.0,233.0,-604.0,-1122.0,447.0,164.0,0.0,0.0,0.0
19:45:20.160000,-1491.0,267.0,-607.0,-1079.0,451.0,161.0,0.0,0.0,0.0
19:45:20.165000,-1520.0,298.0,-633.0,-1079.0,451.0,161.0,0.0,0.0,0.0
19:45:20.169000,-1544.0,325.0,-667.0,-1079.0,451.0,161.0,0.0,0.0,0.0
19:45:20.174000,-1558.0,348.0,-690.0,-1006.0,432.0,147.0,0.0,0.0,0.0
19:45:20.179000,-1565.0,368.0,-693.0,-1006.0,432.0,147.0,0.0,0.0,0.0
19:45:20.183000,-1558.0,385.0,-692.0,-945.0,389.0,132.0,0.0,0.0,0.0
19:45:20.188000,-1538.0,399.0,-705.0,-945.0,389.0,132.0,0.0,0.0,0.0
19:45:20.193000,-1509.0,410.0,-725.0,-928.0,324.0,107.0,0.0,0.0,0.0
19:45:20.198000,-1475.0,415.0,-731.0,-928.0,324.0,107.0,0.0,0.0,0.0
19:45:20.202000,-1439.0,417.0,-718.0,-932.0,260.0,76.0,0.0,0.0,0.0
19:45:20.207000,-1402.0,413.0,-693.0,-932.0,260.0,76.0,0.0,0.0,0.0
19:45:20.212000,-1362.0,406.0,-660.0,-898.0,219.0,55.0,0.0,0.0,0.0
19:45:20.216000,-1362.0,406.0,-660.0,-898.0,219.0,55.0,0.0,0.0,0.0
19:45:20.221000,-1323.0,401.0,-634.0,-842.0,224.0,43.0,0.0,0.0,0.0
19:45:20.226000,-1287.0,394.0,-616.0,-842.0,224.0,43.0,0.0,0.0,0.0
19:45:20.230000,-1251.0,385.0,-604.0,-809.0,256.0,33.0,0.0,0.0,0.0
19:45:20.235000,-1220.0,375.0,-593.0,-809.0,256.0,33.0,0.0,0.0,0.0
19:45:20.240000,-1188.0,371.0,-579.0,-803.0,281.0,23.0,0.0,0.0,0.0
19:45:20.245000,-1157.0,373.0,-563.0,-803.0,281.0,23.0,0.0,0.0,0.0
19:45:20.249000,-1129.0,380.0,-548.0,-821.0,292.0,4.0,0.0,0.0,0.0
19:45:20.254000,-1106.0,390.0,-539.0,-821.0,292.0,4.0,0.0,0.0,0.0
19:45:20.259000,-1088.0,403.0,-533.0,-873.0,314.0,-18.0,0.0,0.0,0.0
19:45:20.263000,-1075.0,419.0,-527.0,-873.0,314.0,-18.0,0.0,0.0,0.0
19:45:20.268000,-1065.0,436.0,-521.0,-925.0,348.0,-39.0,0.0,0.0,0.0
19:45:20.273000,-1059.0,454.0,-509.0,-925.0,348.0,-39.0,0.0,0.0,0.0
19:45:20.277000,-1053.0,472.0,-487.0,-925.0,348.0,-39.0,0.0,0.0,0.0
19:45:20.282000,-1051.0,491.0,-464.0,-956.0,370.0,-59.0,0.0,0.0,0.0
19:45:20.287000,-1048.0,507.0,-438.0,-956.0,370.0,-59.0,0.0,0.0,0.0
19:45:20.292000,-1043.0,521.0,-405.0,-976.0,374.0,-75.0,0.0,0.0,0.0
19:45:20.296000,-1036.0,537.0,-365.0,-976.0,374.0,-75.0,0.0,0.0,0.0
19:45:20.300000,-1027.0,558.0,-326.0,-958.0,352.0,-91.0,0.0,0.0,0.0
19:45:20.306000,-1016.0,578.0,-294.0,-958.0,352.0,-91.0,0.0,0.0,0.0
19:45:20.310000,-1002.0,601.0,-261.0,-920.0,324.0,-115.0,0.0,0.0,0.0
19:45:20.315000,-985.0,625.0,-226.0,-920.0,324.0,-115.0,0.0,0.0,0.0
19:45:20.320000,-961.0,648.0,-196.0,-893.0,296.0,-145.0,0.0,0.0,0.0
19:45:20.324000,-961.0,648.0,-196.0,-893.0,296.0,-145.0,0.0,0.0,0.0
19:45:20.329000,-931.0,669.0,-177.0,-875.0,260.0,-177.0,0.0,0.0,0.0
19:45:20.334000,-896.0,686.0,-161.0,-875.0,260.0,-177.0,0.0,0.0,0.0
19:45:20.339000,-857.0,702.0,-144.0,-853.0,220.0,-201.0,0.0,0.0,0.0
19:45:20.343000,-816.0,716.0,-123.0,-853.0,220.0,-201.0,0.0,0.0,0.0
19:45:20.348000,-776.0,729.0,-102.0,-818.0,183.0,-213.0,0.0,0.0,0.0
19:45:20.353000,-736.0,738.0,-79.0,-818.0,183.0,-213.0,0.0,0.0,0.0
19:45:20.357000,-705.0,745.0,-52.0,-795.0,178.0,-211.0,0.0,0.0,0.0
19:45:20.362000,-685.0,751.0,-18.0,-795.0,178.0,-211.0,0.0,0.0,0.0
19:45:20.367000,-676.0,755.0,19.0,-780.0,209.0,-200.0,0.0,0.0,0.0
19:45:20.371000,-676.0,758.0,59.0,-780.0,209.0,-200.0,0.0,0.0,0.0
19:45:20.376000,-687.0,765.0,95.0,-764.0,255.0,-188.0,0.0,0.0,0.0
19:45:20.381000,-704.0,770.0,130.0,-764.0,255.0,-188.0,0.0,0.0,0.0
19:45:20.386000,-723.0,777.0,168.0,-764.0,283.0,-180.0,0.0,0.0,0.0
19:45:20.390000,-740.0,784.0,204.0,-751.0,283.0,-180.0,0.0,0.0,0.0
19:45:20.395000,-751.0,791.0,229.0,-751.0,283.0,-180.0,0.0,0.0,0.0
19:45:20.400000,-755.0,799.0,241.0,-732.0,269.0,-180.0,0.0,0.0,0.0
19:45:20.404000,-750.0,805.0,240.0,-732.0,269.0,-180.0,0.0,0.0,0.0
19:45:20.409000,-737.0,808.0,233.0,-717.0,229.0,-189.0,0.0,0.0,0.0
19:45:20.414000,-715.0,810.0,226.0,-717.0,229.0,-189.0,0.0,0.0,0.0
19:45:20.418000,-682.0,810.0,222.0,-703.0,169.0,-202.0,0.0,0.0,0.0
19:45:20.423000,-644.0,810.0,213.0,-703.0,169.0,-202.0,0.0,0.0,0.0
19:45:20.428000,-606.0,807.0,205.0,-679.0,99.0,-215.0,0.0,0.0,0.0
19:45:20.433000,-606.0,807.0,205.0,-679.0,99.0,-215.0,0.0,0.0,0.0
19:45:20.437000,-573.0,807.0,202.0,-655.0,72.0,-226.0,0.0,0.0,0.0
19:45:20.442000,-550.0,811.0,200.0,-655.0,72.0,-226.0,0.0,0.0,0.0
19:45:20.447000,-540.0,821.0,198.0,-650.0,107.0,-238.0,0.0,0.0,0.0
19:45:20.451000,-546.0,836.0,199.0,-650.0,107.0,-238.0,0.0,0.0,0.0
19:45:20.456000,-564.0,856.0,200.0,-676.0,177.0,-255.0,0.0,0.0,0.0
19:45:20.461000,-596.0,877.0,196.0,-676.0,177.0,-255.0,0.0,0.0,0.0
19:45:20.465000,-634.0,896.0,186.0,-706.0,235.0,-273.0,0.0,0.0,0.0
19:45:20.470000,-676.0,913.0,180.0,-706.0,235.0,-273.0,0.0,0.0,0.0
19:45:20.475000,-714.0,927.0,172.0,-687.0,242.0,-295.0,0.0,0.0,0.0
19:45:20.480000,-745.0,938.0,161.0,-687.0,242.0,-295.0,0.0,0.0,0.0
19:45:20.484000,-768.0,947.0,143.0,-634.0,205.0,-328.0,0.0,0.0,0.0
19:45:20.489000,-785.0,952.0,119.0,-634.0,205.0,-328.0,0.0,0.0,0.0
19:45:20.494000,-795.0,953.0,92.0,-596.0,159.0,-364.0,0.0,0.0,0.0
19:45:20.498000,-798.0,949.0,67.0,-596.0,159.0,-364.0,0.0,0.0,0.0
19:45:20.503000,-793.0,940.0,46.0,-596.0,159.0,-364.0,0.0,0.0,0.0
19:45:20.508000,-784.0,928.0,31.0,-553.0,101.0,-392.0,0.0,0.0,0.0
19:45:20.512000,-772.0,912.0,18.0,-553.0,101.0,-392.0,0.0,0.0,0.0
19:45:20.517000,-761.0,892.0,4.0,-496.0,55.0,-409.0,0.0,0.0,0.0
19:45:20.522000,-753.0,871.0,-3.0,-496.0,55.0,-409.0,0.0,0.0,0.0
19:45:20.527000,-749.0,849.0,1.0,-444.0,40.0,-422.0,0.0,0.0,0.0
19:45:20.531000,-749.0,829.0,16.0,-444.0,40.0,-422.0,0.0,0.0,0.0
19:45:20.536000,-753.0,811.0,37.0,-406.0,33.0,-437.0,0.0,0.0,0.0
19:45:20.541000,-761.0,798.0,56.0,-406.0,33.0,-437.0,0.0,0.0,0.0
19:45:20.545000,-761.0,798.0,56.0,-398.0,34.0,-460.0,0.0,0.0,0.0
19:45:20.550000,-771.0,786.0,70.0,-398.0,34.0,-460.0,0.0,0.0,0.0
19:45:20.555000,-779.0,780.0,84.0,-407.0,26.0,-489.0,0.0,0.0,0.0
19:45:20.559000,-787.0,777.0,97.0,-407.0,26.0,-489.0,0.0,0.0,0.0
19:45:20.564000,-792.0,778.0,106.0,-413.0,7.0,-520.0,0.0,0.0,0.0
19:45:20.569000,-795.0,779.0,107.0,-413.0,7.0,-520.0,0.0,0.0,0.0
19:45:20.574000,-793.0,779.0,103.0,-408.0,-14.0,-552.0,0.0,0.0,0.0
19:45:20.578000,-782.0,780.0,101.0,-408.0,-14.0,-552.0,0.0,0.0,0.0
19:45:20.583000,-763.0,781.0,98.0,-380.0,-71.0,-584.0,0.0,0.0,0.0
19:45:20.588000,-733.0,783.0,95.0,-380.0,-71.0,-584.0,0.0,0.0,0.0
19:45:20.592000,-697.0,786.0,87.0,-339.0,-143.0,-615.0,0.0,0.0,0.0
19:45:20.597000,-658.0,786.0,77.0,-339.0,-143.0,-615.0,0.0,0.0,0.0
19:45:20.602000,-619.0,788.0,67.0,-299.0,-178.0,-640.0,0.0,0.0,0.0
19:45:20.606000,-585.0,791.0,56.0,-299.0,-178.0,-640.0,0.0,0.0,0.0
19:45:20.611000,-553.0,791.0,45.0,-299.0,-178.0,-640.0,0.0,0.0,0.0
19:45:20.616000,-520.0,794.0,28.0,-250.0,-181.0,-661.0,0.0,0.0,0.0
19:45:20.621000,-487.0,797.0,2.0,-250.0,-181.0,-661.0,0.0,0.0,0.0
19:45:20.625000,-456.0,797.0,-37.0,-197.0,-167.0,-684.0,0.0,0.0,0.0
19:45:20.630000,-429.0,798.0,-83.0,-197.0,-167.0,-684.0,0.0,0.0,0.0
19:45:20.635000,-408.0,797.0,-128.0,-162.0,-132.0,-708.0,0.0,0.0,0.0
19:45:20.639000,-392.0,794.0,-178.0,-162.0,-132.0,-708.0,0.0,0.0,0.0
19:45:20.644000,-380.0,788.0,-239.0,-149.0,-70.0,-724.0,0.0,0.0,0.0
19:45:20.649000,-374.0,783.0,-308.0,-149.0,-70.0,-724.0,0.0,0.0,0.0
19:45:20.653000,-374.0,783.0,-308.0,-138.0,10.0,-726.0,0.0,0.0,0.0
19:45:20.658000,-373.0,777.0,-373.0,-138.0,10.0,-726.0,0.0,0.0,0.0
19:45:20.663000,-371.0,772.0,-424.0,-111.0,61.0,-726.0,0.0,0.0,0.0
19:45:20.668000,-372.0,777.0,-458.0,-111.0,61.0,-726.0,0.0,0.0,0.0
19:45:20.672000,-377.0,791.0,-477.0,-95.0,73.0,-746.0,0.0,0.0,0.0
19:45:20.677000,-394.0,819.0,-480.0,-95.0,73.0,-746.0,0.0,0.0,0.0
19:45:20.682000,-423.0,854.0,-469.0,-147.0,109.0,-792.0,0.0,0.0,0.0
19:45:20.686000,-462.0,891.0,-448.0,-147.0,109.0,-792.0,0.0,0.0,0.0
19:45:20.691000,-507.0,931.0,-424.0,-228.0,163.0,-851.0,0.0,0.0,0.0
19:45:20.696000,-553.0,972.0,-394.0,-228.0,163.0,-851.0,0.0,0.0,0.0
19:45:20.700000,-595.0,1009.0,-357.0,-242.0,166.0,-910.0,0.0,0.0,0.0
19:45:20.705000,-627.0,1039.0,-317.0,-242.0,166.0,-910.0,0.0,0.0,0.0
19:45:20.710000,-644.0,1057.0,-286.0,-172.0,107.0,-962.0,0.0,0.0,0.0
19:45:20.715000,-648.0,1064.0,-260.0,-172.0,107.0,-962.0,0.0,0.0,0.0
19:45:20.719000,-641.0,1063.0,-242.0,-172.0,107.0,-962.0,0.0,0.0,0.0
19:45:20.724000,-625.0,1054.0,-228.0,-70.0,41.0,-1004.0,0.0,0.0,0.0
19:45:20.729000,-604.0,1039.0,-219.0,-70.0,41.0,-1004.0,0.0,0.0,0.0
19:45:20.733000,-581.0,1013.0,-210.0,13.0,1.0,-1050.0,0.0,0.0,0.0
19:45:20.738000,-555.0,980.0,-205.0,13.0,1.0,-1050.0,0.0,0.0,0.0
19:45:20.743000,-535.0,950.0,-198.0,77.0,-9.0,-1098.0,0.0,0.0,0.0
19:45:20.747000,-520.0,922.0,-189.0,77.0,-9.0,-1098.0,0.0,0.0,0.0
19:45:20.752000,-508.0,891.0,-193.0,105.0,9.0,-1151.0,0.0,0.0,0.0
19:45:20.757000,-506.0,853.0,-189.0,105.0,9.0,-1151.0,0.0,0.0,0.0
19:45:20.762000,-506.0,853.0,-189.0,96.0,31.0,-1171.0,0.0,0.0,0.0
19:45:20.766000,-515.0,807.0,-166.0,96.0,31.0,-1171.0,0.0,0.0,0.0
19:45:20.770000,-535.0,763.0,-138.0,137.0,63.0,-1135.0,0.0,0.0,0.0
19:45:20.776000,-574.0,723.0,-117.0,137.0,63.0,-1135.0,0.0,0.0,0.0
19:45:20.780000,-631.0,694.0,-102.0,170.0,161.0,-1105.0,0.0,0.0,0.0
19:45:20.785000,-699.0,665.0,-97.0,170.0,161.0,-1105.0,0.0,0.0,0.0
19:45:20.790000,-764.0,641.0,-98.0,116.0,216.0,-1089.0,0.0,0.0,0.0
19:45:20.794000,-812.0,623.0,-102.0,116.0,216.0,-1089.0,0.0,0.0,0.0
19:45:20.799000,-840.0,611.0,-121.0,32.0,127.0,-1075.0,0.0,0.0,0.0
19:45:20.804000,-862.0,606.0,-146.0,32.0,127.0,-1075.0,0.0,0.0,0.0
19:45:20.809000,-878.0,602.0,-172.0,-77.0,19.0,-1061.0,0.0,0.0,0.0
19:45:20.813000,-886.0,594.0,-215.0,-77.0,19.0,-1061.0,0.0,0.0,0.0
19:45:20.818000,-885.0,585.0,-270.0,-99.0,-38.0,-1035.0,0.0,0.0,0.0
19:45:20.823000,-876.0,577.0,-316.0,-99.0,-38.0,-1035.0,0.0,0.0,0.0
19:45:20.827000,-865.0,570.0,-343.0,-99.0,-38.0,-1035.0,0.0,0.0,0.0
19:45:20.832000,-858.0,562.0,-364.0,-18.0,-83.0,-1006.0,0.0,0.0,0.0
19:45:20.837000,-856.0,554.0,-396.0,-18.0,-83.0,-1006.0,0.0,0.0,0.0
19:45:20.841000,-865.0,545.0,-449.0,0.0,-84.0,-984.0,0.0,0.0,0.0
19:45:20.846000,-884.0,536.0,-506.0,0.0,-84.0,-984.0,0.0,0.0,0.0
19:45:20.851000,-908.0,526.0,-551.0,-10.0,-30.0,-962.0,0.0,0.0,0.0
19:45:20.856000,-941.0,513.0,-583.0,-10.0,-30.0,-962.0,0.0,0.0,0.0
19:45:20.860000,-981.0,498.0,-606.0,0.0,14.0,-939.0,0.0,0.0,0.0
19:45:20.865000,-1026.0,481.0,-626.0,0.0,14.0,-939.0,0.0,0.0,0.0
19:45:20.870000,-1076.0,459.0,-646.0,-3.0,50.0,-912.0,0.0,0.0,0.0
19:45:20.874000,-1076.0,459.0,-646.0,-3.0,50.0,-912.0,0.0,0.0,0.0
19:45:20.879000,-1128.0,434.0,-660.0,21.0,73.0,-884.0,0.0,0.0,0.0
19:45:20.884000,-1178.0,401.0,-671.0,21.0,73.0,-884.0,0.0,0.0,0.0
19:45:20.888000,-1227.0,363.0,-681.0,68.0,61.0,-861.0,0.0,0.0,0.0
19:45:20.893000,-1275.0,322.0,-693.0,68.0,61.0,-861.0,0.0,0.0,0.0
19:45:20.898000,-1323.0,282.0,-706.0,86.0,43.0,-847.0,0.0,0.0,0.0
19:45:20.903000,-1371.0,239.0,-716.0,86.0,43.0,-847.0,0.0,0.0,0.0
19:45:20.907000,-1417.0,197.0,-725.0,84.0,27.0,-838.0,0.0,0.0,0.0
19:45:20.912000,-1461.0,154.0,-735.0,84.0,27.0,-838.0,0.0,0.0,0.0
19:45:20.917000,-1505.0,111.0,-743.0,79.0,10.0,-832.0,0.0,0.0,0.0
19:45:20.921000,-1549.0,68.0,-752.0,79.0,10.0,-832.0,0.0,0.0,0.0
19:45:20.926000,-1590.0,25.0,-759.0,73.0,-9.0,-827.0,0.0,0.0,0.0
19:45:20.931000,-1631.0,-17.0,-763.0,73.0,-9.0,-827.0,0.0,0.0,0.0
19:45:20.935000,-1666.0,-56.0,-767.0,73.0,-9.0,-827.0,0.0,0.0,0.0
19:45:20.940000,-1698.0,-96.0,-774.0,73.0,-39.0,-821.0,0.0,0.0,0.0
19:45:20.945000,-1728.0,-135.0,-783.0,73.0,-39.0,-821.0,0.0,0.0,0.0
19:45:20.950000,-1756.0,-170.0,-793.0,73.0,-59.0,-817.0,0.0,0.0,0.0
19:45:20.954000,-1784.0,-200.0,-809.0,73.0,-59.0,-817.0,0.0,0.0,0.0
19:45:20.959000,-1813.0,-227.0,-828.0,46.0,-67.0,-816.0,0.0,0.0,0.0
19:45:20.964000,-1848.0,-249.0,-849.0,46.0,-67.0,-816.0,0.0,0.0,0.0
19:45:20.968000,-1885.0,-268.0,-863.0,2.0,-71.0,-821.0,0.0,0.0,0.0
19:45:20.973000,-1926.0,-289.0,-861.0,2.0,-71.0,-821.0,0.0,0.0,0.0
19:45:20.978000,-1963.0,-312.0,-854.0,-21.0,-82.0,-827.0,0.0,0.0,0.0
19:45:20.982000,-1963.0,-312.0,-854.0,-21.0,-82.0,-827.0,0.0,0.0,0.0
19:45:20.987000,-1995.0,-336.0,-856.0,-25.0,-114.0,-836.0,0.0,0.0,0.0
19:45:20.992000,-2024.0,-361.0,-877.0,-25.0,-114.0,-836.0,0.0,0.0,0.0
19:45:20.997000,-2052.0,-385.0,-905.0,-35.0,-151.0,-847.0,0.0,0.0,0.0
19:45:21.001000,-2076.0,-411.0,-917.0,-35.0,-151.0,-847.0,0.0,0.0,0.0
19:45:21.006000,-2093.0,-437.0,-922.0,-50.0,-204.0,-859.0,0.0,0.0,0.0
19:45:21.011000,-2103.0,-461.0,-931.0,-50.0,-204.0,-859.0,0.0,0.0,0.0
19:45:21.015000,-2113.0,-481.0,-939.0,-68.0,-256.0,-871.0,0.0,0.0,0.0
19:45:21.020000,-2119.0,-502.0,-939.0,-68.0,-256.0,-871.0,0.0,0.0,0.0
19:45:21.025000,-2125.0,-525.0,-930.0,-109.0,-287.0,-882.0,0.0,0.0,0.0
19:45:21.029000,-2128.0,-556.0,-907.0,-109.0,-287.0,-882.0,0.0,0.0,0.0
19:45:21.034000,-2119.0,-592.0,-874.0,-147.0,-388.0,-887.0,0.0,0.0,0.0
19:45:21.039000,-2138.0,-620.0,-831.0,-147.0,-388.0,-887.0,0.0,0.0,0.0
19:45:21.044000,-2184.0,-649.0,-723.0,-147.0,-388.0,-887.0,0.0,0.0,0.0
19:45:21.048000,-2289.0,-655.0,-574.0,-50.0,-674.0,-852.0,0.0,0.0,0.0
19:45:21.053000,-2032.0,-735.0,-718.0,-50.0,-674.0,-852.0,0.0,0.0,0.0
19:45:21.058000,-1955.0,-751.0,-952.0,-118.0,-630.0,-871.0,0.0,0.0,0.0
19:45:21.062000,-2033.0,-746.0,-991.0,-118.0,-630.0,-871.0,0.0,0.0,0.0
19:45:21.067000,-2052.0,-754.0,-942.0,-305.0,-340.0,-844.0,0.0,0.0,0.0
19:45:21.072000,-2004.0,-771.0,-950.0,-305.0,-340.0,-844.0,0.0,0.0,0.0
19:45:21.076000,-2025.0,-814.0,-940.0,-346.0,-447.0,-756.0,0.0,0.0,0.0
19:45:21.080000,-2025.0,-814.0,-940.0,-346.0,-447.0,-756.0,0.0,0.0,0.0
19:45:21.086000,-2028.0,-850.0,-569.0,-390.0,-729.0,-735.0,0.0,0.0,0.0
19:45:21.091000,-2028.0,-850.0,-569.0,-390.0,-729.0,-735.0,0.0,0.0,0.0
19:45:21.095000,-2011.0,-834.0,-697.0,-560.0,-777.0,-722.0,0.0,0.0,0.0
19:45:21.100000,-1971.0,-819.0,-874.0,-560.0,-777.0,-722.0,0.0,0.0,0.0
19:45:21.105000,-1965.0,-812.0,-932.0,-594.0,-699.0,-695.0,0.0,0.0,0.0
19:45:21.109000,-1955.0,-833.0,-905.0,-594.0,-699.0,-695.0,0.0,0.0,0.0
19:45:21.114000,-1917.0,-830.0,-832.0,-501.0,-695.0,-664.0,0.0,0.0,0.0
19:45:21.119000,-1900.0,-786.0,-806.0,-501.0,-695.0,-664.0,0.0,0.0,0.0
19:45:21.123000,-1927.0,-771.0,-817.0,-446.0,-634.0,-628.0,0.0,0.0,0.0
19:45:21.128000,-1903.0,-753.0,-778.0,-446.0,-634.0,-628.0,0.0,0.0,0.0
19:45:21.133000,-1871.0,-753.0,-677.0,-457.0,-683.0,-579.0,0.0,0.0,0.0
19:45:21.138000,-1871.0,-746.0,-610.0,-457.0,-683.0,-579.0,0.0,0.0,0.0
19:45:21.142000,-1837.0,-742.0,-586.0,-622.0,-854.0,-559.0,0.0,0.0,0.0
19:45:21.147000,-1774.0,-735.0,-592.0,-622.0,-854.0,-559.0,0.0,0.0,0.0
19:45:21.152000,-1731.0,-721.0,-619.0,-622.0,-854.0,-559.0,0.0,0.0,0.0
19:45:21.156000,-1689.0,-702.0,-607.0,-697.0,-892.0,-533.0,0.0,0.0,0.0
19:45:21.161000,-1667.0,-679.0,-554.0,-697.0,-892.0,-533.0,0.0,0.0,0.0
19:45:21.166000,-1603.0,-674.0,-507.0,-662.0,-889.0,-500.0,0.0,0.0,0.0
19:45:21.170000,-1558.0,-669.0,-487.0,-662.0,-889.0,-500.0,0.0,0.0,0.0
19:45:21.175000,-1528.0,-655.0,-529.0,-615.0,-879.0,-464.0,0.0,0.0,0.0
19:45:21.180000,-1507.0,-637.0,-582.0,-615.0,-879.0,-464.0,0.0,0.0,0.0
19:45:21.184000,-1497.0,-621.0,-625.0,-594.0,-862.0,-426.0,0.0,0.0,0.0
19:45:21.189000,-1469.0,-606.0,-669.0,-594.0,-862.0,-426.0,0.0,0.0,0.0
19:45:21.194000,-1420.0,-593.0,-675.0,-570.0,-914.0,-403.0,0.0,0.0,0.0
19:45:21.199000,-1420.0,-593.0,-675.0,-570.0,-914.0,-403.0,0.0,0.0,0.0
19:45:21.203000,-1356.0,-583.0,-665.0,-578.0,-941.0,-392.0,0.0,0.0,0.0
19:45:21.208000,-1312.0,-578.0,-670.0,-578.0,-941.0,-392.0,0.0,0.0,0.0
19:45:21.213000,-1281.0,-567.0,-659.0,-669.0,-924.0,-371.0,0.0,0.0,0.0
19:45:21.217000,-1259.0,-549.0,-629.0,-669.0,-924.0,-371.0,0.0,0.0,0.0
19:45:21.221000,-1223.0,-528.0,-611.0,-769.0,-917.0,-348.0,0.0,0.0,0.0
19:45:21.227000,-1185.0,-505.0,-630.0,-769.0,-917.0,-348.0,0.0,0.0,0.0
19:45:21.231000,-1160.0,-480.0,-644.0,-779.0,-896.0,-335.0,0.0,0.0,0.0
19:45:21.236000,-1150.0,-455.0,-641.0,-779.0,-896.0,-335.0,0.0,0.0,0.0
19:45:21.241000,-1147.0,-427.0,-634.0,-761.0,-875.0,-329.0,0.0,0.0,0.0
19:45:21.246000,-1131.0,-401.0,-652.0,-761.0,-875.0,-329.0,0.0,0.0,0.0
19:45:21.250000,-1110.0,-379.0,-696.0,-756.0,-868.0,-329.0,0.0,0.0,0.0
19:45:21.255000,-1093.0,-362.0,-714.0,-756.0,-868.0,-329.0,0.0,0.0,0.0
19:45:21.260000,-1064.0,-352.0,-716.0,-724.0,-869.0,-326.0,0.0,0.0,0.0
19:45:21.264000,-1031.0,-347.0,-745.0,-718.0,-869.0,-326.0,0.0,0.0,0.0
19:45:21.269000,-994.0,-348.0,-793.0,-718.0,-869.0,-326.0,0.0,0.0,0.0
19:45:21.274000,-948.0,-350.0,-827.0,-691.0,-883.0,-327.0,0.0,0.0,0.0
19:45:21.278000,-903.0,-352.0,-850.0,-691.0,-883.0,-327.0,0.0,0.0,0.0
19:45:21.283000,-861.0,-351.0,-883.0,-706.0,-895.0,-333.0,0.0,0.0,0.0
19:45:21.288000,-823.0,-349.0,-913.0,-706.0,-895.0,-333.0,0.0,0.0,0.0
19:45:21.293000,-790.0,-347.0,-912.0,-730.0,-876.0,-335.0,0.0,0.0,0.0
19:45:21.297000,-758.0,-343.0,-903.0,-730.0,-876.0,-335.0,0.0,0.0,0.0
19:45:21.302000,-732.0,-338.0,-918.0,-768.0,-798.0,-338.0,0.0,0.0,0.0
19:45:21.307000,-717.0,-331.0,-941.0,-768.0,-798.0,-338.0,0.0,0.0,0.0
19:45:21.311000,-717.0,-331.0,-941.0,-818.0,-701.0,-333.0,0.0,0.0,0.0
19:45:21.315000,-702.0,-331.0,-957.0,-818.0,-701.0,-333.0,0.0,0.0,0.0
19:45:21.321000,-686.0,-330.0,-938.0,-816.0,-657.0,-313.0,0.0,0.0,0.0
19:45:21.325000,-668.0,-324.0,-893.0,-816.0,-657.0,-313.0,0.0,0.0,0.0
19:45:21.330000,-651.0,-312.0,-858.0,-776.0,-661.0,-299.0,0.0,0.0,0.0
19:45:21.335000,-632.0,-298.0,-850.0,-776.0,-661.0,-299.0,0.0,0.0,0.0
19:45:21.340000,-615.0,-282.0,-851.0,-796.0,-629.0,-287.0,0.0,0.0,0.0
19:45:21.344000,-599.0,-266.0,-871.0,-796.0,-629.0,-287.0,0.0,0.0,0.0
19:45:21.349000,-580.0,-253.0,-905.0,-862.0,-562.0,-268.0,0.0,0.0,0.0
19:45:21.354000,-566.0,-238.0,-917.0,-862.0,-562.0,-268.0,0.0,0.0,0.0
19:45:21.358000,-546.0,-227.0,-883.0,-885.0,-534.0,-241.0,0.0,0.0,0.0
19:45:21.363000,-523.0,-219.0,-845.0,-885.0,-534.0,-241.0,0.0,0.0,0.0
19:45:21.368000,-498.0,-212.0,-841.0,-843.0,-526.0,-244.0,0.0,0.0,0.0
19:45:21.372000,-466.0,-208.0,-865.0,-843.0,-526.0,-244.0,0.0,0.0,0.0
19:45:21.377000,-432.0,-205.0,-874.0,-843.0,-526.0,-244.0,0.0,0.0,0.0
19:45:21.382000,-397.0,-201.0,-847.0,-842.0,-494.0,-269.0,0.0,0.0,0.0
19:45:21.387000,-362.0,-195.0,-806.0,-896.0,-452.0,-283.0,0.0,0.0,0.0
19:45:21.391000,-326.0,-198.0,-781.0,-896.0,-452.0,-283.0,0.0,0.0,0.0
19:45:21.396000,-297.0,-201.0,-742.0,-896.0,-452.0,-283.0,0.0,0.0,0.0
19:45:21.401000,-266.0,-207.0,-663.0,-918.0,-393.0,-288.0,0.0,0.0,0.0
19:45:21.405000,-237.0,-209.0,-581.0,-918.0,-393.0,-288.0,0.0,0.0,0.0
19:45:21.410000,-207.0,-207.0,-522.0,-900.0,-346.0,-281.0,0.0,0.0,0.0
19:45:21.415000,-179.0,-200.0,-474.0,-900.0,-346.0,-281.0,0.0,0.0,0.0
19:45:21.419000,-179.0,-200.0,-474.0,-884.0,-316.0,-278.0,0.0,0.0,0.0
19:45:21.424000,-153.0,-190.0,-441.0,-884.0,-316.0,-278.0,0.0,0.0,0.0
19:45:21.429000,-134.0,-175.0,-427.0,-923.0,-257.0,-286.0,0.0,0.0,0.0
19:45:21.434000,-119.0,-156.0,-423.0,-923.0,-257.0,-286.0,0.0,0.0,0.0
19:45:21.438000,-112.0,-139.0,-422.0,-1012.0,-174.0,-298.0,0.0,0.0,0.0
19:45:21.443000,-111.0,-120.0,-420.0,-1012.0,-174.0,-298.0,0.0,0.0,0.0
19:45:21.448000,-107.0,-104.0,-412.0,-1082.0,-122.0,-308.0,0.0,0.0,0.0
19:45:21.452000,-103.0,-91.0,-389.0,-1082.0,-122.0,-308.0,0.0,0.0,0.0
19:45:21.457000,-99.0,-79.0,-360.0,-1107.0,-127.0,-318.0,0.0,0.0,0.0
19:45:21.462000,-91.0,-70.0,-340.0,-1107.0,-127.0,-318.0,0.0,0.0,0.0
19:45:21.466000,-79.0,-63.0,-322.0,-1122.0,-148.0,-324.0,0.0,0.0,0.0
19:45:21.471000,-62.0,-60.0,-290.0,-1122.0,-148.0,-324.0,0.0,0.0,0.0
19:45:21.476000,-55.0,-55.0,-249.0,-1130.0,-162.0,-327.0,0.0,0.0,0.0
19:45:21.481000,-38.0,-51.0,-215.0,-1130.0,-162.0,-327.0,0.0,0.0,0.0
19:45:21.485000,-21.0,-47.0,-202.0,-1130.0,-162.0,-327.0,0.0,0.0,0.0
19:45:21.490000,-6.0,-40.0,-182.0,-1141.0,-172.0,-330.0,0.0,0.0,0.0
19:45:21.495000,14.0,-33.0,-162.0,-1166.0,-186.0,-335.0,0.0,0.0,0.0
19:45:21.499000,28.0,-26.0,-156.0,-1166.0,-186.0,-335.0,0.0,0.0,0.0
19:45:21.504000,34.0,-21.0,-155.0,-1166.0,-186.0,-335.0,0.0,0.0,0.0
19:45:21.509000,35.0,-16.0,-154.0,-1180.0,-179.0,-335.0,0.0,0.0,0.0
19:45:21.513000,30.0,-11.0,-152.0,-1180.0,-179.0,-335.0,0.0,0.0,0.0
19:45:21.518000,29.0,-12.0,-156.0,-1165.0,-136.0,-329.0,0.0,0.0,0.0
19:45:21.523000,21.0,-11.0,-152.0,-1165.0,-136.0,-329.0,0.0,0.0,0.0
19:45:21.528000,21.0,-11.0,-152.0,-1146.0,-101.0,-323.0,0.0,0.0,0.0
19:45:21.532000,14.0,-15.0,-147.0,-1146.0,-101.0,-323.0,0.0,0.0,0.0
19:45:21.536000,3.0,-12.0,-142.0,-1171.0,-68.0,-314.0,0.0,0.0,0.0
19:45:21.542000,-2.0,-12.0,-147.0,-1171.0,-68.0,-314.0,0.0,0.0,0.0
19:45:21.546000,-4.0,-14.0,-170.0,-1212.0,-30.0,-300.0,0.0,0.0,0.0
19:45:21.551000,-7.0,-16.0,-172.0,-1212.0,-30.0,-300.0,0.0,0.0,0.0
19:45:21.556000,-4.0,-21.0,-148.0,-1201.0,-36.0,-285.0,0.0,0.0,0.0
19:45:21.560000,0.0,-25.0,-148.0,-1201.0,-36.0,-285.0,0.0,0.0,0.0
19:45:21.565000,15.0,-27.0,-151.0,-1174.0,-50.0,-273.0,0.0,0.0,0.0
19:45:21.570000,28.0,-27.0,-139.0,-1174.0,-50.0,-273.0,0.0,0.0,0.0
19:45:21.575000,30.0,-25.0,-115.0,-1179.0,-32.0,-261.0,0.0,0.0,0.0
19:45:21.579000,26.0,-20.0,-57.0,-1179.0,-32.0,-261.0,0.0,0.0,0.0
19:45:21.584000,38.0,-16.0,-21.0,-1246.0,7.0,-247.0,0.0,0.0,0.0
19:45:21.589000,44.0,-6.0,-32.0,-1246.0,7.0,-247.0,0.0,0.0,0.0
19:45:21.593000,43.0,5.0,-42.0,-1246.0,7.0,-247.0,0.0,0.0,0.0
19:45:21.598000,49.0,15.0,-47.0,-1307.0,27.0,-232.0,0.0,0.0,0.0
19:45:21.603000,63.0,23.0,-60.0,-1307.0,27.0,-232.0,0.0,0.0,0.0
19:45:21.607000,100.0,23.0,-48.0,-1284.0,20.0,-226.0,0.0,0.0,0.0
19:45:21.612000,121.0,38.0,-12.0,-1284.0,20.0,-226.0,0.0,0.0,0.0
19:45:21.617000,179.0,44.0,-70.0,-1254.0,-30.0,-237.0,0.0,0.0,0.0
19:45:21.622000,233.0,44.0,-179.0,-1254.0,-30.0,-237.0,0.0,0.0,0.0
19:45:21.626000,232.0,72.0,-282.0,-1274.0,-7.0,-244.0,0.0,0.0,0.0
19:45:21.631000,265.0,86.0,-332.0,-1274.0,-7.0,-244.0,0.0,0.0,0.0
19:45:21.636000,265.0,86.0,-332.0,-1299.0,70.0,-233.0,0.0,0.0,0.0
19:45:21.640000,252.0,114.0,-347.0,-1299.0,70.0,-233.0,0.0,0.0,0.0
19:45:21.645000,246.0,140.0,-397.0,-1376.0,96.0,-225.0,0.0,0.0,0.0
19:45:21.650000,210.0,196.0,-391.0,-1376.0,96.0,-225.0,0.0,0.0,0.0
19:45:21.654000,186.0,252.0,-294.0,-1475.0,136.0,-235.0,0.0,0.0,0.0
19:45:21.659000,218.0,262.0,-247.0,-1475.0,136.0,-235.0,0.0,0.0,0.0
19:45:21.664000,199.0,306.0,-116.0,-1463.0,237.0,-249.0,0.0,0.0,0.0
19:45:21.669000,128.0,356.0,94.0,-1463.0,237.0,-249.0,0.0,0.0,0.0
19:45:21.673000,67.0,366.0,37.0,-1451.0,309.0,-271.0,0.0,0.0,0.0
19:45:21.678000,204.0,382.0,-109.0,-1451.0,309.0,-271.0,0.0,0.0,0.0
19:45:21.683000,284.0,369.0,-132.0,-1467.0,162.0,-321.0,0.0,0.0,0.0
19:45:21.687000,365.0,349.0,-186.0,-1467.0,162.0,-321.0,0.0,0.0,0.0
19:45:21.692000,275.0,316.0,-376.0,-1342.0,132.0,-312.0,0.0,0.0,0.0
19:45:21.697000,116.0,310.0,-475.0,-1342.0,132.0,-312.0,0.0,0.0,0.0
19:45:21.701000,75.0,319.0,-268.0,-1342.0,132.0,-312.0,0.0,0.0,0.0
19:45:21.706000,91.0,291.0,-175.0,-1170.0,314.0,-305.0,0.0,0.0,0.0
19:45:21.711000,81.0,214.0,-128.0,-1170.0,314.0,-305.0,0.0,0.0,0.0
19:45:21.716000,109.0,165.0,-36.0,-1069.0,329.0,-358.0,0.0,0.0,0.0
19:45:21.720000,133.0,112.0,-128.0,-1069.0,329.0,-358.0,0.0,0.0,0.0
19:45:21.725000,168.0,22.0,-429.0,-1168.0,224.0,-392.0,0.0,0.0,0.0
19:45:21.730000,120.0,-23.0,-418.0,-1168.0,224.0,-392.0,0.0,0.0,0.0
19:45:21.734000,90.0,-62.0,-215.0,-1148.0,115.0,-423.0,0.0,0.0,0.0
19:45:21.739000,39.0,-102.0,-270.0,-1148.0,115.0,-423.0,0.0,0.0,0.0
19:45:21.744000,-13.0,-210.0,-641.0,-1130.0,63.0,-411.0,0.0,0.0,0.0
19:45:21.748000,-13.0,-210.0,-641.0,-1130.0,63.0,-411.0,0.0,0.0,0.0
19:45:21.753000,-198.0,-200.0,-578.0,-1088.0,239.0,-318.0,0.0,0.0,0.0
19:45:21.758000,-423.0,-203.0,-534.0,-1088.0,239.0,-318.0,0.0,0.0,0.0
19:45:21.763000,-361.0,-219.0,-437.0,-888.0,44.0,-270.0,0.0,0.0,0.0
19:45:21.767000,-334.0,-295.0,-343.0,-888.0,44.0,-270.0,0.0,0.0,0.0
19:45:21.772000,-296.0,-299.0,-343.0,-924.0,-430.0,-257.0,0.0,0.0,0.0
19:45:21.777000,-316.0,-317.0,-239.0,-924.0,-430.0,-257.0,0.0,0.0,0.0
19:45:21.781000,-380.0,-297.0,-36.0,-905.0,-723.0,-222.0,0.0,0.0,0.0
19:45:21.786000,-199.0,-313.0,72.0,-905.0,-723.0,-222.0,0.0,0.0,0.0
19:45:21.791000,-172.0,-352.0,113.0,-658.0,-1002.0,-197.0,0.0,0.0,0.0
19:45:21.795000,-175.0,-357.0,298.0,-658.0,-1002.0,-197.0,0.0,0.0,0.0
19:45:21.800000,-122.0,-331.0,214.0,-504.0,-1043.0,-142.0,0.0,0.0,0.0
19:45:21.805000,0.0,-365.0,0.0,-504.0,-1043.0,-142.0,0.0,0.0,0.0
19:45:21.810000,64.0,-394.0,89.0,-504.0,-1043.0,-142.0,0.0,0.0,0.0
19:45:21.814000,89.0,-384.0,293.0,-510.0,-1133.0,-110.0,0.0,0.0,0.0
19:45:21.819000,-107.0,-377.0,49.0,-510.0,-1133.0,-110.0,0.0,0.0,0.0
19:45:21.824000,-287.0,-368.0,-196.0,-537.0,-912.0,-60.0,0.0,0.0,0.0
19:45:21.828000,-239.0,-326.0,-42.0,-537.0,-912.0,-60.0,0.0,0.0,0.0
19:45:21.833000,-154.0,-349.0,-103.0,-531.0,-661.0,-38.0,0.0,0.0,0.0
19:45:21.838000,63.0,-327.0,-161.0,-531.0,-661.0,-38.0,0.0,0.0,0.0
19:45:21.842000,153.0,-346.0,-375.0,-749.0,-841.0,-112.0,0.0,0.0,0.0
19:45:21.847000,121.0,-368.0,-312.0,-749.0,-841.0,-112.0,0.0,0.0,0.0
19:45:21.852000,-18.0,-370.0,-156.0,-823.0,-691.0,-124.0,0.0,0.0,0.0
19:45:21.857000,-18.0,-370.0,-156.0,-823.0,-691.0,-124.0,0.0,0.0,0.0
19:45:21.861000,-24.0,-325.0,-144.0,-663.0,-391.0,-77.0,0.0,0.0,0.0
19:45:21.866000,-2.0,-394.0,-345.0,-663.0,-391.0,-77.0,0.0,0.0,0.0
19:45:21.871000,-121.0,-345.0,-491.0,-763.0,-437.0,-49.0,0.0,0.0,0.0
19:45:21.875000,-175.0,-322.0,-376.0,-763.0,-437.0,-49.0,0.0,0.0,0.0
19:45:21.880000,-242.0,-305.0,-356.0,-795.0,-463.0,-11.0,0.0,0.0,0.0
19:45:21.885000,-266.0,-296.0,-348.0,-795.0,-463.0,-11.0,0.0,0.0,0.0
19:45:21.889000,-175.0,-286.0,57.0,-711.0,-585.0,-34.0,0.0,0.0,0.0
19:45:21.894000,-130.0,-293.0,224.0,-711.0,-585.0,-34.0,0.0,0.0,0.0
19:45:21.899000,-150.0,-336.0,15.0,-733.0,-592.0,-61.0,0.0,0.0,0.0
19:45:21.904000,-221.0,-310.0,18.0,-733.0,-592.0,-61.0,0.0,0.0,0.0
19:45:21.908000,-260.0,-292.0,174.0,-797.0,-387.0,-50.0,0.0,0.0,0.0
19:45:21.913000,-323.0,-216.0,252.0,-797.0,-387.0,-50.0,0.0,0.0,0.0
19:45:21.918000,-214.0,-263.0,340.0,-797.0,-387.0,-50.0,0.0,0.0,0.0
19:45:21.922000,-140.0,-253.0,565.0,-920.0,-583.0,-36.0,0.0,0.0,0.0
19:45:21.927000,75.0,-303.0,616.0,-920.0,-583.0,-36.0,0.0,0.0,0.0
19:45:21.932000,235.0,-378.0,250.0,-967.0,-678.0,7.0,0.0,0.0,0.0
19:45:21.936000,186.0,-318.0,7.0,-967.0,-678.0,7.0,0.0,0.0,0.0
19:45:21.941000,249.0,-337.0,40.0,-747.0,-613.0,44.0,0.0,0.0,0.0
19:45:21.946000,164.0,-266.0,208.0,-747.0,-613.0,44.0,0.0,0.0,0.0
19:45:21.951000,155.0,-175.0,389.0,-687.0,-649.0,33.0,0.0,0.0,0.0
19:45:21.955000,161.0,-172.0,312.0,-687.0,-649.0,33.0,0.0,0.0,0.0
19:45:21.960000,177.0,-160.0,265.0,-875.0,-636.0,21.0,0.0,0.0,0.0
19:45:21.965000,177.0,-160.0,265.0,-875.0,-636.0,21.0,0.0,0.0,0.0
19:45:21.969000,238.0,-175.0,371.0,-866.0,-541.0,37.0,0.0,0.0,0.0
19:45:21.974000,207.0,-163.0,257.0,-866.0,-541.0,37.0,0.0,0.0,0.0
19:45:21.979000,276.0,-148.0,42.0,-858.0,-537.0,34.0,0.0,0.0,0.0
19:45:21.983000,289.0,-170.0,-35.0,-858.0,-537.0,34.0,0.0,0.0,0.0
19:45:21.988000,163.0,-185.0,73.0,-850.0,-573.0,41.0,0.0,0.0,0.0
19:45:21.993000,94.0,-144.0,182.0,-850.0,-573.0,41.0,0.0,0.0,0.0
19:45:21.998000,118.0,-106.0,253.0,-743.0,-550.0,30.0,0.0,0.0,0.0
19:45:22.002000,139.0,-72.0,252.0,-743.0,-550.0,30.0,0.0,0.0,0.0
19:45:22.007000,176.0,-85.0,88.0,-813.0,-540.0,1.0,0.0,0.0,0.0
19:45:22.012000,147.0,-84.0,14.0,-813.0,-540.0,1.0,0.0,0.0,0.0
19:45:22.016000,81.0,-42.0,-37.0,-890.0,-506.0,3.0,0.0,0.0,0.0
19:45:22.021000,4.0,-57.0,-368.0,-890.0,-506.0,3.0,0.0,0.0,0.0
19:45:22.026000,-44.0,-16.0,-441.0,-890.0,-521.0,3.0,0.0,0.0,0.0
19:45:22.030000,-142.0,16.0,-277.0,-805.0,-521.0,13.0,0.0,0.0,0.0
19:45:22.035000,-121.0,40.0,-51.0,-805.0,-521.0,13.0,0.0,0.0,0.0
19:45:22.040000,-90.0,28.0,102.0,-746.0,-638.0,-4.0,0.0,0.0,0.0
19:45:22.045000,-30.0,42.0,89.0,-746.0,-638.0,-4.0,0.0,0.0,0.0
19:45:22.049000,51.0,68.0,166.0,-883.0,-622.0,-45.0,0.0,0.0,0.0
19:45:22.054000,78.0,112.0,396.0,-883.0,-622.0,-45.0,0.0,0.0,0.0
19:45:22.059000,210.0,83.0,236.0,-1018.0,-676.0,-76.0,0.0,0.0,0.0
19:45:22.063000,236.0,63.0,-68.0,-1018.0,-676.0,-76.0,0.0,0.0,0.0
19:45:22.068000,145.0,81.0,-139.0,-1030.0,-682.0,-76.0,0.0,0.0,0.0
19:45:22.073000,145.0,81.0,-139.0,-1030.0,-682.0,-76.0,0.0,0.0,0.0
19:45:22.077000,137.0,105.0,-36.0,-822.0,-533.0,-71.0,0.0,0.0,0.0
19:45:22.082000,112.0,99.0,60.0,-822.0,-533.0,-71.0,0.0,0.0,0.0
19:45:22.087000,112.0,84.0,158.0,-637.0,-542.0,-85.0,0.0,0.0,0.0
19:45:22.092000,130.0,70.0,19.0,-637.0,-542.0,-85.0,0.0,0.0,0.0
19:45:22.096000,123.0,75.0,-28.0,-728.0,-623.0,-87.0,0.0,0.0,0.0
19:45:22.101000,42.0,58.0,258.0,-728.0,-623.0,-87.0,0.0,0.0,0.0
19:45:22.106000,5.0,59.0,356.0,-900.0,-552.0,-91.0,0.0,0.0,0.0
19:45:22.110000,21.0,58.0,130.0,-900.0,-552.0,-91.0,0.0,0.0,0.0
19:45:22.115000,-58.0,79.0,-24.0,-861.0,-506.0,-81.0,0.0,0.0,0.0
19:45:22.120000,-71.0,72.0,-22.0,-861.0,-506.0,-81.0,0.0,0.0,0.0
19:45:22.124000,-66.0,51.0,2.0,-816.0,-606.0,-69.0,0.0,0.0,0.0
19:45:22.129000,-98.0,51.0,-94.0,-816.0,-606.0,-69.0,0.0,0.0,0.0
19:45:22.134000,-87.0,34.0,-63.0,-818.0,-649.0,-76.0,0.0,0.0,0.0
19:45:22.139000,-37.0,32.0,-76.0,-818.0,-649.0,-76.0,0.0,0.0,0.0
19:45:22.143000,-27.0,35.0,-145.0,-818.0,-649.0,-76.0,0.0,0.0,0.0
19:45:22.147000,-13.0,25.0,-249.0,-763.0,-701.0,-70.0,0.0,0.0,0.0
19:45:22.153000,7.0,18.0,-409.0,-763.0,-701.0,-70.0,0.0,0.0,0.0
19:45:22.157000,53.0,33.0,-506.0,-790.0,-651.0,-68.0,0.0,0.0,0.0
19:45:22.162000,31.0,55.0,-251.0,-790.0,-651.0,-68.0,0.0,0.0,0.0
19:45:22.167000,14.0,42.0,-44.0,-794.0,-611.0,-71.0,0.0,0.0,0.0
19:45:22.171000,-56.0,44.0,-150.0,-794.0,-611.0,-71.0,0.0,0.0,0.0
19:45:22.176000,-78.0,42.0,-253.0,-838.0,-540.0,-53.0,0.0,0.0,0.0
19:45:22.181000,-86.0,29.0,-245.0,-838.0,-540.0,-53.0,0.0,0.0,0.0
19:45:22.186000,-86.0,29.0,-245.0,-783.0,-478.0,-38.0,0.0,0.0,0.0
19:45:22.190000,-140.0,42.0,-154.0,-783.0,-478.0,-38.0,0.0,0.0,0.0
19:45:22.195000,-90.0,39.0,-215.0,-736.0,-554.0,-65.0,0.0,0.0,0.0
19:45:22.200000,-40.0,18.0,-331.0,-736.0,-554.0,-65.0,0.0,0.0,0.0
19:45:22.204000,-28.0,9.0,-540.0,-790.0,-549.0,-82.0,0.0,0.0,0.0
19:45:22.209000,-13.0,-6.0,-622.0,-790.0,-549.0,-82.0,0.0,0.0,0.0
19:45:22.214000,-32.0,-10.0,-531.0,-720.0,-446.0,-59.0,0.0,0.0,0.0
19:45:22.218000,-42.0,-15.0,-540.0,-720.0,-446.0,-59.0,0.0,0.0,0.0
19:45:22.223000,-57.0,-46.0,-606.0,-714.0,-465.0,-44.0,0.0,0.0,0.0
19:45:22.228000,-113.0,-37.0,-600.0,-714.0,-465.0,-44.0,0.0,0.0,0.0
19:45:22.233000,32.0,-71.0,-631.0,-800.0,-514.0,-57.0,0.0,0.0,0.0
19:45:22.237000,-47.0,-69.0,-554.0,-800.0,-514.0,-57.0,0.0,0.0,0.0
19:45:22.242000,-30.0,-63.0,-291.0,-842.0,-593.0,-84.0,0.0,0.0,0.0
19:45:22.247000,32.0,-79.0,-165.0,-842.0,-593.0,-84.0,0.0,0.0,0.0
19:45:22.251000,32.0,-72.0,-102.0,-842.0,-593.0,-84.0,0.0,0.0,0.0
19:45:22.255000,46.0,-93.0,-16.0,-873.0,-577.0,-80.0,0.0,0.0,0.0
19:45:22.261000,75.0,-118.0,21.0,-873.0,-577.0,-80.0,0.0,0.0,0.0
19:45:22.265000,91.0,-114.0,59.0,-849.0,-367.0,-56.0,0.0,0.0,0.0
19:45:22.270000,133.0,-108.0,-4.0,-849.0,-367.0,-56.0,0.0,0.0,0.0
19:45:22.275000,137.0,-101.0,-90.0,-853.0,-372.0,-58.0,0.0,0.0,0.0
19:45:22.280000,121.0,-100.0,-94.0,-853.0,-372.0,-58.0,0.0,0.0,0.0
19:45:22.284000,111.0,-94.0,-53.0,-831.0,-517.0,-55.0,0.0,0.0,0.0
19:45:22.289000,158.0,-95.0,-90.0,-831.0,-517.0,-55.0,0.0,0.0,0.0
19:45:22.294000,158.0,-95.0,-90.0,-798.0,-472.0,-41.0,0.0,0.0,0.0
19:45:22.298000,119.0,-78.0,-168.0,-798.0,-472.0,-41.0,0.0,0.0,0.0
19:45:22.303000,137.0,-68.0,-252.0,-840.0,-388.0,-33.0,0.0,0.0,0.0
19:45:22.308000,133.0,-62.0,-368.0,-840.0,-388.0,-33.0,0.0,0.0,0.0
19:45:22.312000,100.0,-56.0,-434.0,-857.0,-432.0,-15.0,0.0,0.0,0.0
19:45:22.317000,73.0,-51.0,-449.0,-857.0,-432.0,-15.0,0.0,0.0,0.0
19:45:22.322000,30.0,-37.0,-398.0,-859.0,-420.0,-9.0,0.0,0.0,0.0
19:45:22.327000,-13.0,-30.0,-303.0,-859.0,-420.0,-9.0,0.0,0.0,0.0
19:45:22.331000,-60.0,-11.0,-213.0,-863.0,-394.0,-14.0,0.0,0.0,0.0
19:45:22.336000,-86.0,-7.0,-125.0,-863.0,-394.0,-14.0,0.0,0.0,0.0
19:45:22.341000,-49.0,5.0,-148.0,-898.0,-383.0,-28.0,0.0,0.0,0.0
19:45:22.345000,17.0,31.0,-343.0,-898.0,-383.0,-28.0,0.0,0.0,0.0
19:45:22.350000,44.0,46.0,-451.0,-932.0,-445.0,-33.0,0.0,0.0,0.0
19:45:22.355000,46.0,66.0,-343.0,-932.0,-445.0,-33.0,0.0,0.0,0.0
19:45:22.359000,83.0,65.0,-172.0,-932.0,-445.0,-33.0,0.0,0.0,0.0
19:45:22.364000,87.0,59.0,-137.0,-936.0,-502.0,-22.0,0.0,0.0,0.0
19:45:22.369000,49.0,74.0,-235.0,-936.0,-502.0,-22.0,0.0,0.0,0.0
19:45:22.374000,51.0,77.0,-296.0,-906.0,-429.0,-15.0,0.0,0.0,0.0
19:45:22.378000,50.0,75.0,-279.0,-906.0,-429.0,-15.0,0.0,0.0,0.0
19:45:22.383000,41.0,75.0,-273.0,-859.0,-434.0,-23.0,0.0,0.0,0.0
19:45:22.388000,40.0,67.0,-256.0,-859.0,-434.0,-23.0,0.0,0.0,0.0
19:45:22.392000,32.0,66.0,-235.0,-862.0,-482.0,-40.0,0.0,0.0,0.0
19:45:22.397000,12.0,66.0,-211.0,-862.0,-482.0,-40.0,0.0,0.0,0.0
19:45:22.402000,12.0,66.0,-211.0,-889.0,-498.0,-49.0,0.0,0.0,0.0
19:45:22.406000,13.0,58.0,-190.0,-889.0,-498.0,-49.0,0.0,0.0,0.0
19:45:22.411000,28.0,51.0,-188.0,-872.0,-479.0,-65.0,0.0,0.0,0.0
19:45:22.416000,26.0,49.0,-198.0,-872.0,-479.0,-65.0,0.0,0.0,0.0
19:45:22.421000,18.0,41.0,-272.0,-872.0,-386.0,-80.0,0.0,0.0,0.0
19:45:22.425000,-10.0,36.0,-340.0,-872.0,-386.0,-80.0,0.0,0.0,0.0
19:45:22.430000,-15.0,20.0,-381.0,-841.0,-281.0,-79.0,0.0,0.0,0.0
19:45:22.435000,-14.0,4.0,-421.0,-841.0,-281.0,-79.0,0.0,0.0,0.0
19:45:22.439000,-49.0,10.0,-419.0,-848.0,-239.0,-68.0,0.0,0.0,0.0
19:45:22.444000,-58.0,13.0,-486.0,-848.0,-239.0,-68.0,0.0,0.0,0.0
19:45:22.449000,-71.0,7.0,-598.0,-978.0,-356.0,-67.0,0.0,0.0,0.0
19:45:22.453000,-67.0,11.0,-578.0,-978.0,-356.0,-67.0,0.0,0.0,0.0
19:45:22.458000,-33.0,15.0,-469.0,-1042.0,-464.0,-78.0,0.0,0.0,0.0
19:45:22.463000,-34.0,13.0,-416.0,-1042.0,-464.0,-78.0,0.0,0.0,0.0
19:45:22.468000,-32.0,19.0,-365.0,-1042.0,-464.0,-78.0,0.0,0.0,0.0
19:45:22.472000,-3.0,18.0,-336.0,-1049.0,-430.0,-77.0,0.0,0.0,0.0
19:45:22.477000,-17.0,11.0,-412.0,-1049.0,-430.0,-77.0,0.0,0.0,0.0
19:45:22.482000,-13.0,5.0,-459.0,-1057.0,-399.0,-63.0,0.0,0.0,0.0
19:45:22.486000,-4.0,6.0,-385.0,-1057.0,-399.0,-63.0,0.0,0.0,0.0
19:45:22.490000,9.0,18.0,-387.0,-1020.0,-448.0,-65.0,0.0,0.0,0.0
19:45:22.496000,47.0,18.0,-534.0,-1020.0,-448.0,-65.0,0.0,0.0,0.0
19:45:22.500000,58.0,27.0,-610.0,-1061.0,-427.0,-79.0,0.0,0.0,0.0
19:45:22.505000,67.0,33.0,-542.0,-1061.0,-427.0,-79.0,0.0,0.0,0.0
19:45:22.510000,67.0,33.0,-542.0,-1089.0,-420.0,-86.0,0.0,0.0,0.0
19:45:22.515000,56.0,46.0,-504.0,-1089.0,-420.0,-86.0,0.0,0.0,0.0
19:45:22.519000,60.0,58.0,-571.0,-1081.0,-418.0,-97.0,0.0,0.0,0.0
19:45:22.524000,77.0,64.0,-648.0,-1081.0,-418.0,-97.0,0.0,0.0,0.0
19:45:22.529000,79.0,67.0,-678.0,-1077.0,-359.0,-100.0,0.0,0.0,0.0
19:45:22.533000,82.0,69.0,-658.0,-1077.0,-359.0,-100.0,0.0,0.0,0.0
19:45:22.538000,85.0,72.0,-674.0,-1048.0,-343.0,-95.0,0.0,0.0,0.0
19:45:22.543000,86.0,72.0,-732.0,-1048.0,-343.0,-95.0,0.0,0.0,0.0
19:45:22.547000,97.0,68.0,-788.0,-1044.0,-331.0,-98.0,0.0,0.0,0.0
19:45:22.552000,104.0,70.0,-802.0,-1044.0,-331.0,-98.0,0.0,0.0,0.0
19:45:22.557000,100.0,76.0,-797.0,-1040.0,-333.0,-103.0,0.0,0.0,0.0
19:45:22.562000,96.0,86.0,-788.0,-1040.0,-333.0,-103.0,0.0,0.0,0.0
19:45:22.566000,86.0,101.0,-795.0,-1079.0,-313.0,-106.0,0.0,0.0,0.0
19:45:22.571000,83.0,119.0,-798.0,-1079.0,-313.0,-106.0,0.0,0.0,0.0
19:45:22.576000,90.0,135.0,-792.0,-1079.0,-313.0,-106.0,0.0,0.0,0.0
19:45:22.580000,95.0,149.0,-795.0,-1136.0,-329.0,-111.0,0.0,0.0,0.0
19:45:22.585000,105.0,163.0,-822.0,-1136.0,-329.0,-111.0,0.0,0.0,0.0
19:45:22.590000,112.0,179.0,-854.0,-1148.0,-364.0,-118.0,0.0,0.0,0.0
19:45:22.594000,121.0,189.0,-852.0,-1148.0,-364.0,-118.0,0.0,0.0,0.0
19:45:22.599000,132.0,198.0,-855.0,-1113.0,-355.0,-118.0,0.0,0.0,0.0
19:45:22.604000,130.0,212.0,-874.0,-1113.0,-355.0,-118.0,0.0,0.0,0.0
19:45:22.609000,140.0,219.0,-894.0,-1084.0,-322.0,-112.0,0.0,0.0,0.0
19:45:22.613000,161.0,226.0,-940.0,-1084.0,-322.0,-112.0,0.0,0.0,0.0
19:45:22.618000,179.0,231.0,-978.0,-1072.0,-282.0,-108.0,0.0,0.0,0.0
19:45:22.622000,179.0,231.0,-978.0,-1072.0,-282.0,-108.0,0.0,0.0,0.0
19:45:22.627000,198.0,235.0,-991.0,-1047.0,-300.0,-116.0,0.0,0.0,0.0
19:45:22.632000,219.0,237.0,-977.0,-1047.0,-300.0,-116.0,0.0,0.0,0.0
19:45:22.637000,242.0,235.0,-939.0,-1047.0,-330.0,-124.0,0.0,0.0,0.0
19:45:22.641000,253.0,229.0,-926.0,-1047.0,-330.0,-124.0,0.0,0.0,0.0
19:45:22.646000,263.0,226.0,-930.0,-1062.0,-297.0,-123.0,0.0,0.0,0.0
19:45:22.651000,276.0,225.0,-928.0,-1062.0,-297.0,-123.0,0.0,0.0,0.0
19:45:22.656000,284.0,221.0,-936.0,-1051.0,-246.0,-125.0,0.0,0.0,0.0
19:45:22.660000,288.0,217.0,-943.0,-1051.0,-246.0,-125.0,0.0,0.0,0.0
19:45:22.665000,284.0,210.0,-928.0,-1035.0,-199.0,-128.0,0.0,0.0,0.0
19:45:22.670000,284.0,198.0,-925.0,-1035.0,-199.0,-128.0,0.0,0.0,0.0
19:45:22.674000,279.0,190.0,-974.0,-1028.0,-137.0,-131.0,0.0,0.0,0.0
19:45:22.679000,272.0,188.0,-989.0,-1028.0,-137.0,-131.0,0.0,0.0,0.0
19:45:22.684000,265.0,185.0,-936.0,-1028.0,-137.0,-131.0,0.0,0.0,0.0
19:45:22.688000,256.0,184.0,-906.0,-1023.0,-114.0,-140.0,0.0,0.0,0.0
19:45:22.693000,240.0,187.0,-912.0,-1023.0,-114.0,-140.0,0.0,0.0,0.0
19:45:22.698000,217.0,187.0,-933.0,-1048.0,-80.0,-146.0,0.0,0.0,0.0
19:45:22.703000,198.0,187.0,-945.0,-1048.0,-80.0,-146.0,0.0,0.0,0.0
19:45:22.707000,183.0,187.0,-942.0,-1059.0,-24.0,-145.0,0.0,0.0,0.0
19:45:22.712000,175.0,189.0,-948.0,-1059.0,-24.0,-145.0,0.0,0.0,0.0
19:45:22.717000,171.0,194.0,-965.0,-1039.0,-23.0,-151.0,0.0,0.0,0.0
19:45:22.721000,165.0,196.0,-977.0,-1039.0,-23.0,-151.0,0.0,0.0,0.0
19:45:22.725000,165.0,196.0,-977.0,-1050.0,-25.0,-157.0,0.0,0.0,0.0
19:45:22.731000,160.0,196.0,-984.0,-1050.0,-25.0,-157.0,0.0,0.0,0.0
19:45:22.735000,154.0,196.0,-968.0,-1048.0,-4.0,-158.0,0.0,0.0,0.0
19:45:22.740000,151.0,193.0,-948.0,-1048.0,-4.0,-158.0,0.0,0.0,0.0
19:45:22.745000,155.0,193.0,-931.0,-1032.0,6.0,-164.0,0.0,0.0,0.0
19:45:22.750000,161.0,190.0,-905.0,-1032.0,6.0,-164.0,0.0,0.0,0.0
19:45:22.754000,174.0,184.0,-889.0,-1036.0,0.0,-172.0,0.0,0.0,0.0
19:45:22.759000,196.0,174.0,-900.0,-1036.0,0.0,-172.0,0.0,0.0,0.0
19:45:22.764000,210.0,164.0,-928.0,-1020.0,16.0,-175.0,0.0,0.0,0.0
19:45:22.768000,217.0,157.0,-917.0,-1020.0,16.0,-175.0,0.0,0.0,0.0
19:45:22.773000,226.0,143.0,-872.0,-978.0,41.0,-179.0,0.0,0.0,0.0
19:45:22.778000,238.0,128.0,-860.0,-978.0,41.0,-179.0,0.0,0.0,0.0
19:45:22.782000,247.0,112.0,-868.0,-954.0,86.0,-185.0,0.0,0.0,0.0
19:45:22.787000,245.0,103.0,-840.0,-954.0,86.0,-185.0,0.0,0.0,0.0
19:45:22.792000,248.0,93.0,-793.0,-954.0,86.0,-185.0,0.0,0.0,0.0
19:45:22.796000,252.0,86.0,-784.0,-960.0,139.0,-193.0,0.0,0.0,0.0
19:45:22.801000,248.0,81.0,-795.0,-960.0,139.0,-193.0,0.0,0.0,0.0
19:45:22.806000,236.0,80.0,-779.0,-975.0,174.0,-200.0,0.0,0.0,0.0
19:45:22.811000,223.0,79.0,-748.0,-975.0,174.0,-200.0,0.0,0.0,0.0
19:45:22.815000,207.0,76.0,-743.0,-996.0,207.0,-207.0,0.0,0.0,0.0
19:45:22.820000,191.0,77.0,-756.0,-996.0,207.0,-207.0,0.0,0.0,0.0
19:45:22.825000,177.0,79.0,-767.0,-1002.0,241.0,-213.0,0.0,0.0,0.0
