hh:mm:ss.ms,gyroX[mdps],gyroY[mdps],gyroZ[mdps],accX[mg],accY[mg],accZ[mg],magX[mG],magY[mG],magZ[mG]
19:32:49.996000,-436.0,-76.0,-293.0,-1579.0,325.0,-167.0,0.0,0.0,0.0
19:32:50.001000,-429.0,-74.0,-292.0,-1579.0,325.0,-167.0,0.0,0.0,0.0
19:32:50.006000,-432.0,-63.0,-327.0,-1497.0,376.0,-161.0,0.0,0.0,0.0
19:32:50.011000,-450.0,-52.0,-354.0,-1497.0,376.0,-161.0,0.0,0.0,0.0
19:32:50.015000,-478.0,-44.0,-364.0,-1433.0,521.0,-170.0,0.0,0.0,0.0
19:32:50.020000,-535.0,-17.0,-399.0,-1433.0,521.0,-170.0,0.0,0.0,0.0
19:32:50.025000,-582.0,-4.0,-413.0,-1483.0,490.0,-160.0,0.0,0.0,0.0
19:32:50.029000,-583.0,0.0,-345.0,-1483.0,490.0,-160.0,0.0,0.0,0.0
19:32:50.034000,-580.0,15.0,-326.0,-1382.0,347.0,-179.0,0.0,0.0,0.0
19:32:50.039000,-590.0,23.0,-444.0,-1382.0,347.0,-179.0,0.0,0.0,0.0
19:32:50.043000,-599.0,21.0,-526.0,-1382.0,347.0,-179.0,0.0,0.0,0.0
19:32:50.048000,-596.0,0.0,-466.0,-1250.0,441.0,-204.0,0.0,0.0,0.0
19:32:50.053000,-581.0,-8.0,-409.0,-1250.0,441.0,-204.0,0.0,0.0,0.0
19:32:50.058000,-586.0,-2.0,-504.0,-1307.0,468.0,-204.0,0.0,0.0,0.0
19:32:50.062000,-558.0,-23.0,-564.0,-1307.0,468.0,-204.0,0.0,0.0,0.0
19:32:50.066000,-534.0,-18.0,-528.0,-1302.0,363.0,-218.0,0.0,0.0,0.0
19:32:50.072000,-547.0,-10.0,-538.0,-1302.0,363.0,-218.0,0.0,0.0,0.0
19:32:50.076000,-581.0,-9.0,-603.0,-1210.0,483.0,-239.0,0.0,0.0,0.0
19:32:50.081000,-634.0,-19.0,-609.0,-1210.0,483.0,-239.0,0.0,0.0,0.0
19:32:50.086000,-634.0,-19.0,-609.0,-1202.0,631.0,-250.0,0.0,0.0,0.0
19:32:50.090000,-677.0,-15.0,-551.0,-1202.0,631.0,-250.0,0.0,0.0,0.0
19:32:50.095000,-736.0,-9.0,-527.0,-1271.0,636.0,-275.0,0.0,0.0,0.0
19:32:50.100000,-827.0,-16.0,-555.0,-1271.0,636.0,-275.0,0.0,0.0,0.0
19:32:50.105000,-891.0,-25.0,-604.0,-1230.0,581.0,-312.0,0.0,0.0,0.0
19:32:50.109000,-890.0,-36.0,-497.0,-1230.0,581.0,-312.0,0.0,0.0,0.0
19:32:50.114000,-945.0,-67.0,-324.0,-1103.0,408.0,-323.0,0.0,0.0,0.0
19:32:50.119000,-912.0,-88.0,-417.0,-1103.0,408.0,-323.0,0.0,0.0,0.0
19:32:50.123000,-924.0,-107.0,-636.0,-1048.0,389.0,-345.0,0.0,0.0,0.0
19:32:50.128000,-926.0,-121.0,-714.0,-1048.0,389.0,-345.0,0.0,0.0,0.0
19:32:50.133000,-921.0,-143.0,-672.0,-1009.0,480.0,-375.0,0.0,0.0,0.0
19:32:50.137000,-903.0,-149.0,-610.0,-1009.0,480.0,-375.0,0.0,0.0,0.0
19:32:50.142000,-856.0,-148.0,-730.0,-1045.0,464.0,-410.0,0.0,0.0,0.0
19:32:50.147000,-856.0,-154.0,-908.0,-1045.0,464.0,-410.0,0.0,0.0,0.0
19:32:50.152000,-895.0,-188.0,-819.0,-1045.0,464.0,-410.0,0.0,0.0,0.0
19:32:50.156000,-863.0,-223.0,-669.0,-1054.0,399.0,-416.0,0.0,0.0,0.0
19:32:50.161000,-795.0,-237.0,-639.0,-1054.0,399.0,-416.0,0.0,0.0,0.0
19:32:50.166000,-767.0,-228.0,-745.0,-953.0,371.0,-420.0,0.0,0.0,0.0
19:32:50.170000,-767.0,-238.0,-738.0,-953.0,371.0,-420.0,0.0,0.0,0.0
19:32:50.175000,-742.0,-266.0,-653.0,-856.0,483.0,-423.0,0.0,0.0,0.0
19:32:50.180000,-826.0,-298.0,-674.0,-856.0,483.0,-423.0,0.0,0.0,0.0
19:32:50.184000,-826.0,-298.0,-674.0,-871.0,563.0,-361.0,0.0,0.0,0.0
19:32:50.189000,-793.0,-259.0,-728.0,-871.0,563.0,-361.0,0.0,0.0,0.0
19:32:50.194000,-793.0,-259.0,-728.0,-964.0,530.0,-305.0,0.0,0.0,0.0
19:32:50.199000,-784.0,-236.0,-662.0,-964.0,530.0,-305.0,0.0,0.0,0.0
19:32:50.203000,-746.0,-205.0,-660.0,-1072.0,503.0,-267.0,0.0,0.0,0.0
19:32:50.208000,-761.0,-184.0,-825.0,-1072.0,503.0,-267.0,0.0,0.0,0.0
19:32:50.213000,-787.0,-156.0,-914.0,-1115.0,486.0,-238.0,0.0,0.0,0.0
19:32:50.217000,-744.0,-115.0,-809.0,-1115.0,486.0,-238.0,0.0,0.0,0.0
19:32:50.222000,-741.0,-72.0,-746.0,-1056.0,574.0,-208.0,0.0,0.0,0.0
19:32:50.227000,-765.0,-44.0,-833.0,-1056.0,574.0,-208.0,0.0,0.0,0.0
19:32:50.231000,-786.0,-9.0,-884.0,-1060.0,674.0,-187.0,0.0,0.0,0.0
19:32:50.236000,-802.0,28.0,-830.0,-1060.0,674.0,-187.0,0.0,0.0,0.0
19:32:50.241000,-815.0,66.0,-818.0,-1112.0,624.0,-181.0,0.0,0.0,0.0
19:32:50.246000,-806.0,94.0,-947.0,-1112.0,624.0,-181.0,0.0,0.0,0.0
19:32:50.250000,-779.0,113.0,-1023.0,-1077.0,626.0,-189.0,0.0,0.0,0.0
19:32:50.255000,-801.0,138.0,-994.0,-1077.0,626.0,-189.0,0.0,0.0,0.0
19:32:50.260000,-804.0,142.0,-934.0,-1077.0,626.0,-189.0,0.0,0.0,0.0
19:32:50.264000,-808.0,142.0,-914.0,-956.0,659.0,-190.0,0.0,0.0,0.0
19:32:50.269000,-816.0,155.0,-938.0,-956.0,659.0,-190.0,0.0,0.0,0.0
19:32:50.274000,-828.0,172.0,-988.0,-878.0,674.0,-188.0,0.0,0.0,0.0
19:32:50.278000,-854.0,172.0,-975.0,-878.0,674.0,-188.0,0.0,0.0,0.0
19:32:50.283000,-892.0,163.0,-919.0,-869.0,708.0,-197.0,0.0,0.0,0.0
19:32:50.288000,-903.0,165.0,-886.0,-869.0,708.0,-197.0,0.0,0.0,0.0
19:32:50.293000,-917.0,167.0,-879.0,-867.0,724.0,-206.0,0.0,0.0,0.0
19:32:50.316000,-959.0,210.0,-767.0,-761.0,668.0,-243.0,0.0,0.0,0.0
19:32:50.321000,-967.0,226.0,-774.0,-823.0,669.0,-253.0,0.0,0.0,0.0
19:32:50.325000,-980.0,254.0,-812.0,-823.0,669.0,-253.0,0.0,0.0,0.0
19:32:50.330000,-971.0,276.0,-814.0,-845.0,647.0,-262.0,0.0,0.0,0.0
19:32:50.335000,-956.0,294.0,-789.0,-845.0,647.0,-262.0,0.0,0.0,0.0
19:32:50.340000,-947.0,319.0,-749.0,-796.0,593.0,-277.0,0.0,0.0,0.0
19:32:50.344000,-945.0,347.0,-710.0,-796.0,593.0,-277.0,0.0,0.0,0.0
19:32:50.349000,-949.0,379.0,-677.0,-762.0,590.0,-285.0,0.0,0.0,0.0
19:32:50.354000,-956.0,413.0,-649.0,-762.0,590.0,-285.0,0.0,0.0,0.0
19:32:50.358000,-955.0,446.0,-634.0,-739.0,573.0,-288.0,0.0,0.0,0.0
19:32:50.363000,-959.0,480.0,-611.0,-739.0,573.0,-288.0,0.0,0.0,0.0
19:32:50.368000,-949.0,507.0,-590.0,-739.0,573.0,-288.0,0.0,0.0,0.0
19:32:50.372000,-927.0,536.0,-550.0,-703.0,527.0,-291.0,0.0,0.0,0.0
19:32:50.377000,-893.0,568.0,-504.0,-703.0,527.0,-291.0,0.0,0.0,0.0
19:32:50.382000,-854.0,594.0,-490.0,-679.0,492.0,-294.0,0.0,0.0,0.0
19:32:50.387000,-819.0,620.0,-465.0,-679.0,492.0,-294.0,0.0,0.0,0.0
19:32:50.391000,-795.0,643.0,-423.0,-676.0,459.0,-288.0,0.0,0.0,0.0
19:32:50.396000,-767.0,668.0,-411.0,-676.0,459.0,-288.0,0.0,0.0,0.0
19:32:50.401000,-746.0,696.0,-457.0,-653.0,468.0,-280.0,0.0,0.0,0.0
19:32:50.405000,-737.0,719.0,-447.0,-653.0,468.0,-280.0,0.0,0.0,0.0
19:32:50.410000,-728.0,738.0,-418.0,-595.0,479.0,-271.0,0.0,0.0,0.0
19:32:50.415000,-728.0,738.0,-418.0,-595.0,479.0,-271.0,0.0,0.0,0.0
19:32:50.419000,-714.0,747.0,-408.0,-533.0,444.0,-261.0,0.0,0.0,0.0
19:32:50.424000,-709.0,750.0,-316.0,-533.0,444.0,-261.0,0.0,0.0,0.0
19:32:50.429000,-700.0,757.0,-231.0,-504.0,394.0,-257.0,0.0,0.0,0.0
19:32:50.434000,-683.0,767.0,-231.0,-504.0,394.0,-257.0,0.0,0.0,0.0
19:32:50.438000,-651.0,769.0,-270.0,-452.0,372.0,-262.0,0.0,0.0,0.0
19:32:50.443000,-616.0,753.0,-226.0,-452.0,372.0,-262.0,0.0,0.0,0.0
19:32:50.448000,-619.0,745.0,-164.0,-412.0,424.0,-261.0,0.0,0.0,0.0
19:32:50.452000,-648.0,744.0,-242.0,-412.0,424.0,-261.0,0.0,0.0,0.0
19:32:50.457000,-641.0,730.0,-246.0,-392.0,406.0,-255.0,0.0,0.0,0.0
19:32:50.462000,-655.0,709.0,-139.0,-392.0,406.0,-255.0,0.0,0.0,0.0
19:32:50.466000,-660.0,686.0,-106.0,-277.0,340.0,-259.0,0.0,0.0,0.0
19:32:50.471000,-650.0,660.0,-123.0,-277.0,340.0,-259.0,0.0,0.0,0.0
19:32:50.476000,-644.0,635.0,-133.0,-277.0,340.0,-259.0,0.0,0.0,0.0
19:32:50.481000,-646.0,613.0,-119.0,-144.0,320.0,-272.0,0.0,0.0,0.0
19:32:50.485000,-611.0,576.0,-199.0,-171.0,391.0,-300.0,0.0,0.0,0.0
19:32:50.490000,-572.0,529.0,-213.0,-171.0,391.0,-300.0,0.0,0.0,0.0
19:32:50.495000,-623.0,518.0,-95.0,-171.0,391.0,-300.0,0.0,0.0,0.0
19:32:50.499000,-644.0,491.0,-86.0,-232.0,439.0,-317.0,0.0,0.0,0.0
19:32:50.504000,-605.0,467.0,-146.0,-232.0,439.0,-317.0,0.0,0.0,0.0
19:32:50.509000,-624.0,452.0,-143.0,-222.0,402.0,-328.0,0.0,0.0,0.0
19:32:50.513000,-649.0,422.0,-90.0,-222.0,402.0,-328.0,0.0,0.0,0.0
19:32:50.518000,-681.0,397.0,-49.0,-197.0,424.0,-341.0,0.0,0.0,0.0
19:32:50.523000,-681.0,397.0,-49.0,-197.0,424.0,-341.0,0.0,0.0,0.0
19:32:50.528000,-712.0,366.0,-74.0,-146.0,479.0,-347.0,0.0,0.0,0.0
19:32:50.532000,-745.0,340.0,-93.0,-146.0,479.0,-347.0,0.0,0.0,0.0
19:32:50.537000,-779.0,315.0,-72.0,-96.0,483.0,-364.0,0.0,0.0,0.0
19:32:50.542000,-805.0,295.0,-31.0,-96.0,483.0,-364.0,0.0,0.0,0.0
19:32:50.546000,-835.0,280.0,-11.0,-104.0,455.0,-384.0,0.0,0.0,0.0
19:32:50.551000,-858.0,268.0,-24.0,-104.0,455.0,-384.0,0.0,0.0,0.0
19:32:50.556000,-875.0,259.0,-44.0,-157.0,418.0,-408.0,0.0,0.0,0.0
19:32:50.560000,-875.0,252.0,-51.0,-157.0,418.0,-408.0,0.0,0.0,0.0
19:32:50.565000,-867.0,247.0,-32.0,-155.0,320.0,-434.0,0.0,0.0,0.0
19:32:50.570000,-851.0,245.0,8.0,-155.0,320.0,-434.0,0.0,0.0,0.0
19:32:50.575000,-821.0,250.0,18.0,-158.0,225.0,-462.0,0.0,0.0,0.0
19:32:50.579000,-785.0,257.0,3.0,-158.0,225.0,-462.0,0.0,0.0,0.0
19:32:50.584000,-756.0,269.0,-4.0,-189.0,174.0,-489.0,0.0,0.0,0.0
19:32:50.589000,-725.0,284.0,-18.0,-193.0,174.0,-489.0,0.0,0.0,0.0
19:32:50.593000,-700.0,307.0,-35.0,-193.0,174.0,-489.0,0.0,0.0,0.0
19:32:50.598000,-683.0,332.0,-60.0,-212.0,154.0,-517.0,0.0,0.0,0.0
19:32:50.603000,-667.0,361.0,-79.0,-208.0,147.0,-543.0,0.0,0.0,0.0
19:32:50.607000,-646.0,393.0,-118.0,-208.0,147.0,-543.0,0.0,0.0,0.0
19:32:50.612000,-630.0,430.0,-179.0,-208.0,147.0,-543.0,0.0,0.0,0.0
19:32:50.617000,-613.0,470.0,-219.0,-198.0,156.0,-569.0,0.0,0.0,0.0
19:32:50.622000,-595.0,513.0,-248.0,-198.0,156.0,-569.0,0.0,0.0,0.0
19:32:50.626000,-581.0,557.0,-264.0,-218.0,180.0,-605.0,0.0,0.0,0.0
19:32:50.631000,-566.0,602.0,-259.0,-218.0,180.0,-605.0,0.0,0.0,0.0
19:32:50.636000,-566.0,602.0,-259.0,-260.0,189.0,-645.0,0.0,0.0,0.0
19:32:50.640000,-553.0,645.0,-249.0,-260.0,189.0,-645.0,0.0,0.0,0.0
19:32:50.645000,-540.0,686.0,-255.0,-276.0,211.0,-673.0,0.0,0.0,0.0
19:32:50.650000,-536.0,723.0,-268.0,-276.0,211.0,-673.0,0.0,0.0,0.0
19:32:50.654000,-540.0,754.0,-276.0,-236.0,268.0,-692.0,0.0,0.0,0.0
19:32:50.659000,-555.0,780.0,-286.0,-236.0,268.0,-692.0,0.0,0.0,0.0
19:32:50.664000,-575.0,802.0,-304.0,-157.0,330.0,-714.0,0.0,0.0,0.0
19:32:50.669000,-597.0,819.0,-330.0,-157.0,330.0,-714.0,0.0,0.0,0.0
19:32:50.673000,-616.0,830.0,-366.0,-65.0,352.0,-748.0,0.0,0.0,0.0
19:32:50.678000,-630.0,837.0,-403.0,-65.0,352.0,-748.0,0.0,0.0,0.0
19:32:50.683000,-639.0,841.0,-438.0,19.0,332.0,-794.0,0.0,0.0,0.0
19:32:50.687000,-644.0,839.0,-471.0,19.0,332.0,-794.0,0.0,0.0,0.0
19:32:50.692000,-641.0,830.0,-503.0,78.0,311.0,-841.0,0.0,0.0,0.0
19:32:50.697000,-632.0,814.0,-532.0,78.0,311.0,-841.0,0.0,0.0,0.0
19:32:50.701000,-620.0,794.0,-548.0,78.0,311.0,-841.0,0.0,0.0,0.0
19:32:50.706000,-602.0,765.0,-558.0,128.0,297.0,-881.0,0.0,0.0,0.0
19:32:50.711000,-586.0,728.0,-562.0,128.0,297.0,-881.0,0.0,0.0,0.0
19:32:50.716000,-579.0,683.0,-560.0,178.0,292.0,-906.0,0.0,0.0,0.0
19:32:50.720000,-581.0,631.0,-560.0,178.0,292.0,-906.0,0.0,0.0,0.0
19:32:50.725000,-588.0,575.0,-555.0,226.0,328.0,-907.0,0.0,0.0,0.0
19:32:50.730000,-600.0,515.0,-550.0,226.0,328.0,-907.0,0.0,0.0,0.0
19:32:50.734000,-616.0,452.0,-543.0,267.0,365.0,-886.0,0.0,0.0,0.0
19:32:50.739000,-632.0,387.0,-531.0,267.0,365.0,-886.0,0.0,0.0,0.0
19:32:50.744000,-632.0,387.0,-531.0,281.0,359.0,-860.0,0.0,0.0,0.0
19:32:50.748000,-648.0,322.0,-520.0,281.0,359.0,-860.0,0.0,0.0,0.0
19:32:50.753000,-668.0,261.0,-506.0,262.0,346.0,-837.0,0.0,0.0,0.0
19:32:50.758000,-691.0,207.0,-487.0,262.0,346.0,-837.0,0.0,0.0,0.0
19:32:50.763000,-721.0,158.0,-473.0,227.0,334.0,-815.0,0.0,0.0,0.0
19:32:50.767000,-749.0,114.0,-476.0,227.0,334.0,-815.0,0.0,0.0,0.0
19:32:50.772000,-768.0,74.0,-489.0,204.0,311.0,-803.0,0.0,0.0,0.0
19:32:50.777000,-785.0,36.0,-501.0,204.0,311.0,-803.0,0.0,0.0,0.0
19:32:50.781000,-805.0,0.0,-507.0,215.0,308.0,-800.0,0.0,0.0,0.0
19:32:50.786000,-818.0,-31.0,-516.0,215.0,308.0,-800.0,0.0,0.0,0.0
19:32:50.791000,-824.0,-55.0,-540.0,220.0,324.0,-798.0,0.0,0.0,0.0
19:32:50.795000,-829.0,-66.0,-564.0,220.0,324.0,-798.0,0.0,0.0,0.0
19:32:50.800000,-839.0,-66.0,-598.0,109.0,296.0,-802.0,0.0,0.0,0.0
19:32:50.805000,-849.0,-56.0,-653.0,109.0,296.0,-802.0,0.0,0.0,0.0
19:32:50.810000,-862.0,-44.0,-715.0,109.0,296.0,-802.0,0.0,0.0,0.0
19:32:50.814000,-877.0,-29.0,-744.0,-60.0,236.0,-809.0,0.0,0.0,0.0
19:32:50.819000,-898.0,-18.0,-747.0,-60.0,236.0,-809.0,0.0,0.0,0.0
19:32:50.824000,-921.0,-17.0,-746.0,-81.0,222.0,-813.0,0.0,0.0,0.0
19:32:50.828000,-940.0,-25.0,-756.0,-81.0,222.0,-813.0,0.0,0.0,0.0
19:32:50.833000,-949.0,-39.0,-787.0,57.0,247.0,-823.0,0.0,0.0,0.0
19:32:50.838000,-948.0,-53.0,-830.0,57.0,247.0,-823.0,0.0,0.0,0.0
19:32:50.842000,-956.0,-65.0,-859.0,166.0,241.0,-854.0,0.0,0.0,0.0
19:32:50.847000,-969.0,-76.0,-866.0,166.0,241.0,-854.0,0.0,0.0,0.0
19:32:50.852000,-969.0,-76.0,-866.0,149.0,222.0,-881.0,0.0,0.0,0.0
19:32:50.857000,-987.0,-86.0,-873.0,149.0,222.0,-881.0,0.0,0.0,0.0
19:32:50.861000,-1008.0,-94.0,-882.0,100.0,202.0,-901.0,0.0,0.0,0.0
19:32:50.866000,-1013.0,-107.0,-883.0,100.0,202.0,-901.0,0.0,0.0,0.0
19:32:50.871000,-1017.0,-117.0,-889.0,94.0,183.0,-922.0,0.0,0.0,0.0
19:32:50.875000,-1029.0,-133.0,-903.0,94.0,183.0,-922.0,0.0,0.0,0.0
19:32:50.880000,-1044.0,-156.0,-908.0,109.0,194.0,-931.0,0.0,0.0,0.0
19:32:50.885000,-1057.0,-183.0,-907.0,109.0,194.0,-931.0,0.0,0.0,0.0
19:32:50.889000,-1072.0,-215.0,-908.0,142.0,212.0,-929.0,0.0,0.0,0.0
19:32:50.894000,-1102.0,-249.0,-927.0,142.0,212.0,-929.0,0.0,0.0,0.0
19:32:50.899000,-1146.0,-285.0,-958.0,179.0,280.0,-917.0,0.0,0.0,0.0
19:32:50.904000,-1208.0,-325.0,-983.0,179.0,280.0,-917.0,0.0,0.0,0.0
19:32:50.908000,-1292.0,-364.0,-1001.0,203.0,401.0,-899.0,0.0,0.0,0.0
19:32:50.913000,-1394.0,-408.0,-1015.0,203.0,401.0,-899.0,0.0,0.0,0.0
19:32:50.918000,-1507.0,-453.0,-1029.0,203.0,401.0,-899.0,0.0,0.0,0.0
19:32:50.922000,-1619.0,-502.0,-1049.0,222.0,483.0,-885.0,0.0,0.0,0.0
19:32:50.927000,-1726.0,-557.0,-1075.0,222.0,483.0,-885.0,0.0,0.0,0.0
19:32:50.932000,-1832.0,-616.0,-1104.0,228.0,490.0,-878.0,0.0,0.0,0.0
19:32:50.936000,-1936.0,-678.0,-1124.0,228.0,490.0,-878.0,0.0,0.0,0.0
19:32:50.941000,-2030.0,-741.0,-1145.0,215.0,448.0,-876.0,0.0,0.0,0.0
19:32:50.946000,-2120.0,-804.0,-1164.0,215.0,448.0,-876.0,0.0,0.0,0.0
19:32:50.951000,-2207.0,-868.0,-1180.0,185.0,397.0,-873.0,0.0,0.0,0.0
19:32:50.955000,-2288.0,-931.0,-1194.0,185.0,397.0,-873.0,0.0,0.0,0.0
19:32:50.960000,-2356.0,-993.0,-1212.0,141.0,337.0,-858.0,0.0,0.0,0.0
19:32:50.965000,-2356.0,-993.0,-1212.0,141.0,337.0,-858.0,0.0,0.0,0.0
19:32:50.969000,-2410.0,-1052.0,-1234.0,111.0,242.0,-835.0,0.0,0.0,0.0
19:32:50.974000,-2459.0,-1106.0,-1259.0,111.0,242.0,-835.0,0.0,0.0,0.0
19:32:50.979000,-2503.0,-1151.0,-1293.0,75.0,150.0,-808.0,0.0,0.0,0.0
19:32:50.983000,-2552.0,-1192.0,-1332.0,75.0,150.0,-808.0,0.0,0.0,0.0
19:32:50.988000,-2601.0,-1228.0,-1358.0,2.0,97.0,-785.0,0.0,0.0,0.0
19:32:50.993000,-2649.0,-1262.0,-1362.0,2.0,97.0,-785.0,0.0,0.0,0.0
19:32:50.998000,-2696.0,-1292.0,-1360.0,-52.0,49.0,-778.0,0.0,0.0,0.0
19:32:51.002000,-2740.0,-1322.0,-1355.0,-52.0,49.0,-778.0,0.0,0.0,0.0
19:32:51.007000,-2779.0,-1351.0,-1356.0,-73.0,-12.0,-786.0,0.0,0.0,0.0
19:32:51.012000,-2809.0,-1382.0,-1353.0,-73.0,-12.0,-786.0,0.0,0.0,0.0
19:32:51.016000,-2828.0,-1413.0,-1343.0,-104.0,-110.0,-804.0,0.0,0.0,0.0
19:32:51.021000,-2840.0,-1447.0,-1331.0,-104.0,-110.0,-804.0,0.0,0.0,0.0
19:32:51.026000,-2844.0,-1481.0,-1318.0,-104.0,-110.0,-804.0,0.0,0.0,0.0
19:32:51.030000,-2842.0,-1523.0,-1302.0,-163.0,-224.0,-824.0,0.0,0.0,0.0
19:32:51.035000,-2838.0,-1579.0,-1285.0,-163.0,-224.0,-824.0,0.0,0.0,0.0
19:32:51.040000,-2820.0,-1619.0,-1267.0,-215.0,-329.0,-833.0,0.0,0.0,0.0
19:32:51.045000,-2806.0,-1652.0,-1251.0,-215.0,-329.0,-833.0,0.0,0.0,0.0
19:32:51.049000,-2791.0,-1678.0,-1233.0,-256.0,-407.0,-824.0,0.0,0.0,0.0
19:32:51.054000,-2768.0,-1699.0,-1215.0,-256.0,-407.0,-824.0,0.0,0.0,0.0
19:32:51.059000,-2746.0,-1719.0,-1206.0,-333.0,-464.0,-801.0,0.0,0.0,0.0
19:32:51.063000,-2720.0,-1729.0,-1204.0,-333.0,-464.0,-801.0,0.0,0.0,0.0
19:32:51.068000,-2695.0,-1737.0,-1213.0,-448.0,-528.0,-777.0,0.0,0.0,0.0
19:32:51.073000,-2695.0,-1737.0,-1213.0,-448.0,-528.0,-777.0,0.0,0.0,0.0
19:32:51.077000,-2670.0,-1757.0,-1215.0,-568.0,-574.0,-753.0,0.0,0.0,0.0
19:32:51.082000,-2639.0,-1778.0,-1201.0,-568.0,-574.0,-753.0,0.0,0.0,0.0
19:32:51.087000,-2608.0,-1796.0,-1218.0,-652.0,-590.0,-731.0,0.0,0.0,0.0
19:32:51.092000,-2573.0,-1817.0,-1251.0,-652.0,-590.0,-731.0,0.0,0.0,0.0
19:32:51.096000,-2548.0,-1838.0,-1245.0,-674.0,-610.0,-705.0,0.0,0.0,0.0
19:32:51.101000,-2505.0,-1852.0,-1180.0,-674.0,-610.0,-705.0,0.0,0.0,0.0
19:32:51.106000,-2428.0,-1857.0,-1120.0,-731.0,-668.0,-677.0,0.0,0.0,0.0
19:32:51.110000,-2392.0,-1851.0,-1117.0,-731.0,-668.0,-677.0,0.0,0.0,0.0
19:32:51.115000,-2374.0,-1841.0,-1226.0,-901.0,-673.0,-647.0,0.0,0.0,0.0
19:32:51.120000,-2320.0,-1836.0,-1517.0,-901.0,-673.0,-647.0,0.0,0.0,0.0
19:32:51.124000,-2268.0,-1822.0,-1686.0,-934.0,-694.0,-608.0,0.0,0.0,0.0
19:32:51.129000,-2256.0,-1834.0,-1513.0,-934.0,-694.0,-608.0,0.0,0.0,0.0
19:32:51.134000,-2138.0,-1814.0,-1217.0,-934.0,-694.0,-608.0,0.0,0.0,0.0
19:32:51.139000,-2118.0,-1752.0,-1138.0,-919.0,-816.0,-579.0,0.0,0.0,0.0
19:32:51.143000,-2058.0,-1697.0,-1230.0,-919.0,-816.0,-579.0,0.0,0.0,0.0
19:32:51.148000,-2000.0,-1654.0,-1262.0,-979.0,-764.0,-550.0,0.0,0.0,0.0
19:32:51.153000,-1944.0,-1604.0,-1229.0,-979.0,-764.0,-550.0,0.0,0.0,0.0
19:32:51.157000,-1904.0,-1555.0,-1253.0,-980.0,-659.0,-511.0,0.0,0.0,0.0
19:32:51.162000,-1864.0,-1500.0,-1283.0,-980.0,-659.0,-511.0,0.0,0.0,0.0
19:32:51.167000,-1782.0,-1449.0,-1271.0,-965.0,-706.0,-483.0,0.0,0.0,0.0
19:32:51.171000,-1689.0,-1405.0,-1271.0,-965.0,-706.0,-483.0,0.0,0.0,0.0
19:32:51.176000,-1621.0,-1352.0,-1250.0,-945.0,-731.0,-469.0,0.0,0.0,0.0
19:32:51.181000,-1621.0,-1352.0,-1250.0,-945.0,-731.0,-469.0,0.0,0.0,0.0
19:32:51.186000,-1537.0,-1309.0,-1276.0,-994.0,-711.0,-451.0,0.0,0.0,0.0
19:32:51.190000,-1480.0,-1261.0,-1271.0,-994.0,-711.0,-451.0,0.0,0.0,0.0
19:32:51.195000,-1402.0,-1211.0,-1287.0,-1061.0,-653.0,-435.0,0.0,0.0,0.0
19:32:51.200000,-1369.0,-1171.0,-1328.0,-1061.0,-653.0,-435.0,0.0,0.0,0.0
19:32:51.204000,-1320.0,-1128.0,-1337.0,-1031.0,-653.0,-428.0,0.0,0.0,0.0
19:32:51.209000,-1230.0,-1089.0,-1293.0,-1031.0,-653.0,-428.0,0.0,0.0,0.0
19:32:51.214000,-1158.0,-1052.0,-1243.0,-965.0,-637.0,-418.0,0.0,0.0,0.0
19:32:51.218000,-1113.0,-1017.0,-1266.0,-965.0,-637.0,-418.0,0.0,0.0,0.0
19:32:51.223000,-1060.0,-981.0,-1248.0,-951.0,-546.0,-404.0,0.0,0.0,0.0
19:32:51.228000,-994.0,-952.0,-1148.0,-951.0,-546.0,-404.0,0.0,0.0,0.0
19:32:51.233000,-945.0,-926.0,-1031.0,-950.0,-518.0,-386.0,0.0,0.0,0.0
19:32:51.237000,-910.0,-903.0,-980.0,-950.0,-518.0,-386.0,0.0,0.0,0.0
19:32:51.242000,-872.0,-882.0,-978.0,-950.0,-509.0,-386.0,0.0,0.0,0.0
19:32:51.247000,-808.0,-865.0,-977.0,-965.0,-509.0,-373.0,0.0,0.0,0.0
19:32:51.251000,-735.0,-839.0,-970.0,-965.0,-509.0,-373.0,0.0,0.0,0.0
19:32:51.256000,-677.0,-817.0,-946.0,-983.0,-512.0,-381.0,0.0,0.0,0.0
19:32:51.261000,-613.0,-795.0,-917.0,-983.0,-512.0,-381.0,0.0,0.0,0.0
19:32:51.265000,-567.0,-769.0,-866.0,-980.0,-486.0,-381.0,0.0,0.0,0.0
19:32:51.270000,-517.0,-744.0,-796.0,-980.0,-486.0,-381.0,0.0,0.0,0.0
19:32:51.275000,-485.0,-716.0,-758.0,-988.0,-414.0,-368.0,0.0,0.0,0.0
19:32:51.279000,-462.0,-686.0,-779.0,-988.0,-414.0,-368.0,0.0,0.0,0.0
19:32:51.284000,-436.0,-660.0,-803.0,-1025.0,-306.0,-353.0,0.0,0.0,0.0
19:32:51.289000,-436.0,-660.0,-803.0,-1025.0,-306.0,-353.0,0.0,0.0,0.0
19:32:51.294000,-406.0,-637.0,-755.0,-1011.0,-227.0,-336.0,0.0,0.0,0.0
19:32:51.298000,-377.0,-614.0,-676.0,-1011.0,-227.0,-336.0,0.0,0.0,0.0
19:32:51.303000,-344.0,-597.0,-637.0,-936.0,-195.0,-319.0,0.0,0.0,0.0
19:32:51.308000,-322.0,-585.0,-636.0,-936.0,-195.0,-319.0,0.0,0.0,0.0
19:32:51.312000,-304.0,-572.0,-592.0,-866.0,-213.0,-290.0,0.0,0.0,0.0
19:32:51.317000,-265.0,-560.0,-541.0,-866.0,-213.0,-290.0,0.0,0.0,0.0
19:32:51.322000,-218.0,-550.0,-485.0,-854.0,-294.0,-263.0,0.0,0.0,0.0
19:32:51.326000,-173.0,-543.0,-443.0,-854.0,-294.0,-263.0,0.0,0.0,0.0
19:32:51.331000,-140.0,-531.0,-420.0,-938.0,-281.0,-249.0,0.0,0.0,0.0
19:32:51.336000,-119.0,-513.0,-399.0,-938.0,-281.0,-249.0,0.0,0.0,0.0
19:32:51.341000,-109.0,-491.0,-354.0,-1006.0,-122.0,-226.0,0.0,0.0,0.0
19:32:51.345000,-91.0,-470.0,-327.0,-1006.0,-122.0,-226.0,0.0,0.0,0.0
19:32:51.350000,-107.0,-436.0,-291.0,-1026.0,31.0,-176.0,0.0,0.0,0.0
19:32:51.355000,-123.0,-414.0,-245.0,-1026.0,31.0,-176.0,0.0,0.0,0.0
19:32:51.359000,-131.0,-385.0,-236.0,-1026.0,31.0,-176.0,0.0,0.0,0.0
19:32:51.364000,-131.0,-350.0,-241.0,-963.0,33.0,-134.0,0.0,0.0,0.0
19:32:51.369000,-115.0,-320.0,-228.0,-963.0,33.0,-134.0,0.0,0.0,0.0
19:32:51.373000,-99.0,-288.0,-205.0,-923.0,-40.0,-133.0,0.0,0.0,0.0
19:32:51.378000,-81.0,-261.0,-156.0,-923.0,-40.0,-133.0,0.0,0.0,0.0
19:32:51.383000,-74.0,-238.0,-119.0,-1012.0,-21.0,-140.0,0.0,0.0,0.0
19:32:51.388000,-74.0,-213.0,-135.0,-1012.0,-21.0,-140.0,0.0,0.0,0.0
19:32:51.392000,-80.0,-196.0,-111.0,-1087.0,92.0,-148.0,0.0,0.0,0.0
19:32:51.397000,-102.0,-182.0,-18.0,-1087.0,92.0,-148.0,0.0,0.0,0.0
19:32:51.402000,-102.0,-182.0,-18.0,-1103.0,106.0,-156.0,0.0,0.0,0.0
19:32:51.406000,-111.0,-167.0,25.0,-1103.0,106.0,-156.0,0.0,0.0,0.0
19:32:51.411000,-112.0,-152.0,-35.0,-1058.0,66.0,-156.0,0.0,0.0,0.0
19:32:51.416000,-117.0,-138.0,-89.0,-1058.0,66.0,-156.0,0.0,0.0,0.0
19:32:51.420000,-130.0,-126.0,-67.0,-949.0,81.0,-157.0,0.0,0.0,0.0
19:32:51.425000,-142.0,-117.0,-11.0,-949.0,81.0,-157.0,0.0,0.0,0.0
19:32:51.430000,-148.0,-103.0,-23.0,-926.0,104.0,-159.0,0.0,0.0,0.0
19:32:51.435000,-157.0,-93.0,-83.0,-926.0,104.0,-159.0,0.0,0.0,0.0
19:32:51.439000,-173.0,-91.0,-101.0,-980.0,98.0,-145.0,0.0,0.0,0.0
19:32:51.444000,-168.0,-85.0,-48.0,-980.0,98.0,-145.0,0.0,0.0,0.0
19:32:51.449000,-148.0,-72.0,11.0,-979.0,11.0,-142.0,0.0,0.0,0.0
19:32:51.453000,-122.0,-52.0,17.0,-979.0,11.0,-142.0,0.0,0.0,0.0
19:32:51.458000,-109.0,-28.0,-42.0,-1026.0,35.0,-175.0,0.0,0.0,0.0
19:32:51.463000,-107.0,-1.0,-90.0,-1026.0,35.0,-175.0,0.0,0.0,0.0
19:32:51.467000,-103.0,23.0,-128.0,-1026.0,35.0,-175.0,0.0,0.0,0.0
19:32:51.472000,-105.0,49.0,-184.0,-1136.0,192.0,-210.0,0.0,0.0,0.0
19:32:51.477000,-111.0,69.0,-233.0,-1136.0,192.0,-210.0,0.0,0.0,0.0
19:32:51.482000,-114.0,79.0,-253.0,-1195.0,314.0,-238.0,0.0,0.0,0.0
19:32:51.486000,-123.0,84.0,-226.0,-1195.0,314.0,-238.0,0.0,0.0,0.0
19:32:51.491000,-139.0,92.0,-171.0,-1169.0,337.0,-246.0,0.0,0.0,0.0
19:32:51.496000,-133.0,94.0,-141.0,-1169.0,337.0,-246.0,0.0,0.0,0.0
19:32:51.500000,-136.0,95.0,-112.0,-1108.0,298.0,-246.0,0.0,0.0,0.0
19:32:51.505000,-132.0,100.0,-73.0,-1108.0,298.0,-246.0,0.0,0.0,0.0
19:32:51.510000,-132.0,100.0,-73.0,-1038.0,312.0,-251.0,0.0,0.0,0.0
19:32:51.514000,-126.0,105.0,-25.0,-1038.0,312.0,-251.0,0.0,0.0,0.0
19:32:51.519000,-123.0,113.0,29.0,-1015.0,320.0,-256.0,0.0,0.0,0.0
19:32:51.524000,-117.0,124.0,82.0,-1015.0,320.0,-256.0,0.0,0.0,0.0
19:32:51.529000,-93.0,126.0,108.0,-1071.0,277.0,-265.0,0.0,0.0,0.0
19:32:51.533000,-66.0,134.0,112.0,-1071.0,277.0,-265.0,0.0,0.0,0.0
19:32:51.538000,-32.0,144.0,111.0,-1099.0,217.0,-278.0,0.0,0.0,0.0
19:32:51.543000,2.0,148.0,139.0,-1099.0,217.0,-278.0,0.0,0.0,0.0
19:32:51.547000,35.0,147.0,172.0,-1093.0,199.0,-289.0,0.0,0.0,0.0
19:32:51.552000,65.0,146.0,169.0,-1093.0,199.0,-289.0,0.0,0.0,0.0
19:32:51.557000,100.0,139.0,137.0,-1105.0,239.0,-301.0,0.0,0.0,0.0
19:32:51.561000,130.0,130.0,88.0,-1105.0,239.0,-301.0,0.0,0.0,0.0
19:32:51.566000,142.0,113.0,56.0,-1081.0,336.0,-305.0,0.0,0.0,0.0
19:32:51.571000,130.0,98.0,8.0,-1081.0,336.0,-305.0,0.0,0.0,0.0
19:32:51.576000,135.0,78.0,-33.0,-1081.0,336.0,-305.0,0.0,0.0,0.0
19:32:51.580000,132.0,60.0,-66.0,-1041.0,450.0,-304.0,0.0,0.0,0.0
19:32:51.585000,133.0,46.0,-100.0,-1041.0,450.0,-304.0,0.0,0.0,0.0
19:32:51.590000,135.0,31.0,-138.0,-1059.0,493.0,-309.0,0.0,0.0,0.0
19:32:51.594000,121.0,23.0,-165.0,-1059.0,493.0,-309.0,0.0,0.0,0.0
19:32:51.599000,122.0,25.0,-167.0,-1120.0,512.0,-309.0,0.0,0.0,0.0
19:32:51.604000,148.0,25.0,-101.0,-1120.0,512.0,-309.0,0.0,0.0,0.0
19:32:51.608000,192.0,23.0,-13.0,-1170.0,488.0,-311.0,0.0,0.0,0.0
19:32:51.613000,247.0,27.0,-3.0,-1170.0,488.0,-311.0,0.0,0.0,0.0
19:32:51.618000,247.0,27.0,-3.0,-1241.0,516.0,-315.0,0.0,0.0,0.0
19:32:51.623000,270.0,28.0,-74.0,-1241.0,516.0,-315.0,0.0,0.0,0.0
19:32:51.627000,261.0,28.0,-143.0,-1302.0,662.0,-302.0,0.0,0.0,0.0
19:32:51.632000,221.0,29.0,-186.0,-1302.0,662.0,-302.0,0.0,0.0,0.0
19:32:51.637000,186.0,27.0,-219.0,-1312.0,797.0,-290.0,0.0,0.0,0.0
19:32:51.641000,152.0,24.0,-308.0,-1312.0,797.0,-290.0,0.0,0.0,0.0
19:32:51.646000,136.0,19.0,-375.0,-1330.0,841.0,-293.0,0.0,0.0,0.0
19:32:51.651000,86.0,17.0,-380.0,-1330.0,841.0,-293.0,0.0,0.0,0.0
19:32:51.655000,60.0,21.0,-360.0,-1382.0,832.0,-303.0,0.0,0.0,0.0
19:32:51.660000,62.0,54.0,-359.0,-1382.0,832.0,-303.0,0.0,0.0,0.0
19:32:51.665000,88.0,76.0,-225.0,-1519.0,725.0,-312.0,0.0,0.0,0.0
19:32:51.670000,63.0,65.0,-96.0,-1519.0,725.0,-312.0,0.0,0.0,0.0
19:32:51.674000,-14.0,33.0,-93.0,-1554.0,707.0,-303.0,0.0,0.0,0.0
19:32:51.679000,-98.0,23.0,-245.0,-1554.0,707.0,-303.0,0.0,0.0,0.0
19:32:51.684000,-156.0,8.0,-217.0,-1554.0,707.0,-303.0,0.0,0.0,0.0
19:32:51.688000,-50.0,-5.0,-112.0,-1343.0,777.0,-306.0,0.0,0.0,0.0
19:32:51.693000,-60.0,-58.0,-344.0,-1343.0,777.0,-306.0,0.0,0.0,0.0
19:32:51.698000,-149.0,-18.0,-343.0,-1348.0,664.0,-290.0,0.0,0.0,0.0
19:32:51.702000,-101.0,-32.0,-610.0,-1348.0,664.0,-290.0,0.0,0.0,0.0
19:32:51.707000,-205.0,-64.0,-691.0,-1458.0,475.0,-250.0,0.0,0.0,0.0
19:32:51.712000,-280.0,-46.0,-331.0,-1458.0,475.0,-250.0,0.0,0.0,0.0
19:32:51.717000,-200.0,-91.0,-30.0,-1275.0,310.0,-248.0,0.0,0.0,0.0
19:32:51.721000,-312.0,-129.0,46.0,-1275.0,310.0,-248.0,0.0,0.0,0.0
19:32:51.726000,-327.0,-106.0,18.0,-1218.0,90.0,-217.0,0.0,0.0,0.0
19:32:51.731000,-327.0,-106.0,18.0,-1218.0,90.0,-217.0,0.0,0.0,0.0
19:32:51.735000,-313.0,-83.0,512.0,-1255.0,-459.0,-133.0,0.0,0.0,0.0
19:32:51.740000,-310.0,-98.0,669.0,-1255.0,-459.0,-133.0,0.0,0.0,0.0
19:32:51.745000,-259.0,-111.0,182.0,-1212.0,-752.0,-30.0,0.0,0.0,0.0
19:32:51.749000,-181.0,-70.0,-219.0,-1212.0,-752.0,-30.0,0.0,0.0,0.0
19:32:51.754000,-173.0,-50.0,-233.0,-877.0,-905.0,14.0,0.0,0.0,0.0
19:32:51.759000,-63.0,-47.0,-134.0,-877.0,-905.0,14.0,0.0,0.0,0.0
19:32:51.764000,-38.0,-39.0,-62.0,-692.0,-1103.0,-16.0,0.0,0.0,0.0
19:32:51.768000,-16.0,-38.0,124.0,-692.0,-1103.0,-16.0,0.0,0.0,0.0
19:32:51.773000,-81.0,-38.0,152.0,-962.0,-961.0,-43.0,0.0,0.0,0.0
19:32:51.778000,-52.0,-4.0,32.0,-962.0,-961.0,-43.0,0.0,0.0,0.0
19:32:51.792000,197.0,-47.0,-740.0,-1066.0,-819.0,-62.0,0.0,0.0,0.0
19:32:51.796000,200.0,-18.0,-897.0,-936.0,-761.0,-96.0,0.0,0.0,0.0
19:32:51.801000,163.0,18.0,-940.0,-936.0,-761.0,-96.0,0.0,0.0,0.0
19:32:51.806000,89.0,96.0,-1106.0,-897.0,-517.0,-143.0,0.0,0.0,0.0
19:32:51.811000,111.0,79.0,-1249.0,-897.0,-517.0,-143.0,0.0,0.0,0.0
19:32:51.815000,27.0,27.0,-1175.0,-1114.0,-329.0,-173.0,0.0,0.0,0.0
19:32:51.820000,-58.0,42.0,-772.0,-1114.0,-329.0,-173.0,0.0,0.0,0.0
19:32:51.825000,-64.0,-10.0,-670.0,-1013.0,-343.0,-194.0,0.0,0.0,0.0
19:32:51.829000,-87.0,-67.0,-762.0,-1013.0,-343.0,-194.0,0.0,0.0,0.0
19:32:51.834000,-65.0,-126.0,-626.0,-785.0,-212.0,-216.0,0.0,0.0,0.0
19:32:51.839000,-65.0,-126.0,-626.0,-785.0,-212.0,-216.0,0.0,0.0,0.0
19:32:51.843000,-8.0,-187.0,-508.0,-810.0,-211.0,-206.0,0.0,0.0,0.0
19:32:51.848000,23.0,-227.0,-583.0,-810.0,-211.0,-206.0,0.0,0.0,0.0
19:32:51.853000,28.0,-244.0,-722.0,-851.0,-244.0,-171.0,0.0,0.0,0.0
19:32:51.858000,51.0,-277.0,-939.0,-851.0,-244.0,-171.0,0.0,0.0,0.0
19:32:51.862000,42.0,-285.0,-1019.0,-804.0,-203.0,-137.0,0.0,0.0,0.0
19:32:51.867000,2.0,-270.0,-922.0,-804.0,-203.0,-137.0,0.0,0.0,0.0
19:32:51.872000,-16.0,-231.0,-708.0,-829.0,-359.0,-149.0,0.0,0.0,0.0
19:32:51.876000,72.0,-244.0,-562.0,-829.0,-359.0,-149.0,0.0,0.0,0.0
19:32:51.881000,-12.0,-322.0,-543.0,-912.0,-308.0,-149.0,0.0,0.0,0.0
19:32:51.886000,-137.0,-315.0,-509.0,-912.0,-308.0,-149.0,0.0,0.0,0.0
19:32:51.890000,-208.0,-329.0,-427.0,-789.0,-70.0,-111.0,0.0,0.0,0.0
19:32:51.895000,-131.0,-331.0,-506.0,-789.0,-70.0,-111.0,0.0,0.0,0.0
19:32:51.900000,23.0,-308.0,-683.0,-789.0,-70.0,-111.0,0.0,0.0,0.0
19:32:51.905000,153.0,-277.0,-646.0,-874.0,-253.0,-127.0,0.0,0.0,0.0
19:32:51.909000,177.0,-282.0,-309.0,-993.0,-397.0,-116.0,0.0,0.0,0.0
19:32:51.914000,50.0,-284.0,-44.0,-993.0,-397.0,-116.0,0.0,0.0,0.0
19:32:51.919000,-75.0,-347.0,-11.0,-993.0,-397.0,-116.0,0.0,0.0,0.0
19:32:51.923000,-245.0,-342.0,-121.0,-928.0,-23.0,-61.0,0.0,0.0,0.0
19:32:51.928000,-243.0,-325.0,-341.0,-928.0,-23.0,-61.0,0.0,0.0,0.0
19:32:51.933000,-175.0,-263.0,-575.0,-846.0,93.0,-86.0,0.0,0.0,0.0
19:32:51.937000,-107.0,-221.0,-615.0,-846.0,93.0,-86.0,0.0,0.0,0.0
19:32:51.942000,4.0,-192.0,-408.0,-904.0,-243.0,-114.0,0.0,0.0,0.0
19:32:51.947000,4.0,-192.0,-408.0,-904.0,-243.0,-114.0,0.0,0.0,0.0
19:32:51.952000,33.0,-228.0,-307.0,-1101.0,-362.0,-61.0,0.0,0.0,0.0
19:32:51.956000,15.0,-198.0,-391.0,-1101.0,-362.0,-61.0,0.0,0.0,0.0
19:32:51.961000,-11.0,-169.0,-343.0,-1014.0,-229.0,-41.0,0.0,0.0,0.0
19:32:51.966000,-42.0,-142.0,-154.0,-1014.0,-229.0,-41.0,0.0,0.0,0.0
19:32:51.970000,-37.0,-170.0,-46.0,-932.0,-152.0,-48.0,0.0,0.0,0.0
19:32:51.975000,-81.0,-178.0,86.0,-932.0,-152.0,-48.0,0.0,0.0,0.0
19:32:51.980000,-70.0,-269.0,99.0,-992.0,-72.0,4.0,0.0,0.0,0.0
19:32:51.984000,-85.0,-271.0,87.0,-992.0,-72.0,4.0,0.0,0.0,0.0
19:32:51.989000,-63.0,-231.0,-105.0,-987.0,-1.0,37.0,0.0,0.0,0.0
19:32:51.994000,0.0,-209.0,-417.0,-987.0,-1.0,37.0,0.0,0.0,0.0
19:32:51.999000,83.0,-179.0,-566.0,-1005.0,-175.0,53.0,0.0,0.0,0.0
19:32:52.003000,116.0,-155.0,-324.0,-1005.0,-175.0,53.0,0.0,0.0,0.0
19:32:52.008000,47.0,-157.0,121.0,-1005.0,-276.0,100.0,0.0,0.0,0.0
19:32:52.013000,-119.0,-184.0,87.0,-1096.0,-276.0,100.0,0.0,0.0,0.0
19:32:52.017000,-221.0,-145.0,-164.0,-1096.0,-276.0,100.0,0.0,0.0,0.0
19:32:52.022000,-308.0,-130.0,-321.0,-1060.0,76.0,94.0,0.0,0.0,0.0
19:32:52.027000,-303.0,-160.0,-290.0,-881.0,167.0,77.0,0.0,0.0,0.0
19:32:52.031000,-245.0,-161.0,-227.0,-881.0,167.0,77.0,0.0,0.0,0.0
19:32:52.036000,-162.0,-121.0,-203.0,-881.0,167.0,77.0,0.0,0.0,0.0
19:32:52.041000,-115.0,-93.0,-216.0,-983.0,-92.0,72.0,0.0,0.0,0.0
19:32:52.046000,-108.0,-102.0,-337.0,-983.0,-92.0,72.0,0.0,0.0,0.0
19:32:52.050000,-100.0,-21.0,-597.0,-1257.0,-62.0,80.0,0.0,0.0,0.0
19:32:52.055000,-8.0,86.0,-634.0,-1257.0,-62.0,80.0,0.0,0.0,0.0
19:32:52.060000,-8.0,86.0,-634.0,-1315.0,-215.0,91.0,0.0,0.0,0.0
19:32:52.064000,-37.0,65.0,-245.0,-1315.0,-215.0,91.0,0.0,0.0,0.0
19:32:52.069000,-21.0,76.0,238.0,-1232.0,-363.0,81.0,0.0,0.0,0.0
19:32:52.074000,-32.0,86.0,280.0,-1232.0,-363.0,81.0,0.0,0.0,0.0
19:32:52.078000,-67.0,117.0,-42.0,-1153.0,-17.0,64.0,0.0,0.0,0.0
19:32:52.083000,-17.0,152.0,-217.0,-1153.0,-17.0,64.0,0.0,0.0,0.0
19:32:52.088000,-1.0,156.0,-258.0,-993.0,103.0,58.0,0.0,0.0,0.0
19:32:52.093000,46.0,152.0,-245.0,-993.0,103.0,58.0,0.0,0.0,0.0
19:32:52.097000,49.0,177.0,-361.0,-918.0,-79.0,46.0,0.0,0.0,0.0
19:32:52.102000,44.0,253.0,-522.0,-918.0,-79.0,46.0,0.0,0.0,0.0
19:32:52.107000,50.0,308.0,-597.0,-1068.0,-169.0,11.0,0.0,0.0,0.0
19:32:52.111000,51.0,332.0,-591.0,-1068.0,-169.0,11.0,0.0,0.0,0.0
19:32:52.116000,-25.0,320.0,-609.0,-1198.0,-332.0,13.0,0.0,0.0,0.0
19:32:52.121000,-190.0,331.0,-464.0,-1198.0,-332.0,13.0,0.0,0.0,0.0
19:32:52.125000,28.0,391.0,-254.0,-1198.0,-332.0,13.0,0.0,0.0,0.0
19:32:52.130000,9.0,364.0,-94.0,-1112.0,-140.0,-41.0,0.0,0.0,0.0
19:32:52.135000,-8.0,366.0,-297.0,-1112.0,-140.0,-41.0,0.0,0.0,0.0
19:32:52.140000,18.0,387.0,-725.0,-1014.0,165.0,-72.0,0.0,0.0,0.0
19:32:52.144000,38.0,385.0,-944.0,-1014.0,165.0,-72.0,0.0,0.0,0.0
19:32:52.149000,101.0,358.0,-815.0,-976.0,-54.0,-40.0,0.0,0.0,0.0
19:32:52.154000,42.0,336.0,-637.0,-976.0,-54.0,-40.0,0.0,0.0,0.0
19:32:52.158000,42.0,349.0,-627.0,-903.0,-195.0,-65.0,0.0,0.0,0.0
19:32:52.163000,-93.0,366.0,-469.0,-903.0,-195.0,-65.0,0.0,0.0,0.0
19:32:52.168000,-93.0,366.0,-469.0,-966.0,-51.0,-107.0,0.0,0.0,0.0
19:32:52.172000,71.0,393.0,-277.0,-966.0,-51.0,-107.0,0.0,0.0,0.0
19:32:52.177000,98.0,379.0,-428.0,-1130.0,0.0,-128.0,0.0,0.0,0.0
19:32:52.182000,93.0,406.0,-639.0,-1130.0,0.0,-128.0,0.0,0.0,0.0
19:32:52.187000,109.0,403.0,-579.0,-1086.0,-19.0,-128.0,0.0,0.0,0.0
19:32:52.191000,140.0,408.0,-599.0,-1086.0,-19.0,-128.0,0.0,0.0,0.0
19:32:52.196000,85.0,446.0,-725.0,-1016.0,0.0,-123.0,0.0,0.0,0.0
19:32:52.201000,58.0,465.0,-589.0,-1016.0,0.0,-123.0,0.0,0.0,0.0
19:32:52.205000,46.0,442.0,-365.0,-1120.0,-94.0,-57.0,0.0,0.0,0.0
19:32:52.210000,89.0,450.0,-226.0,-1120.0,-94.0,-57.0,0.0,0.0,0.0
19:32:52.215000,203.0,458.0,-365.0,-1151.0,-126.0,-42.0,0.0,0.0,0.0
19:32:52.219000,266.0,478.0,-492.0,-1151.0,-126.0,-42.0,0.0,0.0,0.0
19:32:52.224000,331.0,498.0,-488.0,-888.0,46.0,-125.0,0.0,0.0,0.0
19:32:52.229000,361.0,478.0,-468.0,-888.0,46.0,-125.0,0.0,0.0,0.0
19:32:52.234000,339.0,489.0,-459.0,-888.0,46.0,-125.0,0.0,0.0,0.0
19:32:52.238000,290.0,515.0,-579.0,-436.0,83.0,-203.0,0.0,0.0,0.0
19:32:52.243000,308.0,508.0,-736.0,-436.0,83.0,-203.0,0.0,0.0,0.0
19:32:52.248000,289.0,476.0,-781.0,-295.0,-37.0,-326.0,0.0,0.0,0.0
19:32:52.252000,248.0,432.0,-828.0,-295.0,-37.0,-326.0,0.0,0.0,0.0
19:32:52.257000,118.0,336.0,-707.0,-961.0,19.0,-352.0,0.0,0.0,0.0
19:32:52.262000,149.0,244.0,-496.0,-961.0,19.0,-352.0,0.0,0.0,0.0
19:32:52.266000,149.0,244.0,-496.0,-1332.0,46.0,-283.0,0.0,0.0,0.0
19:32:52.271000,182.0,114.0,-478.0,-1332.0,46.0,-283.0,0.0,0.0,0.0
19:32:52.276000,182.0,114.0,-478.0,-755.0,-116.0,-222.0,0.0,0.0,0.0
19:32:52.281000,307.0,60.0,-600.0,-755.0,-116.0,-222.0,0.0,0.0,0.0
19:32:52.285000,249.0,88.0,-612.0,-547.0,23.0,-89.0,0.0,0.0,0.0
19:32:52.290000,256.0,41.0,-648.0,-547.0,23.0,-89.0,0.0,0.0,0.0
19:32:52.295000,242.0,22.0,-732.0,-770.0,135.0,-6.0,0.0,0.0,0.0
19:32:52.299000,181.0,53.0,-615.0,-770.0,135.0,-6.0,0.0,0.0,0.0
19:32:52.304000,45.0,81.0,-542.0,-1089.0,304.0,49.0,0.0,0.0,0.0
19:32:52.309000,-67.0,79.0,-411.0,-1089.0,304.0,49.0,0.0,0.0,0.0
19:32:52.313000,-33.0,49.0,-452.0,-1254.0,323.0,6.0,0.0,0.0,0.0
19:32:52.318000,42.0,81.0,-790.0,-1254.0,323.0,6.0,0.0,0.0,0.0
19:32:52.323000,-58.0,177.0,-982.0,-1054.0,167.0,-144.0,0.0,0.0,0.0
19:32:52.328000,-162.0,228.0,-812.0,-1054.0,167.0,-144.0,0.0,0.0,0.0
19:32:52.332000,-374.0,277.0,-585.0,-1130.0,565.0,-137.0,0.0,0.0,0.0
19:32:52.337000,-427.0,310.0,-448.0,-1130.0,565.0,-137.0,0.0,0.0,0.0
19:32:52.342000,-438.0,317.0,-388.0,-1130.0,565.0,-137.0,0.0,0.0,0.0
19:32:52.346000,-414.0,331.0,-366.0,-1348.0,537.0,-126.0,0.0,0.0,0.0
19:32:52.351000,-291.0,282.0,-403.0,-1348.0,537.0,-126.0,0.0,0.0,0.0
19:32:52.356000,-185.0,279.0,-558.0,-1197.0,-25.0,-168.0,0.0,0.0,0.0
19:32:52.360000,-96.0,277.0,-732.0,-1197.0,-25.0,-168.0,0.0,0.0,0.0
19:32:52.365000,-29.0,266.0,-765.0,-945.0,-183.0,-166.0,0.0,0.0,0.0
19:32:52.370000,78.0,252.0,-656.0,-945.0,-183.0,-166.0,0.0,0.0,0.0
19:32:52.375000,163.0,228.0,-564.0,-790.0,-41.0,-176.0,0.0,0.0,0.0
19:32:52.379000,203.0,216.0,-499.0,-790.0,-41.0,-176.0,0.0,0.0,0.0
19:32:52.384000,280.0,216.0,-520.0,-813.0,58.0,-172.0,0.0,0.0,0.0
19:32:52.389000,280.0,187.0,-520.0,-813.0,58.0,-172.0,0.0,0.0,0.0
19:32:52.393000,328.0,170.0,-563.0,-908.0,36.0,-178.0,0.0,0.0,0.0
19:32:52.398000,341.0,162.0,-518.0,-908.0,36.0,-178.0,0.0,0.0,0.0
19:32:52.403000,385.0,143.0,-455.0,-920.0,111.0,-198.0,0.0,0.0,0.0
19:32:52.407000,406.0,142.0,-456.0,-920.0,111.0,-198.0,0.0,0.0,0.0
19:32:52.412000,389.0,165.0,-484.0,-934.0,249.0,-186.0,0.0,0.0,0.0
19:32:52.417000,380.0,165.0,-470.0,-934.0,249.0,-186.0,0.0,0.0,0.0
19:32:52.422000,383.0,156.0,-416.0,-1018.0,217.0,-177.0,0.0,0.0,0.0
19:32:52.426000,377.0,168.0,-350.0,-1018.0,217.0,-177.0,0.0,0.0,0.0
19:32:52.431000,354.0,165.0,-364.0,-1043.0,216.0,-176.0,0.0,0.0,0.0
19:32:52.436000,327.0,182.0,-438.0,-1043.0,216.0,-176.0,0.0,0.0,0.0
19:32:52.440000,287.0,191.0,-468.0,-993.0,320.0,-184.0,0.0,0.0,0.0
19:32:52.445000,237.0,189.0,-466.0,-993.0,320.0,-184.0,0.0,0.0,0.0
19:32:52.450000,183.0,183.0,-459.0,-993.0,320.0,-184.0,0.0,0.0,0.0
19:32:52.454000,137.0,175.0,-487.0,-989.0,387.0,-195.0,0.0,0.0,0.0
19:32:52.459000,144.0,153.0,-518.0,-989.0,387.0,-195.0,0.0,0.0,0.0
19:32:52.464000,208.0,144.0,-539.0,-901.0,342.0,-167.0,0.0,0.0,0.0
19:32:52.469000,182.0,162.0,-587.0,-901.0,342.0,-167.0,0.0,0.0,0.0
19:32:52.473000,130.0,179.0,-588.0,-869.0,342.0,-159.0,0.0,0.0,0.0
19:32:52.478000,67.0,179.0,-522.0,-869.0,342.0,-159.0,0.0,0.0,0.0
19:32:52.483000,89.0,151.0,-559.0,-970.0,453.0,-182.0,0.0,0.0,0.0
19:32:52.487000,102.0,147.0,-528.0,-970.0,453.0,-182.0,0.0,0.0,0.0
19:32:52.492000,79.0,152.0,-603.0,-1011.0,402.0,-218.0,0.0,0.0,0.0
19:32:52.497000,79.0,152.0,-603.0,-1011.0,402.0,-218.0,0.0,0.0,0.0
19:32:52.501000,12.0,164.0,-735.0,-1021.0,418.0,-237.0,0.0,0.0,0.0
19:32:52.506000,-68.0,148.0,-671.0,-1021.0,418.0,-237.0,0.0,0.0,0.0
19:32:52.511000,-145.0,147.0,-567.0,-1002.0,526.0,-240.0,0.0,0.0,0.0
19:32:52.516000,-128.0,149.0,-553.0,-1002.0,526.0,-240.0,0.0,0.0,0.0
19:32:52.520000,-78.0,141.0,-466.0,-959.0,425.0,-276.0,0.0,0.0,0.0
19:32:52.525000,-55.0,123.0,-374.0,-959.0,425.0,-276.0,0.0,0.0,0.0
19:32:52.530000,-35.0,124.0,-399.0,-941.0,378.0,-297.0,0.0,0.0,0.0
19:32:52.534000,-12.0,118.0,-475.0,-941.0,378.0,-297.0,0.0,0.0,0.0
19:32:52.539000,0.0,112.0,-451.0,-900.0,376.0,-288.0,0.0,0.0,0.0
19:32:52.544000,18.0,107.0,-380.0,-900.0,376.0,-288.0,0.0,0.0,0.0
19:32:52.548000,55.0,82.0,-338.0,-883.0,337.0,-280.0,0.0,0.0,0.0
19:32:52.553000,108.0,77.0,-350.0,-883.0,337.0,-280.0,0.0,0.0,0.0
19:32:52.558000,126.0,72.0,-373.0,-933.0,350.0,-278.0,0.0,0.0,0.0
19:32:52.563000,146.0,72.0,-431.0,-933.0,350.0,-278.0,0.0,0.0,0.0
19:32:52.567000,170.0,80.0,-511.0,-933.0,350.0,-278.0,0.0,0.0,0.0
19:32:52.572000,177.0,74.0,-489.0,-948.0,362.0,-279.0,0.0,0.0,0.0
19:32:52.577000,169.0,82.0,-406.0,-948.0,362.0,-279.0,0.0,0.0,0.0
19:32:52.581000,152.0,90.0,-376.0,-930.0,392.0,-273.0,0.0,0.0,0.0
19:32:52.586000,139.0,98.0,-410.0,-930.0,392.0,-273.0,0.0,0.0,0.0
19:32:52.591000,123.0,108.0,-431.0,-938.0,475.0,-271.0,0.0,0.0,0.0
19:32:52.595000,99.0,121.0,-418.0,-938.0,475.0,-271.0,0.0,0.0,0.0
19:32:52.600000,91.0,126.0,-399.0,-925.0,506.0,-274.0,0.0,0.0,0.0
19:32:52.605000,91.0,126.0,-399.0,-925.0,506.0,-274.0,0.0,0.0,0.0
19:32:52.610000,89.0,134.0,-386.0,-915.0,469.0,-281.0,0.0,0.0,0.0
19:32:52.614000,85.0,142.0,-436.0,-915.0,469.0,-281.0,0.0,0.0,0.0
19:32:52.619000,80.0,144.0,-476.0,-926.0,457.0,-278.0,0.0,0.0,0.0
19:32:52.624000,84.0,142.0,-469.0,-926.0,457.0,-278.0,0.0,0.0,0.0
19:32:52.628000,91.0,144.0,-466.0,-906.0,450.0,-275.0,0.0,0.0,0.0
19:32:52.633000,100.0,142.0,-453.0,-906.0,450.0,-275.0,0.0,0.0,0.0
19:32:52.638000,118.0,123.0,-414.0,-892.0,444.0,-285.0,0.0,0.0,0.0
19:32:52.642000,147.0,107.0,-384.0,-892.0,444.0,-285.0,0.0,0.0,0.0
19:32:52.647000,168.0,103.0,-394.0,-866.0,487.0,-289.0,0.0,0.0,0.0
19:32:52.652000,195.0,84.0,-424.0,-866.0,487.0,-289.0,0.0,0.0,0.0
19:32:52.657000,235.0,53.0,-417.0,-842.0,529.0,-313.0,0.0,0.0,0.0
19:32:52.661000,251.0,50.0,-382.0,-842.0,529.0,-313.0,0.0,0.0,0.0
19:32:52.666000,226.0,56.0,-390.0,-842.0,609.0,-313.0,0.0,0.0,0.0
19:32:52.671000,203.0,55.0,-422.0,-845.0,609.0,-324.0,0.0,0.0,0.0
19:32:52.675000,205.0,34.0,-413.0,-845.0,609.0,-324.0,0.0,0.0,0.0
19:32:52.680000,214.0,37.0,-327.0,-864.0,698.0,-298.0,0.0,0.0,0.0
19:32:52.685000,180.0,60.0,-312.0,-864.0,698.0,-298.0,0.0,0.0,0.0
19:32:52.689000,156.0,54.0,-386.0,-914.0,753.0,-274.0,0.0,0.0,0.0
19:32:52.694000,140.0,27.0,-405.0,-914.0,753.0,-274.0,0.0,0.0,0.0
19:32:52.699000,74.0,28.0,-359.0,-971.0,789.0,-311.0,0.0,0.0,0.0
19:32:52.704000,22.0,19.0,-329.0,-971.0,789.0,-311.0,0.0,0.0,0.0
19:32:52.708000,12.0,-1.0,-268.0,-836.0,789.0,-298.0,0.0,0.0,0.0
19:32:52.713000,12.0,-1.0,-268.0,-836.0,789.0,-298.0,0.0,0.0,0.0
19:32:52.718000,17.0,-11.0,-189.0,-694.0,794.0,-288.0,0.0,0.0,0.0
19:32:52.722000,-18.0,-5.0,-187.0,-694.0,794.0,-288.0,0.0,0.0,0.0
19:32:52.727000,14.0,-29.0,-201.0,-682.0,794.0,-276.0,0.0,0.0,0.0
19:32:52.732000,68.0,-52.0,-124.0,-682.0,794.0,-276.0,0.0,0.0,0.0
19:32:52.736000,67.0,-44.0,-70.0,-710.0,769.0,-199.0,0.0,0.0,0.0
19:32:52.740000,84.0,-46.0,-84.0,-710.0,769.0,-199.0,0.0,0.0,0.0
19:32:52.746000,87.0,-49.0,-74.0,-826.0,760.0,-205.0,0.0,0.0,0.0
19:32:52.751000,62.0,-58.0,-4.0,-826.0,760.0,-205.0,0.0,0.0,0.0
19:32:52.755000,38.0,-55.0,87.0,-879.0,827.0,-206.0,0.0,0.0,0.0
19:32:52.760000,20.0,-53.0,156.0,-879.0,827.0,-206.0,0.0,0.0,0.0
19:32:52.765000,-21.0,-43.0,192.0,-841.0,880.0,-180.0,0.0,0.0,0.0
19:32:52.769000,-67.0,-28.0,217.0,-841.0,880.0,-180.0,0.0,0.0,0.0
19:32:52.774000,-93.0,-8.0,225.0,-810.0,912.0,-174.0,0.0,0.0,0.0
19:32:52.779000,-118.0,6.0,226.0,-810.0,912.0,-174.0,0.0,0.0,0.0
19:32:52.783000,-170.0,7.0,290.0,-810.0,912.0,-174.0,0.0,0.0,0.0
19:32:52.788000,-213.0,14.0,398.0,-770.0,879.0,-180.0,0.0,0.0,0.0
19:32:52.793000,-266.0,17.0,468.0,-770.0,879.0,-180.0,0.0,0.0,0.0
19:32:52.798000,-291.0,22.0,468.0,-723.0,833.0,-190.0,0.0,0.0,0.0
19:32:52.802000,-317.0,29.0,441.0,-723.0,833.0,-190.0,0.0,0.0,0.0
19:32:52.807000,-340.0,36.0,437.0,-700.0,851.0,-194.0,0.0,0.0,0.0
19:32:52.812000,-366.0,44.0,438.0,-700.0,851.0,-194.0,0.0,0.0,0.0
19:32:52.816000,-334.0,63.0,446.0,-649.0,797.0,-204.0,0.0,0.0,0.0
19:32:52.821000,-315.0,78.0,434.0,-649.0,797.0,-204.0,0.0,0.0,0.0
19:32:52.826000,-315.0,78.0,434.0,-619.0,733.0,-228.0,0.0,0.0,0.0
19:32:52.830000,-317.0,90.0,410.0,-619.0,733.0,-228.0,0.0,0.0,0.0
19:32:52.835000,-310.0,93.0,392.0,-626.0,754.0,-250.0,0.0,0.0,0.0
19:32:52.840000,-315.0,86.0,392.0,-626.0,754.0,-250.0,0.0,0.0,0.0
19:32:52.845000,-334.0,87.0,384.0,-620.0,742.0,-265.0,0.0,0.0,0.0
19:32:52.849000,-315.0,86.0,362.0,-620.0,742.0,-265.0,0.0,0.0,0.0
19:32:52.854000,-296.0,77.0,352.0,-608.0,641.0,-287.0,0.0,0.0,0.0
19:32:52.859000,-280.0,71.0,380.0,-608.0,641.0,-287.0,0.0,0.0,0.0
19:32:52.863000,-256.0,63.0,411.0,-604.0,572.0,-311.0,0.0,0.0,0.0
19:32:52.868000,-207.0,56.0,354.0,-604.0,572.0,-311.0,0.0,0.0,0.0
19:32:52.873000,-177.0,51.0,309.0,-575.0,579.0,-325.0,0.0,0.0,0.0
19:32:52.877000,-157.0,42.0,234.0,-575.0,579.0,-325.0,0.0,0.0,0.0
19:32:52.882000,-116.0,24.0,196.0,-575.0,579.0,-325.0,0.0,0.0,0.0
19:32:52.887000,-65.0,0.0,232.0,-540.0,578.0,-324.0,0.0,0.0,0.0
19:32:52.891000,-9.0,-21.0,267.0,-540.0,578.0,-324.0,0.0,0.0,0.0
19:32:52.896000,14.0,-42.0,336.0,-558.0,540.0,-309.0,0.0,0.0,0.0
19:32:52.901000,14.0,-65.0,412.0,-558.0,540.0,-309.0,0.0,0.0,0.0
19:32:52.906000,40.0,-84.0,354.0,-593.0,569.0,-271.0,0.0,0.0,0.0
19:32:52.910000,56.0,-102.0,300.0,-593.0,569.0,-271.0,0.0,0.0,0.0
19:32:52.915000,60.0,-123.0,307.0,-541.0,636.0,-219.0,0.0,0.0,0.0
19:32:52.920000,64.0,-142.0,360.0,-541.0,636.0,-219.0,0.0,0.0,0.0
19:32:52.924000,63.0,-158.0,396.0,-434.0,633.0,-169.0,0.0,0.0,0.0
19:32:52.929000,48.0,-169.0,357.0,-434.0,633.0,-169.0,0.0,0.0,0.0
19:32:52.934000,48.0,-169.0,357.0,-424.0,679.0,-132.0,0.0,0.0,0.0
19:32:52.938000,17.0,-182.0,311.0,-424.0,679.0,-132.0,0.0,0.0,0.0
19:32:52.943000,-28.0,-195.0,293.0,-440.0,781.0,-118.0,0.0,0.0,0.0
19:32:52.948000,-72.0,-200.0,278.0,-440.0,781.0,-118.0,0.0,0.0,0.0
19:32:52.953000,-128.0,-198.0,261.0,-440.0,828.0,-125.0,0.0,0.0,0.0
19:32:52.957000,-191.0,-191.0,280.0,-440.0,828.0,-125.0,0.0,0.0,0.0
19:32:52.962000,-258.0,-184.0,318.0,-471.0,807.0,-149.0,0.0,0.0,0.0
19:32:52.967000,-312.0,-175.0,323.0,-471.0,807.0,-149.0,0.0,0.0,0.0
19:32:52.971000,-360.0,-163.0,334.0,-480.0,725.0,-183.0,0.0,0.0,0.0
19:32:52.976000,-402.0,-151.0,390.0,-480.0,725.0,-183.0,0.0,0.0,0.0
19:32:52.981000,-417.0,-137.0,420.0,-460.0,604.0,-223.0,0.0,0.0,0.0
19:32:52.985000,-413.0,-128.0,415.0,-460.0,604.0,-223.0,0.0,0.0,0.0
19:32:52.990000,-392.0,-124.0,437.0,-433.0,438.0,-253.0,0.0,0.0,0.0
19:32:52.995000,-347.0,-124.0,466.0,-433.0,438.0,-253.0,0.0,0.0,0.0
19:32:53.000000,-286.0,-126.0,465.0,-433.0,438.0,-253.0,0.0,0.0,0.0
19:32:53.004000,-219.0,-137.0,458.0,-400.0,285.0,-257.0,0.0,0.0,0.0
19:32:53.009000,-162.0,-149.0,476.0,-400.0,285.0,-257.0,0.0,0.0,0.0
19:32:53.014000,-123.0,-163.0,502.0,-370.0,240.0,-229.0,0.0,0.0,0.0
19:32:53.018000,-95.0,-181.0,510.0,-370.0,240.0,-229.0,0.0,0.0,0.0
19:32:53.023000,-95.0,-196.0,512.0,-377.0,326.0,-177.0,0.0,0.0,0.0
19:32:53.028000,-107.0,-210.0,510.0,-377.0,326.0,-177.0,0.0,0.0,0.0
19:32:53.032000,-120.0,-224.0,506.0,-419.0,438.0,-121.0,0.0,0.0,0.0
19:32:53.037000,-138.0,-239.0,525.0,-419.0,438.0,-121.0,0.0,0.0,0.0
19:32:53.042000,-138.0,-239.0,525.0,-465.0,475.0,-87.0,0.0,0.0,0.0
19:32:53.047000,-157.0,-249.0,547.0,-465.0,475.0,-87.0,0.0,0.0,0.0
19:32:53.051000,-175.0,-252.0,556.0,-544.0,468.0,-81.0,0.0,0.0,0.0
19:32:53.056000,-192.0,-252.0,562.0,-544.0,468.0,-81.0,0.0,0.0,0.0
19:32:53.061000,-209.0,-252.0,581.0,-645.0,435.0,-88.0,0.0,0.0,0.0
19:32:53.065000,-221.0,-249.0,613.0,-645.0,435.0,-88.0,0.0,0.0,0.0
19:32:53.070000,-228.0,-244.0,634.0,-723.0,347.0,-100.0,0.0,0.0,0.0
19:32:53.075000,-230.0,-238.0,641.0,-723.0,347.0,-100.0,0.0,0.0,0.0
19:32:53.079000,-226.0,-229.0,643.0,-778.0,221.0,-118.0,0.0,0.0,0.0
19:32:53.084000,-221.0,-224.0,629.0,-778.0,221.0,-118.0,0.0,0.0,0.0
19:32:53.089000,-222.0,-218.0,598.0,-820.0,113.0,-134.0,0.0,0.0,0.0
19:32:53.094000,-229.0,-212.0,558.0,-820.0,113.0,-134.0,0.0,0.0,0.0
19:32:53.098000,-238.0,-205.0,515.0,-831.0,35.0,-150.0,0.0,0.0,0.0
19:32:53.103000,-243.0,-198.0,455.0,-831.0,35.0,-150.0,0.0,0.0,0.0
