hh:mm:ss.ms,gyroX[mdps],gyroY[mdps],gyroZ[mdps],accX[mg],accY[mg],accZ[mg],magX[mG],magY[mG],magZ[mG]
19:43:28.504000,-460.0,-119.0,49.0,-881.0,-60.0,-105.0,0.0,0.0,0.0
19:43:28.509000,-445.0,-107.0,56.0,-1286.0,-202.0,-103.0,0.0,0.0,0.0
19:43:28.514000,-428.0,-93.0,99.0,-1286.0,-202.0,-103.0,0.0,0.0,0.0
19:43:28.518000,-417.0,-78.0,149.0,-1444.0,-349.0,-85.0,0.0,0.0,0.0
19:43:28.523000,-406.0,-65.0,179.0,-1444.0,-349.0,-85.0,0.0,0.0,0.0
19:43:28.528000,-380.0,-62.0,183.0,-1271.0,-472.0,-79.0,0.0,0.0,0.0
19:43:28.533000,-346.0,-56.0,188.0,-1271.0,-472.0,-79.0,0.0,0.0,0.0
19:43:28.537000,-307.0,-50.0,192.0,-1010.0,-596.0,-71.0,0.0,0.0,0.0
19:43:28.542000,-250.0,-42.0,161.0,-1010.0,-596.0,-71.0,0.0,0.0,0.0
19:43:28.547000,-165.0,-39.0,63.0,-1010.0,-596.0,-71.0,0.0,0.0,0.0
19:43:28.551000,-86.0,-28.0,-39.0,-876.0,-678.0,-74.0,0.0,0.0,0.0
19:43:28.556000,-46.0,-11.0,-133.0,-876.0,-678.0,-74.0,0.0,0.0,0.0
19:43:28.561000,-38.0,21.0,-190.0,-920.0,-605.0,-91.0,0.0,0.0,0.0
19:43:28.565000,-58.0,52.0,-253.0,-920.0,-605.0,-91.0,0.0,0.0,0.0
19:43:28.570000,-88.0,77.0,-315.0,-1012.0,-432.0,-108.0,0.0,0.0,0.0
19:43:28.575000,-127.0,97.0,-361.0,-1012.0,-432.0,-108.0,0.0,0.0,0.0
19:43:28.580000,-174.0,115.0,-380.0,-1031.0,-259.0,-126.0,0.0,0.0,0.0
19:43:28.584000,-214.0,124.0,-375.0,-1031.0,-259.0,-126.0,0.0,0.0,0.0
19:43:28.589000,-214.0,124.0,-375.0,-1020.0,-170.0,-137.0,0.0,0.0,0.0
19:43:28.594000,-238.0,123.0,-373.0,-1020.0,-170.0,-137.0,0.0,0.0,0.0
19:43:28.598000,-244.0,112.0,-371.0,-1024.0,-178.0,-143.0,0.0,0.0,0.0
19:43:28.603000,-250.0,95.0,-368.0,-1024.0,-178.0,-143.0,0.0,0.0,0.0
19:43:28.608000,-248.0,77.0,-363.0,-1020.0,-206.0,-157.0,0.0,0.0,0.0
19:43:28.612000,-238.0,56.0,-368.0,-1020.0,-206.0,-157.0,0.0,0.0,0.0
19:43:28.617000,-236.0,39.0,-364.0,-993.0,-198.0,-174.0,0.0,0.0,0.0
19:43:28.622000,-242.0,25.0,-359.0,-993.0,-198.0,-174.0,0.0,0.0,0.0
19:43:28.627000,-269.0,18.0,-373.0,-985.0,-139.0,-183.0,0.0,0.0,0.0
19:43:28.631000,-275.0,20.0,-347.0,-985.0,-139.0,-183.0,0.0,0.0,0.0
19:43:28.636000,-286.0,29.0,-273.0,-992.0,-142.0,-194.0,0.0,0.0,0.0
19:43:28.641000,-312.0,40.0,-235.0,-992.0,-142.0,-194.0,0.0,0.0,0.0
19:43:28.645000,-330.0,53.0,-247.0,-1031.0,-147.0,-214.0,0.0,0.0,0.0
19:43:28.650000,-355.0,71.0,-261.0,-1031.0,-147.0,-214.0,0.0,0.0,0.0
19:43:28.655000,-387.0,86.0,-259.0,-1031.0,-147.0,-214.0,0.0,0.0,0.0
19:43:28.659000,-411.0,103.0,-266.0,-1061.0,-106.0,-235.0,0.0,0.0,0.0
19:43:28.664000,-426.0,117.0,-299.0,-1061.0,-106.0,-235.0,0.0,0.0,0.0
19:43:28.669000,-435.0,128.0,-338.0,-1044.0,-88.0,-249.0,0.0,0.0,0.0
19:43:28.674000,-433.0,136.0,-343.0,-1044.0,-88.0,-249.0,0.0,0.0,0.0
19:43:28.678000,-426.0,134.0,-335.0,-999.0,-98.0,-253.0,0.0,0.0,0.0
19:43:28.683000,-422.0,133.0,-345.0,-999.0,-98.0,-253.0,0.0,0.0,0.0
19:43:28.688000,-424.0,126.0,-390.0,-964.0,-121.0,-254.0,0.0,0.0,0.0
19:43:28.692000,-419.0,112.0,-429.0,-964.0,-121.0,-254.0,0.0,0.0,0.0
19:43:28.697000,-419.0,112.0,-429.0,-937.0,-126.0,-253.0,0.0,0.0,0.0
19:43:28.702000,-405.0,88.0,-447.0,-937.0,-126.0,-253.0,0.0,0.0,0.0
19:43:28.706000,-391.0,66.0,-456.0,-869.0,-118.0,-243.0,0.0,0.0,0.0
19:43:28.711000,-387.0,35.0,-455.0,-869.0,-118.0,-243.0,0.0,0.0,0.0
19:43:28.716000,-384.0,10.0,-452.0,-830.0,-101.0,-232.0,0.0,0.0,0.0
19:43:28.721000,-371.0,-6.0,-450.0,-830.0,-101.0,-232.0,0.0,0.0,0.0
19:43:28.725000,-361.0,-24.0,-463.0,-879.0,-70.0,-235.0,0.0,0.0,0.0
19:43:28.730000,-375.0,-37.0,-503.0,-879.0,-70.0,-235.0,0.0,0.0,0.0
19:43:28.735000,-401.0,-51.0,-549.0,-975.0,6.0,-240.0,0.0,0.0,0.0
19:43:28.739000,-421.0,-64.0,-560.0,-975.0,6.0,-240.0,0.0,0.0,0.0
19:43:28.744000,-457.0,-85.0,-553.0,-1049.0,77.0,-228.0,0.0,0.0,0.0
19:43:28.749000,-490.0,-103.0,-550.0,-1049.0,77.0,-228.0,0.0,0.0,0.0
19:43:28.753000,-513.0,-116.0,-564.0,-1080.0,122.0,-215.0,0.0,0.0,0.0
19:43:28.758000,-543.0,-137.0,-582.0,-1080.0,122.0,-215.0,0.0,0.0,0.0
19:43:28.763000,-574.0,-161.0,-601.0,-1080.0,122.0,-215.0,0.0,0.0,0.0
19:43:28.768000,-607.0,-178.0,-601.0,-1084.0,162.0,-193.0,0.0,0.0,0.0
19:43:28.772000,-639.0,-179.0,-544.0,-1084.0,162.0,-193.0,0.0,0.0,0.0
19:43:28.777000,-665.0,-191.0,-484.0,-1082.0,154.0,-171.0,0.0,0.0,0.0
19:43:28.782000,-702.0,-209.0,-482.0,-1082.0,154.0,-171.0,0.0,0.0,0.0
19:43:28.786000,-709.0,-222.0,-550.0,-1095.0,178.0,-159.0,0.0,0.0,0.0
19:43:28.791000,-735.0,-232.0,-562.0,-1095.0,178.0,-159.0,0.0,0.0,0.0
19:43:28.796000,-772.0,-235.0,-486.0,-1020.0,211.0,-139.0,0.0,0.0,0.0
19:43:28.800000,-817.0,-249.0,-457.0,-1020.0,211.0,-139.0,0.0,0.0,0.0
19:43:28.805000,-856.0,-256.0,-511.0,-978.0,212.0,-110.0,0.0,0.0,0.0
19:43:28.810000,-856.0,-256.0,-511.0,-978.0,212.0,-110.0,0.0,0.0,0.0
19:43:28.815000,-886.0,-256.0,-573.0,-1019.0,235.0,-78.0,0.0,0.0,0.0
19:43:28.819000,-920.0,-245.0,-594.0,-1019.0,235.0,-78.0,0.0,0.0,0.0
19:43:28.824000,-936.0,-227.0,-599.0,-1024.0,188.0,-63.0,0.0,0.0,0.0
19:43:28.829000,-939.0,-202.0,-656.0,-1024.0,188.0,-63.0,0.0,0.0,0.0
19:43:28.833000,-954.0,-182.0,-733.0,-1090.0,148.0,-62.0,0.0,0.0,0.0
19:43:28.838000,-958.0,-166.0,-779.0,-1090.0,148.0,-62.0,0.0,0.0,0.0
19:43:28.843000,-955.0,-149.0,-794.0,-1174.0,129.0,-66.0,0.0,0.0,0.0
19:43:28.847000,-936.0,-135.0,-795.0,-1174.0,129.0,-66.0,0.0,0.0,0.0
19:43:28.852000,-915.0,-125.0,-775.0,-1213.0,54.0,-66.0,0.0,0.0,0.0
19:43:28.857000,-905.0,-120.0,-753.0,-1213.0,54.0,-66.0,0.0,0.0,0.0
19:43:28.861000,-889.0,-120.0,-774.0,-1198.0,57.0,-59.0,0.0,0.0,0.0
19:43:28.866000,-878.0,-114.0,-816.0,-1198.0,57.0,-59.0,0.0,0.0,0.0
19:43:28.871000,-882.0,-106.0,-820.0,-1198.0,57.0,-59.0,0.0,0.0,0.0
19:43:28.876000,-894.0,-107.0,-816.0,-1196.0,152.0,-65.0,0.0,0.0,0.0
19:43:28.880000,-917.0,-111.0,-814.0,-1196.0,152.0,-65.0,0.0,0.0,0.0
19:43:28.885000,-917.0,-106.0,-815.0,-1250.0,201.0,-55.0,0.0,0.0,0.0
19:43:28.890000,-900.0,-104.0,-833.0,-1250.0,201.0,-55.0,0.0,0.0,0.0
19:43:28.894000,-896.0,-105.0,-856.0,-1193.0,164.0,-38.0,0.0,0.0,0.0
19:43:28.899000,-893.0,-107.0,-870.0,-1193.0,164.0,-38.0,0.0,0.0,0.0
19:43:28.904000,-882.0,-101.0,-887.0,-1083.0,175.0,-31.0,0.0,0.0,0.0
19:43:28.908000,-876.0,-106.0,-885.0,-1083.0,175.0,-31.0,0.0,0.0,0.0
19:43:28.913000,-848.0,-111.0,-869.0,-1079.0,219.0,-17.0,0.0,0.0,0.0
19:43:28.918000,-848.0,-111.0,-869.0,-1079.0,219.0,-17.0,0.0,0.0,0.0
19:43:28.923000,-809.0,-116.0,-854.0,-1075.0,178.0,-9.0,0.0,0.0,0.0
19:43:28.927000,-779.0,-116.0,-840.0,-1075.0,178.0,-9.0,0.0,0.0,0.0
19:43:28.932000,-754.0,-112.0,-823.0,-1060.0,176.0,0.0,0.0,0.0,0.0
19:43:28.937000,-738.0,-106.0,-835.0,-1060.0,176.0,0.0,0.0,0.0,0.0
19:43:28.941000,-732.0,-97.0,-843.0,-1082.0,268.0,16.0,0.0,0.0,0.0
19:43:28.946000,-726.0,-80.0,-852.0,-1082.0,268.0,16.0,0.0,0.0,0.0
19:43:28.951000,-741.0,-56.0,-835.0,-1101.0,360.0,32.0,0.0,0.0,0.0
19:43:28.955000,-772.0,-23.0,-793.0,-1101.0,360.0,32.0,0.0,0.0,0.0
19:43:28.960000,-804.0,11.0,-770.0,-1082.0,436.0,51.0,0.0,0.0,0.0
19:43:28.965000,-848.0,50.0,-757.0,-1082.0,436.0,51.0,0.0,0.0,0.0
19:43:28.970000,-897.0,88.0,-728.0,-1056.0,480.0,65.0,0.0,0.0,0.0
19:43:28.974000,-951.0,126.0,-683.0,-1056.0,480.0,65.0,0.0,0.0,0.0
19:43:28.979000,-1003.0,161.0,-624.0,-1056.0,480.0,65.0,0.0,0.0,0.0
19:43:28.984000,-1054.0,191.0,-573.0,-1047.0,482.0,76.0,0.0,0.0,0.0
19:43:28.988000,-1103.0,221.0,-541.0,-1047.0,482.0,76.0,0.0,0.0,0.0
19:43:28.993000,-1148.0,248.0,-520.0,-1032.0,472.0,75.0,0.0,0.0,0.0
19:43:28.998000,-1195.0,277.0,-509.0,-1032.0,472.0,75.0,0.0,0.0,0.0
19:43:29.002000,-1243.0,301.0,-492.0,-1025.0,486.0,56.0,0.0,0.0,0.0
19:43:29.007000,-1290.0,324.0,-476.0,-1025.0,486.0,56.0,0.0,0.0,0.0
19:43:29.012000,-1332.0,346.0,-463.0,-1034.0,510.0,35.0,0.0,0.0,0.0
19:43:29.017000,-1366.0,368.0,-452.0,-1034.0,510.0,35.0,0.0,0.0,0.0
19:43:29.021000,-1393.0,390.0,-440.0,-1040.0,498.0,8.0,0.0,0.0,0.0
19:43:29.026000,-1393.0,390.0,-440.0,-1040.0,498.0,8.0,0.0,0.0,0.0
19:43:29.031000,-1411.0,409.0,-417.0,-1049.0,443.0,-27.0,0.0,0.0,0.0
19:43:29.035000,-1417.0,428.0,-389.0,-1049.0,443.0,-27.0,0.0,0.0,0.0
19:43:29.040000,-1416.0,443.0,-366.0,-1037.0,371.0,-61.0,0.0,0.0,0.0
19:43:29.045000,-1411.0,457.0,-333.0,-1037.0,371.0,-61.0,0.0,0.0,0.0
19:43:29.049000,-1399.0,473.0,-294.0,-997.0,307.0,-98.0,0.0,0.0,0.0
19:43:29.054000,-1388.0,490.0,-255.0,-997.0,307.0,-98.0,0.0,0.0,0.0
19:43:29.059000,-1376.0,506.0,-213.0,-965.0,268.0,-134.0,0.0,0.0,0.0
19:43:29.064000,-1368.0,522.0,-176.0,-965.0,268.0,-134.0,0.0,0.0,0.0
19:43:29.068000,-1364.0,543.0,-142.0,-947.0,259.0,-161.0,0.0,0.0,0.0
19:43:29.073000,-1368.0,560.0,-107.0,-947.0,259.0,-161.0,0.0,0.0,0.0
19:43:29.078000,-1378.0,574.0,-68.0,-916.0,260.0,-170.0,0.0,0.0,0.0
19:43:29.082000,-1390.0,588.0,-25.0,-916.0,260.0,-170.0,0.0,0.0,0.0
19:43:29.087000,-1404.0,606.0,15.0,-916.0,260.0,-170.0,0.0,0.0,0.0
19:43:29.092000,-1416.0,631.0,41.0,-863.0,240.0,-165.0,0.0,0.0,0.0
19:43:29.096000,-1425.0,660.0,62.0,-863.0,240.0,-165.0,0.0,0.0,0.0
19:43:29.101000,-1430.0,690.0,87.0,-827.0,194.0,-159.0,0.0,0.0,0.0
19:43:29.106000,-1431.0,718.0,105.0,-827.0,194.0,-159.0,0.0,0.0,0.0
19:43:29.111000,-1423.0,746.0,116.0,-802.0,123.0,-148.0,0.0,0.0,0.0
19:43:29.115000,-1403.0,774.0,119.0,-802.0,123.0,-148.0,0.0,0.0,0.0
19:43:29.120000,-1379.0,807.0,102.0,-768.0,51.0,-140.0,0.0,0.0,0.0
19:43:29.125000,-1348.0,842.0,78.0,-768.0,51.0,-140.0,0.0,0.0,0.0
19:43:29.129000,-1315.0,872.0,53.0,-781.0,15.0,-142.0,0.0,0.0,0.0
19:43:29.134000,-1315.0,872.0,53.0,-781.0,15.0,-142.0,0.0,0.0,0.0
19:43:29.139000,-1281.0,900.0,34.0,-825.0,1.0,-146.0,0.0,0.0,0.0
19:43:29.143000,-1249.0,926.0,25.0,-825.0,1.0,-146.0,0.0,0.0,0.0
19:43:29.148000,-1218.0,948.0,22.0,-840.0,-4.0,-149.0,0.0,0.0,0.0
19:43:29.153000,-1189.0,967.0,30.0,-840.0,-4.0,-149.0,0.0,0.0,0.0
19:43:29.158000,-1162.0,984.0,45.0,-824.0,-12.0,-151.0,0.0,0.0,0.0
19:43:29.162000,-1134.0,1000.0,68.0,-824.0,-12.0,-151.0,0.0,0.0,0.0
19:43:29.167000,-1104.0,1010.0,99.0,-783.0,-56.0,-151.0,0.0,0.0,0.0
19:43:29.172000,-1068.0,1017.0,131.0,-783.0,-56.0,-151.0,0.0,0.0,0.0
19:43:29.176000,-1028.0,1022.0,156.0,-718.0,-118.0,-159.0,0.0,0.0,0.0
19:43:29.181000,-989.0,1028.0,164.0,-718.0,-118.0,-159.0,0.0,0.0,0.0
19:43:29.186000,-957.0,1038.0,159.0,-673.0,-128.0,-182.0,0.0,0.0,0.0
19:43:29.190000,-938.0,1048.0,153.0,-673.0,-128.0,-182.0,0.0,0.0,0.0
19:43:29.195000,-931.0,1056.0,148.0,-670.0,-71.0,-196.0,0.0,0.0,0.0
19:43:29.200000,-938.0,1061.0,138.0,-670.0,-71.0,-196.0,0.0,0.0,0.0
19:43:29.205000,-952.0,1064.0,121.0,-670.0,-71.0,-196.0,0.0,0.0,0.0
19:43:29.209000,-966.0,1060.0,103.0,-656.0,-5.0,-190.0,0.0,0.0,0.0
19:43:29.214000,-973.0,1050.0,85.0,-656.0,-5.0,-190.0,0.0,0.0,0.0
19:43:29.219000,-972.0,1032.0,58.0,-583.0,-7.0,-179.0,0.0,0.0,0.0
19:43:29.223000,-959.0,1009.0,23.0,-583.0,-7.0,-179.0,0.0,0.0,0.0
19:43:29.228000,-937.0,987.0,-14.0,-485.0,-79.0,-181.0,0.0,0.0,0.0
19:43:29.233000,-911.0,968.0,-58.0,-485.0,-79.0,-181.0,0.0,0.0,0.0
19:43:29.237000,-889.0,948.0,-109.0,-427.0,-130.0,-200.0,0.0,0.0,0.0
19:43:29.242000,-875.0,928.0,-156.0,-427.0,-130.0,-200.0,0.0,0.0,0.0
19:43:29.247000,-875.0,928.0,-156.0,-428.0,-100.0,-223.0,0.0,0.0,0.0
19:43:29.252000,-875.0,909.0,-182.0,-428.0,-100.0,-223.0,0.0,0.0,0.0
19:43:29.256000,-886.0,891.0,-187.0,-442.0,-38.0,-248.0,0.0,0.0,0.0
19:43:29.261000,-905.0,879.0,-177.0,-442.0,-38.0,-248.0,0.0,0.0,0.0
19:43:29.266000,-931.0,872.0,-156.0,-446.0,0.0,-280.0,0.0,0.0,0.0
19:43:29.270000,-962.0,872.0,-128.0,-446.0,0.0,-280.0,0.0,0.0,0.0
19:43:29.275000,-1000.0,876.0,-91.0,-449.0,15.0,-314.0,0.0,0.0,0.0
19:43:29.280000,-1040.0,885.0,-47.0,-449.0,15.0,-314.0,0.0,0.0,0.0
19:43:29.284000,-1080.0,898.0,0.0,-427.0,-1.0,-345.0,0.0,0.0,0.0
19:43:29.289000,-1115.0,908.0,44.0,-427.0,-1.0,-345.0,0.0,0.0,0.0
19:43:29.294000,-1140.0,914.0,75.0,-367.0,-49.0,-375.0,0.0,0.0,0.0
19:43:29.299000,-1152.0,917.0,89.0,-367.0,-49.0,-375.0,0.0,0.0,0.0
19:43:29.303000,-1154.0,922.0,84.0,-276.0,-111.0,-407.0,0.0,0.0,0.0
19:43:29.308000,-1144.0,931.0,62.0,-276.0,-111.0,-407.0,0.0,0.0,0.0
19:43:29.313000,-1125.0,943.0,29.0,-177.0,-169.0,-444.0,0.0,0.0,0.0
19:43:29.317000,-1103.0,956.0,-15.0,-177.0,-169.0,-444.0,0.0,0.0,0.0
19:43:29.322000,-1078.0,966.0,-69.0,-177.0,-169.0,-444.0,0.0,0.0,0.0
19:43:29.327000,-1052.0,972.0,-130.0,-109.0,-185.0,-474.0,0.0,0.0,0.0
19:43:29.331000,-1026.0,975.0,-190.0,-109.0,-185.0,-474.0,0.0,0.0,0.0
19:43:29.336000,-1001.0,979.0,-241.0,-65.0,-165.0,-494.0,0.0,0.0,0.0
19:43:29.341000,-973.0,989.0,-282.0,-65.0,-165.0,-494.0,0.0,0.0,0.0
19:43:29.346000,-945.0,1003.0,-319.0,-24.0,-160.0,-523.0,0.0,0.0,0.0
19:43:29.350000,-922.0,1019.0,-357.0,-24.0,-160.0,-523.0,0.0,0.0,0.0
19:43:29.355000,-922.0,1019.0,-357.0,-22.0,-135.0,-561.0,0.0,0.0,0.0
19:43:29.360000,-907.0,1036.0,-388.0,-22.0,-135.0,-561.0,0.0,0.0,0.0
19:43:29.364000,-895.0,1057.0,-411.0,-47.0,-75.0,-602.0,0.0,0.0,0.0
19:43:29.369000,-882.0,1080.0,-425.0,-47.0,-75.0,-602.0,0.0,0.0,0.0
19:43:29.374000,-867.0,1105.0,-436.0,-55.0,-52.0,-647.0,0.0,0.0,0.0
19:43:29.378000,-850.0,1132.0,-445.0,-55.0,-52.0,-647.0,0.0,0.0,0.0
19:43:29.383000,-834.0,1156.0,-448.0,-46.0,-48.0,-688.0,0.0,0.0,0.0
19:43:29.388000,-822.0,1176.0,-441.0,-46.0,-48.0,-688.0,0.0,0.0,0.0
19:43:29.393000,-814.0,1194.0,-422.0,-18.0,-30.0,-722.0,0.0,0.0,0.0
19:43:29.397000,-806.0,1212.0,-393.0,-18.0,-30.0,-722.0,0.0,0.0,0.0
19:43:29.402000,-798.0,1234.0,-359.0,28.0,-38.0,-765.0,0.0,0.0,0.0
19:43:29.407000,-791.0,1255.0,-325.0,28.0,-38.0,-765.0,0.0,0.0,0.0
19:43:29.411000,-783.0,1276.0,-295.0,66.0,-59.0,-828.0,0.0,0.0,0.0
19:43:29.416000,-781.0,1298.0,-274.0,66.0,-59.0,-828.0,0.0,0.0,0.0
19:43:29.421000,-783.0,1317.0,-260.0,66.0,-59.0,-828.0,0.0,0.0,0.0
19:43:29.425000,-789.0,1334.0,-254.0,91.0,-37.0,-923.0,0.0,0.0,0.0
19:43:29.430000,-793.0,1332.0,-253.0,91.0,-37.0,-923.0,0.0,0.0,0.0
19:43:29.435000,-791.0,1320.0,-244.0,137.0,-10.0,-1028.0,0.0,0.0,0.0
19:43:29.440000,-779.0,1304.0,-240.0,137.0,-10.0,-1028.0,0.0,0.0,0.0
19:43:29.444000,-774.0,1277.0,-285.0,204.0,-25.0,-1117.0,0.0,0.0,0.0
19:43:29.449000,-793.0,1250.0,-357.0,204.0,-25.0,-1117.0,0.0,0.0,0.0
19:43:29.454000,-816.0,1218.0,-399.0,228.0,21.0,-1159.0,0.0,0.0,0.0
19:43:29.458000,-833.0,1176.0,-408.0,228.0,21.0,-1159.0,0.0,0.0,0.0
19:43:29.463000,-833.0,1176.0,-408.0,246.0,78.0,-1170.0,0.0,0.0,0.0
19:43:29.468000,-845.0,1127.0,-415.0,246.0,78.0,-1170.0,0.0,0.0,0.0
19:43:29.472000,-847.0,1079.0,-438.0,297.0,27.0,-1189.0,0.0,0.0,0.0
19:43:29.477000,-846.0,1031.0,-448.0,297.0,27.0,-1189.0,0.0,0.0,0.0
19:43:29.482000,-851.0,980.0,-427.0,327.0,-23.0,-1198.0,0.0,0.0,0.0
19:43:29.487000,-868.0,924.0,-379.0,327.0,-23.0,-1198.0,0.0,0.0,0.0
19:43:29.491000,-891.0,864.0,-328.0,298.0,-16.0,-1190.0,0.0,0.0,0.0
19:43:29.496000,-914.0,806.0,-294.0,298.0,-16.0,-1190.0,0.0,0.0,0.0
19:43:29.501000,-930.0,749.0,-273.0,269.0,-40.0,-1172.0,0.0,0.0,0.0
19:43:29.505000,-942.0,697.0,-255.0,269.0,-40.0,-1172.0,0.0,0.0,0.0
19:43:29.510000,-946.0,648.0,-237.0,245.0,-117.0,-1145.0,0.0,0.0,0.0
19:43:29.515000,-937.0,599.0,-221.0,245.0,-117.0,-1145.0,0.0,0.0,0.0
19:43:29.519000,-912.0,552.0,-212.0,174.0,-219.0,-1103.0,0.0,0.0,0.0
19:43:29.524000,-876.0,506.0,-213.0,174.0,-219.0,-1103.0,0.0,0.0,0.0
19:43:29.529000,-829.0,463.0,-237.0,174.0,-219.0,-1103.0,0.0,0.0,0.0
19:43:29.534000,-777.0,420.0,-283.0,109.0,-324.0,-1051.0,0.0,0.0,0.0
19:43:29.538000,-719.0,375.0,-340.0,98.0,-373.0,-998.0,0.0,0.0,0.0
19:43:29.543000,-665.0,328.0,-384.0,98.0,-373.0,-998.0,0.0,0.0,0.0
19:43:29.548000,-620.0,278.0,-422.0,98.0,-373.0,-998.0,0.0,0.0,0.0
19:43:29.552000,-588.0,228.0,-471.0,119.0,-366.0,-946.0,0.0,0.0,0.0
19:43:29.557000,-571.0,180.0,-524.0,119.0,-366.0,-946.0,0.0,0.0,0.0
19:43:29.562000,-576.0,136.0,-570.0,114.0,-300.0,-893.0,0.0,0.0,0.0
19:43:29.566000,-608.0,102.0,-602.0,114.0,-300.0,-893.0,0.0,0.0,0.0
19:43:29.571000,-608.0,102.0,-602.0,62.0,-167.0,-835.0,0.0,0.0,0.0
19:43:29.576000,-661.0,73.0,-629.0,62.0,-167.0,-835.0,0.0,0.0,0.0
19:43:29.581000,-731.0,46.0,-657.0,-28.0,-31.0,-780.0,0.0,0.0,0.0
19:43:29.585000,-816.0,21.0,-676.0,-28.0,-31.0,-780.0,0.0,0.0,0.0
19:43:29.590000,-918.0,-9.0,-694.0,-113.0,60.0,-741.0,0.0,0.0,0.0
19:43:29.595000,-1037.0,-42.0,-716.0,-113.0,60.0,-741.0,0.0,0.0,0.0
19:43:29.599000,-1166.0,-73.0,-745.0,-135.0,116.0,-710.0,0.0,0.0,0.0
19:43:29.604000,-1299.0,-112.0,-778.0,-135.0,116.0,-710.0,0.0,0.0,0.0
19:43:29.609000,-1435.0,-157.0,-811.0,-94.0,108.0,-677.0,0.0,0.0,0.0
19:43:29.613000,-1570.0,-210.0,-844.0,-94.0,108.0,-677.0,0.0,0.0,0.0
19:43:29.618000,-1705.0,-271.0,-877.0,-13.0,51.0,-650.0,0.0,0.0,0.0
19:43:29.623000,-1838.0,-334.0,-915.0,-13.0,51.0,-650.0,0.0,0.0,0.0
19:43:29.628000,-1967.0,-395.0,-963.0,65.0,0.0,-631.0,0.0,0.0,0.0
19:43:29.632000,-2084.0,-449.0,-1022.0,65.0,0.0,-631.0,0.0,0.0,0.0
19:43:29.637000,-2189.0,-499.0,-1089.0,65.0,0.0,-631.0,0.0,0.0,0.0
19:43:29.642000,-2276.0,-546.0,-1165.0,79.0,-71.0,-617.0,0.0,0.0,0.0
19:43:29.646000,-2343.0,-584.0,-1235.0,79.0,-71.0,-617.0,0.0,0.0,0.0
19:43:29.651000,-2394.0,-613.0,-1292.0,39.0,-187.0,-618.0,0.0,0.0,0.0
19:43:29.656000,-2425.0,-635.0,-1337.0,-20.0,-304.0,-636.0,0.0,0.0,0.0
19:43:29.660000,-2445.0,-650.0,-1383.0,-20.0,-304.0,-636.0,0.0,0.0,0.0
19:43:29.665000,-2455.0,-655.0,-1436.0,-20.0,-304.0,-636.0,0.0,0.0,0.0
19:43:29.670000,-2461.0,-655.0,-1484.0,-117.0,-373.0,-665.0,0.0,0.0,0.0
19:43:29.675000,-2464.0,-648.0,-1521.0,-117.0,-373.0,-665.0,0.0,0.0,0.0
19:43:29.679000,-2464.0,-635.0,-1551.0,-218.0,-411.0,-699.0,0.0,0.0,0.0
19:43:29.684000,-2464.0,-635.0,-1551.0,-218.0,-411.0,-699.0,0.0,0.0,0.0
19:43:29.689000,-2462.0,-622.0,-1577.0,-282.0,-447.0,-734.0,0.0,0.0,0.0
19:43:29.693000,-2458.0,-611.0,-1595.0,-282.0,-447.0,-734.0,0.0,0.0,0.0
19:43:29.698000,-2457.0,-606.0,-1605.0,-307.0,-481.0,-759.0,0.0,0.0,0.0
19:43:29.703000,-2446.0,-600.0,-1601.0,-307.0,-481.0,-759.0,0.0,0.0,0.0
19:43:29.707000,-2509.0,-604.0,-1559.0,-286.0,-655.0,-735.0,0.0,0.0,0.0
19:43:29.712000,-2641.0,-611.0,-1447.0,-286.0,-655.0,-735.0,0.0,0.0,0.0
19:43:29.717000,-2526.0,-585.0,-1362.0,-283.0,-878.0,-789.0,0.0,0.0,0.0
19:43:29.722000,-2358.0,-628.0,-1528.0,-283.0,-878.0,-789.0,0.0,0.0,0.0
19:43:29.726000,-2382.0,-645.0,-1771.0,-563.0,-684.0,-772.0,0.0,0.0,0.0
19:43:29.731000,-2413.0,-681.0,-1941.0,-563.0,-684.0,-772.0,0.0,0.0,0.0
19:43:29.736000,-2520.0,-728.0,-1825.0,-633.0,-517.0,-644.0,0.0,0.0,0.0
19:43:29.740000,-2506.0,-790.0,-1583.0,-633.0,-517.0,-644.0,0.0,0.0,0.0
19:43:29.745000,-2436.0,-816.0,-1486.0,-633.0,-517.0,-644.0,0.0,0.0,0.0
19:43:29.750000,-2319.0,-872.0,-1585.0,-323.0,-871.0,-676.0,0.0,0.0,0.0
19:43:29.754000,-2228.0,-881.0,-1710.0,-323.0,-871.0,-676.0,0.0,0.0,0.0
19:43:29.759000,-2230.0,-863.0,-1646.0,-385.0,-1022.0,-731.0,0.0,0.0,0.0
19:43:29.764000,-2199.0,-863.0,-1570.0,-385.0,-1022.0,-731.0,0.0,0.0,0.0
19:43:29.769000,-2068.0,-900.0,-1611.0,-673.0,-874.0,-683.0,0.0,0.0,0.0
19:43:29.773000,-2023.0,-937.0,-1661.0,-673.0,-874.0,-683.0,0.0,0.0,0.0
19:43:29.778000,-2026.0,-961.0,-1526.0,-669.0,-940.0,-668.0,0.0,0.0,0.0
19:43:29.783000,-1929.0,-999.0,-1381.0,-669.0,-940.0,-668.0,0.0,0.0,0.0
19:43:29.787000,-1815.0,-1027.0,-1270.0,-474.0,-926.0,-674.0,0.0,0.0,0.0
19:43:29.792000,-1815.0,-1027.0,-1270.0,-474.0,-926.0,-674.0,0.0,0.0,0.0
19:43:29.797000,-1796.0,-1046.0,-1119.0,-467.0,-717.0,-615.0,0.0,0.0,0.0
19:43:29.801000,-1772.0,-1057.0,-988.0,-467.0,-717.0,-615.0,0.0,0.0,0.0
19:43:29.806000,-1741.0,-1086.0,-998.0,-605.0,-647.0,-564.0,0.0,0.0,0.0
19:43:29.811000,-1717.0,-1093.0,-1031.0,-605.0,-647.0,-564.0,0.0,0.0,0.0
19:43:29.816000,-1671.0,-1127.0,-1108.0,-795.0,-799.0,-505.0,0.0,0.0,0.0
19:43:29.820000,-1652.0,-1200.0,-1162.0,-795.0,-799.0,-505.0,0.0,0.0,0.0
19:43:29.825000,-1399.0,-1199.0,-863.0,-1044.0,-1107.0,-511.0,0.0,0.0,0.0
19:43:29.830000,-1423.0,-1136.0,-688.0,-1044.0,-1107.0,-511.0,0.0,0.0,0.0
19:43:29.834000,-1323.0,-1124.0,-823.0,-919.0,-1116.0,-528.0,0.0,0.0,0.0
19:43:29.839000,-1313.0,-1131.0,-1013.0,-919.0,-1116.0,-528.0,0.0,0.0,0.0
19:43:29.844000,-1268.0,-1118.0,-1101.0,-701.0,-946.0,-485.0,0.0,0.0,0.0
19:43:29.848000,-1209.0,-1110.0,-1060.0,-701.0,-946.0,-485.0,0.0,0.0,0.0
19:43:29.853000,-1171.0,-1102.0,-1004.0,-701.0,-946.0,-485.0,0.0,0.0,0.0
19:43:29.858000,-1163.0,-1073.0,-972.0,-772.0,-875.0,-451.0,0.0,0.0,0.0
19:43:29.863000,-1115.0,-1042.0,-924.0,-867.0,-808.0,-416.0,0.0,0.0,0.0
19:43:29.867000,-1080.0,-1024.0,-903.0,-867.0,-808.0,-416.0,0.0,0.0,0.0
19:43:29.872000,-1050.0,-1001.0,-1008.0,-867.0,-808.0,-416.0,0.0,0.0,0.0
19:43:29.877000,-1028.0,-960.0,-975.0,-986.0,-797.0,-380.0,0.0,0.0,0.0
19:43:29.881000,-966.0,-921.0,-891.0,-986.0,-797.0,-380.0,0.0,0.0,0.0
19:43:29.886000,-930.0,-879.0,-942.0,-1073.0,-860.0,-357.0,0.0,0.0,0.0
19:43:29.891000,-900.0,-829.0,-991.0,-1073.0,-860.0,-357.0,0.0,0.0,0.0
19:43:29.895000,-855.0,-771.0,-984.0,-1036.0,-899.0,-349.0,0.0,0.0,0.0
19:43:29.900000,-855.0,-771.0,-984.0,-1036.0,-899.0,-349.0,0.0,0.0,0.0
19:43:29.905000,-828.0,-724.0,-981.0,-994.0,-790.0,-334.0,0.0,0.0,0.0
19:43:29.910000,-797.0,-674.0,-936.0,-994.0,-790.0,-334.0,0.0,0.0,0.0
19:43:29.914000,-775.0,-614.0,-906.0,-1016.0,-706.0,-323.0,0.0,0.0,0.0
19:43:29.919000,-743.0,-562.0,-935.0,-1016.0,-706.0,-323.0,0.0,0.0,0.0
19:43:29.924000,-706.0,-512.0,-967.0,-1049.0,-702.0,-328.0,0.0,0.0,0.0
19:43:29.928000,-674.0,-464.0,-974.0,-1049.0,-702.0,-328.0,0.0,0.0,0.0
19:43:29.933000,-642.0,-417.0,-963.0,-1036.0,-684.0,-344.0,0.0,0.0,0.0
19:43:29.938000,-602.0,-382.0,-916.0,-1036.0,-684.0,-344.0,0.0,0.0,0.0
19:43:29.942000,-548.0,-347.0,-872.0,-977.0,-670.0,-361.0,0.0,0.0,0.0
19:43:29.947000,-492.0,-317.0,-847.0,-977.0,-670.0,-361.0,0.0,0.0,0.0
19:43:29.952000,-438.0,-292.0,-822.0,-951.0,-668.0,-369.0,0.0,0.0,0.0
19:43:29.957000,-394.0,-269.0,-790.0,-951.0,-668.0,-369.0,0.0,0.0,0.0
19:43:29.961000,-357.0,-245.0,-758.0,-951.0,-618.0,-366.0,0.0,0.0,0.0
19:43:29.966000,-324.0,-228.0,-728.0,-920.0,-618.0,-366.0,0.0,0.0,0.0
19:43:29.971000,-310.0,-204.0,-690.0,-886.0,-552.0,-356.0,0.0,0.0,0.0
19:43:29.975000,-293.0,-187.0,-623.0,-886.0,-552.0,-356.0,0.0,0.0,0.0
19:43:29.980000,-260.0,-178.0,-604.0,-886.0,-552.0,-356.0,0.0,0.0,0.0
19:43:29.985000,-260.0,-163.0,-611.0,-919.0,-467.0,-356.0,0.0,0.0,0.0
19:43:29.989000,-274.0,-151.0,-595.0,-919.0,-467.0,-356.0,0.0,0.0,0.0
19:43:29.994000,-283.0,-140.0,-548.0,-950.0,-359.0,-355.0,0.0,0.0,0.0
19:43:29.999000,-301.0,-126.0,-491.0,-950.0,-359.0,-355.0,0.0,0.0,0.0
19:43:30.004000,-309.0,-109.0,-463.0,-933.0,-317.0,-343.0,0.0,0.0,0.0
19:43:30.008000,-308.0,-109.0,-463.0,-933.0,-317.0,-343.0,0.0,0.0,0.0
19:43:30.013000,-308.0,-98.0,-452.0,-932.0,-329.0,-335.0,0.0,0.0,0.0
19:43:30.018000,-290.0,-93.0,-432.0,-932.0,-329.0,-335.0,0.0,0.0,0.0
19:43:30.022000,-270.0,-81.0,-400.0,-942.0,-360.0,-323.0,0.0,0.0,0.0
19:43:30.027000,-242.0,-79.0,-373.0,-942.0,-360.0,-323.0,0.0,0.0,0.0
19:43:30.032000,-214.0,-73.0,-351.0,-984.0,-389.0,-276.0,0.0,0.0,0.0
19:43:30.036000,-197.0,-58.0,-312.0,-984.0,-389.0,-276.0,0.0,0.0,0.0
19:43:30.041000,-177.0,-59.0,-275.0,-922.0,-387.0,-242.0,0.0,0.0,0.0
19:43:30.046000,-133.0,-53.0,-266.0,-922.0,-387.0,-242.0,0.0,0.0,0.0
19:43:30.051000,-142.0,-50.0,-251.0,-886.0,-372.0,-241.0,0.0,0.0,0.0
19:43:30.055000,-109.0,-52.0,-193.0,-886.0,-372.0,-241.0,0.0,0.0,0.0
19:43:30.060000,-105.0,-58.0,-142.0,-985.0,-350.0,-233.0,0.0,0.0,0.0
19:43:30.065000,-84.0,-65.0,-114.0,-985.0,-350.0,-233.0,0.0,0.0,0.0
19:43:30.069000,-81.0,-69.0,-136.0,-1000.0,-302.0,-222.0,0.0,0.0,0.0
19:43:30.074000,-80.0,-72.0,-98.0,-1000.0,-302.0,-222.0,0.0,0.0,0.0
19:43:30.079000,-74.0,-78.0,19.0,-976.0,-310.0,-207.0,0.0,0.0,0.0
19:43:30.083000,-58.0,-83.0,-10.0,-976.0,-310.0,-207.0,0.0,0.0,0.0
19:43:30.088000,-65.0,-83.0,-103.0,-976.0,-310.0,-207.0,0.0,0.0,0.0
19:43:30.093000,-70.0,-83.0,-67.0,-972.0,-309.0,-193.0,0.0,0.0,0.0
19:43:30.098000,-72.0,-86.0,4.0,-972.0,-309.0,-193.0,0.0,0.0,0.0
19:43:30.102000,-82.0,-80.0,-9.0,-983.0,-279.0,-182.0,0.0,0.0,0.0
19:43:30.107000,-89.0,-73.0,-60.0,-983.0,-279.0,-182.0,0.0,0.0,0.0
19:43:30.112000,-101.0,-65.0,-84.0,-1027.0,-257.0,-175.0,0.0,0.0,0.0
19:43:30.116000,-107.0,-57.0,-89.0,-1027.0,-257.0,-175.0,0.0,0.0,0.0
19:43:30.121000,-107.0,-57.0,-89.0,-1053.0,-216.0,-165.0,0.0,0.0,0.0
19:43:30.126000,-110.0,-48.0,-113.0,-1053.0,-216.0,-165.0,0.0,0.0,0.0
19:43:30.130000,-110.0,-39.0,-143.0,-1039.0,-191.0,-157.0,0.0,0.0,0.0
19:43:30.135000,-105.0,-30.0,-161.0,-1039.0,-191.0,-157.0,0.0,0.0,0.0
19:43:30.140000,-103.0,-18.0,-166.0,-1025.0,-161.0,-155.0,0.0,0.0,0.0
19:43:30.145000,-98.0,-7.0,-162.0,-1025.0,-161.0,-155.0,0.0,0.0,0.0
19:43:30.149000,-90.0,4.0,-146.0,-1016.0,-148.0,-156.0,0.0,0.0,0.0
19:43:30.154000,-81.0,19.0,-118.0,-1016.0,-148.0,-156.0,0.0,0.0,0.0
19:43:30.159000,-75.0,37.0,-86.0,-1026.0,-132.0,-161.0,0.0,0.0,0.0
19:43:30.163000,-65.0,53.0,-65.0,-1026.0,-132.0,-161.0,0.0,0.0,0.0
19:43:30.168000,-60.0,72.0,-42.0,-1031.0,-101.0,-169.0,0.0,0.0,0.0
19:43:30.173000,-56.0,91.0,-17.0,-1031.0,-101.0,-169.0,0.0,0.0,0.0
19:43:30.177000,-60.0,112.0,-3.0,-1024.0,-54.0,-177.0,0.0,0.0,0.0
19:43:30.182000,-59.0,127.0,-5.0,-1024.0,-54.0,-177.0,0.0,0.0,0.0
19:43:30.187000,-59.0,142.0,4.0,-1024.0,-54.0,-177.0,0.0,0.0,0.0
19:43:30.192000,-60.0,152.0,27.0,-1010.0,-5.0,-183.0,0.0,0.0,0.0
19:43:30.196000,-59.0,163.0,46.0,-1010.0,-5.0,-183.0,0.0,0.0,0.0
19:43:30.201000,-60.0,169.0,60.0,-984.0,27.0,-192.0,0.0,0.0,0.0
19:43:30.206000,-62.0,175.0,71.0,-984.0,27.0,-192.0,0.0,0.0,0.0
19:43:30.210000,-64.0,182.0,74.0,-971.0,49.0,-203.0,0.0,0.0,0.0
19:43:30.215000,-69.0,185.0,75.0,-971.0,49.0,-203.0,0.0,0.0,0.0
19:43:30.220000,-80.0,185.0,74.0,-980.0,76.0,-213.0,0.0,0.0,0.0
19:43:30.224000,-84.0,181.0,60.0,-980.0,76.0,-213.0,0.0,0.0,0.0
19:43:30.229000,-84.0,181.0,60.0,-982.0,103.0,-219.0,0.0,0.0,0.0
19:43:30.234000,-88.0,176.0,50.0,-982.0,103.0,-219.0,0.0,0.0,0.0
19:43:30.239000,-91.0,167.0,58.0,-963.0,105.0,-226.0,0.0,0.0,0.0
19:43:30.243000,-88.0,156.0,66.0,-963.0,105.0,-226.0,0.0,0.0,0.0
19:43:30.248000,-86.0,149.0,56.0,-957.0,108.0,-234.0,0.0,0.0,0.0
19:43:30.253000,-89.0,144.0,49.0,-957.0,108.0,-234.0,0.0,0.0,0.0
19:43:30.257000,-88.0,140.0,71.0,-975.0,112.0,-243.0,0.0,0.0,0.0
19:43:30.262000,-98.0,144.0,100.0,-975.0,112.0,-243.0,0.0,0.0,0.0
19:43:30.267000,-114.0,139.0,112.0,-1007.0,122.0,-250.0,0.0,0.0,0.0
19:43:30.271000,-112.0,135.0,100.0,-1007.0,122.0,-250.0,0.0,0.0,0.0
19:43:30.276000,-111.0,132.0,79.0,-1051.0,135.0,-258.0,0.0,0.0,0.0
19:43:30.281000,-111.0,133.0,49.0,-1051.0,135.0,-258.0,0.0,0.0,0.0
19:43:30.286000,-103.0,135.0,11.0,-1106.0,115.0,-275.0,0.0,0.0,0.0
19:43:30.290000,-85.0,136.0,-18.0,-1106.0,115.0,-275.0,0.0,0.0,0.0
19:43:30.295000,-102.0,136.0,-46.0,-1106.0,115.0,-275.0,0.0,0.0,0.0
19:43:30.300000,-102.0,135.0,-67.0,-1128.0,119.0,-285.0,0.0,0.0,0.0
19:43:30.304000,-93.0,129.0,-85.0,-1128.0,119.0,-285.0,0.0,0.0,0.0
19:43:30.309000,-107.0,120.0,-107.0,-1127.0,144.0,-296.0,0.0,0.0,0.0
19:43:30.314000,-84.0,105.0,-138.0,-1127.0,144.0,-296.0,0.0,0.0,0.0
19:43:30.318000,-74.0,93.0,-156.0,-1114.0,194.0,-316.0,0.0,0.0,0.0
19:43:30.323000,-58.0,78.0,-135.0,-1114.0,194.0,-316.0,0.0,0.0,0.0
19:43:30.328000,-30.0,53.0,-113.0,-1093.0,193.0,-333.0,0.0,0.0,0.0
19:43:30.333000,-2.0,35.0,-110.0,-1093.0,193.0,-333.0,0.0,0.0,0.0
19:43:30.337000,-2.0,35.0,-110.0,-1091.0,207.0,-342.0,0.0,0.0,0.0
19:43:30.342000,2.0,20.0,-121.0,-1091.0,207.0,-342.0,0.0,0.0,0.0
19:43:30.347000,3.0,-1.0,-59.0,-1151.0,272.0,-336.0,0.0,0.0,0.0
19:43:30.351000,2.0,-2.0,73.0,-1151.0,272.0,-336.0,0.0,0.0,0.0
19:43:30.356000,-2.0,-5.0,106.0,-1241.0,246.0,-335.0,0.0,0.0,0.0
19:43:30.361000,39.0,-20.0,42.0,-1241.0,246.0,-335.0,0.0,0.0,0.0
19:43:30.365000,41.0,-26.0,15.0,-1252.0,242.0,-342.0,0.0,0.0,0.0
19:43:30.370000,54.0,-27.0,53.0,-1252.0,242.0,-342.0,0.0,0.0,0.0
19:43:30.375000,58.0,-30.0,100.0,-1240.0,268.0,-345.0,0.0,0.0,0.0
19:43:30.380000,81.0,-42.0,89.0,-1240.0,268.0,-345.0,0.0,0.0,0.0
19:43:30.384000,113.0,-51.0,63.0,-1272.0,238.0,-357.0,0.0,0.0,0.0
19:43:30.389000,152.0,-54.0,39.0,-1272.0,238.0,-357.0,0.0,0.0,0.0
19:43:30.394000,217.0,-57.0,-19.0,-1284.0,224.0,-374.0,0.0,0.0,0.0
19:43:30.398000,263.0,-74.0,-65.0,-1284.0,224.0,-374.0,0.0,0.0,0.0
19:43:30.403000,269.0,-71.0,-46.0,-1284.0,224.0,-374.0,0.0,0.0,0.0
19:43:30.408000,294.0,-73.0,-37.0,-1265.0,235.0,-376.0,0.0,0.0,0.0
19:43:30.412000,333.0,-67.0,-79.0,-1265.0,235.0,-376.0,0.0,0.0,0.0
19:43:30.417000,354.0,-67.0,-130.0,-1336.0,248.0,-362.0,0.0,0.0,0.0
19:43:30.422000,360.0,-53.0,-182.0,-1336.0,248.0,-362.0,0.0,0.0,0.0
19:43:30.427000,387.0,-40.0,-183.0,-1417.0,304.0,-338.0,0.0,0.0,0.0
19:43:30.431000,404.0,-9.0,-208.0,-1417.0,304.0,-338.0,0.0,0.0,0.0
19:43:30.436000,457.0,19.0,-273.0,-1434.0,359.0,-314.0,0.0,0.0,0.0
19:43:30.441000,480.0,45.0,-202.0,-1434.0,359.0,-314.0,0.0,0.0,0.0
19:43:30.445000,463.0,71.0,-67.0,-1412.0,302.0,-280.0,0.0,0.0,0.0
19:43:30.450000,463.0,71.0,-67.0,-1412.0,302.0,-280.0,0.0,0.0,0.0
19:43:30.455000,461.0,65.0,9.0,-1409.0,383.0,-255.0,0.0,0.0,0.0
19:43:30.459000,417.0,41.0,-26.0,-1409.0,383.0,-255.0,0.0,0.0,0.0
19:43:30.464000,326.0,28.0,-74.0,-1352.0,702.0,-238.0,0.0,0.0,0.0
19:43:30.469000,277.0,31.0,-249.0,-1352.0,702.0,-238.0,0.0,0.0,0.0
19:43:30.473000,268.0,-4.0,-297.0,-1284.0,757.0,-233.0,0.0,0.0,0.0
19:43:30.478000,218.0,-39.0,-126.0,-1284.0,757.0,-233.0,0.0,0.0,0.0
19:43:30.483000,93.0,-86.0,-54.0,-1293.0,736.0,-206.0,0.0,0.0,0.0
19:43:30.488000,-11.0,-105.0,-35.0,-1293.0,736.0,-206.0,0.0,0.0,0.0
19:43:30.492000,18.0,-95.0,-115.0,-1338.0,779.0,-182.0,0.0,0.0,0.0
19:43:30.497000,-85.0,-123.0,-286.0,-1338.0,779.0,-182.0,0.0,0.0,0.0
19:43:30.502000,-199.0,-177.0,-434.0,-1368.0,709.0,-146.0,0.0,0.0,0.0
19:43:30.506000,-205.0,-207.0,-539.0,-1368.0,709.0,-146.0,0.0,0.0,0.0
19:43:30.511000,-247.0,-181.0,-284.0,-1368.0,709.0,-146.0,0.0,0.0,0.0
19:43:30.516000,-274.0,-157.0,-93.0,-1177.0,418.0,-68.0,0.0,0.0,0.0
19:43:30.520000,-289.0,-176.0,8.0,-1177.0,418.0,-68.0,0.0,0.0,0.0
19:43:30.525000,-354.0,-197.0,43.0,-1154.0,-45.0,0.0,0.0,0.0,0.0
19:43:30.530000,-341.0,-139.0,-61.0,-1154.0,-45.0,0.0,0.0,0.0,0.0
19:43:30.535000,-357.0,-124.0,-196.0,-1072.0,-283.0,38.0,0.0,0.0,0.0
19:43:30.539000,-430.0,-145.0,-317.0,-1072.0,-283.0,38.0,0.0,0.0,0.0
19:43:30.544000,-485.0,-167.0,-217.0,-791.0,-499.0,76.0,0.0,0.0,0.0
19:43:30.549000,-382.0,-137.0,152.0,-791.0,-499.0,76.0,0.0,0.0,0.0
19:43:30.553000,-319.0,-123.0,420.0,-638.0,-937.0,64.0,0.0,0.0,0.0
19:43:30.558000,-319.0,-123.0,420.0,-638.0,-937.0,64.0,0.0,0.0,0.0
19:43:30.563000,-417.0,-95.0,414.0,-580.0,-1113.0,17.0,0.0,0.0,0.0
19:43:30.567000,-395.0,-89.0,121.0,-580.0,-1113.0,17.0,0.0,0.0,0.0
19:43:30.572000,-229.0,-21.0,90.0,-605.0,-1127.0,-18.0,0.0,0.0,0.0
19:43:30.577000,-146.0,-4.0,-58.0,-605.0,-1127.0,-18.0,0.0,0.0,0.0
19:43:30.582000,-107.0,-4.0,-129.0,-580.0,-1154.0,-73.0,0.0,0.0,0.0
19:43:30.586000,-34.0,31.0,-77.0,-580.0,-1154.0,-73.0,0.0,0.0,0.0
19:43:30.591000,-41.0,18.0,-317.0,-609.0,-906.0,-109.0,0.0,0.0,0.0
19:43:30.596000,-21.0,30.0,-491.0,-609.0,-906.0,-109.0,0.0,0.0,0.0
19:43:30.600000,13.0,40.0,-534.0,-698.0,-719.0,-186.0,0.0,0.0,0.0
19:43:30.605000,39.0,67.0,-652.0,-698.0,-719.0,-186.0,0.0,0.0,0.0
19:43:30.610000,18.0,77.0,-835.0,-875.0,-673.0,-254.0,0.0,0.0,0.0
19:43:30.614000,73.0,60.0,-825.0,-875.0,-673.0,-254.0,0.0,0.0,0.0
19:43:30.619000,105.0,81.0,-573.0,-875.0,-673.0,-254.0,0.0,0.0,0.0
19:43:30.624000,208.0,58.0,-278.0,-872.0,-678.0,-300.0,0.0,0.0,0.0
19:43:30.629000,213.0,43.0,-126.0,-872.0,-678.0,-300.0,0.0,0.0,0.0
19:43:30.633000,148.0,44.0,-116.0,-814.0,-598.0,-325.0,0.0,0.0,0.0
19:43:30.638000,125.0,42.0,-82.0,-814.0,-598.0,-325.0,0.0,0.0,0.0
19:43:30.643000,111.0,9.0,-96.0,-850.0,-351.0,-312.0,0.0,0.0,0.0
19:43:30.647000,37.0,-34.0,-37.0,-850.0,-351.0,-312.0,0.0,0.0,0.0
19:43:30.652000,70.0,-95.0,21.0,-712.0,-362.0,-309.0,0.0,0.0,0.0
19:43:30.657000,178.0,-157.0,35.0,-712.0,-362.0,-309.0,0.0,0.0,0.0
19:43:30.661000,223.0,-195.0,-84.0,-603.0,-554.0,-333.0,0.0,0.0,0.0
19:43:30.666000,223.0,-195.0,-84.0,-603.0,-554.0,-333.0,0.0,0.0,0.0
19:43:30.671000,179.0,-258.0,-130.0,-615.0,-574.0,-307.0,0.0,0.0,0.0
19:43:30.676000,135.0,-261.0,-93.0,-615.0,-574.0,-307.0,0.0,0.0,0.0
19:43:30.680000,114.0,-277.0,-65.0,-756.0,-517.0,-265.0,0.0,0.0,0.0
19:43:30.685000,65.0,-294.0,-72.0,-756.0,-517.0,-265.0,0.0,0.0,0.0
19:43:30.690000,9.0,-312.0,49.0,-842.0,-483.0,-242.0,0.0,0.0,0.0
19:43:30.694000,-24.0,-308.0,139.0,-842.0,-483.0,-242.0,0.0,0.0,0.0
19:43:30.699000,-39.0,-363.0,-14.0,-802.0,-441.0,-176.0,0.0,0.0,0.0
19:43:30.704000,-70.0,-377.0,-154.0,-802.0,-441.0,-176.0,0.0,0.0,0.0
19:43:30.708000,-91.0,-399.0,-122.0,-798.0,-517.0,-116.0,0.0,0.0,0.0
19:43:30.713000,-152.0,-387.0,23.0,-798.0,-517.0,-116.0,0.0,0.0,0.0
19:43:30.718000,-186.0,-340.0,-2.0,-968.0,-584.0,-93.0,0.0,0.0,0.0
19:43:30.723000,-148.0,-319.0,-71.0,-968.0,-584.0,-93.0,0.0,0.0,0.0
19:43:30.727000,-151.0,-298.0,51.0,-1036.0,-525.0,-67.0,0.0,0.0,0.0
19:43:30.732000,-124.0,-266.0,9.0,-1036.0,-525.0,-67.0,0.0,0.0,0.0
19:43:30.737000,-136.0,-198.0,14.0,-1036.0,-525.0,-67.0,0.0,0.0,0.0
19:43:30.741000,-121.0,-180.0,95.0,-983.0,-570.0,-38.0,0.0,0.0,0.0
19:43:30.746000,-131.0,-175.0,53.0,-983.0,-570.0,-38.0,0.0,0.0,0.0
19:43:30.751000,-105.0,-133.0,73.0,-1076.0,-528.0,-22.0,0.0,0.0,0.0
19:43:30.755000,-119.0,-148.0,49.0,-1076.0,-528.0,-22.0,0.0,0.0,0.0
19:43:30.760000,-60.0,-112.0,13.0,-1088.0,-438.0,-10.0,0.0,0.0,0.0
19:43:30.765000,-65.0,-67.0,-77.0,-1088.0,-438.0,-10.0,0.0,0.0,0.0
19:43:30.770000,-104.0,-42.0,-139.0,-1058.0,-506.0,-6.0,0.0,0.0,0.0
19:43:30.774000,-104.0,-42.0,-139.0,-1058.0,-506.0,-6.0,0.0,0.0,0.0
19:43:30.779000,-2.0,-39.0,-128.0,-993.0,-584.0,-29.0,0.0,0.0,0.0
19:43:30.784000,77.0,-49.0,-86.0,-993.0,-584.0,-29.0,0.0,0.0,0.0
19:43:30.788000,67.0,-35.0,-34.0,-955.0,-481.0,-33.0,0.0,0.0,0.0
19:43:30.793000,25.0,-11.0,-41.0,-955.0,-481.0,-33.0,0.0,0.0,0.0
19:43:30.798000,60.0,19.0,7.0,-990.0,-502.0,-53.0,0.0,0.0,0.0
19:43:30.802000,122.0,-4.0,104.0,-990.0,-502.0,-53.0,0.0,0.0,0.0
19:43:30.807000,106.0,-14.0,122.0,-1003.0,-525.0,-83.0,0.0,0.0,0.0
19:43:30.812000,86.0,-10.0,71.0,-1003.0,-525.0,-83.0,0.0,0.0,0.0
19:43:30.817000,68.0,-28.0,-48.0,-950.0,-358.0,-66.0,0.0,0.0,0.0
19:43:30.821000,21.0,-39.0,-142.0,-950.0,-358.0,-66.0,0.0,0.0,0.0
19:43:30.826000,0.0,-58.0,-142.0,-868.0,-374.0,-62.0,0.0,0.0,0.0
19:43:30.831000,-28.0,-70.0,-95.0,-868.0,-374.0,-62.0,0.0,0.0,0.0
19:43:30.835000,-36.0,-90.0,-62.0,-895.0,-474.0,-70.0,0.0,0.0,0.0
19:43:30.840000,7.0,-100.0,-53.0,-895.0,-474.0,-70.0,0.0,0.0,0.0
19:43:30.845000,17.0,-112.0,-63.0,-895.0,-474.0,-70.0,0.0,0.0,0.0
19:43:30.849000,-9.0,-127.0,-37.0,-930.0,-511.0,-62.0,0.0,0.0,0.0
19:43:30.854000,-11.0,-136.0,-49.0,-930.0,-511.0,-62.0,0.0,0.0,0.0
19:43:30.859000,20.0,-150.0,-106.0,-879.0,-542.0,-54.0,0.0,0.0,0.0
19:43:30.864000,-51.0,-156.0,-65.0,-879.0,-542.0,-54.0,0.0,0.0,0.0
19:43:30.868000,-114.0,-160.0,-145.0,-927.0,-458.0,-54.0,0.0,0.0,0.0
19:43:30.873000,-93.0,-177.0,-265.0,-927.0,-458.0,-54.0,0.0,0.0,0.0
19:43:30.878000,-81.0,-179.0,-211.0,-870.0,-397.0,-57.0,0.0,0.0,0.0
19:43:30.882000,-124.0,-193.0,-66.0,-870.0,-397.0,-57.0,0.0,0.0,0.0
19:43:30.887000,-124.0,-193.0,-66.0,-803.0,-471.0,-45.0,0.0,0.0,0.0
19:43:30.892000,-175.0,-198.0,-58.0,-803.0,-471.0,-45.0,0.0,0.0,0.0
19:43:30.896000,-196.0,-184.0,-213.0,-955.0,-395.0,-27.0,0.0,0.0,0.0
19:43:30.901000,-191.0,-167.0,-301.0,-955.0,-395.0,-27.0,0.0,0.0,0.0
19:43:30.906000,-179.0,-168.0,-286.0,-963.0,-349.0,-17.0,0.0,0.0,0.0
19:43:30.911000,-222.0,-162.0,-352.0,-963.0,-349.0,-17.0,0.0,0.0,0.0
19:43:30.915000,-264.0,-141.0,-342.0,-882.0,-404.0,-8.0,0.0,0.0,0.0
19:43:30.920000,-247.0,-120.0,-189.0,-882.0,-404.0,-8.0,0.0,0.0,0.0
19:43:30.925000,-242.0,-96.0,-117.0,-997.0,-445.0,-21.0,0.0,0.0,0.0
19:43:30.929000,-271.0,-86.0,-147.0,-997.0,-445.0,-21.0,0.0,0.0,0.0
19:43:30.934000,-245.0,-76.0,-149.0,-1055.0,-480.0,-50.0,0.0,0.0,0.0
19:43:30.939000,-180.0,-60.0,-119.0,-1055.0,-480.0,-50.0,0.0,0.0,0.0
19:43:30.943000,-116.0,-42.0,-109.0,-988.0,-496.0,-76.0,0.0,0.0,0.0
19:43:30.948000,-86.0,-45.0,-90.0,-988.0,-496.0,-76.0,0.0,0.0,0.0
19:43:30.953000,-63.0,-64.0,-149.0,-988.0,-496.0,-76.0,0.0,0.0,0.0
19:43:30.958000,-67.0,-69.0,-161.0,-889.0,-501.0,-71.0,0.0,0.0,0.0
19:43:30.962000,-66.0,-62.0,-161.0,-838.0,-442.0,-65.0,0.0,0.0,0.0
19:43:30.967000,-33.0,-59.0,-218.0,-838.0,-442.0,-65.0,0.0,0.0,0.0
19:43:30.972000,-22.0,-58.0,-354.0,-838.0,-442.0,-65.0,0.0,0.0,0.0
19:43:30.976000,4.0,-61.0,-443.0,-893.0,-369.0,-70.0,0.0,0.0,0.0
19:43:30.981000,0.0,-67.0,-408.0,-893.0,-369.0,-70.0,0.0,0.0,0.0
19:43:30.986000,-16.0,-69.0,-319.0,-824.0,-396.0,-55.0,0.0,0.0,0.0
19:43:30.990000,-4.0,-67.0,-261.0,-824.0,-396.0,-55.0,0.0,0.0,0.0
19:43:30.995000,-4.0,-67.0,-261.0,-823.0,-429.0,-48.0,0.0,0.0,0.0
19:43:31.000000,-24.0,-53.0,-223.0,-823.0,-429.0,-48.0,0.0,0.0,0.0
19:43:31.005000,-9.0,-40.0,-198.0,-926.0,-400.0,-53.0,0.0,0.0,0.0
19:43:31.009000,13.0,-18.0,-112.0,-926.0,-400.0,-53.0,0.0,0.0,0.0
19:43:31.014000,9.0,-9.0,-25.0,-1052.0,-417.0,-49.0,0.0,0.0,0.0
19:43:31.019000,-18.0,-8.0,-47.0,-1052.0,-417.0,-49.0,0.0,0.0,0.0
19:43:31.033000,-32.0,4.0,-234.0,-940.0,-361.0,-68.0,0.0,0.0,0.0
19:43:31.037000,3.0,0.0,-142.0,-940.0,-361.0,-68.0,0.0,0.0,0.0
19:43:31.042000,29.0,-8.0,-102.0,-861.0,-388.0,-67.0,0.0,0.0,0.0
19:43:31.047000,30.0,-20.0,-165.0,-861.0,-388.0,-67.0,0.0,0.0,0.0
19:43:31.052000,18.0,-24.0,-242.0,-844.0,-322.0,-60.0,0.0,0.0,0.0
19:43:31.056000,-5.0,-24.0,-282.0,-844.0,-322.0,-60.0,0.0,0.0,0.0
19:43:31.061000,-32.0,-18.0,-305.0,-844.0,-322.0,-60.0,0.0,0.0,0.0
19:43:31.066000,-43.0,-27.0,-341.0,-848.0,-287.0,-42.0,0.0,0.0,0.0
19:43:31.070000,-15.0,-30.0,-367.0,-848.0,-287.0,-42.0,0.0,0.0,0.0
19:43:31.075000,7.0,-46.0,-340.0,-860.0,-307.0,-34.0,0.0,0.0,0.0
19:43:31.080000,-14.0,-50.0,-352.0,-860.0,-307.0,-34.0,0.0,0.0,0.0
19:43:31.084000,-19.0,-51.0,-375.0,-912.0,-369.0,-24.0,0.0,0.0,0.0
19:43:31.089000,-31.0,-38.0,-401.0,-912.0,-369.0,-24.0,0.0,0.0,0.0
19:43:31.094000,-14.0,-21.0,-375.0,-959.0,-372.0,-15.0,0.0,0.0,0.0
19:43:31.099000,-15.0,0.0,-301.0,-959.0,-372.0,-15.0,0.0,0.0,0.0
19:43:31.103000,-15.0,0.0,-301.0,-974.0,-328.0,-17.0,0.0,0.0,0.0
19:43:31.108000,-16.0,11.0,-222.0,-974.0,-328.0,-17.0,0.0,0.0,0.0
19:43:31.113000,-39.0,18.0,-214.0,-1028.0,-267.0,-8.0,0.0,0.0,0.0
19:43:31.117000,-78.0,25.0,-295.0,-1028.0,-267.0,-8.0,0.0,0.0,0.0
19:43:31.122000,-115.0,26.0,-394.0,-995.0,-228.0,1.0,0.0,0.0,0.0
19:43:31.127000,-123.0,35.0,-370.0,-995.0,-228.0,1.0,0.0,0.0,0.0
19:43:31.131000,-105.0,42.0,-285.0,-859.0,-284.0,-12.0,0.0,0.0,0.0
19:43:31.136000,-99.0,50.0,-189.0,-859.0,-284.0,-12.0,0.0,0.0,0.0
19:43:31.141000,-91.0,58.0,-138.0,-916.0,-317.0,-38.0,0.0,0.0,0.0
19:43:31.146000,-72.0,52.0,-170.0,-916.0,-317.0,-38.0,0.0,0.0,0.0
19:43:31.150000,-38.0,47.0,-221.0,-1040.0,-288.0,-50.0,0.0,0.0,0.0
19:43:31.155000,-23.0,54.0,-262.0,-1040.0,-288.0,-50.0,0.0,0.0,0.0
19:43:31.160000,-2.0,53.0,-293.0,-994.0,-285.0,-48.0,0.0,0.0,0.0
19:43:31.164000,0.0,51.0,-345.0,-994.0,-285.0,-48.0,0.0,0.0,0.0
19:43:31.169000,-11.0,53.0,-364.0,-994.0,-285.0,-48.0,0.0,0.0,0.0
19:43:31.174000,-5.0,57.0,-368.0,-896.0,-298.0,-34.0,0.0,0.0,0.0
19:43:31.178000,-35.0,44.0,-319.0,-896.0,-298.0,-34.0,0.0,0.0,0.0
19:43:31.183000,-44.0,39.0,-240.0,-874.0,-302.0,-25.0,0.0,0.0,0.0
19:43:31.188000,-55.0,33.0,-242.0,-874.0,-302.0,-25.0,0.0,0.0,0.0
19:43:31.193000,-67.0,39.0,-284.0,-937.0,-291.0,-30.0,0.0,0.0,0.0
19:43:31.197000,-37.0,45.0,-285.0,-937.0,-291.0,-30.0,0.0,0.0,0.0
19:43:31.202000,-14.0,49.0,-239.0,-964.0,-290.0,-45.0,0.0,0.0,0.0
19:43:31.207000,-5.0,47.0,-210.0,-964.0,-290.0,-45.0,0.0,0.0,0.0
19:43:31.211000,-5.0,47.0,-210.0,-968.0,-287.0,-45.0,0.0,0.0,0.0
19:43:31.216000,-6.0,50.0,-163.0,-968.0,-287.0,-45.0,0.0,0.0,0.0
19:43:31.221000,-14.0,56.0,-128.0,-986.0,-277.0,-37.0,0.0,0.0,0.0
19:43:31.225000,-4.0,67.0,-184.0,-986.0,-277.0,-37.0,0.0,0.0,0.0
19:43:31.230000,1.0,78.0,-273.0,-998.0,-289.0,-45.0,0.0,0.0,0.0
19:43:31.234000,7.0,81.0,-296.0,-998.0,-289.0,-45.0,0.0,0.0,0.0
19:43:31.240000,10.0,72.0,-328.0,-983.0,-298.0,-45.0,0.0,0.0,0.0
19:43:31.244000,31.0,67.0,-330.0,-983.0,-298.0,-45.0,0.0,0.0,0.0
19:43:31.249000,46.0,70.0,-237.0,-883.0,-289.0,-55.0,0.0,0.0,0.0
19:43:31.254000,62.0,65.0,-114.0,-883.0,-289.0,-55.0,0.0,0.0,0.0
19:43:31.258000,67.0,58.0,-34.0,-922.0,-261.0,-85.0,0.0,0.0,0.0
19:43:31.263000,56.0,48.0,-43.0,-922.0,-261.0,-85.0,0.0,0.0,0.0
19:43:31.268000,56.0,47.0,-157.0,-1031.0,-178.0,-106.0,0.0,0.0,0.0
19:43:31.272000,72.0,39.0,-282.0,-1031.0,-178.0,-106.0,0.0,0.0,0.0
19:43:31.277000,95.0,24.0,-299.0,-945.0,-183.0,-108.0,0.0,0.0,0.0
19:43:31.282000,112.0,9.0,-287.0,-945.0,-183.0,-108.0,0.0,0.0,0.0
19:43:31.287000,124.0,13.0,-294.0,-945.0,-183.0,-108.0,0.0,0.0,0.0
19:43:31.291000,124.0,11.0,-310.0,-839.0,-247.0,-102.0,0.0,0.0,0.0
19:43:31.296000,91.0,5.0,-319.0,-839.0,-247.0,-102.0,0.0,0.0,0.0
19:43:31.301000,58.0,3.0,-264.0,-849.0,-269.0,-92.0,0.0,0.0,0.0
19:43:31.305000,38.0,9.0,-219.0,-849.0,-269.0,-92.0,0.0,0.0,0.0
19:43:31.310000,38.0,18.0,-247.0,-966.0,-301.0,-101.0,0.0,0.0,0.0
19:43:31.315000,25.0,24.0,-295.0,-966.0,-301.0,-101.0,0.0,0.0,0.0
19:43:31.319000,33.0,26.0,-233.0,-1019.0,-257.0,-115.0,0.0,0.0,0.0
19:43:31.324000,33.0,26.0,-233.0,-1019.0,-257.0,-115.0,0.0,0.0,0.0
19:43:31.329000,25.0,25.0,-156.0,-980.0,-211.0,-104.0,0.0,0.0,0.0
19:43:31.334000,25.0,27.0,-189.0,-980.0,-211.0,-104.0,0.0,0.0,0.0
19:43:31.338000,37.0,30.0,-286.0,-982.0,-198.0,-102.0,0.0,0.0,0.0
19:43:31.343000,43.0,35.0,-325.0,-982.0,-198.0,-102.0,0.0,0.0,0.0
19:43:31.348000,39.0,37.0,-309.0,-959.0,-186.0,-101.0,0.0,0.0,0.0
19:43:31.352000,39.0,37.0,-287.0,-959.0,-186.0,-101.0,0.0,0.0,0.0
19:43:31.357000,28.0,44.0,-269.0,-945.0,-198.0,-97.0,0.0,0.0,0.0
19:43:31.362000,21.0,50.0,-272.0,-945.0,-198.0,-97.0,0.0,0.0,0.0
19:43:31.366000,23.0,51.0,-296.0,-972.0,-193.0,-96.0,0.0,0.0,0.0
19:43:31.371000,24.0,52.0,-307.0,-972.0,-193.0,-96.0,0.0,0.0,0.0
19:43:31.376000,23.0,53.0,-310.0,-970.0,-146.0,-92.0,0.0,0.0,0.0
19:43:31.381000,14.0,58.0,-298.0,-970.0,-146.0,-92.0,0.0,0.0,0.0
19:43:31.385000,4.0,63.0,-275.0,-970.0,-146.0,-92.0,0.0,0.0,0.0
19:43:31.390000,-7.0,74.0,-259.0,-992.0,-134.0,-81.0,0.0,0.0,0.0
19:43:31.395000,-11.0,80.0,-245.0,-992.0,-134.0,-81.0,0.0,0.0,0.0
19:43:31.399000,-8.0,85.0,-232.0,-1046.0,-167.0,-72.0,0.0,0.0,0.0
19:43:31.404000,-3.0,95.0,-221.0,-1046.0,-167.0,-72.0,0.0,0.0,0.0
19:43:31.409000,4.0,104.0,-228.0,-1042.0,-189.0,-67.0,0.0,0.0,0.0
19:43:31.413000,10.0,113.0,-257.0,-1042.0,-189.0,-67.0,0.0,0.0,0.0
19:43:31.418000,15.0,122.0,-287.0,-1022.0,-176.0,-62.0,0.0,0.0,0.0
19:43:31.423000,14.0,131.0,-267.0,-1022.0,-176.0,-62.0,0.0,0.0,0.0
19:43:31.428000,22.0,136.0,-251.0,-1003.0,-170.0,-54.0,0.0,0.0,0.0
19:43:31.432000,22.0,136.0,-251.0,-1003.0,-170.0,-54.0,0.0,0.0,0.0
19:43:31.437000,31.0,135.0,-284.0,-998.0,-199.0,-50.0,0.0,0.0,0.0
19:43:31.442000,45.0,133.0,-324.0,-998.0,-199.0,-50.0,0.0,0.0,0.0
19:43:31.446000,62.0,135.0,-326.0,-991.0,-208.0,-56.0,0.0,0.0,0.0
19:43:31.451000,77.0,134.0,-291.0,-991.0,-208.0,-56.0,0.0,0.0,0.0
19:43:31.456000,83.0,131.0,-262.0,-977.0,-172.0,-65.0,0.0,0.0,0.0
19:43:31.460000,88.0,135.0,-273.0,-977.0,-172.0,-65.0,0.0,0.0,0.0
19:43:31.465000,84.0,136.0,-287.0,-1017.0,-114.0,-69.0,0.0,0.0,0.0
19:43:31.470000,70.0,138.0,-277.0,-1017.0,-114.0,-69.0,0.0,0.0,0.0
19:43:31.475000,63.0,142.0,-256.0,-1051.0,-107.0,-72.0,0.0,0.0,0.0
19:43:31.479000,52.0,146.0,-256.0,-1051.0,-107.0,-72.0,0.0,0.0,0.0
19:43:31.484000,41.0,157.0,-297.0,-1066.0,-96.0,-74.0,0.0,0.0,0.0
19:43:31.489000,27.0,168.0,-352.0,-1066.0,-96.0,-74.0,0.0,0.0,0.0
19:43:31.493000,11.0,175.0,-384.0,-1066.0,-96.0,-74.0,0.0,0.0,0.0
19:43:31.498000,1.0,182.0,-392.0,-1067.0,-95.0,-66.0,0.0,0.0,0.0
19:43:31.503000,2.0,188.0,-384.0,-1067.0,-95.0,-66.0,0.0,0.0,0.0
19:43:31.507000,2.0,194.0,-385.0,-1069.0,-164.0,-61.0,0.0,0.0,0.0
19:43:31.512000,2.0,200.0,-403.0,-1069.0,-164.0,-61.0,0.0,0.0,0.0
19:43:31.516000,16.0,196.0,-413.0,-1078.0,-228.0,-68.0,0.0,0.0,0.0
19:43:31.522000,23.0,188.0,-431.0,-1078.0,-228.0,-68.0,0.0,0.0,0.0
19:43:31.526000,34.0,176.0,-462.0,-1062.0,-233.0,-80.0,0.0,0.0,0.0
19:43:31.531000,49.0,167.0,-490.0,-1062.0,-233.0,-80.0,0.0,0.0,0.0
19:43:31.536000,72.0,154.0,-505.0,-995.0,-216.0,-96.0,0.0,0.0,0.0
19:43:31.540000,72.0,154.0,-505.0,-995.0,-216.0,-96.0,0.0,0.0,0.0
19:43:31.545000,93.0,142.0,-504.0,-909.0,-190.0,-108.0,0.0,0.0,0.0
19:43:31.550000,108.0,126.0,-525.0,-909.0,-190.0,-108.0,0.0,0.0,0.0
19:43:31.554000,123.0,112.0,-573.0,-883.0,-137.0,-106.0,0.0,0.0,0.0
19:43:31.559000,140.0,103.0,-604.0,-883.0,-137.0,-106.0,0.0,0.0,0.0
19:43:31.564000,149.0,101.0,-615.0,-909.0,-98.0,-105.0,0.0,0.0,0.0
19:43:31.569000,154.0,100.0,-610.0,-909.0,-98.0,-105.0,0.0,0.0,0.0
19:43:31.573000,154.0,98.0,-607.0,-946.0,-61.0,-107.0,0.0,0.0,0.0
19:43:31.578000,140.0,93.0,-618.0,-946.0,-61.0,-107.0,0.0,0.0,0.0
19:43:31.583000,123.0,95.0,-602.0,-954.0,-23.0,-110.0,0.0,0.0,0.0
19:43:31.587000,123.0,95.0,-580.0,-954.0,-23.0,-110.0,0.0,0.0,0.0
19:43:31.592000,115.0,96.0,-569.0,-946.0,6.0,-114.0,0.0,0.0,0.0
