hh:mm:ss.ms,gyroX[mdps],gyroY[mdps],gyroZ[mdps],accX[mg],accY[mg],accZ[mg],magX[mG],magY[mG],magZ[mG]
19:34:43.869000,177.0,948.0,-1038.0,-1205.0,-293.0,181.0,592.0,-291.0,-87.0
19:34:43.874000,343.0,1098.0,-1033.0,-1205.0,-308.0,181.0,597.0,-270.0,-75.0
19:34:43.879000,506.0,1233.0,-1002.0,-1239.0,-308.0,173.0,597.0,-270.0,-75.0
19:34:43.883000,673.0,1362.0,-994.0,-1262.0,-314.0,171.0,592.0,-276.0,-67.0
19:34:43.888000,845.0,1481.0,-1026.0,-1259.0,-286.0,167.0,592.0,-276.0,-67.0
19:34:43.892000,1011.0,1589.0,-1064.0,-1259.0,-286.0,167.0,592.0,-276.0,-67.0
19:34:43.897000,1171.0,1686.0,-1082.0,-1221.0,-267.0,175.0,604.0,-262.0,-70.0
19:34:43.902000,1330.0,1771.0,-1096.0,-1169.0,-245.0,189.0,604.0,-262.0,-70.0
19:34:43.907000,1477.0,1840.0,-1116.0,-1114.0,-218.0,208.0,603.0,-267.0,-61.0
19:34:43.911000,1614.0,1893.0,-1145.0,-1050.0,-181.0,233.0,603.0,-267.0,-61.0
19:34:43.916000,1614.0,1893.0,-1145.0,-980.0,-129.0,261.0,603.0,-267.0,-61.0
19:34:43.921000,1738.0,1932.0,-1174.0,-910.0,-64.0,291.0,604.0,-270.0,-43.0
19:34:43.926000,1843.0,1957.0,-1193.0,-843.0,10.0,318.0,604.0,-270.0,-43.0
19:34:43.930000,1930.0,1973.0,-1197.0,-790.0,96.0,340.0,618.0,-265.0,-33.0
19:34:43.935000,1995.0,1982.0,-1197.0,-748.0,178.0,358.0,618.0,-265.0,-33.0
19:34:43.939000,2042.0,1981.0,-1192.0,-707.0,240.0,371.0,618.0,-265.0,-33.0
19:34:43.944000,2072.0,1973.0,-1181.0,-673.0,282.0,381.0,628.0,-253.0,-27.0
19:34:43.949000,2087.0,1959.0,-1167.0,-645.0,314.0,396.0,628.0,-253.0,-27.0
19:34:43.954000,2088.0,1934.0,-1158.0,-610.0,344.0,403.0,625.0,-256.0,-15.0
19:34:43.958000,2074.0,1904.0,-1158.0,-567.0,390.0,391.0,625.0,-256.0,-15.0
19:34:43.963000,2047.0,1873.0,-1166.0,-544.0,475.0,381.0,625.0,-256.0,-15.0
19:34:43.968000,1999.0,1839.0,-1179.0,-539.0,574.0,381.0,634.0,-252.0,-7.0
19:34:43.972000,1933.0,1789.0,-1204.0,-517.0,644.0,375.0,634.0,-252.0,-7.0
19:34:43.977000,1859.0,1731.0,-1246.0,-473.0,683.0,355.0,624.0,-256.0,4.0
19:34:43.982000,1781.0,1669.0,-1301.0,-439.0,726.0,335.0,624.0,-256.0,4.0
19:34:43.987000,1696.0,1600.0,-1360.0,-439.0,726.0,335.0,633.0,-261.0,0.0
19:34:43.991000,1601.0,1524.0,-1427.0,-430.0,780.0,323.0,633.0,-261.0,0.0
19:34:43.995000,1502.0,1442.0,-1495.0,-425.0,819.0,308.0,633.0,-261.0,0.0
19:34:44.001000,1399.0,1359.0,-1562.0,-411.0,835.0,291.0,642.0,-247.0,25.0
19:34:44.005000,1290.0,1277.0,-1626.0,-394.0,852.0,269.0,642.0,-247.0,25.0
19:34:44.010000,1177.0,1197.0,-1682.0,-381.0,880.0,242.0,637.0,-241.0,28.0
19:34:44.015000,1061.0,1116.0,-1731.0,-378.0,918.0,213.0,637.0,-241.0,28.0
19:34:44.019000,1061.0,1116.0,-1731.0,-384.0,954.0,182.0,637.0,-241.0,28.0
19:34:44.024000,840.0,963.0,-1811.0,-398.0,987.0,147.0,636.0,-235.0,33.0
19:34:44.029000,741.0,891.0,-1839.0,-420.0,1015.0,111.0,636.0,-235.0,33.0
19:34:44.034000,741.0,891.0,-1839.0,-451.0,1042.0,77.0,625.0,-226.0,34.0
19:34:44.038000,651.0,821.0,-1854.0,-485.0,1075.0,45.0,625.0,-226.0,34.0
19:34:44.042000,570.0,754.0,-1864.0,-524.0,1113.0,10.0,625.0,-226.0,34.0
19:34:44.048000,496.0,695.0,-1858.0,-567.0,1154.0,-25.0,630.0,-204.0,45.0
19:34:44.052000,433.0,641.0,-1837.0,-611.0,1203.0,-63.0,630.0,-204.0,45.0
19:34:44.057000,377.0,594.0,-1806.0,-651.0,1256.0,-99.0,622.0,-208.0,30.0
19:34:44.062000,322.0,553.0,-1758.0,-689.0,1315.0,-132.0,622.0,-208.0,30.0
19:34:44.066000,266.0,514.0,-1694.0,-723.0,1378.0,-163.0,622.0,-208.0,30.0
19:34:44.071000,207.0,480.0,-1613.0,-754.0,1442.0,-193.0,615.0,-184.0,54.0
19:34:44.076000,145.0,452.0,-1525.0,-775.0,1496.0,-211.0,615.0,-184.0,54.0
19:34:44.081000,74.0,420.0,-1416.0,-775.0,1548.0,-230.0,604.0,-172.0,51.0
19:34:44.085000,-20.0,396.0,-1279.0,-784.0,1548.0,-230.0,604.0,-172.0,51.0
19:34:44.089000,-133.0,387.0,-1113.0,-779.0,1634.0,-291.0,604.0,-172.0,51.0
19:34:44.095000,-222.0,392.0,-947.0,-779.0,1634.0,-291.0,594.0,-163.0,49.0
19:34:44.099000,-309.0,398.0,-822.0,-786.0,1645.0,-323.0,594.0,-163.0,49.0
19:34:44.104000,-408.0,409.0,-695.0,-777.0,1636.0,-339.0,583.0,-157.0,63.0
19:34:44.109000,-506.0,415.0,-524.0,-667.0,1508.0,-360.0,583.0,-157.0,63.0
19:34:44.113000,-580.0,416.0,-343.0,-667.0,1508.0,-360.0,583.0,-157.0,63.0
19:34:44.118000,-632.0,415.0,-223.0,-629.0,1439.0,-372.0,595.0,-147.0,66.0
19:34:44.123000,-681.0,406.0,-131.0,-588.0,1369.0,-370.0,595.0,-147.0,66.0
19:34:44.128000,-712.0,393.0,-7.0,-489.0,1265.0,-371.0,594.0,-154.0,67.0
19:34:44.132000,-713.0,375.0,112.0,-391.0,1150.0,-383.0,594.0,-154.0,67.0
19:34:44.136000,-713.0,375.0,112.0,-352.0,1065.0,-395.0,594.0,-154.0,67.0
19:34:44.142000,-686.0,354.0,196.0,-353.0,1025.0,-401.0,586.0,-144.0,81.0
19:34:44.146000,-657.0,334.0,253.0,-374.0,1011.0,-400.0,586.0,-144.0,81.0
19:34:44.151000,-625.0,312.0,294.0,-382.0,988.0,-397.0,597.0,-139.0,78.0
19:34:44.156000,-590.0,287.0,338.0,-370.0,945.0,-390.0,597.0,-139.0,78.0
19:34:44.161000,-553.0,258.0,397.0,-357.0,889.0,-383.0,588.0,-142.0,79.0
19:34:44.165000,-520.0,231.0,473.0,-361.0,839.0,-381.0,588.0,-142.0,79.0
19:34:44.169000,-490.0,208.0,550.0,-393.0,812.0,-382.0,588.0,-142.0,79.0
19:34:44.175000,-457.0,188.0,611.0,-438.0,801.0,-384.0,601.0,-142.0,90.0
19:34:44.179000,-428.0,173.0,646.0,-478.0,797.0,-388.0,601.0,-142.0,90.0
19:34:44.184000,-404.0,161.0,674.0,-518.0,800.0,-396.0,600.0,-153.0,91.0
19:34:44.189000,-383.0,152.0,698.0,-563.0,817.0,-402.0,600.0,-153.0,91.0
19:34:44.193000,-372.0,149.0,711.0,-607.0,837.0,-409.0,600.0,-153.0,91.0
19:34:44.198000,-369.0,149.0,727.0,-641.0,848.0,-416.0,594.0,-147.0,106.0
19:34:44.203000,-371.0,151.0,743.0,-641.0,848.0,-416.0,594.0,-147.0,106.0
19:34:44.208000,-378.0,161.0,752.0,-662.0,851.0,-424.0,594.0,-147.0,106.0
19:34:44.212000,-385.0,173.0,756.0,-675.0,851.0,-434.0,594.0,-147.0,106.0
19:34:44.216000,-392.0,186.0,756.0,-681.0,843.0,-443.0,594.0,-147.0,106.0
19:34:44.222000,-399.0,205.0,756.0,-681.0,823.0,-452.0,612.0,-160.0,102.0
19:34:44.226000,-402.0,224.0,750.0,-681.0,792.0,-463.0,612.0,-160.0,102.0
19:34:44.231000,-400.0,242.0,742.0,-682.0,755.0,-472.0,619.0,-160.0,105.0
19:34:44.236000,-390.0,256.0,734.0,-680.0,717.0,-480.0,619.0,-160.0,105.0
19:34:44.240000,-390.0,256.0,734.0,-673.0,682.0,-485.0,619.0,-160.0,105.0
19:34:44.245000,-359.0,275.0,712.0,-668.0,655.0,-486.0,612.0,-159.0,103.0
19:34:44.250000,-359.0,275.0,712.0,-661.0,631.0,-482.0,612.0,-159.0,103.0
19:34:44.255000,-340.0,280.0,695.0,-649.0,605.0,-479.0,624.0,-160.0,112.0
19:34:44.259000,-322.0,284.0,680.0,-631.0,574.0,-475.0,624.0,-160.0,112.0
19:34:44.263000,-305.0,287.0,669.0,-606.0,537.0,-469.0,624.0,-160.0,112.0
19:34:44.269000,-285.0,288.0,661.0,-579.0,500.0,-466.0,621.0,-157.0,117.0
19:34:44.273000,-267.0,287.0,659.0,-550.0,459.0,-465.0,621.0,-157.0,117.0
19:34:44.278000,-251.0,286.0,674.0,-521.0,407.0,-467.0,624.0,-168.0,109.0
19:34:44.283000,-238.0,287.0,698.0,-494.0,341.0,-469.0,624.0,-168.0,109.0
19:34:44.290000,-200.0,288.0,777.0,-430.0,211.0,-484.0,630.0,-169.0,115.0
19:34:44.292000,-200.0,288.0,777.0,-430.0,211.0,-484.0,630.0,-169.0,115.0
19:34:44.296000,-178.0,289.0,805.0,-398.0,167.0,-497.0,630.0,-169.0,115.0
19:34:44.302000,-154.0,294.0,821.0,-374.0,132.0,-510.0,634.0,-180.0,115.0
19:34:44.306000,-133.0,303.0,826.0,-363.0,118.0,-520.0,634.0,-180.0,115.0
19:34:44.311000,-116.0,315.0,812.0,-363.0,118.0,-520.0,639.0,-177.0,132.0
19:34:44.315000,-106.0,326.0,774.0,-364.0,132.0,-522.0,639.0,-177.0,132.0
19:34:44.320000,-103.0,336.0,715.0,-365.0,170.0,-515.0,639.0,-177.0,132.0
19:34:44.325000,-110.0,343.0,639.0,-358.0,220.0,-504.0,633.0,-187.0,124.0
19:34:44.330000,-126.0,349.0,556.0,-325.0,304.0,-482.0,633.0,-187.0,124.0
19:34:44.334000,-149.0,354.0,470.0,-325.0,304.0,-482.0,639.0,-189.0,144.0
19:34:44.339000,-172.0,359.0,386.0,-301.0,320.0,-473.0,639.0,-189.0,144.0
19:34:44.343000,-192.0,361.0,305.0,-283.0,319.0,-468.0,639.0,-189.0,144.0
19:34:44.349000,-206.0,361.0,231.0,-276.0,306.0,-463.0,652.0,-193.0,130.0
19:34:44.353000,-208.0,360.0,170.0,-276.0,279.0,-459.0,652.0,-193.0,130.0
19:34:44.358000,-193.0,361.0,119.0,-281.0,231.0,-462.0,649.0,-189.0,145.0
19:34:44.363000,-193.0,361.0,119.0,-286.0,160.0,-467.0,649.0,-189.0,145.0
19:34:44.367000,-160.0,366.0,86.0,-295.0,81.0,-470.0,649.0,-189.0,145.0
19:34:44.372000,-107.0,374.0,64.0,-312.0,25.0,-469.0,643.0,-186.0,136.0
19:34:44.377000,-43.0,381.0,44.0,-336.0,8.0,-463.0,643.0,-186.0,136.0
19:34:44.381000,28.0,389.0,11.0,-357.0,23.0,-452.0,628.0,-187.0,154.0
19:34:44.386000,99.0,396.0,-35.0,-363.0,49.0,-435.0,628.0,-187.0,154.0
19:34:44.390000,168.0,405.0,-93.0,-356.0,76.0,-415.0,628.0,-187.0,154.0
19:34:44.396000,231.0,413.0,-157.0,-345.0,110.0,-394.0,651.0,-187.0,147.0
19:34:44.400000,282.0,423.0,-224.0,-339.0,158.0,-372.0,651.0,-187.0,147.0
19:34:44.405000,319.0,431.0,-294.0,-337.0,212.0,-350.0,642.0,-184.0,154.0
19:34:44.410000,345.0,437.0,-361.0,-333.0,259.0,-326.0,642.0,-184.0,154.0
19:34:44.414000,363.0,438.0,-424.0,-319.0,285.0,-301.0,642.0,-184.0,154.0
19:34:44.419000,376.0,435.0,-476.0,-292.0,279.0,-278.0,648.0,-177.0,145.0
19:34:44.424000,389.0,429.0,-508.0,-292.0,279.0,-278.0,648.0,-177.0,145.0
19:34:44.428000,406.0,420.0,-527.0,-255.0,249.0,-260.0,616.0,-183.0,165.0
19:34:44.433000,428.0,412.0,-538.0,-225.0,221.0,-248.0,616.0,-183.0,165.0
19:34:44.437000,453.0,401.0,-548.0,-212.0,214.0,-240.0,616.0,-183.0,165.0
19:34:44.443000,478.0,391.0,-556.0,-213.0,223.0,-236.0,637.0,-175.0,151.0
19:34:44.447000,502.0,386.0,-560.0,-220.0,231.0,-236.0,637.0,-175.0,151.0
19:34:44.452000,523.0,387.0,-560.0,-231.0,234.0,-238.0,633.0,-159.0,157.0
19:34:44.457000,542.0,394.0,-560.0,-240.0,234.0,-244.0,633.0,-159.0,157.0
19:34:44.461000,542.0,394.0,-560.0,-247.0,242.0,-247.0,633.0,-159.0,157.0
19:34:44.466000,576.0,410.0,-594.0,-251.0,266.0,-244.0,621.0,-171.0,148.0
19:34:44.471000,576.0,410.0,-594.0,-246.0,297.0,-236.0,621.0,-171.0,148.0
19:34:44.475000,588.0,417.0,-634.0,-226.0,311.0,-225.0,631.0,-165.0,154.0
19:34:44.480000,604.0,422.0,-681.0,-194.0,299.0,-213.0,631.0,-165.0,154.0
19:34:44.484000,625.0,427.0,-733.0,-163.0,281.0,-198.0,631.0,-165.0,154.0
19:34:44.490000,652.0,430.0,-790.0,-143.0,278.0,-182.0,621.0,-160.0,145.0
19:34:44.494000,683.0,434.0,-851.0,-135.0,294.0,-165.0,621.0,-160.0,145.0
19:34:44.499000,712.0,432.0,-914.0,-135.0,322.0,-150.0,621.0,-156.0,153.0
19:34:44.504000,740.0,430.0,-970.0,-138.0,348.0,-142.0,621.0,-156.0,153.0
19:34:44.508000,764.0,429.0,-1014.0,-147.0,372.0,-140.0,621.0,-156.0,153.0
19:34:44.513000,781.0,432.0,-1040.0,-167.0,404.0,-142.0,592.0,-147.0,168.0
19:34:44.518000,788.0,436.0,-1046.0,-201.0,452.0,-143.0,592.0,-147.0,168.0
19:34:44.522000,785.0,442.0,-1038.0,-201.0,452.0,-143.0,606.0,-139.0,147.0
19:34:44.527000,770.0,445.0,-1017.0,-262.0,570.0,-143.0,606.0,-139.0,147.0
19:34:44.531000,746.0,449.0,-987.0,-262.0,570.0,-143.0,606.0,-139.0,147.0
19:34:44.537000,714.0,451.0,-945.0,-266.0,604.0,-148.0,592.0,-136.0,145.0
19:34:44.541000,679.0,452.0,-896.0,-259.0,621.0,-154.0,592.0,-136.0,145.0
19:34:44.546000,642.0,450.0,-843.0,-247.0,631.0,-157.0,597.0,-138.0,145.0
19:34:44.551000,606.0,445.0,-799.0,-239.0,639.0,-159.0,597.0,-138.0,145.0
19:34:44.558000,569.0,437.0,-768.0,-219.0,658.0,-159.0,603.0,-133.0,141.0
19:34:44.560000,535.0,426.0,-754.0,-219.0,658.0,-159.0,603.0,-133.0,141.0
19:34:44.564000,535.0,426.0,-754.0,-200.0,660.0,-157.0,603.0,-133.0,141.0
19:34:44.569000,490.0,387.0,-781.0,-174.0,655.0,-153.0,589.0,-120.0,148.0
19:34:44.574000,480.0,366.0,-818.0,-148.0,641.0,-147.0,589.0,-120.0,148.0
19:34:44.579000,480.0,366.0,-818.0,-125.0,624.0,-142.0,577.0,-120.0,141.0
19:34:44.584000,477.0,350.0,-864.0,-106.0,616.0,-139.0,577.0,-120.0,141.0
19:34:44.588000,479.0,337.0,-914.0,-104.0,640.0,-131.0,577.0,-120.0,141.0
19:34:44.593000,476.0,330.0,-972.0,-117.0,699.0,-120.0,573.0,-120.0,142.0
19:34:44.598000,469.0,326.0,-1029.0,-126.0,760.0,-105.0,573.0,-120.0,142.0
19:34:44.602000,460.0,329.0,-1073.0,-136.0,809.0,-83.0,558.0,-129.0,138.0
19:34:44.607000,441.0,338.0,-1113.0,-137.0,836.0,-66.0,558.0,-129.0,138.0
19:34:44.611000,422.0,355.0,-1139.0,-124.0,826.0,-66.0,558.0,-129.0,138.0
19:34:44.616000,406.0,376.0,-1134.0,-130.0,820.0,-76.0,567.0,-114.0,136.0
19:34:44.621000,389.0,397.0,-1118.0,-164.0,854.0,-84.0,567.0,-114.0,136.0
19:34:44.626000,362.0,420.0,-1091.0,-208.0,914.0,-83.0,558.0,-109.0,139.0
19:34:44.631000,324.0,434.0,-1055.0,-227.0,979.0,-86.0,558.0,-109.0,139.0
19:34:44.635000,274.0,446.0,-1006.0,-213.0,1025.0,-103.0,558.0,-109.0,139.0
19:34:44.640000,240.0,454.0,-948.0,-213.0,1024.0,-119.0,549.0,-97.0,132.0
19:34:44.645000,212.0,455.0,-903.0,-115.0,1027.0,-124.0,549.0,-97.0,132.0
19:34:44.649000,175.0,448.0,-912.0,-115.0,1027.0,-124.0,546.0,-105.0,129.0
19:34:44.654000,127.0,433.0,-874.0,-31.0,1100.0,-130.0,546.0,-105.0,129.0
19:34:44.658000,125.0,429.0,-721.0,81.0,1153.0,-152.0,546.0,-105.0,129.0
19:34:44.663000,86.0,417.0,-695.0,160.0,1146.0,-154.0,532.0,-102.0,135.0
19:34:44.668000,23.0,397.0,-849.0,243.0,1200.0,-135.0,532.0,-102.0,135.0
19:34:44.673000,-35.0,380.0,-711.0,440.0,1235.0,-146.0,531.0,-85.0,133.0
19:34:44.678000,-72.0,378.0,-511.0,528.0,1221.0,-198.0,531.0,-85.0,133.0
19:34:44.682000,-72.0,378.0,-511.0,341.0,1244.0,-247.0,531.0,-85.0,133.0
19:34:44.687000,-115.0,377.0,-700.0,96.0,1200.0,-259.0,520.0,-84.0,139.0
19:34:44.692000,-115.0,372.0,-592.0,-38.0,1063.0,-253.0,520.0,-84.0,139.0
19:34:44.696000,-135.0,365.0,-580.0,-81.0,953.0,-263.0,522.0,-82.0,148.0
19:34:44.701000,-105.0,368.0,-609.0,-106.0,931.0,-287.0,522.0,-82.0,148.0
19:34:44.705000,-62.0,387.0,-771.0,-92.0,899.0,-305.0,522.0,-82.0,148.0
19:34:44.710000,-14.0,410.0,-924.0,2.0,833.0,-314.0,520.0,-81.0,145.0
19:34:44.715000,39.0,413.0,-938.0,97.0,826.0,-317.0,520.0,-81.0,145.0
19:34:44.720000,94.0,403.0,-870.0,110.0,935.0,-319.0,514.0,-82.0,147.0
19:34:44.725000,128.0,392.0,-851.0,71.0,1100.0,-319.0,514.0,-82.0,147.0
19:34:44.729000,144.0,377.0,-896.0,45.0,1218.0,-328.0,514.0,-82.0,147.0
19:34:44.734000,142.0,364.0,-954.0,44.0,1245.0,-343.0,501.0,-82.0,156.0
19:34:44.739000,136.0,354.0,-990.0,39.0,1205.0,-346.0,501.0,-82.0,156.0
19:34:44.743000,133.0,338.0,-1001.0,39.0,1205.0,-346.0,499.0,-78.0,142.0
19:34:44.748000,147.0,321.0,-992.0,61.0,1037.0,-346.0,499.0,-78.0,142.0
19:34:44.752000,182.0,298.0,-956.0,61.0,1037.0,-346.0,499.0,-78.0,142.0
19:34:44.757000,221.0,281.0,-914.0,99.0,991.0,-354.0,499.0,-72.0,145.0
19:34:44.762000,243.0,262.0,-896.0,93.0,1047.0,-360.0,499.0,-72.0,145.0
19:34:44.767000,248.0,249.0,-897.0,46.0,1190.0,-365.0,490.0,-70.0,150.0
19:34:44.772000,233.0,238.0,-904.0,-18.0,1343.0,-377.0,490.0,-70.0,150.0
19:34:44.776000,208.0,234.0,-918.0,-96.0,1468.0,-397.0,490.0,-70.0,150.0
19:34:44.781000,169.0,238.0,-928.0,-175.0,1571.0,-429.0,483.0,-70.0,145.0
19:34:44.786000,135.0,240.0,-928.0,-285.0,1658.0,-454.0,483.0,-70.0,145.0
19:34:44.790000,107.0,231.0,-902.0,-285.0,1658.0,-454.0,472.0,-76.0,159.0
19:34:44.795000,93.0,206.0,-826.0,-260.0,1623.0,-457.0,472.0,-76.0,159.0
19:34:44.799000,93.0,206.0,-826.0,-154.0,1558.0,-463.0,472.0,-76.0,159.0
19:34:44.804000,71.0,184.0,-723.0,-87.0,1506.0,-484.0,462.0,-67.0,139.0
19:34:44.809000,84.0,170.0,-679.0,-120.0,1480.0,-513.0,462.0,-67.0,139.0
19:34:44.814000,137.0,128.0,-670.0,-154.0,1441.0,-503.0,466.0,-66.0,139.0
19:34:44.819000,222.0,63.0,-652.0,-179.0,1423.0,-492.0,466.0,-66.0,139.0
19:34:44.823000,279.0,57.0,-636.0,-178.0,1459.0,-513.0,466.0,-66.0,139.0
19:34:44.828000,361.0,70.0,-572.0,-107.0,1553.0,-461.0,460.0,-60.0,148.0
19:34:44.833000,317.0,45.0,-481.0,-128.0,1674.0,-426.0,460.0,-60.0,148.0
19:34:44.837000,366.0,-2.0,-345.0,-231.0,1645.0,-374.0,456.0,-60.0,141.0
19:34:44.842000,307.0,-40.0,-149.0,-359.0,1541.0,-317.0,456.0,-60.0,141.0
19:34:44.846000,275.0,-56.0,-60.0,-466.0,1548.0,-333.0,456.0,-60.0,141.0
19:34:44.851000,294.0,-79.0,-58.0,-435.0,1614.0,-336.0,462.0,-61.0,135.0
19:34:44.856000,279.0,-53.0,44.0,-341.0,1630.0,-320.0,462.0,-61.0,135.0
19:34:44.861000,231.0,-44.0,282.0,-341.0,1630.0,-320.0,463.0,-60.0,139.0
19:34:44.866000,181.0,-17.0,450.0,-338.0,1634.0,-299.0,463.0,-60.0,139.0
19:34:44.870000,156.0,29.0,545.0,-557.0,1732.0,-394.0,466.0,-58.0,130.0
19:34:44.875000,175.0,109.0,606.0,-557.0,1732.0,-394.0,466.0,-58.0,130.0
19:34:44.879000,137.0,149.0,669.0,-713.0,1738.0,-378.0,466.0,-58.0,130.0
19:34:44.884000,125.0,194.0,742.0,-928.0,1604.0,-308.0,451.0,-61.0,144.0
19:34:44.889000,105.0,254.0,807.0,-965.0,1461.0,-355.0,451.0,-61.0,144.0
19:34:44.894000,163.0,325.0,837.0,-981.0,1433.0,-434.0,481.0,-67.0,129.0
19:34:44.898000,164.0,240.0,848.0,-1077.0,1429.0,-378.0,481.0,-67.0,129.0
19:34:44.903000,164.0,240.0,848.0,-1181.0,1521.0,-332.0,481.0,-67.0,129.0
19:34:44.908000,154.0,144.0,756.0,-1292.0,1524.0,-319.0,486.0,-75.0,130.0
19:34:44.913000,170.0,84.0,692.0,-1382.0,1415.0,-315.0,486.0,-75.0,130.0
19:34:44.917000,158.0,49.0,632.0,-1286.0,1383.0,-454.0,477.0,-73.0,133.0
19:34:44.922000,168.0,58.0,651.0,-1220.0,1442.0,-476.0,477.0,-73.0,133.0
19:34:44.926000,136.0,17.0,590.0,-1446.0,1610.0,-457.0,477.0,-73.0,133.0
19:34:44.931000,30.0,30.0,325.0,-1498.0,1526.0,-514.0,483.0,-79.0,136.0
19:34:44.936000,30.0,30.0,250.0,-1250.0,1234.0,-610.0,483.0,-79.0,136.0
19:34:44.941000,80.0,-9.0,427.0,-1196.0,1055.0,-687.0,480.0,-81.0,129.0
19:34:44.945000,141.0,5.0,590.0,-1271.0,1025.0,-782.0,480.0,-81.0,129.0
19:34:44.950000,247.0,86.0,964.0,-1276.0,1090.0,-776.0,480.0,-81.0,129.0
19:34:44.955000,226.0,33.0,1180.0,-1400.0,1193.0,-667.0,471.0,-66.0,133.0
19:34:44.960000,212.0,-26.0,969.0,-1336.0,1229.0,-687.0,471.0,-66.0,133.0
19:34:44.964000,168.0,-64.0,800.0,-1336.0,1229.0,-687.0,475.0,-90.0,132.0
19:34:44.969000,60.0,-146.0,699.0,-1149.0,1265.0,-626.0,475.0,-90.0,132.0
19:34:44.973000,147.0,-116.0,697.0,-1306.0,1267.0,-637.0,475.0,-90.0,132.0
19:34:44.978000,318.0,-41.0,732.0,-1517.0,1128.0,-743.0,490.0,-94.0,135.0
19:34:44.983000,288.0,-108.0,723.0,-1434.0,915.0,-551.0,490.0,-94.0,135.0
19:34:44.988000,461.0,-36.0,671.0,-1200.0,814.0,-500.0,501.0,-85.0,115.0
19:34:44.992000,569.0,39.0,669.0,-1080.0,741.0,-523.0,501.0,-85.0,115.0
19:34:44.997000,579.0,63.0,499.0,-1163.0,753.0,-328.0,501.0,-85.0,115.0
19:34:45.002000,588.0,133.0,325.0,-1172.0,877.0,-267.0,489.0,-99.0,108.0
19:34:45.007000,594.0,184.0,221.0,-1050.0,887.0,-217.0,489.0,-99.0,108.0
19:34:45.011000,574.0,224.0,-7.0,-962.0,932.0,-146.0,501.0,-94.0,112.0
19:34:45.015000,574.0,224.0,-7.0,-889.0,841.0,-73.0,501.0,-94.0,112.0
19:34:45.020000,506.0,229.0,-94.0,-770.0,679.0,-55.0,501.0,-94.0,112.0
19:34:45.025000,541.0,268.0,-132.0,-585.0,668.0,-62.0,501.0,-106.0,108.0
19:34:45.030000,548.0,298.0,-265.0,-517.0,691.0,36.0,501.0,-106.0,108.0
19:34:45.035000,523.0,300.0,-426.0,-501.0,644.0,68.0,492.0,-106.0,108.0
19:34:45.039000,499.0,354.0,-527.0,-382.0,606.0,41.0,492.0,-106.0,108.0
19:34:45.044000,522.0,385.0,-622.0,-327.0,706.0,49.0,492.0,-106.0,108.0
19:34:45.049000,492.0,438.0,-789.0,-372.0,825.0,39.0,496.0,-93.0,108.0
19:34:45.054000,457.0,511.0,-981.0,-310.0,801.0,10.0,496.0,-93.0,108.0
19:34:45.058000,398.0,596.0,-1038.0,-7.0,706.0,-7.0,484.0,-91.0,121.0
19:34:45.063000,378.0,628.0,-898.0,206.0,831.0,-65.0,484.0,-91.0,121.0
19:34:45.067000,302.0,709.0,-864.0,135.0,1234.0,-37.0,484.0,-91.0,121.0
19:34:45.072000,214.0,628.0,-977.0,7.0,1570.0,-1.0,478.0,-91.0,108.0
19:34:45.077000,75.0,606.0,-1074.0,-33.0,1708.0,-58.0,478.0,-91.0,108.0
19:34:45.082000,-49.0,578.0,-1091.0,-33.0,1708.0,-58.0,480.0,-82.0,99.0
19:34:45.086000,-100.0,557.0,-1151.0,-94.0,1771.0,-114.0,480.0,-82.0,99.0
19:34:45.091000,-186.0,595.0,-1171.0,-170.0,1716.0,-186.0,480.0,-82.0,99.0
19:34:45.096000,-308.0,573.0,-1011.0,-67.0,1535.0,-206.0,466.0,-84.0,109.0
19:34:45.101000,-436.0,492.0,-613.0,344.0,1248.0,-176.0,466.0,-84.0,109.0
19:34:45.105000,-432.0,419.0,-506.0,613.0,1148.0,-216.0,451.0,-75.0,111.0
19:34:45.110000,-429.0,364.0,-713.0,387.0,1268.0,-284.0,451.0,-75.0,111.0
19:34:45.114000,-429.0,364.0,-713.0,248.0,1207.0,-328.0,451.0,-75.0,111.0
19:34:45.119000,-331.0,272.0,-620.0,440.0,1048.0,-367.0,462.0,-67.0,115.0
19:34:45.124000,-288.0,225.0,-541.0,727.0,952.0,-386.0,462.0,-67.0,115.0
19:34:45.129000,-288.0,225.0,-541.0,909.0,898.0,-354.0,463.0,-61.0,126.0
19:34:45.133000,-296.0,128.0,-408.0,921.0,843.0,-338.0,463.0,-61.0,126.0
19:34:45.138000,-226.0,53.0,-253.0,695.0,888.0,-393.0,463.0,-61.0,126.0
19:34:45.143000,-105.0,28.0,-445.0,385.0,911.0,-397.0,450.0,-60.0,120.0
19:34:45.148000,-35.0,17.0,-602.0,325.0,799.0,-371.0,450.0,-60.0,120.0
19:34:45.152000,34.0,16.0,-520.0,375.0,735.0,-338.0,441.0,-64.0,118.0
19:34:45.157000,81.0,12.0,-283.0,367.0,765.0,-322.0,441.0,-64.0,118.0
19:34:45.161000,119.0,50.0,-112.0,313.0,940.0,-329.0,441.0,-64.0,118.0
19:34:45.166000,170.0,72.0,-248.0,307.0,1118.0,-281.0,436.0,-60.0,123.0
19:34:45.171000,151.0,44.0,-392.0,365.0,1091.0,-239.0,436.0,-60.0,123.0
19:34:45.176000,119.0,46.0,-239.0,365.0,1091.0,-239.0,444.0,-64.0,121.0
19:34:45.180000,98.0,78.0,-75.0,183.0,1051.0,-224.0,444.0,-64.0,121.0
19:34:45.184000,57.0,82.0,10.0,163.0,930.0,-206.0,444.0,-64.0,121.0
19:34:45.190000,37.0,93.0,89.0,322.0,824.0,-222.0,439.0,-49.0,117.0
19:34:45.195000,16.0,79.0,205.0,322.0,824.0,-222.0,439.0,-49.0,117.0
19:34:45.199000,13.0,76.0,218.0,484.0,804.0,-240.0,432.0,-58.0,114.0
19:34:45.204000,32.0,43.0,76.0,515.0,944.0,-250.0,432.0,-58.0,114.0
19:34:45.208000,-10.0,-18.0,17.0,494.0,1078.0,-224.0,432.0,-58.0,114.0
19:34:45.213000,-44.0,-51.0,123.0,414.0,1048.0,-230.0,441.0,-49.0,123.0
19:34:45.218000,-26.0,-39.0,115.0,216.0,980.0,-276.0,441.0,-49.0,123.0
19:34:45.223000,-53.0,-75.0,120.0,88.0,873.0,-263.0,442.0,-58.0,117.0
19:34:45.227000,-56.0,-70.0,114.0,63.0,739.0,-245.0,442.0,-58.0,117.0
19:34:45.231000,-56.0,-70.0,114.0,48.0,767.0,-263.0,442.0,-58.0,117.0
19:34:45.237000,-3.0,-63.0,-26.0,121.0,829.0,-245.0,436.0,-49.0,115.0
19:34:45.241000,14.0,-63.0,-74.0,193.0,869.0,-223.0,436.0,-49.0,115.0
19:34:45.246000,36.0,-71.0,-37.0,155.0,902.0,-208.0,421.0,-57.0,115.0
19:34:45.250000,-4.0,-66.0,-23.0,145.0,758.0,-201.0,421.0,-57.0,115.0
19:34:45.255000,-32.0,-68.0,96.0,165.0,630.0,-204.0,421.0,-57.0,115.0
19:34:45.260000,4.0,-84.0,132.0,105.0,729.0,-214.0,426.0,-55.0,109.0
19:34:45.265000,32.0,-79.0,-65.0,118.0,869.0,-203.0,426.0,-55.0,109.0
19:34:45.270000,23.0,-88.0,-238.0,158.0,898.0,-186.0,441.0,-57.0,115.0
19:34:45.274000,8.0,-92.0,-254.0,89.0,906.0,-192.0,441.0,-57.0,115.0
19:34:45.278000,1.0,-63.0,-254.0,67.0,950.0,-194.0,441.0,-57.0,115.0
19:34:45.284000,9.0,-53.0,-205.0,140.0,858.0,-168.0,433.0,-46.0,114.0
19:34:45.289000,-37.0,-60.0,5.0,139.0,726.0,-156.0,433.0,-46.0,114.0
19:34:45.293000,-35.0,-65.0,98.0,139.0,726.0,-156.0,430.0,-58.0,117.0
19:34:45.298000,-51.0,-60.0,-44.0,61.0,788.0,-155.0,430.0,-58.0,117.0
19:34:45.302000,-89.0,-49.0,-300.0,63.0,926.0,-138.0,430.0,-58.0,117.0
19:34:45.307000,-100.0,-47.0,-382.0,180.0,968.0,-137.0,427.0,-52.0,108.0
19:34:45.312000,-135.0,-43.0,-305.0,308.0,873.0,-137.0,427.0,-52.0,108.0
19:34:45.317000,-123.0,-58.0,-137.0,377.0,753.0,-146.0,423.0,-55.0,112.0
19:34:45.321000,-105.0,-81.0,-60.0,348.0,733.0,-156.0,423.0,-55.0,112.0
19:34:45.325000,-109.0,-86.0,-128.0,228.0,767.0,-157.0,423.0,-55.0,112.0
19:34:45.331000,-81.0,-91.0,-259.0,138.0,787.0,-179.0,420.0,-49.0,108.0
19:34:45.335000,-67.0,-83.0,-340.0,155.0,800.0,-200.0,420.0,-49.0,108.0
19:34:45.340000,-56.0,-91.0,-357.0,245.0,829.0,-196.0,432.0,-55.0,135.0
19:34:45.345000,-56.0,-91.0,-357.0,331.0,843.0,-176.0,432.0,-55.0,135.0
19:34:45.349000,-72.0,-117.0,-306.0,331.0,806.0,-168.0,432.0,-55.0,135.0
19:34:45.354000,-75.0,-140.0,-251.0,248.0,770.0,-177.0,418.0,-36.0,117.0
19:34:45.359000,-56.0,-151.0,-193.0,175.0,777.0,-184.0,418.0,-36.0,117.0
19:34:45.364000,-23.0,-158.0,-200.0,177.0,801.0,-168.0,415.0,-42.0,111.0
19:34:45.368000,-12.0,-159.0,-224.0,240.0,793.0,-146.0,415.0,-42.0,111.0
19:34:45.372000,0.0,-166.0,-232.0,303.0,790.0,-141.0,415.0,-42.0,111.0
19:34:45.378000,23.0,-168.0,-220.0,335.0,816.0,-133.0,418.0,-43.0,108.0
19:34:45.382000,28.0,-168.0,-209.0,301.0,870.0,-119.0,418.0,-43.0,108.0
19:34:45.387000,22.0,-168.0,-191.0,225.0,918.0,-120.0,409.0,-46.0,109.0
19:34:45.392000,32.0,-156.0,-156.0,131.0,972.0,-124.0,409.0,-46.0,109.0
19:34:45.396000,41.0,-147.0,-190.0,66.0,1025.0,-106.0,409.0,-46.0,109.0
19:34:45.401000,25.0,-138.0,-237.0,86.0,987.0,-104.0,418.0,-54.0,114.0
19:34:45.406000,11.0,-122.0,-303.0,86.0,921.0,-114.0,418.0,-54.0,114.0
19:34:45.411000,3.0,-111.0,-340.0,165.0,921.0,-114.0,418.0,-36.0,105.0
19:34:45.415000,-7.0,-116.0,-319.0,251.0,925.0,-109.0,418.0,-36.0,105.0
19:34:45.419000,-40.0,-119.0,-217.0,282.0,926.0,-105.0,418.0,-36.0,105.0
19:34:45.425000,-39.0,-117.0,-204.0,227.0,942.0,-118.0,412.0,-48.0,112.0
19:34:45.429000,-65.0,-111.0,-258.0,190.0,983.0,-125.0,412.0,-48.0,112.0
19:34:45.434000,-76.0,-113.0,-259.0,221.0,996.0,-119.0,405.0,-45.0,118.0
19:34:45.439000,-80.0,-109.0,-135.0,240.0,976.0,-125.0,405.0,-45.0,118.0
19:34:45.443000,-80.0,-109.0,-135.0,200.0,966.0,-130.0,405.0,-45.0,118.0
19:34:45.448000,-91.0,-109.0,-277.0,151.0,1033.0,-130.0,409.0,-31.0,108.0
19:34:45.453000,-84.0,-111.0,-478.0,198.0,1087.0,-126.0,409.0,-31.0,108.0
19:34:45.458000,-84.0,-111.0,-478.0,291.0,1056.0,-128.0,397.0,-36.0,111.0
19:34:45.462000,-93.0,-108.0,-492.0,313.0,968.0,-137.0,397.0,-36.0,111.0
19:34:45.466000,-102.0,-116.0,-354.0,251.0,919.0,-143.0,397.0,-36.0,111.0
19:34:45.472000,-119.0,-98.0,-256.0,166.0,955.0,-143.0,399.0,-27.0,115.0
19:34:45.476000,-136.0,-77.0,-267.0,145.0,1010.0,-132.0,399.0,-27.0,115.0
19:34:45.481000,-151.0,-70.0,-327.0,190.0,1024.0,-146.0,394.0,-30.0,120.0
19:34:45.485000,-156.0,-66.0,-277.0,205.0,986.0,-154.0,394.0,-30.0,120.0
19:34:45.490000,-189.0,-60.0,-207.0,230.0,940.0,-165.0,394.0,-30.0,120.0
19:34:45.495000,-161.0,-78.0,-200.0,287.0,936.0,-162.0,390.0,-39.0,108.0
19:34:45.500000,-136.0,-98.0,-243.0,295.0,925.0,-143.0,390.0,-39.0,108.0
19:34:45.505000,-170.0,-79.0,-313.0,295.0,925.0,-143.0,381.0,-28.0,111.0
19:34:45.509000,-184.0,-36.0,-251.0,289.0,733.0,-198.0,381.0,-28.0,111.0
19:34:45.513000,-138.0,-45.0,-77.0,289.0,701.0,-195.0,381.0,-28.0,111.0
19:34:45.519000,-88.0,-48.0,98.0,228.0,785.0,-212.0,382.0,-25.0,115.0
19:34:45.523000,-37.0,-51.0,59.0,228.0,785.0,-212.0,382.0,-25.0,115.0
19:34:45.528000,-41.0,-40.0,-102.0,107.0,922.0,-192.0,387.0,-28.0,115.0
19:34:45.533000,-17.0,-16.0,-161.0,115.0,950.0,-193.0,387.0,-28.0,115.0
19:34:45.537000,-17.0,2.0,-109.0,206.0,876.0,-225.0,387.0,-28.0,115.0
19:34:45.542000,-69.0,2.0,-87.0,226.0,803.0,-206.0,384.0,-28.0,115.0
19:34:45.547000,-28.0,2.0,-147.0,198.0,829.0,-192.0,384.0,-28.0,115.0
19:34:45.552000,-48.0,-5.0,-254.0,140.0,918.0,-211.0,387.0,-27.0,120.0
19:34:45.556000,-37.0,8.0,-350.0,117.0,1022.0,-244.0,387.0,-27.0,120.0
19:34:45.560000,-37.0,8.0,-350.0,177.0,1067.0,-244.0,387.0,-27.0,120.0
19:34:45.566000,-85.0,16.0,-406.0,247.0,1096.0,-230.0,384.0,-18.0,112.0
19:34:45.570000,-109.0,9.0,-434.0,246.0,1142.0,-241.0,384.0,-18.0,112.0
19:34:45.575000,-142.0,26.0,-454.0,232.0,1106.0,-267.0,372.0,-28.0,126.0
19:34:45.580000,-140.0,46.0,-419.0,221.0,1033.0,-263.0,372.0,-28.0,126.0
19:34:45.584000,-178.0,52.0,-379.0,184.0,1002.0,-264.0,372.0,-28.0,126.0
19:34:45.589000,-175.0,73.0,-353.0,148.0,1005.0,-313.0,378.0,-30.0,126.0
19:34:45.594000,-181.0,119.0,-375.0,132.0,1002.0,-313.0,378.0,-30.0,126.0
19:34:45.599000,-200.0,131.0,-391.0,162.0,978.0,-312.0,361.0,-31.0,117.0
19:34:45.603000,-203.0,133.0,-342.0,203.0,949.0,-317.0,361.0,-31.0,117.0
19:34:45.607000,-187.0,108.0,-249.0,184.0,956.0,-337.0,361.0,-31.0,117.0
19:34:45.613000,-161.0,100.0,-213.0,152.0,979.0,-355.0,367.0,-30.0,121.0
19:34:45.617000,-136.0,75.0,-233.0,138.0,981.0,-346.0,367.0,-30.0,121.0
19:34:45.622000,-137.0,65.0,-233.0,138.0,981.0,-346.0,367.0,-25.0,129.0
19:34:45.627000,-127.0,50.0,-185.0,137.0,958.0,-342.0,367.0,-25.0,129.0
19:34:45.631000,-116.0,56.0,-177.0,165.0,947.0,-342.0,367.0,-25.0,129.0
19:34:45.636000,-137.0,51.0,-212.0,215.0,955.0,-328.0,366.0,-22.0,127.0
19:34:45.641000,-147.0,46.0,-222.0,275.0,953.0,-320.0,366.0,-22.0,127.0
19:34:45.646000,-143.0,29.0,-214.0,323.0,921.0,-314.0,366.0,-25.0,124.0
19:34:45.650000,-144.0,32.0,-247.0,337.0,894.0,-308.0,366.0,-25.0,124.0
19:34:45.654000,-155.0,40.0,-307.0,322.0,915.0,-320.0,366.0,-25.0,124.0
19:34:45.660000,-158.0,37.0,-333.0,317.0,946.0,-321.0,357.0,-16.0,130.0
19:34:45.664000,-170.0,46.0,-344.0,307.0,965.0,-320.0,357.0,-16.0,130.0
19:34:45.669000,-184.0,60.0,-359.0,279.0,983.0,-326.0,352.0,-19.0,129.0
19:34:45.674000,-184.0,60.0,-359.0,245.0,982.0,-330.0,352.0,-19.0,129.0
19:34:45.678000,-202.0,71.0,-354.0,208.0,953.0,-333.0,352.0,-19.0,129.0
19:34:45.683000,-219.0,86.0,-333.0,201.0,918.0,-329.0,357.0,-24.0,133.0
19:34:45.688000,-231.0,88.0,-331.0,220.0,895.0,-319.0,357.0,-24.0,133.0
19:34:45.693000,-209.0,58.0,-335.0,259.0,863.0,-341.0,361.0,-13.0,126.0
19:34:45.697000,-219.0,86.0,-288.0,294.0,814.0,-341.0,361.0,-13.0,126.0
19:34:45.705000,-166.0,23.0,-214.0,269.0,947.0,-323.0,351.0,-13.0,126.0
19:34:45.707000,-166.0,23.0,-214.0,269.0,947.0,-323.0,351.0,-13.0,126.0
19:34:45.711000,-173.0,-2.0,-259.0,345.0,959.0,-327.0,351.0,-13.0,126.0
19:34:45.716000,-156.0,-18.0,-280.0,442.0,898.0,-332.0,349.0,-13.0,136.0
19:34:45.721000,-163.0,-47.0,-272.0,476.0,849.0,-328.0,349.0,-13.0,136.0
19:34:45.726000,-147.0,-68.0,-271.0,476.0,849.0,-328.0,349.0,-25.0,127.0
19:34:45.730000,-144.0,-100.0,-265.0,419.0,886.0,-332.0,349.0,-25.0,127.0
19:34:45.734000,-165.0,-105.0,-236.0,419.0,912.0,-332.0,349.0,-25.0,127.0
19:34:45.740000,-161.0,-134.0,-241.0,382.0,912.0,-334.0,342.0,-15.0,133.0
19:34:45.744000,-154.0,-158.0,-289.0,336.0,931.0,-329.0,342.0,-15.0,133.0
19:34:45.748000,-155.0,-164.0,-319.0,345.0,895.0,-350.0,345.0,-9.0,142.0
19:34:45.754000,-140.0,-167.0,-318.0,345.0,895.0,-350.0,345.0,-9.0,142.0
19:34:45.758000,-133.0,-161.0,-313.0,368.0,878.0,-359.0,345.0,-9.0,142.0
19:34:45.763000,-122.0,-164.0,-302.0,340.0,896.0,-354.0,346.0,-24.0,133.0
19:34:45.768000,-103.0,-148.0,-291.0,275.0,931.0,-370.0,346.0,-24.0,133.0
19:34:45.773000,-125.0,-137.0,-283.0,208.0,951.0,-361.0,340.0,-10.0,135.0
19:34:45.777000,-104.0,-126.0,-273.0,179.0,967.0,-361.0,340.0,-10.0,135.0
19:34:45.781000,-104.0,-126.0,-273.0,162.0,970.0,-371.0,340.0,-10.0,135.0
19:34:45.787000,-98.0,-126.0,-268.0,152.0,946.0,-368.0,330.0,-9.0,138.0
19:34:45.791000,-79.0,-109.0,-253.0,161.0,919.0,-382.0,330.0,-9.0,138.0
19:34:45.796000,-61.0,-112.0,-244.0,147.0,916.0,-363.0,330.0,-12.0,142.0
19:34:45.801000,-51.0,-140.0,-259.0,142.0,953.0,-384.0,330.0,-12.0,142.0
19:34:45.805000,-56.0,-103.0,-282.0,186.0,983.0,-379.0,330.0,-12.0,142.0
19:34:45.810000,-41.0,-140.0,-283.0,242.0,1015.0,-385.0,330.0,-16.0,132.0
19:34:45.815000,-50.0,-126.0,-291.0,264.0,1037.0,-377.0,330.0,-16.0,132.0
19:34:45.820000,-91.0,-161.0,-305.0,271.0,1041.0,-364.0,319.0,-13.0,136.0
19:34:45.824000,-107.0,-159.0,-328.0,276.0,1030.0,-388.0,319.0,-13.0,136.0
19:34:45.828000,-141.0,-165.0,-355.0,293.0,1005.0,-393.0,319.0,-13.0,136.0
19:34:45.834000,-151.0,-160.0,-383.0,342.0,981.0,-421.0,324.0,-9.0,129.0
19:34:45.838000,-161.0,-152.0,-392.0,398.0,952.0,-430.0,324.0,-9.0,129.0
19:34:45.843000,-185.0,-133.0,-380.0,398.0,952.0,-430.0,309.0,-9.0,156.0
19:34:45.848000,-198.0,-130.0,-331.0,414.0,930.0,-439.0,309.0,-9.0,156.0
19:34:45.852000,-227.0,-116.0,-277.0,385.0,894.0,-445.0,309.0,-9.0,156.0
19:34:45.857000,-245.0,-110.0,-258.0,334.0,865.0,-454.0,313.0,-12.0,139.0
19:34:45.862000,-257.0,-95.0,-262.0,305.0,858.0,-474.0,313.0,-12.0,139.0
19:34:45.867000,-289.0,-88.0,-237.0,331.0,852.0,-488.0,319.0,-22.0,139.0
19:34:45.871000,-323.0,-85.0,-177.0,391.0,835.0,-494.0,319.0,-22.0,139.0
19:34:45.875000,-348.0,-86.0,-137.0,430.0,822.0,-506.0,319.0,-22.0,139.0
19:34:45.881000,-357.0,-84.0,-130.0,424.0,811.0,-520.0,309.0,-7.0,147.0
19:34:45.885000,-356.0,-80.0,-147.0,402.0,798.0,-531.0,309.0,-7.0,147.0
19:34:45.890000,-355.0,-74.0,-183.0,396.0,813.0,-537.0,298.0,-13.0,151.0
19:34:45.895000,-355.0,-74.0,-183.0,411.0,832.0,-544.0,298.0,-13.0,151.0
19:34:45.899000,-346.0,-65.0,-188.0,419.0,821.0,-532.0,298.0,-13.0,151.0
19:34:45.904000,-329.0,-80.0,-125.0,377.0,843.0,-509.0,309.0,-12.0,148.0
19:34:45.909000,-280.0,-93.0,-116.0,367.0,802.0,-524.0,309.0,-12.0,148.0
19:34:45.914000,-289.0,-70.0,-168.0,382.0,729.0,-533.0,310.0,-3.0,154.0
19:34:45.918000,-287.0,-67.0,-137.0,370.0,729.0,-526.0,310.0,-3.0,154.0
19:34:45.922000,-270.0,-66.0,-72.0,348.0,762.0,-521.0,310.0,-3.0,154.0
19:34:45.928000,-265.0,-70.0,-50.0,328.0,814.0,-516.0,304.0,-4.0,148.0
19:34:45.932000,-268.0,-71.0,-45.0,329.0,812.0,-505.0,304.0,-4.0,148.0
19:34:45.937000,-286.0,-81.0,-30.0,347.0,777.0,-507.0,291.0,0.0,163.0
19:34:45.942000,-268.0,-79.0,-24.0,390.0,760.0,-522.0,291.0,0.0,163.0
19:34:45.946000,-245.0,-82.0,-23.0,417.0,761.0,-513.0,291.0,0.0,163.0
19:34:45.951000,-231.0,-95.0,-30.0,421.0,789.0,-506.0,300.0,-4.0,159.0
19:34:45.956000,-212.0,-106.0,-46.0,414.0,827.0,-498.0,300.0,-4.0,159.0
19:34:45.961000,-202.0,-117.0,-66.0,414.0,827.0,-498.0,310.0,-13.0,159.0
19:34:45.965000,-192.0,-126.0,-99.0,394.0,843.0,-485.0,310.0,-13.0,159.0
19:34:45.969000,-178.0,-133.0,-131.0,376.0,820.0,-477.0,310.0,-13.0,159.0
19:34:45.975000,-155.0,-135.0,-129.0,386.0,772.0,-476.0,304.0,-4.0,165.0
19:34:45.979000,-136.0,-141.0,-88.0,408.0,727.0,-470.0,304.0,-4.0,165.0
19:34:45.984000,-121.0,-144.0,-59.0,395.0,728.0,-464.0,301.0,-9.0,165.0
19:34:45.989000,-119.0,-147.0,-63.0,350.0,779.0,-456.0,301.0,-9.0,165.0
19:34:45.993000,-119.0,-147.0,-63.0,311.0,843.0,-446.0,301.0,-9.0,165.0
19:34:45.998000,-123.0,-154.0,-105.0,298.0,885.0,-439.0,294.0,-6.0,166.0
19:34:46.003000,-123.0,-154.0,-105.0,305.0,893.0,-429.0,294.0,-6.0,166.0
19:34:46.008000,-128.0,-160.0,-100.0,321.0,873.0,-422.0,300.0,-1.0,166.0
19:34:46.012000,-143.0,-162.0,-76.0,332.0,850.0,-413.0,300.0,-1.0,166.0
19:34:46.016000,-141.0,-168.0,-60.0,325.0,843.0,-408.0,300.0,-1.0,166.0
19:34:46.022000,-140.0,-170.0,-58.0,312.0,839.0,-411.0,291.0,-13.0,178.0
19:34:46.026000,-135.0,-171.0,-43.0,304.0,832.0,-413.0,291.0,-13.0,178.0
19:34:46.031000,-135.0,-165.0,-15.0,291.0,842.0,-410.0,294.0,-6.0,172.0
19:34:46.036000,-143.0,-155.0,-2.0,268.0,868.0,-407.0,294.0,-6.0,172.0
19:34:46.040000,-149.0,-145.0,-5.0,244.0,879.0,-408.0,294.0,-6.0,172.0
19:34:46.045000,-150.0,-137.0,-16.0,218.0,876.0,-416.0,300.0,0.0,172.0
19:34:46.050000,-152.0,-123.0,-42.0,202.0,867.0,-420.0,300.0,0.0,172.0
19:34:46.055000,-156.0,-112.0,-70.0,202.0,867.0,-420.0,292.0,1.0,168.0
19:34:46.059000,-163.0,-102.0,-79.0,237.0,842.0,-417.0,292.0,1.0,168.0
19:34:46.063000,-172.0,-100.0,-79.0,237.0,842.0,-417.0,292.0,1.0,168.0
19:34:46.069000,-171.0,-98.0,-99.0,281.0,811.0,-414.0,295.0,3.0,175.0
19:34:46.073000,-175.0,-100.0,-130.0,281.0,811.0,-414.0,295.0,3.0,175.0
19:34:46.078000,-179.0,-100.0,-143.0,320.0,781.0,-416.0,277.0,1.0,180.0
19:34:46.083000,-186.0,-100.0,-142.0,358.0,767.0,-425.0,277.0,1.0,180.0
19:34:46.087000,-197.0,-100.0,-153.0,373.0,781.0,-430.0,277.0,1.0,180.0
19:34:46.092000,-212.0,-103.0,-182.0,371.0,810.0,-439.0,298.0,381.0,172.0
19:34:46.097000,-232.0,-103.0,-202.0,376.0,817.0,-446.0,298.0,381.0,172.0
19:34:46.102000,-236.0,-100.0,-198.0,395.0,795.0,-461.0,289.0,-1.0,174.0
19:34:46.106000,-233.0,-95.0,-191.0,394.0,774.0,-485.0,289.0,-1.0,174.0
19:34:46.110000,-233.0,-95.0,-191.0,361.0,777.0,-499.0,289.0,-1.0,174.0
19:34:46.116000,-245.0,-89.0,-186.0,303.0,810.0,-513.0,295.0,3.0,177.0
19:34:46.120000,-249.0,-72.0,-179.0,232.0,847.0,-526.0,295.0,3.0,177.0
19:34:46.125000,-252.0,-61.0,-172.0,187.0,858.0,-531.0,289.0,3.0,178.0
19:34:46.130000,-264.0,-48.0,-168.0,184.0,841.0,-534.0,289.0,3.0,178.0
19:34:46.134000,-270.0,-35.0,-163.0,203.0,812.0,-533.0,289.0,3.0,178.0
19:34:46.139000,-266.0,-22.0,-144.0,233.0,779.0,-530.0,280.0,3.0,180.0
19:34:46.144000,-257.0,-14.0,-107.0,261.0,755.0,-524.0,280.0,3.0,180.0
19:34:46.149000,-249.0,-10.0,-81.0,277.0,763.0,-519.0,286.0,7.0,184.0
19:34:46.153000,-240.0,-9.0,-78.0,290.0,788.0,-508.0,286.0,7.0,184.0
19:34:46.157000,-236.0,-13.0,-82.0,310.0,790.0,-493.0,286.0,7.0,184.0
19:34:46.163000,-232.0,-23.0,-72.0,339.0,766.0,-480.0,279.0,7.0,192.0
19:34:46.167000,-226.0,-37.0,-56.0,372.0,735.0,-469.0,279.0,7.0,192.0
19:34:46.172000,-225.0,-56.0,-35.0,372.0,735.0,-469.0,279.0,-3.0,187.0
19:34:46.177000,-224.0,-74.0,-21.0,401.0,719.0,-462.0,279.0,-3.0,187.0
19:34:46.181000,-230.0,-93.0,-14.0,420.0,723.0,-460.0,279.0,-3.0,187.0
19:34:46.186000,-231.0,-113.0,-7.0,433.0,737.0,-462.0,283.0,-4.0,187.0
19:34:46.191000,-233.0,-136.0,-10.0,440.0,747.0,-460.0,283.0,-4.0,187.0
19:34:46.196000,-230.0,-156.0,-20.0,439.0,750.0,-455.0,279.0,-1.0,189.0
19:34:46.200000,-228.0,-169.0,-13.0,432.0,746.0,-455.0,279.0,-1.0,189.0
19:34:46.204000,-234.0,-177.0,-2.0,415.0,743.0,-456.0,279.0,-1.0,189.0
19:34:46.210000,-235.0,-182.0,-17.0,389.0,767.0,-460.0,273.0,-1.0,187.0
19:34:46.214000,-247.0,-186.0,-46.0,363.0,814.0,-463.0,273.0,-1.0,187.0
19:34:46.219000,-273.0,-186.0,-68.0,345.0,859.0,-461.0,264.0,-3.0,207.0
19:34:46.224000,-273.0,-186.0,-68.0,334.0,889.0,-462.0,264.0,-3.0,207.0
19:34:46.228000,-298.0,-184.0,-95.0,326.0,903.0,-466.0,264.0,-3.0,207.0
19:34:46.233000,-322.0,-178.0,-136.0,327.0,906.0,-474.0,274.0,4.0,193.0
19:34:46.238000,-336.0,-170.0,-172.0,318.0,902.0,-482.0,274.0,4.0,193.0
19:34:46.243000,-352.0,-161.0,-198.0,288.0,908.0,-491.0,271.0,-3.0,199.0
19:34:46.247000,-363.0,-148.0,-223.0,249.0,921.0,-497.0,271.0,-3.0,199.0
19:34:46.251000,-378.0,-135.0,-243.0,219.0,914.0,-499.0,271.0,-3.0,199.0
19:34:46.257000,-386.0,-128.0,-261.0,218.0,875.0,-502.0,268.0,-7.0,193.0
19:34:46.261000,-382.0,-123.0,-263.0,244.0,802.0,-506.0,268.0,-7.0,193.0
19:34:46.266000,-364.0,-118.0,-252.0,281.0,727.0,-514.0,274.0,0.0,202.0
19:34:46.271000,-329.0,-114.0,-226.0,321.0,679.0,-523.0,274.0,0.0,202.0
19:34:46.275000,-287.0,-111.0,-192.0,350.0,660.0,-526.0,274.0,0.0,202.0
19:34:46.280000,-243.0,-112.0,-155.0,366.0,656.0,-532.0,267.0,-4.0,202.0
19:34:46.285000,-193.0,-116.0,-118.0,366.0,656.0,-532.0,267.0,-4.0,202.0
19:34:46.290000,-149.0,-122.0,-75.0,368.0,645.0,-536.0,268.0,4.0,204.0
19:34:46.294000,-106.0,-125.0,-32.0,358.0,632.0,-539.0,268.0,4.0,204.0
19:34:46.298000,-72.0,-127.0,8.0,344.0,626.0,-546.0,268.0,4.0,204.0
19:34:46.304000,-46.0,-127.0,50.0,339.0,628.0,-548.0,273.0,3.0,222.0
19:34:46.308000,-32.0,-128.0,94.0,341.0,646.0,-553.0,273.0,3.0,222.0
19:34:46.313000,-31.0,-127.0,128.0,337.0,689.0,-559.0,265.0,-4.0,204.0
19:34:46.318000,-38.0,-128.0,137.0,316.0,752.0,-567.0,265.0,-4.0,204.0
19:34:46.322000,-38.0,-128.0,137.0,288.0,818.0,-572.0,265.0,-4.0,204.0
19:34:46.327000,-87.0,-133.0,122.0,269.0,863.0,-570.0,277.0,-3.0,210.0
19:34:46.332000,-87.0,-133.0,122.0,265.0,866.0,-570.0,277.0,-3.0,210.0
19:34:46.337000,-114.0,-136.0,139.0,262.0,841.0,-575.0,273.0,1.0,211.0
19:34:46.341000,-133.0,-138.0,163.0,243.0,822.0,-577.0,273.0,1.0,211.0
19:34:46.345000,-148.0,-141.0,165.0,228.0,812.0,-577.0,273.0,1.0,211.0
19:34:46.351000,-153.0,-143.0,141.0,243.0,793.0,-574.0,270.0,-7.0,199.0
19:34:46.355000,-149.0,-149.0,135.0,269.0,759.0,-567.0,270.0,-7.0,199.0
19:34:46.360000,-140.0,-156.0,154.0,278.0,728.0,-562.0,249.0,-4.0,228.0
19:34:46.365000,-130.0,-162.0,167.0,273.0,712.0,-557.0,249.0,-4.0,228.0
19:34:46.369000,-115.0,-165.0,156.0,274.0,704.0,-556.0,249.0,-4.0,228.0
19:34:46.374000,-98.0,-168.0,142.0,280.0,700.0,-554.0,274.0,10.0,214.0
19:34:46.379000,-81.0,-172.0,140.0,279.0,704.0,-550.0,274.0,10.0,214.0
19:34:46.384000,-67.0,-177.0,135.0,279.0,704.0,-550.0,273.0,7.0,214.0
19:34:46.388000,-52.0,-177.0,116.0,260.0,744.0,-552.0,273.0,7.0,214.0
19:34:46.392000,-38.0,-174.0,92.0,260.0,744.0,-552.0,273.0,7.0,214.0
19:34:46.398000,-21.0,-172.0,74.0,222.0,783.0,-559.0,282.0,-4.0,214.0
19:34:46.402000,-5.0,-170.0,60.0,222.0,783.0,-559.0,282.0,-4.0,214.0
19:34:46.407000,7.0,-167.0,44.0,194.0,792.0,-561.0,270.0,7.0,217.0
19:34:46.412000,19.0,-162.0,40.0,177.0,785.0,-561.0,270.0,7.0,217.0
19:34:46.416000,34.0,-154.0,53.0,179.0,770.0,-562.0,270.0,7.0,217.0
19:34:46.421000,50.0,-148.0,76.0,187.0,764.0,-564.0,271.0,6.0,213.0
19:34:46.426000,59.0,-142.0,94.0,189.0,775.0,-564.0,271.0,6.0,213.0
19:34:46.431000,63.0,-136.0,102.0,184.0,807.0,-564.0,273.0,1.0,213.0
19:34:46.435000,62.0,-134.0,111.0,179.0,836.0,-565.0,273.0,1.0,213.0
19:34:46.439000,62.0,-134.0,111.0,181.0,849.0,-566.0,273.0,1.0,213.0
19:34:46.445000,59.0,-132.0,133.0,183.0,854.0,-565.0,279.0,-1.0,229.0
19:34:46.449000,52.0,-128.0,171.0,172.0,863.0,-562.0,279.0,-1.0,229.0
19:34:46.454000,40.0,-124.0,193.0,157.0,874.0,-556.0,274.0,-6.0,213.0
19:34:46.459000,21.0,-121.0,200.0,169.0,866.0,-547.0,274.0,-6.0,213.0
19:34:46.463000,0.0,-120.0,221.0,207.0,831.0,-540.0,274.0,-6.0,213.0
19:34:46.468000,-18.0,-120.0,259.0,247.0,788.0,-538.0,283.0,0.0,213.0
19:34:46.473000,-24.0,-121.0,268.0,273.0,754.0,-541.0,283.0,0.0,213.0
19:34:46.478000,-25.0,-123.0,249.0,294.0,731.0,-543.0,282.0,-3.0,210.0
19:34:46.482000,-21.0,-126.0,240.0,306.0,716.0,-547.0,282.0,-3.0,210.0
19:34:46.486000,-10.0,-133.0,235.0,302.0,713.0,-551.0,282.0,-3.0,210.0
19:34:46.492000,4.0,-141.0,200.0,293.0,718.0,-553.0,279.0,-7.0,219.0
19:34:46.496000,21.0,-155.0,148.0,298.0,708.0,-556.0,279.0,-7.0,219.0
19:34:46.501000,32.0,-161.0,115.0,298.0,708.0,-556.0,273.0,1.0,229.0
19:34:46.506000,38.0,-163.0,97.0,311.0,694.0,-564.0,273.0,1.0,229.0
19:34:46.510000,52.0,-168.0,69.0,314.0,696.0,-571.0,273.0,1.0,229.0
19:34:46.515000,70.0,-172.0,20.0,303.0,715.0,-577.0,286.0,-6.0,216.0
19:34:46.520000,93.0,-178.0,-39.0,293.0,745.0,-584.0,286.0,-6.0,216.0
19:34:46.525000,109.0,-188.0,-83.0,296.0,772.0,-589.0,277.0,0.0,210.0
19:34:46.529000,114.0,-201.0,-113.0,303.0,794.0,-587.0,277.0,0.0,210.0
19:34:46.533000,119.0,-219.0,-124.0,303.0,797.0,-582.0,277.0,0.0,210.0
19:34:46.539000,123.0,-236.0,-143.0,303.0,761.0,-576.0,280.0,1.0,208.0
19:34:46.543000,128.0,-252.0,-175.0,311.0,721.0,-573.0,280.0,1.0,208.0
19:34:46.548000,128.0,-252.0,-175.0,337.0,700.0,-571.0,283.0,1.0,231.0
19:34:46.553000,141.0,-270.0,-197.0,386.0,681.0,-567.0,283.0,1.0,231.0
19:34:46.557000,149.0,-291.0,-177.0,434.0,665.0,-561.0,283.0,1.0,231.0
19:34:46.562000,149.0,-312.0,-122.0,444.0,668.0,-557.0,282.0,-1.0,214.0
19:34:46.567000,143.0,-337.0,-74.0,423.0,680.0,-561.0,282.0,-1.0,214.0
19:34:46.572000,156.0,-361.0,-52.0,397.0,686.0,-567.0,276.0,-4.0,204.0
19:34:46.576000,162.0,-384.0,-52.0,386.0,700.0,-570.0,276.0,-4.0,204.0
19:34:46.580000,161.0,-404.0,-59.0,380.0,717.0,-577.0,276.0,-4.0,204.0
19:34:46.586000,164.0,-424.0,-58.0,371.0,723.0,-585.0,276.0,3.0,219.0
19:34:46.590000,163.0,-443.0,-62.0,366.0,742.0,-598.0,276.0,3.0,219.0
19:34:46.595000,168.0,-461.0,-67.0,375.0,729.0,-621.0,271.0,-6.0,216.0
19:34:46.599000,196.0,-470.0,-81.0,384.0,682.0,-647.0,271.0,-6.0,216.0
19:34:46.604000,211.0,-467.0,-70.0,372.0,693.0,-655.0,271.0,-6.0,216.0
19:34:46.609000,212.0,-468.0,-32.0,321.0,757.0,-659.0,271.0,-4.0,202.0
19:34:46.614000,212.0,-468.0,-33.0,321.0,757.0,-659.0,271.0,-4.0,202.0
19:34:46.619000,213.0,-467.0,-67.0,257.0,813.0,-670.0,282.0,-1.0,204.0
19:34:46.623000,205.0,-460.0,-86.0,245.0,815.0,-679.0,282.0,-1.0,204.0
19:34:46.627000,207.0,-463.0,-58.0,282.0,772.0,-682.0,282.0,-1.0,204.0
19:34:46.633000,224.0,-468.0,-13.0,312.0,725.0,-688.0,277.0,-7.0,198.0
19:34:46.637000,248.0,-479.0,19.0,306.0,699.0,-693.0,277.0,-7.0,198.0
19:34:46.642000,270.0,-493.0,33.0,287.0,699.0,-689.0,271.0,-7.0,196.0
19:34:46.647000,296.0,-513.0,45.0,278.0,715.0,-685.0,271.0,-7.0,196.0
19:34:46.651000,296.0,-513.0,45.0,284.0,718.0,-682.0,271.0,-7.0,196.0
19:34:46.656000,354.0,-567.0,75.0,298.0,699.0,-681.0,279.0,9.0,198.0
19:34:46.661000,354.0,-567.0,75.0,309.0,681.0,-681.0,279.0,9.0,198.0
19:34:46.666000,382.0,-592.0,84.0,307.0,671.0,-674.0,273.0,4.0,190.0
19:34:46.670000,408.0,-618.0,101.0,296.0,678.0,-660.0,273.0,4.0,190.0
19:34:46.674000,429.0,-644.0,119.0,287.0,694.0,-650.0,273.0,4.0,190.0
19:34:46.680000,446.0,-660.0,102.0,281.0,728.0,-642.0,280.0,3.0,186.0
19:34:46.684000,453.0,-672.0,54.0,265.0,756.0,-632.0,280.0,3.0,186.0
19:34:46.689000,462.0,-675.0,-4.0,254.0,784.0,-620.0,285.0,3.0,196.0
19:34:46.694000,456.0,-675.0,-61.0,265.0,828.0,-605.0,285.0,3.0,196.0
19:34:46.698000,440.0,-675.0,-102.0,282.0,838.0,-595.0,285.0,3.0,196.0
19:34:46.703000,417.0,-679.0,-140.0,293.0,817.0,-592.0,279.0,3.0,175.0
19:34:46.708000,402.0,-677.0,-179.0,286.0,802.0,-593.0,279.0,3.0,175.0
19:34:46.713000,393.0,-675.0,-214.0,286.0,802.0,-593.0,267.0,-16.0,183.0
19:34:46.717000,381.0,-672.0,-251.0,256.0,842.0,-588.0,267.0,-16.0,183.0
19:34:46.721000,368.0,-665.0,-296.0,256.0,842.0,-588.0,267.0,-16.0,183.0
19:34:46.727000,352.0,-653.0,-351.0,232.0,886.0,-583.0,274.0,-6.0,178.0
19:34:46.731000,342.0,-640.0,-402.0,206.0,958.0,-584.0,274.0,-6.0,178.0
19:34:46.736000,330.0,-622.0,-443.0,206.0,958.0,-584.0,250.0,-3.0,172.0
19:34:46.741000,318.0,-597.0,-475.0,187.0,986.0,-588.0,250.0,-3.0,172.0
19:34:46.745000,313.0,-568.0,-504.0,149.0,1008.0,-594.0,250.0,-3.0,172.0
19:34:46.750000,317.0,-534.0,-540.0,105.0,1013.0,-599.0,265.0,-1.0,168.0
19:34:46.755000,331.0,-503.0,-564.0,70.0,1002.0,-601.0,265.0,-1.0,168.0
19:34:46.760000,359.0,-476.0,-567.0,55.0,988.0,-599.0,261.0,4.0,171.0
19:34:46.764000,394.0,-450.0,-560.0,52.0,980.0,-593.0,261.0,4.0,171.0
19:34:46.768000,394.0,-450.0,-560.0,52.0,981.0,-584.0,261.0,4.0,171.0
19:34:46.774000,438.0,-427.0,-560.0,55.0,999.0,-575.0,253.0,-3.0,168.0
19:34:46.778000,492.0,-405.0,-573.0,65.0,1028.0,-566.0,253.0,-3.0,168.0
19:34:46.783000,547.0,-385.0,-585.0,81.0,1060.0,-552.0,252.0,-13.0,156.0
19:34:46.788000,602.0,-371.0,-590.0,96.0,1087.0,-531.0,252.0,-13.0,156.0
19:34:46.792000,652.0,-358.0,-584.0,108.0,1103.0,-505.0,252.0,-13.0,156.0
19:34:46.797000,702.0,-350.0,-576.0,126.0,1098.0,-480.0,238.0,3.0,159.0
19:34:46.802000,753.0,-345.0,-567.0,158.0,1081.0,-460.0,238.0,3.0,159.0
19:34:46.807000,806.0,-338.0,-555.0,195.0,1078.0,-440.0,234.0,-4.0,162.0
19:34:46.811000,849.0,-328.0,-549.0,227.0,1111.0,-417.0,234.0,-4.0,162.0
19:34:46.815000,875.0,-315.0,-555.0,251.0,1182.0,-398.0,234.0,-4.0,162.0
19:34:46.821000,880.0,-293.0,-572.0,276.0,1264.0,-383.0,216.0,-4.0,136.0
19:34:46.825000,865.0,-266.0,-590.0,298.0,1335.0,-367.0,216.0,-4.0,136.0
19:34:46.830000,831.0,-237.0,-603.0,298.0,1335.0,-367.0,226.0,-13.0,154.0
19:34:46.835000,780.0,-213.0,-604.0,312.0,1387.0,-347.0,226.0,-13.0,154.0
19:34:46.839000,723.0,-193.0,-556.0,354.0,1418.0,-327.0,226.0,-13.0,154.0
19:34:46.844000,702.0,-175.0,-119.0,439.0,1310.0,-310.0,216.0,-3.0,133.0
19:34:46.849000,696.0,-159.0,823.0,447.0,906.0,-304.0,216.0,-3.0,133.0
19:34:46.854000,735.0,-123.0,1241.0,185.0,676.0,-317.0,217.0,-6.0,118.0
19:34:46.858000,849.0,-25.0,1010.0,-147.0,870.0,-359.0,217.0,-6.0,118.0
19:34:46.862000,1029.0,154.0,1010.0,-170.0,947.0,-361.0,217.0,-6.0,118.0
19:34:46.868000,1033.0,142.0,1383.0,19.0,772.0,-319.0,240.0,-7.0,118.0
19:34:46.872000,1229.0,235.0,1833.0,85.0,562.0,-316.0,240.0,-7.0,118.0
19:34:46.877000,1229.0,235.0,1833.0,-118.0,311.0,-301.0,231.0,-12.0,114.0
19:34:46.882000,1480.0,340.0,2089.0,-440.0,187.0,-297.0,231.0,-12.0,114.0
19:34:46.886000,1776.0,499.0,2015.0,-574.0,309.0,-328.0,231.0,-12.0,114.0
19:34:46.891000,2230.0,630.0,1736.0,-468.0,461.0,-236.0,255.0,-16.0,102.0
19:34:46.896000,2558.0,704.0,1464.0,-309.0,619.0,-62.0,255.0,-16.0,102.0
19:34:46.901000,2753.0,763.0,1241.0,-262.0,700.0,52.0,267.0,-22.0,79.0
19:34:46.905000,2932.0,843.0,1047.0,-233.0,674.0,114.0,267.0,-22.0,79.0
19:34:46.909000,3117.0,944.0,909.0,-143.0,625.0,192.0,267.0,-22.0,79.0
19:34:46.915000,3216.0,1071.0,782.0,-26.0,633.0,317.0,277.0,-28.0,64.0
19:34:46.919000,3201.0,1214.0,716.0,136.0,772.0,434.0,277.0,-28.0,64.0
19:34:46.924000,3096.0,1341.0,779.0,301.0,968.0,589.0,279.0,-36.0,63.0
19:34:46.929000,2805.0,1442.0,857.0,266.0,1115.0,679.0,279.0,-36.0,63.0
19:34:46.933000,2517.0,1518.0,788.0,156.0,1061.0,610.0,279.0,-36.0,63.0
19:34:46.938000,2321.0,1570.0,751.0,156.0,1061.0,610.0,310.0,-61.0,16.0
19:34:46.943000,2135.0,1609.0,637.0,142.0,990.0,540.0,310.0,-61.0,16.0
19:34:46.947000,1764.0,1548.0,141.0,-131.0,1276.0,654.0,324.0,-64.0,4.0
