hh:mm:ss.ms,gyroX[mdps],gyroY[mdps],gyroZ[mdps],accX[mg],accY[mg],accZ[mg],magX[mG],magY[mG],magZ[mG]
19:43:18.250000,177.0,-63.0,-249.0,-1781.0,-170.0,-58.0,0.0,0.0,0.0
19:43:18.254000,216.0,-49.0,-144.0,-1655.0,-240.0,-80.0,0.0,0.0,0.0
19:43:18.259000,215.0,-21.0,-65.0,-1655.0,-240.0,-80.0,0.0,0.0,0.0
19:43:18.264000,170.0,15.0,-76.0,-1655.0,-240.0,-80.0,0.0,0.0,0.0
19:43:18.268000,91.0,55.0,-140.0,-1610.0,-222.0,-102.0,0.0,0.0,0.0
19:43:18.273000,16.0,98.0,-216.0,-1610.0,-222.0,-102.0,0.0,0.0,0.0
19:43:18.278000,24.0,132.0,-282.0,-1619.0,-160.0,-121.0,0.0,0.0,0.0
19:43:18.282000,-69.0,170.0,-308.0,-1619.0,-160.0,-121.0,0.0,0.0,0.0
19:43:18.287000,-127.0,193.0,-299.0,-1559.0,-136.0,-126.0,0.0,0.0,0.0
19:43:18.292000,-86.0,205.0,-343.0,-1559.0,-136.0,-126.0,0.0,0.0,0.0
19:43:18.297000,-83.0,208.0,-452.0,-1465.0,-223.0,-146.0,0.0,0.0,0.0
19:43:18.301000,-88.0,210.0,-518.0,-1465.0,-223.0,-146.0,0.0,0.0,0.0
19:43:18.306000,-52.0,191.0,-496.0,-1359.0,-313.0,-181.0,0.0,0.0,0.0
19:43:18.311000,-52.0,191.0,-496.0,-1359.0,-313.0,-181.0,0.0,0.0,0.0
19:43:18.315000,-23.0,180.0,-473.0,-1224.0,-375.0,-205.0,0.0,0.0,0.0
19:43:18.320000,41.0,142.0,-518.0,-1224.0,-375.0,-205.0,0.0,0.0,0.0
19:43:18.325000,58.0,105.0,-556.0,-1136.0,-367.0,-220.0,0.0,0.0,0.0
19:43:18.329000,107.0,61.0,-531.0,-1136.0,-367.0,-220.0,0.0,0.0,0.0
19:43:18.334000,145.0,21.0,-502.0,-1124.0,-296.0,-218.0,0.0,0.0,0.0
19:43:18.339000,163.0,-12.0,-472.0,-1124.0,-296.0,-218.0,0.0,0.0,0.0
19:43:18.344000,194.0,-51.0,-434.0,-1138.0,-279.0,-215.0,0.0,0.0,0.0
19:43:18.348000,219.0,-81.0,-407.0,-1138.0,-279.0,-215.0,0.0,0.0,0.0
19:43:18.353000,217.0,-109.0,-379.0,-1141.0,-258.0,-198.0,0.0,0.0,0.0
19:43:18.358000,200.0,-120.0,-328.0,-1141.0,-258.0,-198.0,0.0,0.0,0.0
19:43:18.362000,189.0,-132.0,-289.0,-1201.0,-212.0,-181.0,0.0,0.0,0.0
19:43:18.367000,149.0,-141.0,-319.0,-1201.0,-212.0,-181.0,0.0,0.0,0.0
19:43:18.371000,107.0,-147.0,-393.0,-1201.0,-212.0,-181.0,0.0,0.0,0.0
19:43:18.376000,49.0,-145.0,-464.0,-1260.0,-132.0,-162.0,0.0,0.0,0.0
19:43:18.381000,-17.0,-135.0,-513.0,-1260.0,-132.0,-162.0,0.0,0.0,0.0
19:43:18.386000,-38.0,-130.0,-567.0,-1217.0,-38.0,-155.0,0.0,0.0,0.0
19:43:18.391000,-149.0,-134.0,-590.0,-1217.0,-38.0,-155.0,0.0,0.0,0.0
19:43:18.395000,-260.0,-144.0,-611.0,-1202.0,-38.0,-133.0,0.0,0.0,0.0
19:43:18.400000,-312.0,-146.0,-685.0,-1202.0,-38.0,-133.0,0.0,0.0,0.0
19:43:18.405000,-346.0,-157.0,-749.0,-1199.0,-104.0,-123.0,0.0,0.0,0.0
19:43:18.409000,-382.0,-157.0,-733.0,-1199.0,-104.0,-123.0,0.0,0.0,0.0
19:43:18.414000,-411.0,-155.0,-705.0,-1086.0,-162.0,-145.0,0.0,0.0,0.0
19:43:18.419000,-411.0,-155.0,-705.0,-1086.0,-162.0,-145.0,0.0,0.0,0.0
19:43:18.423000,-462.0,-151.0,-748.0,-1031.0,-128.0,-142.0,0.0,0.0,0.0
19:43:18.428000,-513.0,-129.0,-783.0,-1031.0,-128.0,-142.0,0.0,0.0,0.0
19:43:18.433000,-525.0,-103.0,-826.0,-1089.0,-76.0,-152.0,0.0,0.0,0.0
19:43:18.438000,-554.0,-67.0,-877.0,-1089.0,-76.0,-152.0,0.0,0.0,0.0
19:43:18.442000,-571.0,-37.0,-877.0,-1186.0,-68.0,-173.0,0.0,0.0,0.0
19:43:18.447000,-590.0,-11.0,-886.0,-1186.0,-68.0,-173.0,0.0,0.0,0.0
19:43:18.452000,-636.0,9.0,-902.0,-1236.0,21.0,-175.0,0.0,0.0,0.0
19:43:18.456000,-662.0,25.0,-903.0,-1236.0,21.0,-175.0,0.0,0.0,0.0
19:43:18.461000,-655.0,49.0,-911.0,-1121.0,118.0,-197.0,0.0,0.0,0.0
19:43:18.466000,-649.0,49.0,-892.0,-1121.0,118.0,-197.0,0.0,0.0,0.0
19:43:18.470000,-637.0,57.0,-842.0,-1007.0,172.0,-217.0,0.0,0.0,0.0
19:43:18.475000,-651.0,62.0,-777.0,-1007.0,172.0,-217.0,0.0,0.0,0.0
19:43:18.480000,-707.0,45.0,-766.0,-1007.0,194.0,-191.0,0.0,0.0,0.0
19:43:18.485000,-748.0,32.0,-740.0,-1034.0,194.0,-191.0,0.0,0.0,0.0
19:43:18.489000,-721.0,28.0,-753.0,-1034.0,194.0,-191.0,0.0,0.0,0.0
19:43:18.494000,-719.0,21.0,-728.0,-1034.0,182.0,-195.0,0.0,0.0,0.0
19:43:18.499000,-756.0,17.0,-668.0,-1034.0,182.0,-195.0,0.0,0.0,0.0
19:43:18.503000,-809.0,16.0,-651.0,-947.0,218.0,-207.0,0.0,0.0,0.0
19:43:18.508000,-856.0,16.0,-683.0,-947.0,218.0,-207.0,0.0,0.0,0.0
19:43:18.513000,-906.0,24.0,-692.0,-984.0,293.0,-192.0,0.0,0.0,0.0
19:43:18.517000,-961.0,35.0,-671.0,-984.0,293.0,-192.0,0.0,0.0,0.0
19:43:18.522000,-961.0,35.0,-671.0,-1083.0,257.0,-187.0,0.0,0.0,0.0
19:43:18.527000,-1032.0,56.0,-614.0,-1083.0,257.0,-187.0,0.0,0.0,0.0
19:43:18.532000,-1032.0,56.0,-614.0,-1090.0,134.0,-185.0,0.0,0.0,0.0
19:43:18.536000,-1043.0,65.0,-645.0,-1090.0,134.0,-185.0,0.0,0.0,0.0
19:43:18.541000,-1032.0,84.0,-652.0,-1050.0,56.0,-192.0,0.0,0.0,0.0
19:43:18.546000,-1009.0,96.0,-672.0,-1050.0,56.0,-192.0,0.0,0.0,0.0
19:43:18.550000,-989.0,100.0,-743.0,-940.0,55.0,-188.0,0.0,0.0,0.0
19:43:18.555000,-954.0,93.0,-814.0,-940.0,55.0,-188.0,0.0,0.0,0.0
19:43:18.560000,-928.0,74.0,-849.0,-844.0,109.0,-168.0,0.0,0.0,0.0
19:43:18.564000,-917.0,65.0,-857.0,-844.0,109.0,-168.0,0.0,0.0,0.0
19:43:18.569000,-917.0,57.0,-884.0,-857.0,134.0,-147.0,0.0,0.0,0.0
19:43:18.574000,-903.0,39.0,-945.0,-857.0,134.0,-147.0,0.0,0.0,0.0
19:43:18.579000,-888.0,23.0,-1006.0,-894.0,165.0,-130.0,0.0,0.0,0.0
19:43:18.583000,-890.0,14.0,-1030.0,-894.0,165.0,-130.0,0.0,0.0,0.0
19:43:18.588000,-900.0,-4.0,-1030.0,-896.0,245.0,-113.0,0.0,0.0,0.0
19:43:18.593000,-905.0,-21.0,-1014.0,-896.0,245.0,-113.0,0.0,0.0,0.0
19:43:18.597000,-926.0,-26.0,-976.0,-896.0,245.0,-113.0,0.0,0.0,0.0
19:43:18.602000,-968.0,-34.0,-916.0,-931.0,328.0,-97.0,0.0,0.0,0.0
19:43:18.607000,-991.0,-51.0,-854.0,-931.0,328.0,-97.0,0.0,0.0,0.0
19:43:18.611000,-1010.0,-68.0,-778.0,-978.0,340.0,-76.0,0.0,0.0,0.0
19:43:18.616000,-1038.0,-81.0,-709.0,-978.0,340.0,-76.0,0.0,0.0,0.0
19:43:18.621000,-1054.0,-85.0,-688.0,-946.0,332.0,-50.0,0.0,0.0,0.0
19:43:18.626000,-1089.0,-77.0,-698.0,-946.0,332.0,-50.0,0.0,0.0,0.0
19:43:18.630000,-1115.0,-67.0,-637.0,-919.0,367.0,-24.0,0.0,0.0,0.0
19:43:18.635000,-1154.0,-42.0,-557.0,-919.0,367.0,-24.0,0.0,0.0,0.0
19:43:18.640000,-1154.0,-42.0,-557.0,-938.0,380.0,8.0,0.0,0.0,0.0
19:43:18.644000,-1193.0,-14.0,-507.0,-938.0,380.0,8.0,0.0,0.0,0.0
19:43:18.649000,-1229.0,18.0,-496.0,-957.0,367.0,35.0,0.0,0.0,0.0
19:43:18.654000,-1243.0,55.0,-519.0,-957.0,367.0,35.0,0.0,0.0,0.0
19:43:18.658000,-1263.0,95.0,-564.0,-996.0,394.0,43.0,0.0,0.0,0.0
19:43:18.663000,-1283.0,130.0,-579.0,-996.0,394.0,43.0,0.0,0.0,0.0
19:43:18.668000,-1300.0,165.0,-583.0,-1038.0,431.0,43.0,0.0,0.0,0.0
19:43:18.673000,-1313.0,203.0,-558.0,-1038.0,431.0,43.0,0.0,0.0,0.0
19:43:18.677000,-1327.0,242.0,-514.0,-1073.0,413.0,25.0,0.0,0.0,0.0
19:43:18.682000,-1330.0,273.0,-499.0,-1073.0,413.0,25.0,0.0,0.0,0.0
19:43:18.687000,-1340.0,298.0,-497.0,-1111.0,408.0,0.0,0.0,0.0,0.0
19:43:18.691000,-1353.0,317.0,-450.0,-1111.0,408.0,0.0,0.0,0.0,0.0
19:43:18.695000,-1359.0,344.0,-403.0,-1067.0,411.0,-20.0,0.0,0.0,0.0
19:43:18.701000,-1367.0,359.0,-385.0,-1067.0,411.0,-20.0,0.0,0.0,0.0
19:43:18.705000,-1372.0,375.0,-342.0,-1067.0,411.0,-20.0,0.0,0.0,0.0
19:43:18.710000,-1375.0,378.0,-293.0,-982.0,404.0,-41.0,0.0,0.0,0.0
19:43:18.715000,-1363.0,385.0,-226.0,-982.0,404.0,-41.0,0.0,0.0,0.0
19:43:18.720000,-1351.0,394.0,-182.0,-959.0,357.0,-65.0,0.0,0.0,0.0
19:43:18.724000,-1348.0,398.0,-155.0,-959.0,357.0,-65.0,0.0,0.0,0.0
19:43:18.729000,-1334.0,403.0,-115.0,-961.0,301.0,-90.0,0.0,0.0,0.0
19:43:18.734000,-1335.0,410.0,-60.0,-961.0,301.0,-90.0,0.0,0.0,0.0
19:43:18.738000,-1341.0,422.0,13.0,-964.0,291.0,-100.0,0.0,0.0,0.0
19:43:18.743000,-1339.0,443.0,57.0,-964.0,291.0,-100.0,0.0,0.0,0.0
19:43:18.748000,-1339.0,443.0,57.0,-954.0,272.0,-109.0,0.0,0.0,0.0
19:43:18.752000,-1349.0,462.0,99.0,-954.0,272.0,-109.0,0.0,0.0,0.0
19:43:18.757000,-1338.0,480.0,125.0,-945.0,238.0,-122.0,0.0,0.0,0.0
19:43:18.762000,-1334.0,499.0,134.0,-945.0,238.0,-122.0,0.0,0.0,0.0
19:43:18.767000,-1325.0,515.0,151.0,-901.0,193.0,-135.0,0.0,0.0,0.0
19:43:18.771000,-1323.0,529.0,159.0,-901.0,193.0,-135.0,0.0,0.0,0.0
19:43:18.776000,-1318.0,539.0,157.0,-850.0,181.0,-151.0,0.0,0.0,0.0
19:43:18.781000,-1313.0,543.0,149.0,-850.0,181.0,-151.0,0.0,0.0,0.0
19:43:18.785000,-1310.0,543.0,128.0,-830.0,187.0,-158.0,0.0,0.0,0.0
19:43:18.790000,-1309.0,536.0,98.0,-830.0,187.0,-158.0,0.0,0.0,0.0
19:43:18.795000,-1307.0,527.0,72.0,-786.0,185.0,-155.0,0.0,0.0,0.0
19:43:18.799000,-1312.0,515.0,53.0,-786.0,185.0,-155.0,0.0,0.0,0.0
19:43:18.804000,-1320.0,498.0,37.0,-731.0,188.0,-145.0,0.0,0.0,0.0
19:43:18.809000,-1332.0,480.0,19.0,-731.0,188.0,-145.0,0.0,0.0,0.0
19:43:18.814000,-1343.0,461.0,2.0,-731.0,188.0,-145.0,0.0,0.0,0.0
19:43:18.818000,-1352.0,443.0,-18.0,-716.0,187.0,-134.0,0.0,0.0,0.0
19:43:18.823000,-1355.0,427.0,-46.0,-716.0,187.0,-134.0,0.0,0.0,0.0
19:43:18.828000,-1353.0,414.0,-77.0,-726.0,154.0,-133.0,0.0,0.0,0.0
19:43:18.832000,-1347.0,403.0,-107.0,-726.0,154.0,-133.0,0.0,0.0,0.0
19:43:18.837000,-1346.0,397.0,-134.0,-757.0,109.0,-145.0,0.0,0.0,0.0
19:43:18.842000,-1349.0,392.0,-156.0,-757.0,109.0,-145.0,0.0,0.0,0.0
19:43:18.846000,-1362.0,394.0,-170.0,-806.0,98.0,-152.0,0.0,0.0,0.0
19:43:18.851000,-1389.0,402.0,-179.0,-806.0,98.0,-152.0,0.0,0.0,0.0
19:43:18.856000,-1389.0,402.0,-179.0,-841.0,127.0,-145.0,0.0,0.0,0.0
19:43:18.861000,-1427.0,415.0,-186.0,-841.0,127.0,-145.0,0.0,0.0,0.0
19:43:18.865000,-1474.0,431.0,-189.0,-850.0,159.0,-126.0,0.0,0.0,0.0
19:43:18.870000,-1525.0,446.0,-190.0,-850.0,159.0,-126.0,0.0,0.0,0.0
19:43:18.875000,-1570.0,458.0,-200.0,-818.0,148.0,-101.0,0.0,0.0,0.0
19:43:18.879000,-1602.0,469.0,-221.0,-818.0,148.0,-101.0,0.0,0.0,0.0
19:43:18.884000,-1615.0,479.0,-254.0,-762.0,71.0,-95.0,0.0,0.0,0.0
19:43:18.889000,-1614.0,494.0,-297.0,-762.0,71.0,-95.0,0.0,0.0,0.0
19:43:18.893000,-1599.0,514.0,-355.0,-766.0,-10.0,-115.0,0.0,0.0,0.0
19:43:18.898000,-1579.0,535.0,-422.0,-766.0,-10.0,-115.0,0.0,0.0,0.0
19:43:18.903000,-1559.0,559.0,-483.0,-828.0,-33.0,-148.0,0.0,0.0,0.0
19:43:18.908000,-1540.0,585.0,-531.0,-828.0,-33.0,-148.0,0.0,0.0,0.0
19:43:18.912000,-1526.0,608.0,-564.0,-868.0,-19.0,-181.0,0.0,0.0,0.0
19:43:18.917000,-1520.0,629.0,-575.0,-868.0,-19.0,-181.0,0.0,0.0,0.0
19:43:18.922000,-1521.0,647.0,-564.0,-854.0,0.0,-204.0,0.0,0.0,0.0
19:43:18.926000,-1533.0,664.0,-536.0,-854.0,0.0,-204.0,0.0,0.0,0.0
19:43:18.931000,-1556.0,681.0,-501.0,-854.0,0.0,-204.0,0.0,0.0,0.0
19:43:18.936000,-1591.0,697.0,-464.0,-812.0,37.0,-216.0,0.0,0.0,0.0
19:43:18.940000,-1633.0,710.0,-424.0,-812.0,37.0,-216.0,0.0,0.0,0.0
19:43:18.945000,-1677.0,721.0,-382.0,-757.0,79.0,-211.0,0.0,0.0,0.0
19:43:18.950000,-1714.0,734.0,-343.0,-757.0,79.0,-211.0,0.0,0.0,0.0
19:43:18.955000,-1739.0,752.0,-314.0,-695.0,71.0,-217.0,0.0,0.0,0.0
19:43:18.959000,-1753.0,772.0,-303.0,-695.0,71.0,-217.0,0.0,0.0,0.0
19:43:18.964000,-1755.0,795.0,-298.0,-701.0,21.0,-245.0,0.0,0.0,0.0
19:43:18.969000,-1755.0,795.0,-298.0,-701.0,21.0,-245.0,0.0,0.0,0.0
19:43:18.973000,-1745.0,823.0,-296.0,-748.0,-53.0,-278.0,0.0,0.0,0.0
19:43:18.978000,-1725.0,856.0,-296.0,-748.0,-53.0,-278.0,0.0,0.0,0.0
19:43:18.983000,-1702.0,893.0,-299.0,-743.0,-124.0,-304.0,0.0,0.0,0.0
19:43:18.987000,-1682.0,933.0,-303.0,-743.0,-124.0,-304.0,0.0,0.0,0.0
19:43:18.992000,-1666.0,973.0,-308.0,-691.0,-137.0,-327.0,0.0,0.0,0.0
19:43:18.997000,-1654.0,1009.0,-313.0,-691.0,-137.0,-327.0,0.0,0.0,0.0
19:43:19.002000,-1646.0,1038.0,-322.0,-632.0,-103.0,-347.0,0.0,0.0,0.0
19:43:19.006000,-1639.0,1061.0,-333.0,-632.0,-103.0,-347.0,0.0,0.0,0.0
19:43:19.011000,-1631.0,1078.0,-338.0,-564.0,-77.0,-357.0,0.0,0.0,0.0
19:43:19.016000,-1621.0,1091.0,-334.0,-564.0,-77.0,-357.0,0.0,0.0,0.0
19:43:19.020000,-1614.0,1097.0,-322.0,-481.0,-88.0,-360.0,0.0,0.0,0.0
19:43:19.025000,-1607.0,1096.0,-295.0,-481.0,-88.0,-360.0,0.0,0.0,0.0
19:43:19.030000,-1603.0,1089.0,-253.0,-481.0,-88.0,-360.0,0.0,0.0,0.0
19:43:19.034000,-1602.0,1080.0,-205.0,-391.0,-113.0,-361.0,0.0,0.0,0.0
19:43:19.039000,-1606.0,1072.0,-155.0,-391.0,-113.0,-361.0,0.0,0.0,0.0
19:43:19.044000,-1617.0,1069.0,-109.0,-310.0,-129.0,-368.0,0.0,0.0,0.0
19:43:19.049000,-1636.0,1067.0,-66.0,-310.0,-129.0,-368.0,0.0,0.0,0.0
19:43:19.053000,-1661.0,1064.0,-27.0,-269.0,-129.0,-379.0,0.0,0.0,0.0
19:43:19.058000,-1690.0,1062.0,2.0,-269.0,-129.0,-379.0,0.0,0.0,0.0
19:43:19.063000,-1718.0,1062.0,16.0,-260.0,-119.0,-394.0,0.0,0.0,0.0
19:43:19.067000,-1743.0,1066.0,13.0,-260.0,-119.0,-394.0,0.0,0.0,0.0
19:43:19.072000,-1759.0,1071.0,0.0,-241.0,-123.0,-422.0,0.0,0.0,0.0
19:43:19.077000,-1759.0,1071.0,0.0,-241.0,-123.0,-422.0,0.0,0.0,0.0
19:43:19.081000,-1762.0,1078.0,-15.0,-198.0,-176.0,-470.0,0.0,0.0,0.0
19:43:19.086000,-1755.0,1085.0,-31.0,-198.0,-176.0,-470.0,0.0,0.0,0.0
19:43:19.091000,-1740.0,1089.0,-47.0,-142.0,-252.0,-525.0,0.0,0.0,0.0
19:43:19.096000,-1722.0,1092.0,-60.0,-142.0,-252.0,-525.0,0.0,0.0,0.0
19:43:19.100000,-1705.0,1090.0,-63.0,-77.0,-299.0,-570.0,0.0,0.0,0.0
19:43:19.105000,-1694.0,1087.0,-50.0,-77.0,-299.0,-570.0,0.0,0.0,0.0
19:43:19.110000,-1691.0,1085.0,-21.0,7.0,-328.0,-602.0,0.0,0.0,0.0
19:43:19.114000,-1698.0,1083.0,22.0,7.0,-328.0,-602.0,0.0,0.0,0.0
19:43:19.119000,-1715.0,1078.0,67.0,76.0,-335.0,-630.0,0.0,0.0,0.0
19:43:19.124000,-1738.0,1064.0,111.0,76.0,-335.0,-630.0,0.0,0.0,0.0
19:43:19.128000,-1759.0,1042.0,146.0,91.0,-338.0,-655.0,0.0,0.0,0.0
19:43:19.133000,-1764.0,1015.0,169.0,91.0,-338.0,-655.0,0.0,0.0,0.0
19:43:19.138000,-1744.0,988.0,174.0,91.0,-338.0,-655.0,0.0,0.0,0.0
19:43:19.143000,-1701.0,966.0,158.0,82.0,-430.0,-680.0,0.0,0.0,0.0
19:43:19.147000,-1643.0,954.0,124.0,51.0,-582.0,-718.0,0.0,0.0,0.0
19:43:19.152000,-1577.0,951.0,79.0,51.0,-582.0,-718.0,0.0,0.0,0.0
19:43:19.157000,-1505.0,941.0,36.0,51.0,-582.0,-718.0,0.0,0.0,0.0
19:43:19.161000,-1426.0,937.0,7.0,-22.0,-671.0,-776.0,0.0,0.0,0.0
19:43:19.166000,-1341.0,919.0,-16.0,-22.0,-671.0,-776.0,0.0,0.0,0.0
19:43:19.171000,-1253.0,897.0,-35.0,-71.0,-729.0,-813.0,0.0,0.0,0.0
19:43:19.175000,-1178.0,874.0,-68.0,-71.0,-729.0,-813.0,0.0,0.0,0.0
19:43:19.180000,-1124.0,849.0,-107.0,-20.0,-732.0,-831.0,0.0,0.0,0.0
19:43:19.185000,-1124.0,849.0,-107.0,-20.0,-732.0,-831.0,0.0,0.0,0.0
19:43:19.190000,-1104.0,814.0,-135.0,20.0,-594.0,-865.0,0.0,0.0,0.0
19:43:19.194000,-1112.0,774.0,-150.0,20.0,-594.0,-865.0,0.0,0.0,0.0
19:43:19.199000,-1137.0,729.0,-164.0,33.0,-439.0,-904.0,0.0,0.0,0.0
19:43:19.204000,-1170.0,680.0,-193.0,33.0,-439.0,-904.0,0.0,0.0,0.0
19:43:19.208000,-1206.0,625.0,-229.0,108.0,-379.0,-933.0,0.0,0.0,0.0
19:43:19.213000,-1250.0,559.0,-256.0,108.0,-379.0,-933.0,0.0,0.0,0.0
19:43:19.218000,-1296.0,487.0,-289.0,175.0,-341.0,-930.0,0.0,0.0,0.0
19:43:19.222000,-1355.0,414.0,-340.0,175.0,-341.0,-930.0,0.0,0.0,0.0
19:43:19.226000,-1430.0,341.0,-401.0,192.0,-277.0,-904.0,0.0,0.0,0.0
19:43:19.232000,-1512.0,274.0,-446.0,192.0,-277.0,-904.0,0.0,0.0,0.0
19:43:19.236000,-1597.0,212.0,-469.0,187.0,-238.0,-853.0,0.0,0.0,0.0
19:43:19.241000,-1675.0,153.0,-483.0,187.0,-238.0,-853.0,0.0,0.0,0.0
19:43:19.246000,-1737.0,89.0,-504.0,187.0,-287.0,-853.0,0.0,0.0,0.0
19:43:19.251000,-1778.0,20.0,-544.0,142.0,-287.0,-786.0,0.0,0.0,0.0
19:43:19.255000,-1808.0,-44.0,-615.0,142.0,-287.0,-786.0,0.0,0.0,0.0
19:43:19.260000,-1828.0,-103.0,-707.0,104.0,-411.0,-736.0,0.0,0.0,0.0
19:43:19.265000,-1840.0,-163.0,-798.0,104.0,-492.0,-701.0,0.0,0.0,0.0
19:43:19.269000,-1859.0,-223.0,-875.0,89.0,-492.0,-701.0,0.0,0.0,0.0
19:43:19.274000,-1882.0,-282.0,-938.0,89.0,-492.0,-701.0,0.0,0.0,0.0
19:43:19.279000,-1905.0,-329.0,-1015.0,50.0,-490.0,-658.0,0.0,0.0,0.0
19:43:19.283000,-1932.0,-368.0,-1115.0,50.0,-490.0,-658.0,0.0,0.0,0.0
19:43:19.288000,-1963.0,-401.0,-1218.0,11.0,-455.0,-616.0,0.0,0.0,0.0
19:43:19.293000,-1963.0,-401.0,-1218.0,11.0,-455.0,-616.0,0.0,0.0,0.0
19:43:19.298000,-1995.0,-425.0,-1304.0,-28.0,-434.0,-580.0,0.0,0.0,0.0
19:43:19.302000,-2022.0,-442.0,-1381.0,-28.0,-434.0,-580.0,0.0,0.0,0.0
19:43:19.307000,-2044.0,-456.0,-1445.0,-93.0,-463.0,-542.0,0.0,0.0,0.0
19:43:19.312000,-2058.0,-466.0,-1492.0,-93.0,-463.0,-542.0,0.0,0.0,0.0
19:43:19.316000,-2066.0,-473.0,-1528.0,-176.0,-515.0,-517.0,0.0,0.0,0.0
19:43:19.321000,-2069.0,-475.0,-1551.0,-176.0,-515.0,-517.0,0.0,0.0,0.0
19:43:19.326000,-2062.0,-480.0,-1559.0,-227.0,-575.0,-511.0,0.0,0.0,0.0
19:43:19.330000,-2046.0,-490.0,-1551.0,-227.0,-575.0,-511.0,0.0,0.0,0.0
19:43:19.335000,-2030.0,-499.0,-1528.0,-196.0,-647.0,-519.0,0.0,0.0,0.0
19:43:19.340000,-2015.0,-506.0,-1509.0,-196.0,-647.0,-519.0,0.0,0.0,0.0
19:43:19.345000,-2003.0,-515.0,-1509.0,-189.0,-667.0,-534.0,0.0,0.0,0.0
19:43:19.349000,-2001.0,-526.0,-1510.0,-189.0,-667.0,-534.0,0.0,0.0,0.0
19:43:19.354000,-2005.0,-541.0,-1491.0,-223.0,-637.0,-535.0,0.0,0.0,0.0
19:43:19.359000,-2007.0,-557.0,-1458.0,-223.0,-637.0,-535.0,0.0,0.0,0.0
19:43:19.363000,-2001.0,-567.0,-1422.0,-223.0,-637.0,-535.0,0.0,0.0,0.0
19:43:19.368000,-1987.0,-571.0,-1397.0,-194.0,-655.0,-536.0,0.0,0.0,0.0
19:43:19.373000,-1959.0,-569.0,-1393.0,-194.0,-655.0,-536.0,0.0,0.0,0.0
19:43:19.377000,-1920.0,-560.0,-1399.0,-186.0,-720.0,-558.0,0.0,0.0,0.0
19:43:19.382000,-1871.0,-553.0,-1404.0,-186.0,-720.0,-558.0,0.0,0.0,0.0
19:43:19.387000,-1808.0,-556.0,-1398.0,-269.0,-805.0,-589.0,0.0,0.0,0.0
19:43:19.392000,-1737.0,-567.0,-1381.0,-269.0,-805.0,-589.0,0.0,0.0,0.0
19:43:19.396000,-1653.0,-582.0,-1362.0,-359.0,-913.0,-613.0,0.0,0.0,0.0
19:43:19.401000,-1561.0,-602.0,-1346.0,-359.0,-913.0,-613.0,0.0,0.0,0.0
19:43:19.406000,-1561.0,-602.0,-1346.0,-398.0,-1006.0,-624.0,0.0,0.0,0.0
19:43:19.410000,-1465.0,-627.0,-1323.0,-398.0,-1006.0,-624.0,0.0,0.0,0.0
19:43:19.415000,-1369.0,-673.0,-1276.0,-415.0,-1083.0,-619.0,0.0,0.0,0.0
19:43:19.420000,-1274.0,-712.0,-1211.0,-415.0,-1083.0,-619.0,0.0,0.0,0.0
19:43:19.424000,-1183.0,-731.0,-1162.0,-494.0,-1118.0,-594.0,0.0,0.0,0.0
19:43:19.429000,-1108.0,-746.0,-1152.0,-494.0,-1118.0,-594.0,0.0,0.0,0.0
19:43:19.434000,-1048.0,-756.0,-1153.0,-664.0,-1071.0,-548.0,0.0,0.0,0.0
19:43:19.439000,-994.0,-760.0,-1118.0,-664.0,-1071.0,-548.0,0.0,0.0,0.0
19:43:19.443000,-977.0,-766.0,-1088.0,-881.0,-1127.0,-460.0,0.0,0.0,0.0
19:43:19.448000,-976.0,-728.0,-1110.0,-881.0,-1127.0,-460.0,0.0,0.0,0.0
19:43:19.452000,-812.0,-688.0,-1051.0,-1145.0,-1226.0,-417.0,0.0,0.0,0.0
19:43:19.457000,-786.0,-715.0,-1039.0,-1145.0,-1226.0,-417.0,0.0,0.0,0.0
19:43:19.461000,-772.0,-667.0,-1178.0,-1299.0,-1212.0,-413.0,0.0,0.0,0.0
19:43:19.467000,-737.0,-595.0,-1120.0,-1299.0,-1212.0,-413.0,0.0,0.0,0.0
19:43:19.471000,-745.0,-518.0,-1087.0,-493.0,-947.0,-396.0,0.0,0.0,0.0
19:43:19.476000,-674.0,-471.0,-1394.0,-493.0,-947.0,-396.0,0.0,0.0,0.0
19:43:19.481000,-676.0,-426.0,-1565.0,-493.0,-947.0,-396.0,0.0,0.0,0.0
19:43:19.486000,-635.0,-412.0,-1542.0,-265.0,-772.0,-393.0,0.0,0.0,0.0
19:43:19.490000,-589.0,-376.0,-1467.0,-265.0,-772.0,-393.0,0.0,0.0,0.0
19:43:19.495000,-527.0,-357.0,-1352.0,-1060.0,-929.0,-421.0,0.0,0.0,0.0
19:43:19.500000,-492.0,-330.0,-1341.0,-1060.0,-929.0,-421.0,0.0,0.0,0.0
19:43:19.504000,-468.0,-294.0,-1355.0,-1262.0,-970.0,-472.0,0.0,0.0,0.0
19:43:19.509000,-460.0,-247.0,-1330.0,-1262.0,-970.0,-472.0,0.0,0.0,0.0
19:43:19.514000,-460.0,-247.0,-1330.0,-1171.0,-956.0,-474.0,0.0,0.0,0.0
19:43:19.518000,-480.0,-181.0,-1291.0,-1171.0,-956.0,-474.0,0.0,0.0,0.0
19:43:19.523000,-371.0,-169.0,-1227.0,-1051.0,-918.0,-500.0,0.0,0.0,0.0
19:43:19.528000,-323.0,-107.0,-1167.0,-1051.0,-918.0,-500.0,0.0,0.0,0.0
19:43:19.533000,-314.0,-72.0,-1160.0,-982.0,-801.0,-501.0,0.0,0.0,0.0
19:43:19.537000,-273.0,-23.0,-1192.0,-982.0,-801.0,-501.0,0.0,0.0,0.0
19:43:19.542000,-238.0,23.0,-1235.0,-944.0,-768.0,-464.0,0.0,0.0,0.0
19:43:19.547000,-144.0,77.0,-1193.0,-944.0,-768.0,-464.0,0.0,0.0,0.0
19:43:19.551000,-97.0,177.0,-1144.0,-1021.0,-776.0,-459.0,0.0,0.0,0.0
19:43:19.556000,-17.0,210.0,-1197.0,-1021.0,-776.0,-459.0,0.0,0.0,0.0
19:43:19.561000,-10.0,182.0,-1140.0,-1118.0,-764.0,-441.0,0.0,0.0,0.0
19:43:19.565000,30.0,172.0,-976.0,-1118.0,-764.0,-441.0,0.0,0.0,0.0
19:43:19.570000,60.0,184.0,-916.0,-1215.0,-661.0,-437.0,0.0,0.0,0.0
19:43:19.575000,56.0,183.0,-892.0,-1215.0,-661.0,-437.0,0.0,0.0,0.0
19:43:19.579000,129.0,230.0,-913.0,-1239.0,-623.0,-450.0,0.0,0.0,0.0
19:43:19.584000,142.0,254.0,-982.0,-1239.0,-623.0,-450.0,0.0,0.0,0.0
19:43:19.589000,150.0,249.0,-951.0,-1239.0,-623.0,-450.0,0.0,0.0,0.0
19:43:19.594000,142.0,259.0,-856.0,-974.0,-640.0,-445.0,0.0,0.0,0.0
19:43:19.598000,158.0,259.0,-758.0,-974.0,-640.0,-445.0,0.0,0.0,0.0
19:43:19.603000,165.0,270.0,-739.0,-806.0,-544.0,-440.0,0.0,0.0,0.0
19:43:19.608000,220.0,275.0,-864.0,-806.0,-544.0,-440.0,0.0,0.0,0.0
19:43:19.612000,213.0,289.0,-975.0,-946.0,-434.0,-455.0,0.0,0.0,0.0
19:43:19.617000,199.0,305.0,-935.0,-946.0,-434.0,-455.0,0.0,0.0,0.0
19:43:19.622000,199.0,305.0,-935.0,-1054.0,-423.0,-453.0,0.0,0.0,0.0
19:43:19.627000,203.0,296.0,-856.0,-1054.0,-423.0,-453.0,0.0,0.0,0.0
19:43:19.631000,193.0,319.0,-884.0,-996.0,-431.0,-440.0,0.0,0.0,0.0
19:43:19.636000,25.0,343.0,-896.0,-996.0,-431.0,-440.0,0.0,0.0,0.0
19:43:19.641000,85.0,266.0,-882.0,-928.0,-434.0,-473.0,0.0,0.0,0.0
19:43:19.645000,405.0,241.0,-847.0,-928.0,-434.0,-473.0,0.0,0.0,0.0
19:43:19.650000,186.0,316.0,-823.0,-881.0,-433.0,-426.0,0.0,0.0,0.0
19:43:19.655000,144.0,279.0,-902.0,-881.0,-433.0,-426.0,0.0,0.0,0.0
19:43:19.659000,199.0,269.0,-959.0,-757.0,-348.0,-393.0,0.0,0.0,0.0
19:43:19.664000,187.0,246.0,-905.0,-757.0,-348.0,-393.0,0.0,0.0,0.0
19:43:19.669000,122.0,240.0,-842.0,-716.0,-287.0,-435.0,0.0,0.0,0.0
19:43:19.674000,191.0,212.0,-877.0,-716.0,-287.0,-435.0,0.0,0.0,0.0
19:43:19.678000,166.0,205.0,-935.0,-735.0,-216.0,-423.0,0.0,0.0,0.0
19:43:19.683000,139.0,186.0,-914.0,-735.0,-216.0,-423.0,0.0,0.0,0.0
19:43:19.688000,143.0,171.0,-887.0,-735.0,-216.0,-423.0,0.0,0.0,0.0
19:43:19.692000,161.0,147.0,-871.0,-701.0,-128.0,-440.0,0.0,0.0,0.0
19:43:19.696000,127.0,123.0,-840.0,-686.0,0.0,-450.0,0.0,0.0,0.0
19:43:19.702000,102.0,110.0,-807.0,-686.0,0.0,-450.0,0.0,0.0,0.0
19:43:19.706000,111.0,88.0,-803.0,-686.0,0.0,-450.0,0.0,0.0,0.0
19:43:19.711000,89.0,79.0,-789.0,-721.0,130.0,-450.0,0.0,0.0,0.0
19:43:19.716000,72.0,61.0,-751.0,-721.0,130.0,-450.0,0.0,0.0,0.0
19:43:19.721000,50.0,51.0,-683.0,-757.0,232.0,-453.0,0.0,0.0,0.0
19:43:19.725000,7.0,42.0,-585.0,-757.0,232.0,-453.0,0.0,0.0,0.0
19:43:19.730000,7.0,42.0,-585.0,-755.0,343.0,-439.0,0.0,0.0,0.0
19:43:19.735000,-21.0,41.0,-527.0,-755.0,343.0,-439.0,0.0,0.0,0.0
19:43:19.739000,-60.0,39.0,-518.0,-771.0,403.0,-429.0,0.0,0.0,0.0
19:43:19.744000,-105.0,36.0,-465.0,-771.0,403.0,-429.0,0.0,0.0,0.0
19:43:19.749000,-119.0,21.0,-354.0,-787.0,397.0,-428.0,0.0,0.0,0.0
19:43:19.753000,-128.0,4.0,-294.0,-787.0,397.0,-428.0,0.0,0.0,0.0
19:43:19.758000,-121.0,-18.0,-280.0,-790.0,405.0,-427.0,0.0,0.0,0.0
19:43:19.763000,-100.0,-41.0,-254.0,-790.0,405.0,-427.0,0.0,0.0,0.0
19:43:19.768000,-77.0,-70.0,-224.0,-747.0,414.0,-406.0,0.0,0.0,0.0
19:43:19.772000,-91.0,-90.0,-156.0,-747.0,414.0,-406.0,0.0,0.0,0.0
19:43:19.777000,-86.0,-107.0,-70.0,-732.0,339.0,-382.0,0.0,0.0,0.0
19:43:19.782000,-67.0,-121.0,-51.0,-732.0,339.0,-382.0,0.0,0.0,0.0
19:43:19.786000,-61.0,-132.0,-50.0,-741.0,314.0,-365.0,0.0,0.0,0.0
19:43:19.791000,-75.0,-140.0,3.0,-741.0,314.0,-365.0,0.0,0.0,0.0
19:43:19.796000,-77.0,-149.0,81.0,-741.0,314.0,-365.0,0.0,0.0,0.0
19:43:19.800000,-77.0,-154.0,137.0,-739.0,360.0,-348.0,0.0,0.0,0.0
19:43:19.805000,-69.0,-158.0,179.0,-739.0,360.0,-348.0,0.0,0.0,0.0
19:43:19.810000,-62.0,-164.0,199.0,-776.0,380.0,-339.0,0.0,0.0,0.0
19:43:19.815000,-65.0,-163.0,226.0,-776.0,380.0,-339.0,0.0,0.0,0.0
19:43:19.819000,-63.0,-165.0,267.0,-807.0,368.0,-326.0,0.0,0.0,0.0
19:43:19.824000,-46.0,-178.0,294.0,-807.0,368.0,-326.0,0.0,0.0,0.0
19:43:19.829000,-58.0,-182.0,262.0,-870.0,377.0,-311.0,0.0,0.0,0.0
19:43:19.833000,-81.0,-173.0,200.0,-870.0,377.0,-311.0,0.0,0.0,0.0
19:43:19.838000,-102.0,-163.0,225.0,-896.0,444.0,-289.0,0.0,0.0,0.0
19:43:19.843000,-102.0,-163.0,225.0,-896.0,444.0,-289.0,0.0,0.0,0.0
19:43:19.847000,-128.0,-163.0,285.0,-881.0,485.0,-272.0,0.0,0.0,0.0
19:43:19.852000,-151.0,-158.0,324.0,-881.0,485.0,-272.0,0.0,0.0,0.0
19:43:19.857000,-175.0,-153.0,319.0,-928.0,477.0,-274.0,0.0,0.0,0.0
19:43:19.862000,-172.0,-149.0,335.0,-928.0,477.0,-274.0,0.0,0.0,0.0
19:43:19.866000,-179.0,-141.0,385.0,-985.0,428.0,-274.0,0.0,0.0,0.0
19:43:19.871000,-182.0,-139.0,441.0,-985.0,428.0,-274.0,0.0,0.0,0.0
19:43:19.876000,-190.0,-130.0,444.0,-1064.0,376.0,-270.0,0.0,0.0,0.0
19:43:19.880000,-190.0,-120.0,436.0,-1064.0,376.0,-270.0,0.0,0.0,0.0
19:43:19.885000,-151.0,-106.0,352.0,-1109.0,464.0,-271.0,0.0,0.0,0.0
19:43:19.890000,-186.0,-86.0,351.0,-1109.0,464.0,-271.0,0.0,0.0,0.0
19:43:19.894000,-210.0,-67.0,389.0,-1108.0,526.0,-267.0,0.0,0.0,0.0
19:43:19.899000,-205.0,-49.0,421.0,-1108.0,526.0,-267.0,0.0,0.0,0.0
19:43:19.904000,-213.0,-49.0,382.0,-1108.0,526.0,-267.0,0.0,0.0,0.0
19:43:19.909000,-247.0,-35.0,392.0,-1119.0,516.0,-264.0,0.0,0.0,0.0
19:43:19.913000,-242.0,-26.0,464.0,-1119.0,516.0,-264.0,0.0,0.0,0.0
19:43:19.918000,-238.0,-7.0,441.0,-1069.0,497.0,-297.0,0.0,0.0,0.0
19:43:19.923000,-279.0,0.0,349.0,-1069.0,497.0,-297.0,0.0,0.0,0.0
19:43:19.927000,-316.0,-14.0,414.0,-1114.0,503.0,-317.0,0.0,0.0,0.0
19:43:19.932000,-373.0,-39.0,685.0,-1114.0,503.0,-317.0,0.0,0.0,0.0
19:43:19.937000,-310.0,-40.0,608.0,-1254.0,497.0,-311.0,0.0,0.0,0.0
19:43:19.941000,-305.0,-27.0,326.0,-1254.0,497.0,-311.0,0.0,0.0,0.0
19:43:19.946000,-419.0,-2.0,316.0,-1250.0,472.0,-309.0,0.0,0.0,0.0
19:43:19.951000,-419.0,-2.0,316.0,-1250.0,472.0,-309.0,0.0,0.0,0.0
19:43:19.956000,-377.0,2.0,409.0,-1143.0,489.0,-334.0,0.0,0.0,0.0
19:43:19.960000,-406.0,23.0,308.0,-1143.0,489.0,-334.0,0.0,0.0,0.0
19:43:19.965000,-394.0,24.0,134.0,-1146.0,390.0,-364.0,0.0,0.0,0.0
19:43:19.970000,-389.0,12.0,266.0,-1146.0,390.0,-364.0,0.0,0.0,0.0
19:43:19.974000,-365.0,-4.0,429.0,-1226.0,302.0,-391.0,0.0,0.0,0.0
19:43:19.979000,-359.0,-12.0,310.0,-1226.0,302.0,-391.0,0.0,0.0,0.0
19:43:19.984000,-348.0,-9.0,62.0,-1269.0,304.0,-426.0,0.0,0.0,0.0
19:43:19.988000,-310.0,-37.0,12.0,-1269.0,304.0,-426.0,0.0,0.0,0.0
19:43:19.993000,-287.0,-72.0,133.0,-1195.0,230.0,-465.0,0.0,0.0,0.0
19:43:19.998000,-253.0,-112.0,146.0,-1195.0,230.0,-465.0,0.0,0.0,0.0
19:43:20.003000,-259.0,-127.0,-84.0,-1148.0,352.0,-485.0,0.0,0.0,0.0
19:43:20.007000,-253.0,-143.0,-266.0,-1148.0,352.0,-485.0,0.0,0.0,0.0
19:43:20.012000,-245.0,-163.0,-227.0,-1148.0,352.0,-485.0,0.0,0.0,0.0
19:43:20.017000,-280.0,-158.0,-182.0,-1120.0,507.0,-477.0,0.0,0.0,0.0
19:43:20.021000,-235.0,-190.0,-155.0,-1120.0,507.0,-477.0,0.0,0.0,0.0
19:43:20.026000,-226.0,-206.0,-140.0,-1168.0,521.0,-492.0,0.0,0.0,0.0
19:43:20.031000,-277.0,-200.0,-317.0,-1168.0,521.0,-492.0,0.0,0.0,0.0
19:43:20.035000,-333.0,-206.0,-518.0,-1245.0,705.0,-479.0,0.0,0.0,0.0
19:43:20.040000,-313.0,-199.0,-587.0,-1245.0,705.0,-479.0,0.0,0.0,0.0
19:43:20.044000,-313.0,-199.0,-587.0,-1245.0,730.0,-451.0,0.0,0.0,0.0
19:43:20.050000,-250.0,-196.0,-373.0,-1245.0,730.0,-451.0,0.0,0.0,0.0
19:43:20.054000,-175.0,-203.0,-334.0,-1332.0,593.0,-446.0,0.0,0.0,0.0
19:43:20.059000,-175.0,-203.0,-334.0,-1332.0,593.0,-446.0,0.0,0.0,0.0
19:43:20.064000,-128.0,-203.0,-175.0,-1395.0,604.0,-414.0,0.0,0.0,0.0
19:43:20.068000,-171.0,-165.0,-49.0,-1395.0,604.0,-414.0,0.0,0.0,0.0
19:43:20.073000,-236.0,-112.0,-52.0,-1437.0,637.0,-364.0,0.0,0.0,0.0
19:43:20.078000,-231.0,-121.0,-164.0,-1437.0,637.0,-364.0,0.0,0.0,0.0
19:43:20.082000,-133.0,-77.0,-358.0,-1386.0,543.0,-335.0,0.0,0.0,0.0
19:43:20.087000,-133.0,-76.0,-366.0,-1386.0,543.0,-335.0,0.0,0.0,0.0
19:43:20.092000,-207.0,-106.0,-224.0,-1268.0,357.0,-304.0,0.0,0.0,0.0
19:43:20.097000,-170.0,-113.0,-97.0,-1268.0,357.0,-304.0,0.0,0.0,0.0
19:43:20.101000,-239.0,-117.0,-170.0,-1065.0,250.0,-261.0,0.0,0.0,0.0
19:43:20.106000,-334.0,-114.0,-97.0,-1065.0,250.0,-261.0,0.0,0.0,0.0
19:43:20.111000,-483.0,-81.0,14.0,-936.0,82.0,-227.0,0.0,0.0,0.0
19:43:20.115000,-539.0,-126.0,-135.0,-936.0,82.0,-227.0,0.0,0.0,0.0
19:43:20.120000,-556.0,-158.0,-135.0,-936.0,-321.0,-215.0,0.0,0.0,0.0
19:43:20.125000,-511.0,-175.0,33.0,-814.0,-321.0,-215.0,0.0,0.0,0.0
19:43:20.129000,-488.0,-165.0,76.0,-814.0,-321.0,-215.0,0.0,0.0,0.0
19:43:20.134000,-422.0,-147.0,197.0,-633.0,-579.0,-201.0,0.0,0.0,0.0
19:43:20.139000,-419.0,-135.0,478.0,-633.0,-579.0,-201.0,0.0,0.0,0.0
19:43:20.144000,-394.0,-144.0,468.0,-795.0,-783.0,-171.0,0.0,0.0,0.0
19:43:20.148000,-389.0,-137.0,152.0,-795.0,-783.0,-171.0,0.0,0.0,0.0
19:43:20.153000,-374.0,-126.0,0.0,-869.0,-910.0,-180.0,0.0,0.0,0.0
19:43:20.158000,-329.0,-119.0,252.0,-869.0,-910.0,-180.0,0.0,0.0,0.0
19:43:20.162000,-284.0,-117.0,203.0,-634.0,-1004.0,-212.0,0.0,0.0,0.0
19:43:20.166000,-284.0,-117.0,203.0,-634.0,-1004.0,-212.0,0.0,0.0,0.0
19:43:20.172000,-160.0,-132.0,-198.0,-768.0,-1009.0,-255.0,0.0,0.0,0.0
19:43:20.176000,-99.0,-128.0,-438.0,-768.0,-1009.0,-255.0,0.0,0.0,0.0
19:43:20.181000,-67.0,-130.0,-326.0,-884.0,-795.0,-299.0,0.0,0.0,0.0
19:43:20.186000,-9.0,-137.0,-116.0,-884.0,-795.0,-299.0,0.0,0.0,0.0
19:43:20.191000,-52.0,-130.0,-39.0,-951.0,-574.0,-276.0,0.0,0.0,0.0
19:43:20.195000,-147.0,-119.0,-30.0,-951.0,-574.0,-276.0,0.0,0.0,0.0
19:43:20.200000,-217.0,-109.0,-107.0,-1160.0,-451.0,-247.0,0.0,0.0,0.0
19:43:20.205000,-161.0,-121.0,-285.0,-1160.0,-451.0,-247.0,0.0,0.0,0.0
19:43:20.209000,-101.0,-124.0,-298.0,-1035.0,-565.0,-263.0,0.0,0.0,0.0
19:43:20.214000,-145.0,-126.0,-2.0,-1035.0,-565.0,-263.0,0.0,0.0,0.0
19:43:20.219000,-144.0,-144.0,185.0,-910.0,-605.0,-259.0,0.0,0.0,0.0
19:43:20.223000,-32.0,-151.0,25.0,-910.0,-605.0,-259.0,0.0,0.0,0.0
19:43:20.228000,-34.0,-147.0,-104.0,-966.0,-616.0,-226.0,0.0,0.0,0.0
19:43:20.233000,-6.0,-150.0,-166.0,-966.0,-616.0,-226.0,0.0,0.0,0.0
19:43:20.238000,-29.0,-142.0,-120.0,-966.0,-616.0,-226.0,0.0,0.0,0.0
19:43:20.242000,-65.0,-128.0,-27.0,-1009.0,-540.0,-180.0,0.0,0.0,0.0
19:43:20.247000,-63.0,-117.0,-48.0,-1009.0,-540.0,-180.0,0.0,0.0,0.0
19:43:20.252000,-77.0,-127.0,-62.0,-1001.0,-474.0,-152.0,0.0,0.0,0.0
19:43:20.256000,-36.0,-142.0,-16.0,-1001.0,-474.0,-152.0,0.0,0.0,0.0
19:43:20.261000,-80.0,-125.0,30.0,-910.0,-580.0,-174.0,0.0,0.0,0.0
19:43:20.266000,-124.0,-118.0,-19.0,-910.0,-580.0,-174.0,0.0,0.0,0.0
19:43:20.270000,-164.0,-100.0,-229.0,-893.0,-448.0,-186.0,0.0,0.0,0.0
19:43:20.275000,-184.0,-83.0,-336.0,-893.0,-448.0,-186.0,0.0,0.0,0.0
19:43:20.280000,-184.0,-83.0,-336.0,-951.0,-352.0,-188.0,0.0,0.0,0.0
19:43:20.285000,-126.0,-100.0,-203.0,-951.0,-352.0,-188.0,0.0,0.0,0.0
19:43:20.289000,-128.0,-99.0,-95.0,-832.0,-450.0,-205.0,0.0,0.0,0.0
19:43:20.294000,-116.0,-104.0,-86.0,-832.0,-450.0,-205.0,0.0,0.0,0.0
19:43:20.299000,-146.0,-98.0,-105.0,-855.0,-530.0,-224.0,0.0,0.0,0.0
19:43:20.303000,-112.0,-114.0,13.0,-855.0,-530.0,-224.0,0.0,0.0,0.0
19:43:20.308000,-118.0,-96.0,7.0,-1073.0,-504.0,-258.0,0.0,0.0,0.0
19:43:20.313000,-98.0,-107.0,-134.0,-1073.0,-504.0,-258.0,0.0,0.0,0.0
19:43:20.317000,-121.0,-119.0,-140.0,-981.0,-324.0,-262.0,0.0,0.0,0.0
19:43:20.322000,-190.0,-116.0,-1.0,-981.0,-324.0,-262.0,0.0,0.0,0.0
19:43:20.327000,-261.0,-102.0,99.0,-771.0,-291.0,-255.0,0.0,0.0,0.0
19:43:20.332000,-253.0,-112.0,59.0,-771.0,-291.0,-255.0,0.0,0.0,0.0
19:43:20.336000,-184.0,-131.0,-35.0,-837.0,-420.0,-285.0,0.0,0.0,0.0
19:43:20.341000,-149.0,-119.0,14.0,-837.0,-420.0,-285.0,0.0,0.0,0.0
19:43:20.346000,-135.0,-120.0,112.0,-837.0,-420.0,-285.0,0.0,0.0,0.0
19:43:20.350000,-88.0,-126.0,170.0,-983.0,-528.0,-290.0,0.0,0.0,0.0
19:43:20.355000,-65.0,-148.0,145.0,-983.0,-528.0,-290.0,0.0,0.0,0.0
19:43:20.360000,-86.0,-170.0,135.0,-947.0,-527.0,-266.0,0.0,0.0,0.0
19:43:20.364000,-79.0,-175.0,110.0,-947.0,-527.0,-266.0,0.0,0.0,0.0
19:43:20.369000,-78.0,-188.0,31.0,-822.0,-456.0,-263.0,0.0,0.0,0.0
19:43:20.374000,-60.0,-203.0,-96.0,-822.0,-456.0,-263.0,0.0,0.0,0.0
19:43:20.379000,-33.0,-212.0,-210.0,-830.0,-446.0,-258.0,0.0,0.0,0.0
19:43:20.383000,-20.0,-219.0,-256.0,-830.0,-446.0,-258.0,0.0,0.0,0.0
19:43:20.388000,-20.0,-219.0,-256.0,-865.0,-472.0,-228.0,0.0,0.0,0.0
19:43:20.393000,-21.0,-227.0,-222.0,-865.0,-472.0,-228.0,0.0,0.0,0.0
19:43:20.397000,-18.0,-232.0,-175.0,-879.0,-478.0,-198.0,0.0,0.0,0.0
19:43:20.401000,-8.0,-239.0,-177.0,-879.0,-478.0,-198.0,0.0,0.0,0.0
19:43:20.407000,-30.0,-243.0,-210.0,-892.0,-433.0,-165.0,0.0,0.0,0.0
19:43:20.411000,-31.0,-242.0,-198.0,-892.0,-433.0,-165.0,0.0,0.0,0.0
19:43:20.416000,-32.0,-242.0,-214.0,-902.0,-407.0,-137.0,0.0,0.0,0.0
19:43:20.421000,-32.0,-234.0,-196.0,-902.0,-407.0,-137.0,0.0,0.0,0.0
19:43:20.426000,-49.0,-212.0,-142.0,-948.0,-388.0,-129.0,0.0,0.0,0.0
19:43:20.430000,-46.0,-186.0,-84.0,-948.0,-388.0,-129.0,0.0,0.0,0.0
19:43:20.435000,-35.0,-184.0,-30.0,-999.0,-353.0,-114.0,0.0,0.0,0.0
19:43:20.440000,-68.0,-175.0,-18.0,-999.0,-353.0,-114.0,0.0,0.0,0.0
19:43:20.444000,-87.0,-165.0,-58.0,-982.0,-339.0,-108.0,0.0,0.0,0.0
19:43:20.449000,-60.0,-127.0,-114.0,-982.0,-339.0,-108.0,0.0,0.0,0.0
19:43:20.454000,-37.0,-100.0,-133.0,-982.0,-339.0,-108.0,0.0,0.0,0.0
19:43:20.458000,6.0,-72.0,-60.0,-962.0,-390.0,-116.0,0.0,0.0,0.0
19:43:20.463000,61.0,-69.0,51.0,-962.0,-390.0,-116.0,0.0,0.0,0.0
19:43:20.468000,-3.0,-47.0,36.0,-990.0,-432.0,-109.0,0.0,0.0,0.0
19:43:20.473000,-18.0,-21.0,-154.0,-990.0,-432.0,-109.0,0.0,0.0,0.0
19:43:20.477000,24.0,-2.0,-310.0,-977.0,-386.0,-106.0,0.0,0.0,0.0
19:43:20.482000,63.0,11.0,-316.0,-977.0,-386.0,-106.0,0.0,0.0,0.0
19:43:20.487000,44.0,19.0,-164.0,-905.0,-371.0,-117.0,0.0,0.0,0.0
19:43:20.491000,-4.0,25.0,-35.0,-905.0,-371.0,-117.0,0.0,0.0,0.0
19:43:20.495000,-4.0,25.0,-35.0,-862.0,-432.0,-124.0,0.0,0.0,0.0
19:43:20.501000,22.0,40.0,-46.0,-862.0,-432.0,-124.0,0.0,0.0,0.0
19:43:20.505000,85.0,44.0,-143.0,-908.0,-423.0,-153.0,0.0,0.0,0.0
19:43:20.510000,97.0,41.0,-174.0,-908.0,-423.0,-153.0,0.0,0.0,0.0
19:43:20.515000,63.0,31.0,-126.0,-895.0,-324.0,-164.0,0.0,0.0,0.0
19:43:20.520000,32.0,19.0,-147.0,-895.0,-324.0,-164.0,0.0,0.0,0.0
19:43:20.524000,38.0,16.0,-251.0,-825.0,-314.0,-176.0,0.0,0.0,0.0
19:43:20.529000,66.0,5.0,-251.0,-825.0,-314.0,-176.0,0.0,0.0,0.0
19:43:20.534000,86.0,-23.0,-95.0,-806.0,-400.0,-213.0,0.0,0.0,0.0
19:43:20.538000,99.0,-42.0,30.0,-806.0,-400.0,-213.0,0.0,0.0,0.0
19:43:20.543000,84.0,-49.0,56.0,-891.0,-343.0,-217.0,0.0,0.0,0.0
19:43:20.548000,65.0,-64.0,-75.0,-891.0,-343.0,-217.0,0.0,0.0,0.0
19:43:20.552000,72.0,-72.0,-144.0,-892.0,-295.0,-213.0,0.0,0.0,0.0
19:43:20.557000,91.0,-66.0,-97.0,-892.0,-295.0,-213.0,0.0,0.0,0.0
19:43:20.562000,128.0,-72.0,-47.0,-892.0,-295.0,-213.0,0.0,0.0,0.0
19:43:20.567000,146.0,-91.0,-132.0,-824.0,-356.0,-214.0,0.0,0.0,0.0
19:43:20.571000,95.0,-116.0,-239.0,-824.0,-356.0,-214.0,0.0,0.0,0.0
19:43:20.576000,39.0,-106.0,-193.0,-819.0,-325.0,-195.0,0.0,0.0,0.0
19:43:20.581000,51.0,-99.0,-209.0,-819.0,-325.0,-195.0,0.0,0.0,0.0
19:43:20.585000,72.0,-114.0,-337.0,-852.0,-306.0,-197.0,0.0,0.0,0.0
19:43:20.590000,81.0,-127.0,-316.0,-852.0,-306.0,-197.0,0.0,0.0,0.0
19:43:20.595000,70.0,-132.0,-168.0,-858.0,-359.0,-205.0,0.0,0.0,0.0
19:43:20.599000,63.0,-137.0,-122.0,-858.0,-359.0,-205.0,0.0,0.0,0.0
19:43:20.604000,53.0,-142.0,-179.0,-832.0,-343.0,-187.0,0.0,0.0,0.0
19:43:20.609000,53.0,-142.0,-179.0,-832.0,-343.0,-187.0,0.0,0.0,0.0
19:43:20.614000,20.0,-149.0,-228.0,-882.0,-284.0,-169.0,0.0,0.0,0.0
19:43:20.618000,10.0,-153.0,-209.0,-882.0,-284.0,-169.0,0.0,0.0,0.0
19:43:20.623000,3.0,-144.0,-200.0,-940.0,-271.0,-168.0,0.0,0.0,0.0
19:43:20.628000,-21.0,-128.0,-227.0,-940.0,-271.0,-168.0,0.0,0.0,0.0
19:43:20.632000,-48.0,-109.0,-212.0,-975.0,-245.0,-170.0,0.0,0.0,0.0
19:43:20.636000,-65.0,-101.0,-175.0,-975.0,-245.0,-170.0,0.0,0.0,0.0
19:43:20.642000,-65.0,-87.0,-144.0,-975.0,-282.0,-176.0,0.0,0.0,0.0
19:43:20.646000,-49.0,-81.0,-153.0,-975.0,-282.0,-176.0,0.0,0.0,0.0
19:43:20.651000,-16.0,-71.0,-129.0,-977.0,-348.0,-200.0,0.0,0.0,0.0
19:43:20.656000,-3.0,-67.0,-79.0,-977.0,-348.0,-200.0,0.0,0.0,0.0
19:43:20.661000,-32.0,-63.0,-99.0,-996.0,-295.0,-201.0,0.0,0.0,0.0
19:43:20.665000,-29.0,-63.0,-172.0,-996.0,-295.0,-201.0,0.0,0.0,0.0
19:43:20.670000,-11.0,-60.0,-211.0,-908.0,-265.0,-189.0,0.0,0.0,0.0
19:43:20.675000,11.0,-62.0,-179.0,-908.0,-265.0,-189.0,0.0,0.0,0.0
19:43:20.679000,28.0,-51.0,-118.0,-908.0,-265.0,-189.0,0.0,0.0,0.0
19:43:20.684000,51.0,-46.0,-107.0,-868.0,-363.0,-192.0,0.0,0.0,0.0
19:43:20.689000,68.0,-44.0,-149.0,-868.0,-363.0,-192.0,0.0,0.0,0.0
19:43:20.693000,79.0,-41.0,-223.0,-981.0,-374.0,-189.0,0.0,0.0,0.0
19:43:20.698000,105.0,-47.0,-301.0,-981.0,-374.0,-189.0,0.0,0.0,0.0
19:43:20.703000,138.0,-44.0,-319.0,-998.0,-357.0,-185.0,0.0,0.0,0.0
19:43:20.708000,154.0,-41.0,-319.0,-998.0,-357.0,-185.0,0.0,0.0,0.0
19:43:20.712000,162.0,-49.0,-366.0,-971.0,-380.0,-182.0,0.0,0.0,0.0
19:43:20.717000,162.0,-49.0,-366.0,-971.0,-380.0,-182.0,0.0,0.0,0.0
19:43:20.722000,143.0,-57.0,-389.0,-956.0,-375.0,-167.0,0.0,0.0,0.0
19:43:20.726000,162.0,-51.0,-343.0,-956.0,-375.0,-167.0,0.0,0.0,0.0
19:43:20.731000,168.0,-46.0,-359.0,-957.0,-322.0,-158.0,0.0,0.0,0.0
19:43:20.736000,159.0,-39.0,-409.0,-957.0,-322.0,-158.0,0.0,0.0,0.0
19:43:20.740000,137.0,-32.0,-398.0,-1011.0,-273.0,-144.0,0.0,0.0,0.0
19:43:20.745000,111.0,-31.0,-344.0,-1011.0,-273.0,-144.0,0.0,0.0,0.0
19:43:20.750000,91.0,-29.0,-312.0,-1063.0,-301.0,-128.0,0.0,0.0,0.0
19:43:20.755000,84.0,-25.0,-322.0,-1063.0,-301.0,-128.0,0.0,0.0,0.0
19:43:20.759000,75.0,-16.0,-384.0,-1070.0,-278.0,-122.0,0.0,0.0,0.0
19:43:20.764000,63.0,-7.0,-437.0,-1070.0,-278.0,-122.0,0.0,0.0,0.0
19:43:20.769000,46.0,-1.0,-422.0,-1027.0,-256.0,-109.0,0.0,0.0,0.0
19:43:20.773000,43.0,6.0,-414.0,-1027.0,-256.0,-109.0,0.0,0.0,0.0
19:43:20.778000,44.0,20.0,-462.0,-1027.0,-256.0,-109.0,0.0,0.0,0.0
19:43:20.783000,51.0,31.0,-512.0,-1051.0,-280.0,-100.0,0.0,0.0,0.0
19:43:20.787000,49.0,46.0,-520.0,-1073.0,-280.0,-97.0,0.0,0.0,0.0
19:43:20.792000,46.0,58.0,-523.0,-1073.0,-280.0,-97.0,0.0,0.0,0.0
19:43:20.797000,44.0,70.0,-534.0,-1073.0,-280.0,-97.0,0.0,0.0,0.0
19:43:20.802000,51.0,83.0,-548.0,-1061.0,-278.0,-95.0,0.0,0.0,0.0
19:43:20.806000,54.0,96.0,-562.0,-1061.0,-278.0,-95.0,0.0,0.0,0.0
19:43:20.811000,49.0,106.0,-586.0,-1077.0,-252.0,-98.0,0.0,0.0,0.0
19:43:20.816000,45.0,114.0,-592.0,-1077.0,-252.0,-98.0,0.0,0.0,0.0
19:43:20.820000,49.0,127.0,-584.0,-1057.0,-225.0,-101.0,0.0,0.0,0.0
19:43:20.825000,49.0,127.0,-584.0,-1057.0,-225.0,-101.0,0.0,0.0,0.0
19:43:20.830000,50.0,136.0,-583.0,-1023.0,-224.0,-105.0,0.0,0.0,0.0
19:43:20.834000,49.0,140.0,-585.0,-1023.0,-224.0,-105.0,0.0,0.0,0.0
19:43:20.839000,48.0,140.0,-606.0,-1010.0,-222.0,-113.0,0.0,0.0,0.0
19:43:20.844000,53.0,140.0,-611.0,-1010.0,-222.0,-113.0,0.0,0.0,0.0
19:43:20.848000,56.0,142.0,-603.0,-991.0,-196.0,-122.0,0.0,0.0,0.0
19:43:20.853000,53.0,142.0,-602.0,-991.0,-196.0,-122.0,0.0,0.0,0.0
19:43:20.858000,49.0,137.0,-603.0,-980.0,-153.0,-129.0,0.0,0.0,0.0
19:43:20.863000,51.0,135.0,-620.0,-980.0,-153.0,-129.0,0.0,0.0,0.0
19:43:20.867000,56.0,130.0,-641.0,-979.0,-116.0,-133.0,0.0,0.0,0.0
19:43:20.871000,60.0,123.0,-640.0,-979.0,-116.0,-133.0,0.0,0.0,0.0
19:43:20.877000,67.0,114.0,-610.0,-980.0,-117.0,-138.0,0.0,0.0,0.0
19:43:20.881000,67.0,103.0,-585.0,-980.0,-117.0,-138.0,0.0,0.0,0.0
19:43:20.886000,67.0,92.0,-585.0,-980.0,-103.0,-138.0,0.0,0.0,0.0
19:43:20.891000,69.0,79.0,-583.0,-986.0,-103.0,-140.0,0.0,0.0,0.0
19:43:20.895000,61.0,72.0,-566.0,-986.0,-103.0,-140.0,0.0,0.0,0.0
19:43:20.900000,56.0,65.0,-546.0,-966.0,-62.0,-138.0,0.0,0.0,0.0
19:43:20.905000,49.0,63.0,-538.0,-966.0,-33.0,-139.0,0.0,0.0,0.0
19:43:20.910000,46.0,63.0,-561.0,-953.0,-33.0,-139.0,0.0,0.0,0.0
19:43:20.914000,35.0,67.0,-589.0,-953.0,-33.0,-139.0,0.0,0.0,0.0
19:43:20.919000,20.0,74.0,-580.0,-988.0,-6.0,-139.0,0.0,0.0,0.0
19:43:20.924000,12.0,81.0,-557.0,-988.0,-6.0,-139.0,0.0,0.0,0.0
19:43:20.928000,8.0,89.0,-560.0,-1032.0,-9.0,-142.0,0.0,0.0,0.0
19:43:20.933000,8.0,89.0,-560.0,-1032.0,-9.0,-142.0,0.0,0.0,0.0
19:43:20.938000,1.0,100.0,-578.0,-1051.0,-25.0,-148.0,0.0,0.0,0.0
19:43:20.942000,-9.0,110.0,-568.0,-1051.0,-25.0,-148.0,0.0,0.0,0.0
19:43:20.947000,-15.0,122.0,-546.0,-1027.0,-32.0,-153.0,0.0,0.0,0.0
19:43:20.952000,-17.0,131.0,-539.0,-1027.0,-32.0,-153.0,0.0,0.0,0.0
19:43:20.957000,-18.0,141.0,-533.0,-1003.0,-36.0,-161.0,0.0,0.0,0.0
19:43:20.961000,-11.0,142.0,-524.0,-1003.0,-36.0,-161.0,0.0,0.0,0.0
19:43:20.965000,1.0,139.0,-542.0,-990.0,-38.0,-172.0,0.0,0.0,0.0
19:43:20.971000,13.0,137.0,-562.0,-990.0,-38.0,-172.0,0.0,0.0,0.0
19:43:20.975000,28.0,137.0,-558.0,-960.0,-48.0,-183.0,0.0,0.0,0.0
19:43:20.980000,42.0,129.0,-538.0,-960.0,-48.0,-183.0,0.0,0.0,0.0
19:43:20.985000,56.0,121.0,-529.0,-943.0,-40.0,-196.0,0.0,0.0,0.0
19:43:20.989000,63.0,109.0,-544.0,-943.0,-40.0,-196.0,0.0,0.0,0.0
19:43:20.994000,65.0,102.0,-573.0,-944.0,5.0,-210.0,0.0,0.0,0.0
19:43:20.999000,65.0,98.0,-577.0,-944.0,5.0,-210.0,0.0,0.0,0.0
19:43:21.004000,54.0,97.0,-559.0,-944.0,5.0,-210.0,0.0,0.0,0.0
19:43:21.008000,41.0,93.0,-542.0,-947.0,46.0,-221.0,0.0,0.0,0.0
19:43:21.013000,25.0,91.0,-543.0,-947.0,46.0,-221.0,0.0,0.0,0.0
19:43:21.018000,7.0,95.0,-542.0,-966.0,82.0,-232.0,0.0,0.0,0.0
19:43:21.022000,-9.0,100.0,-543.0,-966.0,82.0,-232.0,0.0,0.0,0.0
19:43:21.027000,-19.0,103.0,-532.0,-995.0,101.0,-244.0,0.0,0.0,0.0
19:43:21.032000,-23.0,107.0,-500.0,-995.0,101.0,-244.0,0.0,0.0,0.0
19:43:21.036000,-28.0,112.0,-473.0,-1013.0,74.0,-256.0,0.0,0.0,0.0
19:43:21.041000,-36.0,116.0,-464.0,-1013.0,74.0,-256.0,0.0,0.0,0.0
19:43:21.046000,-36.0,116.0,-464.0,-1019.0,56.0,-265.0,0.0,0.0,0.0
19:43:21.051000,-27.0,117.0,-463.0,-1019.0,56.0,-265.0,0.0,0.0,0.0
19:43:21.055000,-9.0,115.0,-464.0,-999.0,47.0,-270.0,0.0,0.0,0.0
19:43:21.060000,11.0,108.0,-471.0,-999.0,47.0,-270.0,0.0,0.0,0.0
19:43:21.065000,34.0,100.0,-480.0,-985.0,27.0,-279.0,0.0,0.0,0.0
19:43:21.069000,58.0,85.0,-478.0,-985.0,27.0,-279.0,0.0,0.0,0.0
19:43:21.074000,74.0,72.0,-467.0,-990.0,26.0,-283.0,0.0,0.0,0.0
19:43:21.079000,86.0,63.0,-462.0,-990.0,26.0,-283.0,0.0,0.0,0.0
19:43:21.083000,97.0,51.0,-459.0,-972.0,49.0,-280.0,0.0,0.0,0.0
19:43:21.088000,105.0,35.0,-459.0,-972.0,49.0,-280.0,0.0,0.0,0.0
19:43:21.093000,109.0,17.0,-458.0,-943.0,85.0,-275.0,0.0,0.0,0.0
19:43:21.098000,112.0,2.0,-459.0,-943.0,85.0,-275.0,0.0,0.0,0.0
19:43:21.102000,116.0,-14.0,-460.0,-930.0,117.0,-269.0,0.0,0.0,0.0
19:43:21.106000,111.0,-26.0,-459.0,-930.0,117.0,-269.0,0.0,0.0,0.0
19:43:21.112000,98.0,-34.0,-450.0,-930.0,117.0,-269.0,0.0,0.0,0.0
19:43:21.116000,84.0,-42.0,-428.0,-949.0,149.0,-262.0,0.0,0.0,0.0
19:43:21.121000,67.0,-47.0,-413.0,-949.0,149.0,-262.0,0.0,0.0,0.0
19:43:21.126000,45.0,-49.0,-401.0,-975.0,183.0,-252.0,0.0,0.0,0.0
19:43:21.130000,20.0,-45.0,-390.0,-975.0,183.0,-252.0,0.0,0.0,0.0
19:43:21.135000,4.0,-41.0,-388.0,-995.0,194.0,-241.0,0.0,0.0,0.0
19:43:21.140000,-7.0,-36.0,-398.0,-995.0,194.0,-241.0,0.0,0.0,0.0
19:43:21.145000,-24.0,-30.0,-409.0,-1017.0,189.0,-232.0,0.0,0.0,0.0
19:43:21.149000,-39.0,-22.0,-419.0,-1017.0,189.0,-232.0,0.0,0.0,0.0
19:43:21.154000,-39.0,-22.0,-419.0,-1027.0,182.0,-224.0,0.0,0.0,0.0
19:43:21.159000,-41.0,-16.0,-435.0,-1027.0,182.0,-224.0,0.0,0.0,0.0
19:43:21.163000,-41.0,-9.0,-454.0,-1013.0,168.0,-218.0,0.0,0.0,0.0
19:43:21.168000,-41.0,-4.0,-471.0,-1013.0,168.0,-218.0,0.0,0.0,0.0
19:43:21.173000,-40.0,-1.0,-487.0,-995.0,146.0,-217.0,0.0,0.0,0.0
19:43:21.177000,-32.0,4.0,-484.0,-995.0,146.0,-217.0,0.0,0.0,0.0
19:43:21.182000,-17.0,9.0,-471.0,-993.0,117.0,-221.0,0.0,0.0,0.0
19:43:21.187000,0.0,9.0,-459.0,-993.0,117.0,-221.0,0.0,0.0,0.0
19:43:21.192000,20.0,4.0,-456.0,-1001.0,93.0,-223.0,0.0,0.0,0.0
19:43:21.196000,39.0,3.0,-469.0,-1001.0,93.0,-223.0,0.0,0.0,0.0
19:43:21.201000,60.0,9.0,-492.0,-993.0,113.0,-231.0,0.0,0.0,0.0
19:43:21.206000,77.0,14.0,-513.0,-993.0,113.0,-231.0,0.0,0.0,0.0
19:43:21.210000,87.0,18.0,-524.0,-976.0,162.0,-240.0,0.0,0.0,0.0
19:43:21.215000,102.0,21.0,-529.0,-976.0,162.0,-240.0,0.0,0.0,0.0
19:43:21.220000,112.0,23.0,-523.0,-976.0,162.0,-240.0,0.0,0.0,0.0
19:43:21.224000,119.0,23.0,-519.0,-973.0,200.0,-245.0,0.0,0.0,0.0
19:43:21.229000,121.0,28.0,-520.0,-973.0,200.0,-245.0,0.0,0.0,0.0
19:43:21.234000,116.0,34.0,-518.0,-975.0,234.0,-249.0,0.0,0.0,0.0
19:43:21.239000,110.0,35.0,-515.0,-975.0,234.0,-249.0,0.0,0.0,0.0
19:43:21.243000,112.0,33.0,-511.0,-963.0,269.0,-249.0,0.0,0.0,0.0
19:43:21.248000,114.0,35.0,-506.0,-963.0,269.0,-249.0,0.0,0.0,0.0
19:43:21.253000,109.0,39.0,-485.0,-945.0,299.0,-253.0,0.0,0.0,0.0
19:43:21.257000,102.0,49.0,-453.0,-945.0,299.0,-253.0,0.0,0.0,0.0
19:43:21.262000,102.0,49.0,-453.0,-950.0,334.0,-260.0,0.0,0.0,0.0
19:43:21.267000,96.0,53.0,-428.0,-950.0,334.0,-260.0,0.0,0.0,0.0
19:43:21.271000,95.0,56.0,-424.0,-971.0,368.0,-265.0,0.0,0.0,0.0
19:43:21.276000,100.0,56.0,-429.0,-971.0,368.0,-265.0,0.0,0.0,0.0
19:43:21.281000,105.0,60.0,-429.0,-950.0,383.0,-267.0,0.0,0.0,0.0
19:43:21.286000,107.0,63.0,-411.0,-950.0,383.0,-267.0,0.0,0.0,0.0
19:43:21.290000,114.0,64.0,-390.0,-899.0,380.0,-271.0,0.0,0.0,0.0
19:43:21.295000,122.0,64.0,-382.0,-899.0,380.0,-271.0,0.0,0.0,0.0
19:43:21.300000,129.0,60.0,-380.0,-883.0,394.0,-278.0,0.0,0.0,0.0
19:43:21.304000,134.0,52.0,-375.0,-883.0,394.0,-278.0,0.0,0.0,0.0
19:43:21.309000,133.0,43.0,-364.0,-885.0,438.0,-275.0,0.0,0.0,0.0
19:43:21.314000,127.0,32.0,-354.0,-885.0,438.0,-275.0,0.0,0.0,0.0
19:43:21.318000,121.0,18.0,-342.0,-874.0,473.0,-260.0,0.0,0.0,0.0
19:43:21.323000,114.0,4.0,-313.0,-874.0,473.0,-260.0,0.0,0.0,0.0
19:43:21.328000,106.0,-4.0,-268.0,-854.0,476.0,-247.0,0.0,0.0,0.0
