hh:mm:ss.ms,gyroX[mdps],gyroY[mdps],gyroZ[mdps],accX[mg],accY[mg],accZ[mg],magX[mG],magY[mG],magZ[mG]
19:30:29.898000,-735.0,130.0,-345.0,-1469.0,76.0,-172.0,654.0,-508.0,25.0
19:30:29.902000,-686.0,144.0,-285.0,-1368.0,-168.0,-169.0,654.0,-508.0,25.0
19:30:29.906000,-686.0,144.0,-285.0,-1357.0,-314.0,-183.0,654.0,-508.0,25.0
19:30:29.912000,-577.0,140.0,-253.0,-1397.0,-393.0,-194.0,664.0,-510.0,25.0
19:30:29.916000,-501.0,145.0,-268.0,-1420.0,-412.0,-186.0,664.0,-510.0,25.0
19:30:29.921000,-447.0,128.0,-303.0,-1448.0,-382.0,-161.0,664.0,-507.0,30.0
19:30:29.926000,-461.0,118.0,-302.0,-1471.0,-307.0,-150.0,664.0,-507.0,30.0
19:30:29.930000,-444.0,114.0,-298.0,-1436.0,-171.0,-159.0,664.0,-507.0,30.0
19:30:29.935000,-434.0,123.0,-314.0,-1352.0,-39.0,-158.0,672.0,-499.0,22.0
19:30:29.940000,-450.0,148.0,-294.0,-1266.0,60.0,-133.0,672.0,-499.0,22.0
19:30:29.945000,-491.0,172.0,-262.0,-1228.0,165.0,-115.0,658.0,-504.0,25.0
19:30:29.949000,-541.0,216.0,-280.0,-1208.0,266.0,-103.0,658.0,-504.0,25.0
19:30:29.953000,-630.0,257.0,-318.0,-1159.0,310.0,-82.0,658.0,-504.0,25.0
19:30:29.959000,-700.0,295.0,-321.0,-1127.0,321.0,-70.0,669.0,-501.0,34.0
19:30:29.963000,-765.0,331.0,-313.0,-1146.0,300.0,-54.0,669.0,-501.0,34.0
19:30:29.968000,-839.0,354.0,-301.0,-1146.0,300.0,-54.0,678.0,-495.0,33.0
19:30:29.973000,-903.0,378.0,-275.0,-1157.0,229.0,-35.0,678.0,-495.0,33.0
19:30:29.977000,-938.0,383.0,-244.0,-1157.0,229.0,-35.0,678.0,-495.0,33.0
19:30:29.982000,-991.0,391.0,-215.0,-1141.0,272.0,-24.0,688.0,-495.0,30.0
19:30:29.987000,-1055.0,398.0,-205.0,-1132.0,334.0,-10.0,688.0,-495.0,30.0
19:30:29.992000,-1143.0,403.0,-178.0,-1108.0,379.0,19.0,687.0,-489.0,31.0
19:30:29.996000,-1243.0,409.0,-160.0,-1080.0,376.0,59.0,687.0,-489.0,31.0
19:30:30.000000,-1330.0,425.0,-173.0,-1082.0,363.0,87.0,687.0,-489.0,31.0
19:30:30.006000,-1390.0,437.0,-199.0,-1090.0,347.0,114.0,700.0,-475.0,40.0
19:30:30.010000,-1425.0,450.0,-204.0,-1071.0,312.0,145.0,700.0,-475.0,40.0
19:30:30.015000,-1493.0,473.0,-173.0,-1067.0,240.0,186.0,702.0,-480.0,36.0
19:30:30.020000,-1574.0,483.0,-148.0,-1126.0,163.0,238.0,702.0,-480.0,36.0
19:30:30.024000,-1574.0,483.0,-148.0,-1199.0,141.0,277.0,702.0,-480.0,36.0
19:30:30.029000,-1650.0,482.0,-124.0,-1244.0,169.0,318.0,693.0,-472.0,39.0
19:30:30.034000,-1752.0,476.0,-34.0,-1253.0,265.0,338.0,693.0,-472.0,39.0
19:30:30.039000,-1827.0,525.0,32.0,-1150.0,384.0,312.0,711.0,-463.0,46.0
19:30:30.043000,-1870.0,576.0,35.0,-1047.0,409.0,374.0,711.0,-463.0,46.0
19:30:30.047000,-2031.0,596.0,-51.0,-1053.0,383.0,435.0,711.0,-463.0,46.0
19:30:30.053000,-2159.0,648.0,-222.0,-1116.0,358.0,443.0,714.0,-460.0,46.0
19:30:30.057000,-2326.0,711.0,-368.0,-1225.0,328.0,461.0,714.0,-460.0,46.0
19:30:30.062000,-2375.0,736.0,-406.0,-1214.0,304.0,452.0,721.0,-451.0,58.0
19:30:30.067000,-2450.0,819.0,-324.0,-1108.0,305.0,489.0,721.0,-451.0,58.0
19:30:30.071000,-2522.0,835.0,-210.0,-1075.0,295.0,543.0,721.0,-451.0,58.0
19:30:30.076000,-2587.0,877.0,-116.0,-1073.0,220.0,561.0,727.0,-439.0,61.0
19:30:30.081000,-2580.0,917.0,-24.0,-1051.0,115.0,574.0,727.0,-439.0,61.0
19:30:30.086000,-2641.0,978.0,12.0,-1051.0,115.0,574.0,736.0,-429.0,63.0
19:30:30.090000,-2591.0,1005.0,14.0,-1000.0,54.0,571.0,736.0,-429.0,63.0
19:30:30.094000,-2560.0,1027.0,-14.0,-931.0,84.0,567.0,736.0,-429.0,63.0
19:30:30.100000,-2640.0,1059.0,3.0,-917.0,93.0,613.0,730.0,-432.0,66.0
19:30:30.104000,-2648.0,1094.0,11.0,-991.0,55.0,628.0,730.0,-432.0,66.0
19:30:30.109000,-2648.0,1116.0,-4.0,-1121.0,43.0,617.0,739.0,-417.0,91.0
19:30:30.114000,-2690.0,1140.0,33.0,-1198.0,-3.0,641.0,739.0,-417.0,91.0
19:30:30.118000,-2690.0,1140.0,33.0,-1184.0,-6.0,651.0,739.0,-417.0,91.0
19:30:30.123000,-2779.0,1165.0,52.0,-1124.0,49.0,645.0,744.0,-408.0,94.0
19:30:30.128000,-2826.0,1176.0,59.0,-1046.0,86.0,638.0,744.0,-408.0,94.0
19:30:30.133000,-2826.0,1176.0,59.0,-1004.0,88.0,634.0,744.0,-409.0,108.0
19:30:30.137000,-2891.0,1183.0,53.0,-1022.0,37.0,625.0,744.0,-409.0,108.0
19:30:30.141000,-2921.0,1183.0,18.0,-1045.0,-18.0,617.0,744.0,-409.0,108.0
19:30:30.147000,-2951.0,1183.0,-6.0,-1034.0,-68.0,619.0,745.0,-402.0,120.0
19:30:30.151000,-2997.0,1173.0,-23.0,-991.0,-103.0,585.0,745.0,-402.0,120.0
19:30:30.156000,-3022.0,1154.0,-14.0,-941.0,-117.0,549.0,753.0,-406.0,127.0
19:30:30.161000,-3052.0,1134.0,-22.0,-905.0,-133.0,535.0,753.0,-406.0,127.0
19:30:30.166000,-3085.0,1098.0,-31.0,-861.0,-173.0,514.0,759.0,-403.0,145.0
19:30:30.170000,-3129.0,1055.0,-46.0,-770.0,-209.0,478.0,759.0,-403.0,145.0
19:30:30.174000,-3167.0,1013.0,-16.0,-655.0,-260.0,452.0,759.0,-403.0,145.0
19:30:30.180000,-3212.0,963.0,22.0,-568.0,-364.0,423.0,750.0,-405.0,156.0
19:30:30.184000,-3234.0,905.0,73.0,-526.0,-475.0,346.0,750.0,-405.0,156.0
19:30:30.189000,-3245.0,828.0,95.0,-526.0,-475.0,346.0,753.0,-385.0,181.0
19:30:30.194000,-3270.0,765.0,103.0,-390.0,-579.0,218.0,753.0,-385.0,181.0
19:30:30.198000,-3265.0,707.0,144.0,-390.0,-579.0,218.0,753.0,-385.0,181.0
19:30:30.203000,-3264.0,652.0,192.0,-330.0,-618.0,204.0,756.0,-387.0,184.0
19:30:30.208000,-3276.0,608.0,199.0,-347.0,-625.0,195.0,756.0,-387.0,184.0
19:30:30.213000,-3287.0,561.0,171.0,-422.0,-592.0,170.0,741.0,-382.0,192.0
19:30:30.217000,-3329.0,522.0,166.0,-506.0,-590.0,169.0,741.0,-382.0,192.0
19:30:30.221000,-3353.0,483.0,166.0,-559.0,-624.0,179.0,741.0,-382.0,192.0
19:30:30.227000,-3366.0,449.0,171.0,-564.0,-680.0,194.0,741.0,-382.0,196.0
19:30:30.231000,-3371.0,439.0,142.0,-527.0,-736.0,198.0,741.0,-382.0,196.0
19:30:30.236000,-3362.0,439.0,74.0,-510.0,-746.0,184.0,744.0,-379.0,198.0
19:30:30.241000,-3362.0,439.0,74.0,-546.0,-731.0,181.0,744.0,-379.0,198.0
19:30:30.245000,-3366.0,444.0,-14.0,-599.0,-731.0,162.0,744.0,-379.0,198.0
19:30:30.250000,-3378.0,452.0,-88.0,-631.0,-748.0,127.0,735.0,-390.0,210.0
19:30:30.255000,-3374.0,445.0,-144.0,-595.0,-769.0,107.0,735.0,-390.0,210.0
19:30:30.260000,-3362.0,442.0,-168.0,-493.0,-800.0,96.0,738.0,-384.0,219.0
19:30:30.264000,-3350.0,441.0,-158.0,-418.0,-819.0,96.0,738.0,-384.0,219.0
19:30:30.268000,-3322.0,442.0,-184.0,-381.0,-841.0,71.0,738.0,-384.0,219.0
19:30:30.274000,-3248.0,442.0,-228.0,-351.0,-899.0,60.0,730.0,-387.0,229.0
19:30:30.278000,-3185.0,449.0,-235.0,-381.0,-914.0,70.0,730.0,-387.0,229.0
19:30:30.282000,-3152.0,468.0,-225.0,-498.0,-860.0,44.0,724.0,-385.0,223.0
19:30:30.288000,-3139.0,504.0,-219.0,-637.0,-821.0,11.0,724.0,-385.0,223.0
19:30:30.292000,-3120.0,534.0,-205.0,-698.0,-845.0,0.0,724.0,-385.0,223.0
19:30:30.297000,-3087.0,564.0,-174.0,-650.0,-912.0,-11.0,712.0,-399.0,234.0
19:30:30.302000,-3017.0,580.0,-137.0,-650.0,-970.0,-30.0,712.0,-399.0,234.0
19:30:30.307000,-2937.0,599.0,-135.0,-564.0,-970.0,-30.0,726.0,-382.0,243.0
19:30:30.311000,-2853.0,601.0,-142.0,-509.0,-1008.0,-54.0,726.0,-382.0,243.0
19:30:30.315000,-2779.0,600.0,-140.0,-478.0,-1016.0,-83.0,726.0,-382.0,243.0
19:30:30.321000,-2724.0,603.0,-167.0,-485.0,-980.0,-96.0,714.0,-388.0,237.0
19:30:30.325000,-2692.0,602.0,-163.0,-499.0,-954.0,-88.0,714.0,-388.0,237.0
19:30:30.330000,-2647.0,604.0,-124.0,-458.0,-951.0,-76.0,712.0,-387.0,250.0
19:30:30.335000,-2590.0,609.0,-137.0,-436.0,-916.0,-72.0,712.0,-387.0,250.0
19:30:30.339000,-2550.0,625.0,-187.0,-438.0,-869.0,-67.0,700.0,-390.0,259.0
19:30:30.344000,-2543.0,659.0,-247.0,-419.0,-830.0,-61.0,700.0,-390.0,259.0
19:30:30.348000,-2543.0,659.0,-247.0,-405.0,-812.0,-67.0,700.0,-390.0,259.0
19:30:30.354000,-2534.0,690.0,-261.0,-397.0,-839.0,-84.0,691.0,-405.0,270.0
19:30:30.358000,-2503.0,698.0,-209.0,-388.0,-891.0,-103.0,691.0,-405.0,270.0
19:30:30.363000,-2454.0,691.0,-159.0,-384.0,-931.0,-114.0,687.0,-402.0,277.0
19:30:30.368000,-2410.0,682.0,-164.0,-377.0,-963.0,-120.0,687.0,-402.0,277.0
19:30:30.372000,-2359.0,662.0,-173.0,-358.0,-974.0,-125.0,687.0,-402.0,277.0
19:30:30.377000,-2311.0,639.0,-143.0,-329.0,-937.0,-128.0,679.0,-403.0,297.0
19:30:30.382000,-2272.0,616.0,-88.0,-290.0,-886.0,-128.0,679.0,-403.0,297.0
19:30:30.386000,-2251.0,600.0,-42.0,-260.0,-845.0,-131.0,685.0,-400.0,294.0
19:30:30.391000,-2238.0,599.0,-37.0,-219.0,-873.0,-130.0,685.0,-400.0,294.0
19:30:30.395000,-2224.0,592.0,-29.0,-195.0,-937.0,-130.0,685.0,-400.0,294.0
19:30:30.401000,-2187.0,571.0,-51.0,-187.0,-1011.0,-120.0,672.0,-412.0,286.0
19:30:30.405000,-2144.0,539.0,-35.0,-176.0,-1064.0,-117.0,672.0,-412.0,286.0
19:30:30.409000,-2076.0,508.0,-19.0,-184.0,-1053.0,-126.0,669.0,-415.0,312.0
19:30:30.415000,-2011.0,470.0,-21.0,-184.0,-1053.0,-126.0,669.0,-415.0,312.0
19:30:30.419000,-1987.0,436.0,-14.0,-167.0,-1067.0,-104.0,669.0,-415.0,312.0
19:30:30.424000,-1916.0,405.0,-14.0,-160.0,-1060.0,-118.0,670.0,-418.0,307.0
19:30:30.429000,-1873.0,376.0,-51.0,-197.0,-991.0,-134.0,670.0,-418.0,307.0
19:30:30.433000,-1840.0,347.0,-82.0,-247.0,-947.0,-120.0,655.0,-427.0,303.0
19:30:30.438000,-1829.0,319.0,-67.0,-285.0,-965.0,-110.0,655.0,-427.0,303.0
19:30:30.442000,-1809.0,290.0,-48.0,-312.0,-1015.0,-113.0,655.0,-427.0,303.0
19:30:30.447000,-1787.0,259.0,-95.0,-339.0,-1034.0,-125.0,670.0,-424.0,309.0
19:30:30.452000,-1786.0,242.0,-146.0,-336.0,-1025.0,-130.0,670.0,-424.0,309.0
19:30:30.457000,-1764.0,223.0,-191.0,-316.0,-1028.0,-143.0,664.0,-429.0,306.0
19:30:30.462000,-1764.0,223.0,-191.0,-326.0,-1002.0,-161.0,664.0,-429.0,306.0
19:30:30.466000,-1735.0,206.0,-261.0,-328.0,-1062.0,-157.0,664.0,-429.0,306.0
19:30:30.471000,-1695.0,167.0,-312.0,-325.0,-1148.0,-152.0,646.0,-433.0,312.0
19:30:30.476000,-1642.0,142.0,-378.0,-329.0,-1151.0,-163.0,646.0,-433.0,312.0
19:30:30.480000,-1575.0,111.0,-438.0,-330.0,-1137.0,-156.0,646.0,-448.0,312.0
19:30:30.485000,-1514.0,81.0,-499.0,-336.0,-1156.0,-145.0,646.0,-448.0,312.0
19:30:30.489000,-1484.0,62.0,-522.0,-363.0,-1179.0,-136.0,646.0,-448.0,312.0
19:30:30.494000,-1403.0,7.0,-553.0,-397.0,-1154.0,-153.0,645.0,-439.0,310.0
19:30:30.499000,-1329.0,-17.0,-620.0,-377.0,-1153.0,-127.0,645.0,-439.0,310.0
19:30:30.504000,-1314.0,-49.0,-681.0,-345.0,-1177.0,-100.0,639.0,-441.0,313.0
19:30:30.509000,-1239.0,-100.0,-745.0,-364.0,-1165.0,-117.0,639.0,-441.0,313.0
19:30:30.513000,-1171.0,-142.0,-781.0,-392.0,-1171.0,-119.0,639.0,-441.0,313.0
19:30:30.518000,-1110.0,-176.0,-737.0,-363.0,-1198.0,-95.0,646.0,-439.0,307.0
19:30:30.523000,-1073.0,-215.0,-697.0,-363.0,-1198.0,-95.0,646.0,-439.0,307.0
19:30:30.527000,-1018.0,-247.0,-734.0,-331.0,-1164.0,-90.0,649.0,-435.0,310.0
19:30:30.532000,-977.0,-297.0,-751.0,-341.0,-1130.0,-93.0,649.0,-435.0,310.0
19:30:30.536000,-909.0,-357.0,-861.0,-574.0,-1035.0,-5.0,649.0,-435.0,310.0
19:30:30.541000,-934.0,-380.0,-858.0,-574.0,-1035.0,-5.0,631.0,-441.0,301.0
19:30:30.546000,-998.0,-340.0,-672.0,-538.0,-1161.0,-28.0,631.0,-441.0,301.0
19:30:30.551000,-922.0,-404.0,-648.0,-491.0,-1107.0,-18.0,640.0,-426.0,301.0
19:30:30.556000,-856.0,-469.0,-681.0,-573.0,-915.0,74.0,640.0,-426.0,301.0
19:30:30.560000,-856.0,-469.0,-681.0,-606.0,-834.0,55.0,640.0,-426.0,301.0
19:30:30.565000,-774.0,-366.0,-831.0,-623.0,-569.0,44.0,648.0,-426.0,301.0
19:30:30.570000,-774.0,-366.0,-831.0,-391.0,-333.0,59.0,648.0,-426.0,301.0
19:30:30.574000,-796.0,-262.0,-818.0,-67.0,-418.0,143.0,642.0,-420.0,297.0
19:30:30.579000,-1059.0,-226.0,-907.0,-69.0,-804.0,267.0,642.0,-420.0,297.0
19:30:30.583000,-1283.0,-200.0,-921.0,-340.0,-1061.0,235.0,642.0,-420.0,297.0
19:30:30.588000,-1207.0,-223.0,-910.0,-647.0,-1018.0,210.0,633.0,-418.0,310.0
19:30:30.593000,-1293.0,-230.0,-892.0,-790.0,-1023.0,245.0,633.0,-418.0,310.0
19:30:30.598000,-1401.0,-251.0,-821.0,-869.0,-1069.0,237.0,645.0,-412.0,288.0
19:30:30.603000,-1368.0,-272.0,-739.0,-852.0,-1134.0,208.0,645.0,-412.0,288.0
19:30:30.607000,-1285.0,-272.0,-648.0,-799.0,-1205.0,206.0,645.0,-412.0,288.0
19:30:30.612000,-1238.0,-263.0,-656.0,-786.0,-1120.0,205.0,643.0,-420.0,295.0
19:30:30.617000,-1126.0,-252.0,-832.0,-669.0,-986.0,214.0,643.0,-420.0,295.0
19:30:30.621000,-1078.0,-216.0,-952.0,-495.0,-1011.0,255.0,640.0,-400.0,301.0
19:30:30.626000,-1092.0,-169.0,-922.0,-473.0,-1060.0,268.0,640.0,-400.0,301.0
19:30:30.631000,-1113.0,-131.0,-921.0,-473.0,-1060.0,268.0,645.0,-399.0,286.0
19:30:30.635000,-1136.0,-71.0,-1014.0,-541.0,-1043.0,253.0,645.0,-399.0,286.0
19:30:30.640000,-1092.0,-53.0,-1094.0,-638.0,-1061.0,237.0,645.0,-399.0,286.0
19:30:30.645000,-1059.0,-11.0,-1089.0,-701.0,-1070.0,233.0,636.0,-402.0,285.0
19:30:30.650000,-1099.0,42.0,-1038.0,-686.0,-1040.0,256.0,636.0,-402.0,285.0
19:30:30.654000,-1056.0,73.0,-973.0,-679.0,-1059.0,262.0,634.0,-390.0,289.0
19:30:30.659000,-1003.0,96.0,-987.0,-736.0,-1084.0,240.0,634.0,-390.0,289.0
19:30:30.663000,-977.0,122.0,-1052.0,-827.0,-1103.0,235.0,634.0,-390.0,289.0
19:30:30.668000,-938.0,154.0,-1141.0,-864.0,-1109.0,217.0,639.0,-391.0,289.0
19:30:30.673000,-884.0,170.0,-1159.0,-859.0,-1086.0,203.0,639.0,-391.0,289.0
19:30:30.678000,-826.0,182.0,-1135.0,-846.0,-1027.0,203.0,637.0,-381.0,303.0
19:30:30.682000,-826.0,182.0,-1135.0,-849.0,-924.0,204.0,637.0,-381.0,303.0
19:30:30.687000,-782.0,191.0,-1160.0,-837.0,-873.0,206.0,637.0,-381.0,303.0
19:30:30.692000,-743.0,206.0,-1163.0,-809.0,-899.0,204.0,640.0,-393.0,298.0
19:30:30.697000,-703.0,212.0,-1140.0,-794.0,-939.0,211.0,640.0,-393.0,298.0
19:30:30.701000,-655.0,208.0,-1087.0,-783.0,-950.0,209.0,627.0,-387.0,303.0
19:30:30.706000,-621.0,207.0,-1013.0,-807.0,-924.0,210.0,627.0,-387.0,303.0
19:30:30.710000,-613.0,210.0,-933.0,-850.0,-879.0,212.0,627.0,-387.0,303.0
19:30:30.715000,-615.0,227.0,-904.0,-839.0,-822.0,200.0,631.0,-360.0,312.0
19:30:30.720000,-611.0,234.0,-894.0,-839.0,-764.0,207.0,631.0,-360.0,312.0
19:30:30.725000,-626.0,242.0,-902.0,-812.0,-705.0,210.0,631.0,-372.0,309.0
19:30:30.729000,-652.0,264.0,-914.0,-777.0,-655.0,179.0,631.0,-372.0,309.0
19:30:30.734000,-660.0,280.0,-884.0,-753.0,-666.0,213.0,631.0,-372.0,309.0
19:30:30.739000,-732.0,290.0,-818.0,-754.0,-685.0,214.0,631.0,-357.0,307.0
19:30:30.744000,-728.0,295.0,-774.0,-754.0,-685.0,214.0,631.0,-357.0,307.0
19:30:30.748000,-728.0,292.0,-750.0,-852.0,-668.0,174.0,628.0,-358.0,309.0
19:30:30.753000,-730.0,295.0,-762.0,-852.0,-668.0,174.0,628.0,-358.0,309.0
19:30:30.757000,-715.0,299.0,-775.0,-888.0,-663.0,162.0,628.0,-358.0,309.0
19:30:30.762000,-697.0,305.0,-752.0,-903.0,-680.0,162.0,607.0,-357.0,315.0
19:30:30.767000,-653.0,301.0,-699.0,-903.0,-698.0,140.0,607.0,-357.0,315.0
19:30:30.772000,-616.0,299.0,-652.0,-923.0,-717.0,121.0,627.0,-349.0,322.0
19:30:30.776000,-560.0,287.0,-623.0,-956.0,-731.0,118.0,627.0,-349.0,322.0
19:30:30.781000,-560.0,287.0,-623.0,-974.0,-728.0,102.0,627.0,-349.0,322.0
19:30:30.786000,-448.0,263.0,-588.0,-973.0,-725.0,95.0,613.0,-351.0,328.0
19:30:30.791000,-448.0,263.0,-588.0,-948.0,-719.0,91.0,613.0,-351.0,328.0
19:30:30.795000,-369.0,237.0,-543.0,-925.0,-697.0,86.0,603.0,-352.0,324.0
19:30:30.800000,-320.0,227.0,-510.0,-912.0,-655.0,83.0,603.0,-352.0,324.0
19:30:30.804000,-262.0,210.0,-514.0,-892.0,-613.0,84.0,603.0,-352.0,324.0
19:30:30.809000,-214.0,187.0,-525.0,-871.0,-591.0,85.0,621.0,-345.0,319.0
19:30:30.814000,-167.0,157.0,-497.0,-861.0,-588.0,89.0,621.0,-345.0,319.0
19:30:30.819000,-135.0,135.0,-434.0,-877.0,-574.0,83.0,610.0,-345.0,321.0
19:30:30.823000,-92.0,118.0,-399.0,-898.0,-538.0,76.0,610.0,-345.0,321.0
19:30:30.828000,-71.0,104.0,-389.0,-899.0,-512.0,81.0,610.0,-345.0,321.0
19:30:30.833000,-53.0,91.0,-356.0,-914.0,-488.0,83.0,603.0,-346.0,327.0
19:30:30.837000,-21.0,73.0,-330.0,-942.0,-477.0,91.0,603.0,-346.0,327.0
19:30:30.842000,-4.0,60.0,-301.0,-968.0,-503.0,96.0,607.0,-336.0,325.0
19:30:30.847000,22.0,46.0,-270.0,-994.0,-528.0,98.0,607.0,-336.0,325.0
19:30:30.852000,58.0,32.0,-256.0,-994.0,-528.0,98.0,609.0,-328.0,325.0
19:30:30.856000,95.0,18.0,-235.0,-994.0,-532.0,101.0,609.0,-328.0,325.0
19:30:30.860000,123.0,-4.0,-195.0,-971.0,-520.0,109.0,609.0,-328.0,325.0
19:30:30.866000,130.0,-22.0,-147.0,-950.0,-496.0,124.0,618.0,-330.0,328.0
19:30:30.870000,133.0,-39.0,-104.0,-935.0,-481.0,132.0,618.0,-330.0,328.0
19:30:30.875000,130.0,-54.0,-67.0,-929.0,-468.0,134.0,607.0,-330.0,327.0
19:30:30.880000,121.0,-67.0,-28.0,-927.0,-446.0,136.0,607.0,-330.0,327.0
19:30:30.884000,121.0,-67.0,-28.0,-928.0,-420.0,135.0,607.0,-330.0,327.0
19:30:30.889000,79.0,-68.0,14.0,-945.0,-391.0,133.0,610.0,-330.0,331.0
19:30:30.894000,55.0,-55.0,28.0,-975.0,-369.0,131.0,610.0,-330.0,331.0
19:30:30.899000,55.0,-55.0,28.0,-1008.0,-378.0,129.0,600.0,-334.0,322.0
19:30:30.903000,36.0,-37.0,58.0,-1043.0,-415.0,128.0,600.0,-334.0,322.0
19:30:30.907000,26.0,-17.0,85.0,-1072.0,-450.0,124.0,600.0,-334.0,322.0
19:30:30.913000,23.0,6.0,107.0,-1096.0,-479.0,125.0,612.0,-336.0,331.0
19:30:30.917000,16.0,32.0,121.0,-1118.0,-505.0,125.0,612.0,-336.0,331.0
19:30:30.922000,14.0,56.0,122.0,-1129.0,-519.0,121.0,606.0,-331.0,327.0
19:30:30.927000,10.0,77.0,138.0,-1127.0,-520.0,120.0,606.0,-331.0,327.0
19:30:30.934000,-30.0,118.0,172.0,-1130.0,-471.0,106.0,594.0,-342.0,357.0
19:30:30.936000,-30.0,118.0,172.0,-1130.0,-471.0,106.0,594.0,-342.0,357.0
19:30:30.940000,-60.0,145.0,161.0,-1106.0,-488.0,94.0,594.0,-342.0,357.0
19:30:30.946000,-76.0,165.0,137.0,-1070.0,-521.0,81.0,610.0,-345.0,339.0
19:30:30.950000,-83.0,182.0,84.0,-1027.0,-551.0,65.0,610.0,-345.0,339.0
19:30:30.955000,-74.0,193.0,16.0,-1027.0,-551.0,65.0,607.0,-339.0,333.0
19:30:30.960000,-60.0,197.0,-45.0,-982.0,-593.0,39.0,607.0,-339.0,333.0
19:30:30.964000,-58.0,207.0,-88.0,-938.0,-593.0,39.0,607.0,-339.0,333.0
19:30:30.969000,-58.0,216.0,-141.0,-908.0,-594.0,30.0,610.0,-342.0,331.0
19:30:30.974000,-65.0,228.0,-210.0,-883.0,-576.0,21.0,610.0,-342.0,331.0
19:30:30.978000,-71.0,238.0,-270.0,-836.0,-545.0,0.0,604.0,-343.0,336.0
19:30:30.983000,-63.0,242.0,-323.0,-836.0,-545.0,0.0,604.0,-343.0,336.0
19:30:30.987000,-60.0,244.0,-374.0,-813.0,-531.0,-13.0,604.0,-343.0,336.0
19:30:30.993000,-60.0,245.0,-431.0,-789.0,-524.0,-22.0,592.0,-342.0,337.0
19:30:30.997000,-53.0,238.0,-487.0,-762.0,-515.0,-33.0,592.0,-342.0,337.0
19:30:31.002000,-34.0,226.0,-529.0,-737.0,-490.0,-48.0,603.0,-337.0,325.0
19:30:31.007000,-19.0,218.0,-560.0,-722.0,-434.0,-58.0,603.0,-337.0,325.0
19:30:31.011000,-19.0,218.0,-560.0,-720.0,-374.0,-62.0,603.0,-337.0,325.0
19:30:31.016000,-14.0,211.0,-590.0,-716.0,-328.0,-63.0,594.0,-342.0,345.0
19:30:31.020000,-11.0,203.0,-613.0,-704.0,-291.0,-64.0,594.0,-342.0,345.0
19:30:31.026000,-6.0,192.0,-613.0,-691.0,-258.0,-64.0,588.0,-337.0,357.0
19:30:31.030000,-3.0,186.0,-596.0,-681.0,-225.0,-61.0,588.0,-337.0,357.0
19:30:31.035000,-9.0,186.0,-575.0,-670.0,-191.0,-60.0,597.0,-324.0,345.0
19:30:31.040000,-9.0,186.0,-557.0,-657.0,-161.0,-62.0,597.0,-324.0,345.0
19:30:31.044000,0.0,187.0,-536.0,-656.0,-129.0,-68.0,597.0,-324.0,345.0
19:30:31.049000,16.0,193.0,-525.0,-678.0,-89.0,-74.0,591.0,-318.0,352.0
19:30:31.054000,33.0,203.0,-512.0,-729.0,-41.0,-76.0,591.0,-318.0,352.0
19:30:31.058000,51.0,216.0,-506.0,-729.0,-41.0,-76.0,591.0,-322.0,348.0
19:30:31.063000,65.0,231.0,-499.0,-861.0,61.0,-81.0,591.0,-322.0,348.0
19:30:31.067000,79.0,245.0,-479.0,-910.0,101.0,-84.0,591.0,-322.0,348.0
19:30:31.073000,93.0,254.0,-464.0,-910.0,101.0,-84.0,595.0,-321.0,349.0
19:30:31.077000,100.0,257.0,-446.0,-931.0,115.0,-92.0,595.0,-321.0,349.0
19:30:31.082000,104.0,250.0,-433.0,-927.0,115.0,-109.0,588.0,-309.0,354.0
19:30:31.087000,116.0,236.0,-419.0,-918.0,148.0,-137.0,588.0,-309.0,354.0
19:30:31.091000,136.0,210.0,-405.0,-907.0,220.0,-165.0,588.0,-309.0,354.0
19:30:31.096000,137.0,187.0,-409.0,-895.0,310.0,-183.0,591.0,-301.0,354.0
19:30:31.101000,128.0,162.0,-395.0,-876.0,373.0,-194.0,591.0,-301.0,354.0
19:30:31.105000,122.0,132.0,-359.0,-864.0,398.0,-209.0,585.0,-309.0,349.0
19:30:31.110000,114.0,102.0,-329.0,-882.0,429.0,-227.0,585.0,-309.0,349.0
19:30:31.117000,108.0,73.0,-324.0,-973.0,508.0,-262.0,583.0,-310.0,360.0
19:30:31.120000,108.0,73.0,-324.0,-973.0,508.0,-262.0,583.0,-310.0,360.0
19:30:31.124000,90.0,51.0,-302.0,-1019.0,540.0,-280.0,583.0,-310.0,360.0
19:30:31.129000,76.0,31.0,-307.0,-1060.0,569.0,-294.0,591.0,-307.0,352.0
19:30:31.134000,58.0,16.0,-303.0,-1091.0,597.0,-300.0,591.0,-307.0,352.0
19:30:31.138000,42.0,4.0,-322.0,-1115.0,630.0,-304.0,583.0,-303.0,352.0
19:30:31.143000,25.0,-4.0,-334.0,-1133.0,607.0,-303.0,583.0,-303.0,352.0
19:30:31.147000,9.0,-18.0,-321.0,-1162.0,575.0,-302.0,583.0,-303.0,352.0
19:30:31.152000,-3.0,-25.0,-317.0,-1187.0,562.0,-302.0,589.0,-301.0,354.0
19:30:31.157000,-16.0,-30.0,-308.0,-1194.0,563.0,-301.0,589.0,-301.0,354.0
19:30:31.162000,-27.0,-33.0,-285.0,-1197.0,584.0,-296.0,579.0,-295.0,349.0
19:30:31.167000,-42.0,-33.0,-270.0,-1204.0,611.0,-290.0,579.0,-295.0,349.0
19:30:31.171000,-63.0,-25.0,-275.0,-1205.0,605.0,-287.0,579.0,-295.0,349.0
19:30:31.176000,-76.0,-18.0,-288.0,-1183.0,573.0,-283.0,589.0,-300.0,360.0
19:30:31.181000,-81.0,-15.0,-259.0,-1183.0,573.0,-283.0,589.0,-300.0,360.0
19:30:31.185000,-81.0,-11.0,-252.0,-1173.0,549.0,-275.0,577.0,-301.0,361.0
19:30:31.190000,-89.0,0.0,-291.0,-1194.0,553.0,-259.0,577.0,-301.0,361.0
19:30:31.194000,-99.0,16.0,-325.0,-1209.0,560.0,-236.0,577.0,-301.0,361.0
19:30:31.199000,-100.0,39.0,-352.0,-1220.0,540.0,-216.0,573.0,-294.0,358.0
19:30:31.204000,-106.0,66.0,-377.0,-1231.0,510.0,-198.0,573.0,-294.0,358.0
19:30:31.209000,-91.0,87.0,-379.0,-1220.0,472.0,-180.0,588.0,-304.0,367.0
19:30:31.214000,-81.0,126.0,-351.0,-1201.0,465.0,-166.0,588.0,-304.0,367.0
19:30:31.218000,-81.0,126.0,-351.0,-1196.0,495.0,-148.0,588.0,-304.0,367.0
19:30:31.223000,-46.0,187.0,-390.0,-1190.0,473.0,-131.0,574.0,-294.0,363.0
19:30:31.228000,-46.0,187.0,-390.0,-1178.0,425.0,-124.0,574.0,-294.0,363.0
19:30:31.232000,-29.0,219.0,-417.0,-1188.0,441.0,-117.0,583.0,-298.0,354.0
19:30:31.237000,-12.0,236.0,-453.0,-1182.0,496.0,-112.0,583.0,-298.0,354.0
19:30:31.241000,-9.0,256.0,-427.0,-1162.0,555.0,-112.0,583.0,-298.0,354.0
19:30:31.246000,-32.0,282.0,-382.0,-1161.0,619.0,-114.0,573.0,-291.0,370.0
19:30:31.251000,-39.0,302.0,-361.0,-1129.0,639.0,-119.0,573.0,-291.0,370.0
19:30:31.256000,-31.0,303.0,-331.0,-1074.0,629.0,-124.0,562.0,-289.0,364.0
19:30:31.261000,-23.0,302.0,-329.0,-1064.0,658.0,-128.0,562.0,-289.0,364.0
19:30:31.265000,-21.0,301.0,-401.0,-1059.0,690.0,-140.0,562.0,-289.0,364.0
19:30:31.270000,-3.0,280.0,-473.0,-1037.0,691.0,-164.0,579.0,-295.0,363.0
19:30:31.275000,14.0,270.0,-529.0,-1037.0,683.0,-186.0,579.0,-295.0,363.0
19:30:31.279000,24.0,266.0,-527.0,-1037.0,683.0,-186.0,562.0,-295.0,370.0
19:30:31.284000,63.0,238.0,-438.0,-1069.0,723.0,-206.0,562.0,-295.0,370.0
19:30:31.288000,51.0,224.0,-433.0,-1110.0,805.0,-213.0,562.0,-295.0,370.0
19:30:31.293000,16.0,216.0,-526.0,-1110.0,805.0,-213.0,561.0,-294.0,381.0
19:30:31.298000,23.0,195.0,-609.0,-1123.0,778.0,-235.0,561.0,-294.0,381.0
19:30:31.303000,101.0,145.0,-662.0,-1083.0,774.0,-261.0,562.0,-289.0,370.0
19:30:31.308000,132.0,98.0,-697.0,-1051.0,862.0,-261.0,562.0,-289.0,370.0
19:30:31.312000,83.0,67.0,-639.0,-1029.0,933.0,-242.0,562.0,-289.0,370.0
19:30:31.317000,47.0,89.0,-455.0,-1002.0,993.0,-257.0,562.0,-294.0,375.0
19:30:31.322000,32.0,87.0,-329.0,-1094.0,1002.0,-273.0,562.0,-294.0,375.0
19:30:31.326000,37.0,107.0,-513.0,-1308.0,1078.0,-257.0,553.0,-277.0,373.0
19:30:31.331000,154.0,72.0,-692.0,-1430.0,1085.0,-258.0,553.0,-277.0,373.0
19:30:31.335000,154.0,72.0,-692.0,-1237.0,879.0,-192.0,561.0,-297.0,388.0
19:30:31.340000,-20.0,37.0,-441.0,-1069.0,961.0,-157.0,561.0,-297.0,388.0
19:30:31.345000,-190.0,126.0,-398.0,-1186.0,1192.0,-179.0,561.0,-297.0,388.0
19:30:31.350000,-224.0,135.0,-604.0,-1192.0,1104.0,-156.0,559.0,-288.0,382.0
19:30:31.355000,-196.0,177.0,-455.0,-1254.0,929.0,-137.0,559.0,-288.0,382.0
19:30:31.359000,-69.0,193.0,-359.0,-1595.0,815.0,-131.0,556.0,-280.0,387.0
19:30:31.364000,-30.0,222.0,-571.0,-1662.0,594.0,-87.0,556.0,-280.0,387.0
19:30:31.368000,-168.0,204.0,-379.0,-1381.0,656.0,-88.0,556.0,-280.0,387.0
19:30:31.373000,-289.0,354.0,-132.0,-1413.0,934.0,-98.0,559.0,-271.0,384.0
19:30:31.378000,-292.0,421.0,-683.0,-1495.0,734.0,-78.0,559.0,-271.0,384.0
19:30:31.383000,-201.0,434.0,-1015.0,-1321.0,298.0,-86.0,549.0,-283.0,385.0
19:30:31.387000,-167.0,450.0,-651.0,-1417.0,184.0,-73.0,549.0,-283.0,385.0
19:30:31.392000,-198.0,525.0,-632.0,-1507.0,171.0,-39.0,549.0,-283.0,385.0
19:30:31.397000,-316.0,524.0,-581.0,-1340.0,49.0,-19.0,549.0,-277.0,396.0
19:30:31.402000,-336.0,569.0,-267.0,-1340.0,49.0,-19.0,549.0,-277.0,396.0
19:30:31.406000,-310.0,493.0,-462.0,-1279.0,84.0,20.0,546.0,-282.0,397.0
19:30:31.411000,-394.0,539.0,-457.0,-1009.0,68.0,43.0,546.0,-282.0,397.0
19:30:31.415000,-439.0,470.0,-513.0,-811.0,-102.0,64.0,546.0,-282.0,397.0
19:30:31.420000,-627.0,327.0,-694.0,-875.0,-136.0,145.0,544.0,-292.0,402.0
19:30:31.425000,-662.0,474.0,-115.0,-471.0,-392.0,74.0,544.0,-292.0,402.0
19:30:31.430000,-384.0,422.0,-165.0,-509.0,-745.0,5.0,540.0,-280.0,411.0
19:30:31.434000,-321.0,405.0,-501.0,-1037.0,-910.0,62.0,540.0,-280.0,411.0
19:30:31.439000,-321.0,405.0,-501.0,-1094.0,-894.0,92.0,540.0,-280.0,411.0
19:30:31.444000,-445.0,389.0,-25.0,-736.0,-765.0,95.0,534.0,-282.0,402.0
19:30:31.449000,-445.0,389.0,-25.0,-504.0,-650.0,55.0,534.0,-282.0,402.0
19:30:31.453000,-379.0,408.0,37.0,-771.0,-567.0,-29.0,540.0,-291.0,409.0
19:30:31.458000,-173.0,462.0,-443.0,-1013.0,-872.0,-66.0,540.0,-291.0,409.0
19:30:31.462000,33.0,447.0,-732.0,-990.0,-1083.0,-20.0,540.0,-291.0,409.0
19:30:31.467000,0.0,355.0,-543.0,-827.0,-771.0,-75.0,540.0,-277.0,429.0
19:30:31.472000,95.0,490.0,-277.0,-872.0,-527.0,-163.0,540.0,-277.0,429.0
19:30:31.477000,181.0,554.0,-398.0,-1109.0,-487.0,-102.0,529.0,-288.0,418.0
19:30:31.481000,238.0,406.0,-631.0,-978.0,-348.0,-93.0,529.0,-288.0,418.0
19:30:31.486000,253.0,298.0,-539.0,-625.0,-2.0,-134.0,529.0,-288.0,418.0
19:30:31.491000,288.0,219.0,-518.0,-626.0,321.0,-101.0,528.0,-295.0,423.0
19:30:31.496000,226.0,187.0,-431.0,-887.0,337.0,-76.0,528.0,-295.0,423.0
19:30:31.500000,107.0,178.0,-371.0,-887.0,337.0,-76.0,522.0,-280.0,414.0
19:30:31.505000,34.0,240.0,-193.0,-1046.0,-141.0,-43.0,522.0,-280.0,414.0
19:30:31.509000,37.0,280.0,-119.0,-1298.0,-136.0,35.0,522.0,-280.0,414.0
19:30:31.514000,30.0,230.0,-505.0,-1298.0,-136.0,35.0,519.0,-280.0,427.0
19:30:31.519000,-63.0,224.0,-690.0,-1325.0,-41.0,58.0,519.0,-280.0,427.0
19:30:31.524000,-239.0,279.0,-222.0,-984.0,-131.0,79.0,519.0,-285.0,433.0
19:30:31.528000,-263.0,378.0,-270.0,-1032.0,-40.0,113.0,519.0,-285.0,433.0
19:30:31.533000,-326.0,416.0,-588.0,-1253.0,101.0,116.0,519.0,-285.0,433.0
19:30:31.538000,-431.0,341.0,-562.0,-1083.0,-115.0,148.0,525.0,-276.0,421.0
19:30:31.543000,-375.0,315.0,-261.0,-850.0,-308.0,137.0,525.0,-276.0,421.0
19:30:31.547000,-359.0,294.0,-179.0,-870.0,-295.0,148.0,522.0,-292.0,433.0
19:30:31.552000,-316.0,373.0,-449.0,-1183.0,-233.0,87.0,522.0,-292.0,433.0
19:30:31.559000,-293.0,345.0,-439.0,-1093.0,-176.0,72.0,514.0,-285.0,444.0
19:30:31.561000,-293.0,345.0,-439.0,-1093.0,-176.0,72.0,514.0,-285.0,444.0
19:30:31.565000,-326.0,325.0,-237.0,-1151.0,81.0,39.0,514.0,-285.0,444.0
19:30:31.571000,-229.0,403.0,-452.0,-1206.0,10.0,-31.0,520.0,-274.0,444.0
19:30:31.575000,-166.0,482.0,-466.0,-1166.0,-258.0,-45.0,520.0,-274.0,444.0
19:30:31.580000,-137.0,411.0,-492.0,-1134.0,-227.0,-24.0,507.0,-283.0,438.0
19:30:31.585000,-53.0,319.0,-655.0,-987.0,-73.0,-26.0,507.0,-283.0,438.0
19:30:31.589000,97.0,225.0,-643.0,-822.0,7.0,14.0,507.0,-283.0,438.0
19:30:31.594000,93.0,2.0,-224.0,-910.0,217.0,-24.0,508.0,-289.0,441.0
19:30:31.599000,-45.0,17.0,-328.0,-1143.0,413.0,-250.0,508.0,-289.0,441.0
19:30:31.604000,-21.0,329.0,-537.0,-1226.0,153.0,-256.0,513.0,-276.0,445.0
19:30:31.608000,94.0,317.0,-310.0,-1246.0,-180.0,-141.0,513.0,-276.0,445.0
19:30:31.612000,179.0,198.0,-237.0,-1189.0,-300.0,-98.0,513.0,-276.0,445.0
19:30:31.618000,183.0,92.0,-291.0,-1189.0,-296.0,-88.0,508.0,-283.0,451.0
19:30:31.622000,25.0,102.0,-321.0,-1121.0,-296.0,-88.0,508.0,-283.0,451.0
19:30:31.627000,-207.0,105.0,-186.0,-971.0,-196.0,-162.0,501.0,-277.0,448.0
19:30:31.632000,-296.0,126.0,19.0,-700.0,46.0,-179.0,501.0,-277.0,448.0
19:30:31.636000,-235.0,196.0,61.0,-676.0,281.0,-199.0,501.0,-277.0,448.0
19:30:31.641000,-83.0,188.0,-296.0,-959.0,267.0,-195.0,504.0,-280.0,454.0
19:30:31.646000,78.0,154.0,-660.0,-1245.0,47.0,-155.0,504.0,-280.0,454.0
19:30:31.651000,149.0,100.0,-230.0,-1120.0,-385.0,-120.0,492.0,-279.0,471.0
19:30:31.655000,60.0,21.0,264.0,-913.0,-625.0,-64.0,492.0,-279.0,471.0
19:30:31.659000,60.0,21.0,264.0,-1133.0,-363.0,-127.0,492.0,-279.0,471.0
19:30:31.665000,-63.0,144.0,-373.0,-1251.0,15.0,-163.0,496.0,-283.0,442.0
19:30:31.669000,-63.0,144.0,-373.0,-950.0,74.0,-115.0,496.0,-283.0,442.0
19:30:31.674000,-49.0,170.0,-2.0,-848.0,62.0,-104.0,508.0,-285.0,441.0
19:30:31.679000,-60.0,151.0,264.0,-1078.0,153.0,-121.0,508.0,-285.0,441.0
19:30:31.683000,-19.0,181.0,177.0,-1214.0,80.0,-137.0,508.0,-285.0,441.0
19:30:31.688000,60.0,184.0,-26.0,-1164.0,-121.0,-106.0,498.0,-285.0,450.0
19:30:31.692000,171.0,142.0,-75.0,-1042.0,-234.0,-70.0,498.0,-285.0,450.0
19:30:31.698000,166.0,88.0,-26.0,-1043.0,-155.0,-32.0,475.0,-295.0,447.0
19:30:31.702000,56.0,42.0,-249.0,-962.0,-11.0,-87.0,475.0,-295.0,447.0
19:30:31.706000,63.0,81.0,-275.0,-763.0,78.0,-95.0,475.0,-295.0,447.0
19:30:31.712000,51.0,42.0,-203.0,-799.0,71.0,-69.0,505.0,-276.0,465.0
19:30:31.716000,-46.0,140.0,-252.0,-1001.0,-13.0,-125.0,505.0,-276.0,465.0
19:30:31.721000,-45.0,223.0,-256.0,-1001.0,-13.0,-125.0,505.0,-283.0,460.0
19:30:31.726000,-3.0,144.0,-100.0,-1122.0,-184.0,-85.0,505.0,-283.0,460.0
19:30:31.730000,-67.0,156.0,-67.0,-1122.0,-184.0,-85.0,505.0,-283.0,460.0
19:30:31.735000,-24.0,176.0,-308.0,-1049.0,-36.0,-137.0,493.0,-285.0,451.0
19:30:31.740000,103.0,114.0,-331.0,-1049.0,-36.0,-137.0,493.0,-285.0,451.0
19:30:31.745000,133.0,-18.0,35.0,-826.0,-83.0,-84.0,487.0,-291.0,468.0
19:30:31.749000,-9.0,4.0,219.0,-713.0,62.0,-64.0,487.0,-291.0,468.0
19:30:31.753000,-68.0,85.0,-86.0,-906.0,331.0,-134.0,487.0,-291.0,468.0
19:30:31.759000,14.0,37.0,-307.0,-1092.0,357.0,-145.0,501.0,-282.0,463.0
19:30:31.763000,34.0,31.0,-270.0,-1042.0,136.0,-114.0,501.0,-282.0,463.0
19:30:31.768000,-28.0,21.0,-144.0,-1006.0,-60.0,-84.0,498.0,-285.0,469.0
19:30:31.773000,-95.0,99.0,-81.0,-1032.0,-126.0,-122.0,498.0,-285.0,469.0
19:30:31.777000,-95.0,99.0,-81.0,-1082.0,-56.0,-163.0,498.0,-285.0,469.0
19:30:31.782000,-173.0,98.0,-180.0,-1043.0,31.0,-139.0,493.0,-286.0,453.0
19:30:31.787000,-170.0,89.0,-378.0,-799.0,-30.0,-149.0,493.0,-286.0,453.0
19:30:31.792000,-63.0,42.0,-124.0,-643.0,-100.0,-119.0,498.0,-286.0,465.0
19:30:31.796000,-55.0,-80.0,168.0,-760.0,102.0,-130.0,498.0,-286.0,465.0
19:30:31.800000,-103.0,-21.0,17.0,-977.0,232.0,-207.0,498.0,-286.0,465.0
19:30:31.806000,-64.0,98.0,-131.0,-1113.0,17.0,-158.0,498.0,-285.0,460.0
19:30:31.810000,-26.0,52.0,-81.0,-1219.0,-120.0,-115.0,498.0,-285.0,460.0
19:30:31.815000,57.0,43.0,-301.0,-1178.0,-117.0,-138.0,499.0,-277.0,459.0
19:30:31.820000,142.0,8.0,-448.0,-930.0,-233.0,-128.0,499.0,-277.0,459.0
19:30:31.824000,151.0,-40.0,-71.0,-786.0,-181.0,-117.0,499.0,-277.0,459.0
19:30:31.829000,35.0,-55.0,177.0,-890.0,136.0,-148.0,489.0,-285.0,462.0
19:30:31.834000,42.0,7.0,21.0,-1041.0,292.0,-176.0,489.0,-285.0,462.0
19:30:31.839000,98.0,-5.0,-179.0,-1041.0,292.0,-176.0,493.0,-285.0,469.0
19:30:31.843000,114.0,-3.0,-106.0,-1062.0,126.0,-165.0,493.0,-285.0,469.0
19:30:31.847000,105.0,-23.0,-14.0,-1048.0,-110.0,-144.0,493.0,-285.0,469.0
19:30:31.853000,122.0,21.0,-132.0,-1113.0,-153.0,-165.0,502.0,-282.0,463.0
19:30:31.857000,81.0,-54.0,-302.0,-1141.0,-38.0,-138.0,502.0,-282.0,463.0
19:30:31.862000,47.0,11.0,-214.0,-974.0,96.0,-159.0,502.0,-283.0,459.0
19:30:31.867000,-32.0,53.0,16.0,-820.0,201.0,-205.0,502.0,-283.0,459.0
19:30:31.874000,5.0,105.0,25.0,-1213.0,201.0,-179.0,501.0,-276.0,465.0
19:30:31.876000,13.0,130.0,-213.0,-1213.0,201.0,-179.0,501.0,-276.0,465.0
19:30:31.880000,13.0,130.0,-213.0,-1246.0,-22.0,-157.0,501.0,-276.0,465.0
19:30:31.886000,18.0,157.0,-199.0,-1110.0,-281.0,-160.0,496.0,-276.0,462.0
19:30:31.890000,4.0,204.0,31.0,-1126.0,-329.0,-132.0,496.0,-276.0,462.0
19:30:31.895000,-53.0,187.0,4.0,-1194.0,-199.0,-157.0,498.0,-286.0,466.0
19:30:31.900000,58.0,209.0,-326.0,-1040.0,-182.0,-166.0,498.0,-286.0,466.0
19:30:31.904000,109.0,100.0,-262.0,-769.0,-184.0,-141.0,498.0,-286.0,466.0
19:30:31.909000,82.0,60.0,-14.0,-686.0,69.0,-187.0,490.0,-288.0,465.0
19:30:31.914000,125.0,33.0,-81.0,-810.0,297.0,-203.0,490.0,-288.0,465.0
19:30:31.918000,285.0,11.0,-389.0,-951.0,279.0,-200.0,487.0,-282.0,477.0
19:30:31.923000,359.0,0.0,-664.0,-994.0,47.0,-204.0,487.0,-282.0,477.0
19:30:31.927000,400.0,39.0,-615.0,-1031.0,-208.0,-198.0,487.0,-282.0,477.0
19:30:31.933000,324.0,46.0,-354.0,-1158.0,-228.0,-183.0,496.0,-273.0,465.0
19:30:31.937000,196.0,112.0,-287.0,-1258.0,-56.0,-207.0,496.0,-273.0,465.0
19:30:31.942000,140.0,171.0,-352.0,-1258.0,-56.0,-207.0,490.0,-267.0,468.0
19:30:31.947000,149.0,187.0,-327.0,-1205.0,48.0,-203.0,490.0,-267.0,468.0
19:30:31.951000,171.0,179.0,-336.0,-1131.0,48.0,-203.0,490.0,-267.0,468.0
19:30:31.956000,137.0,224.0,-408.0,-1077.0,26.0,-220.0,492.0,-280.0,463.0
19:30:31.961000,105.0,219.0,-459.0,-925.0,113.0,-221.0,492.0,-280.0,463.0
19:30:31.966000,133.0,205.0,-380.0,-925.0,113.0,-221.0,492.0,-276.0,474.0
19:30:31.970000,166.0,196.0,-344.0,-895.0,124.0,-236.0,492.0,-276.0,474.0
19:30:31.974000,189.0,179.0,-438.0,-965.0,148.0,-220.0,492.0,-276.0,474.0
19:30:31.980000,180.0,199.0,-459.0,-994.0,183.0,-201.0,495.0,-276.0,468.0
19:30:31.984000,166.0,235.0,-410.0,-975.0,152.0,-203.0,495.0,-276.0,468.0
19:30:31.989000,175.0,242.0,-399.0,-1031.0,133.0,-198.0,492.0,-264.0,466.0
19:30:31.994000,180.0,244.0,-410.0,-1117.0,132.0,-191.0,492.0,-264.0,466.0
19:30:31.998000,180.0,244.0,-410.0,-1175.0,104.0,-179.0,492.0,-264.0,466.0
19:30:32.003000,84.0,265.0,-463.0,-1166.0,45.0,-187.0,483.0,-268.0,478.0
19:30:32.008000,-41.0,349.0,-487.0,-1111.0,-6.0,-194.0,483.0,-268.0,478.0
19:30:32.013000,-109.0,364.0,-413.0,-1088.0,-16.0,-209.0,478.0,-255.0,483.0
19:30:32.017000,-99.0,408.0,-366.0,-1159.0,13.0,-236.0,478.0,-255.0,483.0
19:30:32.021000,-71.0,406.0,-463.0,-1174.0,24.0,-227.0,478.0,-255.0,483.0
19:30:32.027000,-34.0,410.0,-498.0,-1046.0,0.0,-223.0,477.0,-255.0,480.0
19:30:32.031000,38.0,401.0,-423.0,-925.0,0.0,-221.0,477.0,-255.0,480.0
19:30:32.036000,130.0,369.0,-322.0,-881.0,12.0,-220.0,480.0,-262.0,475.0
19:30:32.041000,182.0,366.0,-318.0,-941.0,69.0,-213.0,480.0,-262.0,475.0
19:30:32.045000,191.0,372.0,-455.0,-1008.0,143.0,-197.0,480.0,-262.0,475.0
19:30:32.050000,182.0,359.0,-589.0,-1002.0,190.0,-197.0,471.0,-255.0,493.0
19:30:32.055000,154.0,390.0,-714.0,-944.0,244.0,-203.0,471.0,-255.0,493.0
19:30:32.059000,126.0,374.0,-820.0,-944.0,244.0,-203.0,463.0,-250.0,484.0
19:30:32.064000,128.0,392.0,-856.0,-917.0,289.0,-186.0,463.0,-250.0,484.0
19:30:32.068000,125.0,397.0,-789.0,-929.0,311.0,-155.0,463.0,-250.0,484.0
19:30:32.074000,113.0,383.0,-697.0,-920.0,290.0,-137.0,468.0,-247.0,481.0
19:30:32.078000,90.0,376.0,-592.0,-869.0,316.0,-156.0,468.0,-247.0,481.0
19:30:32.083000,91.0,401.0,-508.0,-788.0,355.0,-194.0,457.0,-247.0,481.0
19:30:32.088000,184.0,350.0,-578.0,-686.0,343.0,-271.0,457.0,-247.0,481.0
19:30:32.092000,184.0,350.0,-578.0,-328.0,147.0,-461.0,457.0,-247.0,481.0
19:30:32.097000,249.0,354.0,-833.0,-524.0,158.0,-519.0,457.0,-241.0,481.0
19:30:32.102000,248.0,354.0,-769.0,-984.0,324.0,-422.0,457.0,-241.0,481.0
19:30:32.106000,248.0,354.0,-769.0,-1238.0,348.0,-341.0,435.0,-231.0,496.0
19:30:32.111000,114.0,399.0,-626.0,-1528.0,410.0,-304.0,435.0,-231.0,496.0
19:30:32.115000,-19.0,436.0,-499.0,-1514.0,330.0,-259.0,435.0,-231.0,496.0
19:30:32.121000,-119.0,417.0,-417.0,-1384.0,197.0,-259.0,444.0,-232.0,498.0
19:30:32.125000,-86.0,392.0,-422.0,-1108.0,-53.0,-274.0,444.0,-232.0,498.0
19:30:32.130000,-25.0,333.0,-442.0,-818.0,-175.0,-266.0,439.0,-246.0,493.0
19:30:32.135000,42.0,346.0,-389.0,-746.0,24.0,-290.0,439.0,-246.0,493.0
19:30:32.139000,86.0,333.0,-322.0,-805.0,251.0,-270.0,439.0,-246.0,493.0
19:30:32.144000,138.0,292.0,-284.0,-848.0,390.0,-273.0,432.0,-235.0,501.0
19:30:32.149000,158.0,276.0,-328.0,-898.0,465.0,-276.0,432.0,-235.0,501.0
19:30:32.153000,138.0,277.0,-478.0,-945.0,512.0,-264.0,430.0,-229.0,495.0
19:30:32.158000,116.0,287.0,-581.0,-976.0,459.0,-244.0,430.0,-229.0,495.0
19:30:32.162000,55.0,296.0,-565.0,-957.0,338.0,-218.0,430.0,-229.0,495.0
19:30:32.168000,-16.0,315.0,-510.0,-957.0,338.0,-218.0,430.0,-223.0,489.0
19:30:32.172000,-32.0,325.0,-487.0,-946.0,315.0,-211.0,430.0,-223.0,489.0
19:30:32.177000,51.0,280.0,-590.0,-901.0,297.0,-233.0,429.0,-234.0,490.0
19:30:32.182000,86.0,247.0,-719.0,-777.0,-5.0,-375.0,429.0,-234.0,490.0
19:30:32.189000,1.0,306.0,-826.0,-1014.0,742.0,-314.0,430.0,-226.0,496.0
19:30:32.191000,-68.0,348.0,-935.0,-1014.0,742.0,-314.0,430.0,-226.0,496.0
19:30:32.195000,-136.0,383.0,-814.0,-1110.0,854.0,-281.0,430.0,-226.0,496.0
19:30:32.200000,-168.0,399.0,-731.0,-1050.0,522.0,-244.0,414.0,-222.0,496.0
19:30:32.205000,-177.0,381.0,-673.0,-992.0,227.0,-286.0,414.0,-222.0,496.0
19:30:32.210000,-102.0,332.0,-650.0,-958.0,-11.0,-274.0,418.0,-220.0,508.0
19:30:32.215000,-102.0,332.0,-650.0,-955.0,-62.0,-334.0,418.0,-220.0,508.0
19:30:32.219000,-5.0,310.0,-692.0,-960.0,159.0,-340.0,418.0,-220.0,508.0
19:30:32.224000,36.0,301.0,-725.0,-903.0,384.0,-340.0,409.0,-223.0,505.0
19:30:32.229000,61.0,310.0,-789.0,-867.0,430.0,-356.0,409.0,-223.0,505.0
19:30:32.233000,62.0,308.0,-783.0,-807.0,328.0,-342.0,409.0,-210.0,511.0
19:30:32.238000,64.0,300.0,-708.0,-733.0,287.0,-372.0,409.0,-210.0,511.0
19:30:32.242000,84.0,284.0,-635.0,-681.0,353.0,-383.0,409.0,-210.0,511.0
19:30:32.247000,122.0,276.0,-628.0,-659.0,393.0,-381.0,400.0,-217.0,498.0
19:30:32.252000,218.0,226.0,-729.0,-588.0,304.0,-445.0,400.0,-217.0,498.0
19:30:32.257000,287.0,221.0,-820.0,-691.0,254.0,-491.0,402.0,-210.0,502.0
19:30:32.262000,279.0,243.0,-840.0,-887.0,332.0,-503.0,402.0,-210.0,502.0
19:30:32.266000,289.0,223.0,-847.0,-869.0,366.0,-613.0,402.0,-210.0,502.0
19:30:32.271000,284.0,232.0,-837.0,-1172.0,574.0,-585.0,396.0,-213.0,505.0
19:30:32.276000,277.0,249.0,-743.0,-1367.0,663.0,-494.0,396.0,-213.0,505.0
19:30:32.280000,273.0,224.0,-676.0,-1367.0,663.0,-494.0,379.0,-198.0,496.0
19:30:32.285000,231.0,207.0,-594.0,-1223.0,521.0,-473.0,379.0,-198.0,496.0
19:30:32.289000,173.0,201.0,-534.0,-1162.0,483.0,-430.0,379.0,-198.0,496.0
19:30:32.294000,144.0,167.0,-522.0,-1046.0,446.0,-418.0,391.0,-195.0,505.0
19:30:32.299000,175.0,124.0,-563.0,-929.0,486.0,-416.0,391.0,-195.0,505.0
19:30:32.304000,220.0,81.0,-618.0,-752.0,489.0,-427.0,382.0,-196.0,505.0
19:30:32.309000,268.0,4.0,-571.0,-569.0,417.0,-406.0,382.0,-196.0,505.0
19:30:32.313000,268.0,4.0,-571.0,-466.0,411.0,-400.0,382.0,-196.0,505.0
19:30:32.318000,248.0,-56.0,-448.0,-455.0,486.0,-404.0,387.0,-183.0,511.0
19:30:32.323000,254.0,-80.0,-471.0,-490.0,625.0,-409.0,387.0,-183.0,511.0
19:30:32.327000,254.0,-80.0,-471.0,-542.0,688.0,-417.0,363.0,-193.0,505.0
19:30:32.332000,228.0,-98.0,-469.0,-637.0,640.0,-405.0,363.0,-193.0,505.0
19:30:32.336000,203.0,-109.0,-429.0,-717.0,596.0,-382.0,363.0,-193.0,505.0
19:30:32.341000,218.0,-144.0,-451.0,-701.0,543.0,-389.0,376.0,-177.0,498.0
19:30:32.346000,206.0,-156.0,-518.0,-648.0,549.0,-417.0,376.0,-177.0,498.0
19:30:32.351000,211.0,-145.0,-528.0,-632.0,614.0,-424.0,382.0,-175.0,505.0
19:30:32.356000,267.0,-149.0,-492.0,-705.0,655.0,-421.0,382.0,-175.0,505.0
19:30:32.360000,308.0,-155.0,-483.0,-772.0,599.0,-407.0,382.0,-175.0,505.0
19:30:32.365000,299.0,-172.0,-530.0,-753.0,430.0,-404.0,387.0,-177.0,498.0
19:30:32.370000,266.0,-180.0,-550.0,-756.0,352.0,-388.0,387.0,-177.0,498.0
19:30:32.374000,131.0,-128.0,-533.0,-756.0,352.0,-388.0,375.0,-169.0,490.0
19:30:32.379000,135.0,-99.0,-476.0,-760.0,806.0,-434.0,375.0,-169.0,490.0
19:30:32.383000,211.0,-112.0,-409.0,-789.0,920.0,-426.0,375.0,-169.0,490.0
19:30:32.388000,236.0,-116.0,-396.0,-789.0,920.0,-426.0,370.0,-189.0,502.0
19:30:32.393000,186.0,-95.0,-344.0,-796.0,844.0,-397.0,370.0,-189.0,502.0
19:30:32.398000,173.0,-81.0,-296.0,-757.0,710.0,-371.0,382.0,-175.0,495.0
19:30:32.403000,205.0,-92.0,-254.0,-695.0,605.0,-354.0,382.0,-175.0,495.0
19:30:32.407000,247.0,-106.0,-172.0,-632.0,459.0,-366.0,382.0,-175.0,495.0
19:30:32.412000,247.0,-104.0,-102.0,-632.0,459.0,-366.0,379.0,-172.0,492.0
19:30:32.417000,243.0,-105.0,-77.0,-695.0,506.0,-351.0,379.0,-172.0,492.0
19:30:32.421000,245.0,-110.0,-70.0,-752.0,631.0,-342.0,373.0,-162.0,498.0
19:30:32.426000,237.0,-110.0,-80.0,-738.0,741.0,-326.0,373.0,-162.0,498.0
19:30:32.430000,237.0,-110.0,-80.0,-680.0,780.0,-315.0,373.0,-162.0,498.0
19:30:32.435000,206.0,-102.0,-116.0,-616.0,778.0,-311.0,376.0,-166.0,496.0
19:30:32.440000,193.0,-99.0,-117.0,-581.0,734.0,-300.0,376.0,-166.0,496.0
19:30:32.445000,176.0,-99.0,-53.0,-580.0,678.0,-286.0,388.0,-165.0,492.0
19:30:32.450000,168.0,-105.0,37.0,-594.0,644.0,-283.0,388.0,-165.0,492.0
19:30:32.454000,158.0,-107.0,128.0,-631.0,652.0,-288.0,388.0,-165.0,492.0
19:30:32.459000,144.0,-106.0,154.0,-670.0,692.0,-286.0,373.0,-157.0,511.0
19:30:32.464000,130.0,-116.0,135.0,-674.0,714.0,-280.0,373.0,-157.0,511.0
19:30:32.468000,113.0,-120.0,114.0,-645.0,717.0,-279.0,384.0,-162.0,495.0
19:30:32.473000,101.0,-121.0,107.0,-616.0,702.0,-277.0,384.0,-162.0,495.0
19:30:32.477000,86.0,-122.0,116.0,-609.0,666.0,-276.0,384.0,-162.0,495.0
19:30:32.482000,63.0,-121.0,151.0,-629.0,636.0,-280.0,385.0,-174.0,496.0
19:30:32.487000,51.0,-116.0,189.0,-657.0,625.0,-280.0,385.0,-174.0,496.0
19:30:32.492000,42.0,-120.0,227.0,-657.0,625.0,-280.0,381.0,-160.0,489.0
19:30:32.529000,45.0,-251.0,342.0,-569.0,551.0,-214.0,393.0,-156.0,490.0
19:30:32.534000,66.0,-281.0,364.0,-562.0,540.0,-213.0,384.0,-160.0,510.0
19:30:32.539000,76.0,-304.0,393.0,-572.0,530.0,-211.0,384.0,-160.0,510.0
19:30:32.544000,76.0,-304.0,393.0,-599.0,527.0,-208.0,402.0,-148.0,492.0
19:30:32.548000,84.0,-319.0,415.0,-628.0,534.0,-209.0,402.0,-148.0,492.0
19:30:32.552000,95.0,-329.0,416.0,-652.0,525.0,-214.0,402.0,-148.0,492.0
19:30:32.558000,97.0,-327.0,421.0,-662.0,498.0,-208.0,406.0,-160.0,486.0
19:30:32.562000,77.0,-323.0,443.0,-666.0,497.0,-205.0,406.0,-160.0,486.0
19:30:32.567000,72.0,-317.0,449.0,-662.0,517.0,-209.0,406.0,-157.0,490.0
19:30:32.572000,63.0,-308.0,429.0,-642.0,505.0,-206.0,406.0,-157.0,490.0
19:30:32.576000,53.0,-293.0,429.0,-620.0,452.0,-202.0,420.0,-165.0,486.0
19:30:32.581000,40.0,-278.0,462.0,-619.0,413.0,-198.0,420.0,-165.0,486.0
19:30:32.585000,27.0,-268.0,470.0,-633.0,415.0,-199.0,420.0,-165.0,486.0
19:30:32.591000,19.0,-256.0,435.0,-633.0,433.0,-202.0,411.0,-166.0,483.0
19:30:32.595000,11.0,-241.0,399.0,-621.0,444.0,-200.0,411.0,-166.0,483.0
19:30:32.600000,-7.0,-228.0,373.0,-621.0,444.0,-200.0,409.0,-160.0,487.0
19:30:32.605000,-18.0,-217.0,342.0,-615.0,469.0,-203.0,409.0,-160.0,487.0
19:30:32.609000,-29.0,-207.0,310.0,-617.0,469.0,-203.0,409.0,-160.0,487.0
19:30:32.614000,-37.0,-200.0,287.0,-623.0,473.0,-205.0,424.0,-166.0,486.0
19:30:32.619000,-40.0,-194.0,266.0,-659.0,483.0,-201.0,424.0,-166.0,486.0
19:30:32.623000,-57.0,-187.0,241.0,-659.0,483.0,-201.0,414.0,-168.0,493.0
19:30:32.628000,-80.0,-186.0,226.0,-667.0,487.0,-193.0,414.0,-168.0,493.0
19:30:32.632000,-105.0,-187.0,227.0,-652.0,487.0,-186.0,414.0,-168.0,493.0
19:30:32.638000,-130.0,-189.0,235.0,-621.0,487.0,-180.0,427.0,-166.0,486.0
19:30:32.642000,-154.0,-192.0,247.0,-588.0,484.0,-171.0,427.0,-166.0,486.0
19:30:32.647000,-178.0,-195.0,263.0,-560.0,471.0,-165.0,433.0,-165.0,489.0
19:30:32.652000,-198.0,-198.0,277.0,-548.0,443.0,-162.0,433.0,-165.0,489.0
19:30:32.656000,-198.0,-198.0,277.0,-551.0,406.0,-160.0,433.0,-165.0,489.0
19:30:32.661000,-209.0,-201.0,288.0,-558.0,368.0,-159.0,445.0,-162.0,481.0
19:30:32.666000,-215.0,-204.0,298.0,-565.0,325.0,-157.0,445.0,-162.0,481.0
19:30:32.670000,-217.0,-211.0,315.0,-572.0,290.0,-157.0,432.0,-166.0,489.0
19:30:32.675000,-207.0,-210.0,324.0,-572.0,267.0,-158.0,432.0,-166.0,489.0
19:30:32.679000,-191.0,-210.0,322.0,-563.0,249.0,-160.0,432.0,-166.0,489.0
19:30:32.685000,-175.0,-210.0,321.0,-561.0,238.0,-162.0,441.0,-172.0,493.0
19:30:32.689000,-149.0,-211.0,320.0,-574.0,240.0,-166.0,441.0,-172.0,493.0
19:30:32.694000,-126.0,-210.0,311.0,-599.0,251.0,-166.0,438.0,-172.0,487.0
19:30:32.699000,-107.0,-210.0,292.0,-618.0,267.0,-166.0,438.0,-172.0,487.0
19:30:32.703000,-94.0,-207.0,275.0,-628.0,285.0,-166.0,438.0,-172.0,487.0
19:30:32.708000,-91.0,-202.0,265.0,-630.0,313.0,-167.0,453.0,-174.0,477.0
19:30:32.713000,-95.0,-195.0,261.0,-623.0,332.0,-165.0,453.0,-174.0,477.0
19:30:32.717000,-109.0,-184.0,276.0,-623.0,332.0,-165.0,448.0,-171.0,475.0
19:30:32.722000,-129.0,-170.0,298.0,-616.0,338.0,-164.0,448.0,-171.0,475.0
19:30:32.726000,-158.0,-156.0,316.0,-614.0,339.0,-162.0,448.0,-171.0,475.0
19:30:32.732000,-187.0,-142.0,325.0,-611.0,334.0,-161.0,451.0,-183.0,472.0
19:30:32.736000,-215.0,-130.0,332.0,-603.0,327.0,-161.0,451.0,-183.0,472.0
19:30:32.741000,-238.0,-122.0,346.0,-593.0,310.0,-159.0,450.0,-180.0,477.0
19:30:32.746000,-255.0,-116.0,362.0,-586.0,280.0,-154.0,450.0,-180.0,477.0
19:30:32.750000,-255.0,-116.0,362.0,-585.0,246.0,-147.0,450.0,-180.0,477.0
19:30:32.755000,-264.0,-116.0,364.0,-582.0,211.0,-141.0,451.0,-181.0,496.0
19:30:32.760000,-254.0,-119.0,360.0,-571.0,174.0,-136.0,451.0,-181.0,496.0
19:30:32.764000,-254.0,-119.0,360.0,-563.0,145.0,-133.0,460.0,-187.0,489.0
19:30:32.769000,-235.0,-124.0,352.0,-568.0,133.0,-130.0,460.0,-187.0,489.0
19:30:32.773000,-212.0,-133.0,334.0,-581.0,128.0,-127.0,460.0,-187.0,489.0
19:30:32.779000,-184.0,-142.0,315.0,-595.0,128.0,-125.0,457.0,-192.0,481.0
19:30:32.783000,-157.0,-149.0,296.0,-609.0,133.0,-121.0,457.0,-192.0,481.0
19:30:32.788000,-135.0,-154.0,284.0,-619.0,137.0,-117.0,468.0,-183.0,483.0
19:30:32.793000,-117.0,-157.0,285.0,-627.0,139.0,-115.0,468.0,-183.0,483.0
19:30:32.797000,-100.0,-156.0,289.0,-635.0,146.0,-112.0,465.0,-195.0,490.0
19:30:32.802000,-88.0,-155.0,287.0,-637.0,150.0,-107.0,465.0,-195.0,490.0
19:30:32.806000,-79.0,-155.0,286.0,-631.0,151.0,-104.0,465.0,-195.0,490.0
19:30:32.811000,-76.0,-154.0,295.0,-626.0,154.0,-102.0,474.0,-201.0,484.0
19:30:32.816000,-74.0,-152.0,310.0,-624.0,154.0,-101.0,474.0,-201.0,484.0
19:30:32.821000,-79.0,-149.0,335.0,-624.0,154.0,-101.0,466.0,-196.0,481.0
19:30:32.826000,-83.0,-147.0,359.0,-629.0,151.0,-102.0,466.0,-196.0,481.0
19:30:32.830000,-86.0,-147.0,373.0,-638.0,149.0,-105.0,466.0,-196.0,481.0
19:30:32.835000,-90.0,-142.0,375.0,-648.0,148.0,-108.0,481.0,-198.0,484.0
19:30:32.840000,-93.0,-139.0,380.0,-665.0,127.0,-111.0,481.0,-198.0,484.0
19:30:32.844000,-94.0,-137.0,381.0,-665.0,127.0,-111.0,466.0,-207.0,492.0
19:30:32.849000,-100.0,-133.0,394.0,-669.0,113.0,-111.0,466.0,-207.0,492.0
19:30:32.853000,-105.0,-135.0,409.0,-672.0,99.0,-111.0,466.0,-207.0,492.0
19:30:32.858000,-107.0,-137.0,401.0,-678.0,101.0,-112.0,474.0,-204.0,486.0
19:30:32.863000,-111.0,-137.0,382.0,-672.0,108.0,-110.0,474.0,-204.0,486.0
19:30:32.868000,-121.0,-142.0,377.0,-645.0,105.0,-107.0,487.0,-199.0,484.0
19:30:32.873000,-121.0,-142.0,377.0,-608.0,93.0,-108.0,487.0,-199.0,484.0
19:30:32.877000,-129.0,-149.0,382.0,-580.0,86.0,-111.0,487.0,-199.0,484.0
19:30:32.882000,-133.0,-158.0,377.0,-563.0,89.0,-116.0,469.0,-204.0,481.0
19:30:32.887000,-135.0,-170.0,364.0,-551.0,96.0,-118.0,469.0,-204.0,481.0
19:30:32.891000,-137.0,-182.0,355.0,-549.0,106.0,-118.0,474.0,-210.0,498.0
19:30:32.896000,-137.0,-192.0,352.0,-558.0,112.0,-119.0,474.0,-210.0,498.0
19:30:32.900000,-137.0,-203.0,354.0,-570.0,107.0,-122.0,474.0,-210.0,498.0
19:30:32.905000,-130.0,-214.0,359.0,-581.0,91.0,-125.0,486.0,-213.0,492.0
19:30:32.910000,-119.0,-226.0,368.0,-592.0,77.0,-126.0,486.0,-213.0,492.0
19:30:32.915000,-106.0,-238.0,381.0,-602.0,73.0,-125.0,496.0,-208.0,480.0
19:30:32.920000,-96.0,-251.0,401.0,-607.0,76.0,-124.0,496.0,-208.0,480.0
19:30:32.924000,-93.0,-261.0,432.0,-609.0,94.0,-123.0,496.0,-208.0,480.0
19:30:32.929000,-95.0,-267.0,467.0,-608.0,121.0,-123.0,499.0,-210.0,486.0
19:30:32.934000,-102.0,-270.0,503.0,-608.0,143.0,-127.0,499.0,-210.0,486.0
19:30:32.938000,-113.0,-272.0,539.0,-605.0,143.0,-127.0,493.0,-216.0,486.0
19:30:32.943000,-125.0,-273.0,572.0,-603.0,163.0,-135.0,493.0,-216.0,486.0
19:30:32.947000,-140.0,-277.0,604.0,-604.0,188.0,-148.0,493.0,-216.0,486.0
19:30:32.952000,-154.0,-280.0,636.0,-613.0,218.0,-162.0,492.0,-223.0,484.0
19:30:32.957000,-169.0,-283.0,679.0,-624.0,235.0,-172.0,492.0,-223.0,484.0
19:30:32.962000,-184.0,-287.0,739.0,-627.0,227.0,-175.0,492.0,-226.0,480.0
19:30:32.967000,-196.0,-291.0,816.0,-622.0,202.0,-176.0,492.0,-226.0,480.0
19:30:32.971000,-196.0,-291.0,816.0,-614.0,169.0,-179.0,492.0,-226.0,480.0
19:30:32.976000,-189.0,-310.0,961.0,-608.0,140.0,-189.0,486.0,-231.0,486.0
19:30:32.981000,-172.0,-322.0,1015.0,-611.0,127.0,-202.0,486.0,-231.0,486.0
19:30:32.985000,-172.0,-322.0,1015.0,-621.0,131.0,-211.0,516.0,-238.0,480.0
19:30:32.990000,-156.0,-333.0,1065.0,-639.0,146.0,-218.0,516.0,-238.0,480.0
19:30:32.994000,-139.0,-341.0,1110.0,-659.0,158.0,-223.0,516.0,-238.0,480.0
19:30:32.999000,-123.0,-347.0,1152.0,-679.0,167.0,-222.0,508.0,-246.0,471.0
19:30:33.004000,-112.0,-352.0,1189.0,-696.0,177.0,-218.0,508.0,-246.0,471.0
19:30:33.009000,-105.0,-358.0,1222.0,-705.0,189.0,-214.0,526.0,-253.0,481.0
