hh:mm:ss.ms,gyroX[mdps],gyroY[mdps],gyroZ[mdps],accX[mg],accY[mg],accZ[mg],magX[mG],magY[mG],magZ[mG]
19:44:11.215000,-275.0,-93.0,-599.0,-996.0,-583.0,42.0,0.0,0.0,0.0
19:44:11.220000,-315.0,-58.0,-620.0,-996.0,-583.0,42.0,0.0,0.0,0.0
19:44:11.225000,-359.0,-25.0,-632.0,-1109.0,-428.0,17.0,0.0,0.0,0.0
19:44:11.229000,-359.0,-25.0,-632.0,-1109.0,-428.0,17.0,0.0,0.0,0.0
19:44:11.234000,-409.0,13.0,-640.0,-1231.0,-360.0,-7.0,0.0,0.0,0.0
19:44:11.239000,-444.0,49.0,-635.0,-1231.0,-360.0,-7.0,0.0,0.0,0.0
19:44:11.243000,-478.0,85.0,-636.0,-1279.0,-348.0,-37.0,0.0,0.0,0.0
19:44:11.248000,-511.0,122.0,-662.0,-1279.0,-348.0,-37.0,0.0,0.0,0.0
19:44:11.253000,-529.0,150.0,-701.0,-1251.0,-338.0,-73.0,0.0,0.0,0.0
19:44:11.258000,-553.0,179.0,-705.0,-1251.0,-338.0,-73.0,0.0,0.0,0.0
19:44:11.262000,-562.0,225.0,-692.0,-1147.0,-352.0,-104.0,0.0,0.0,0.0
19:44:11.267000,-567.0,254.0,-699.0,-1147.0,-352.0,-104.0,0.0,0.0,0.0
19:44:11.272000,-583.0,281.0,-716.0,-1125.0,-387.0,-131.0,0.0,0.0,0.0
19:44:11.276000,-562.0,326.0,-732.0,-1125.0,-387.0,-131.0,0.0,0.0,0.0
19:44:11.281000,-565.0,358.0,-750.0,-1216.0,-405.0,-134.0,0.0,0.0,0.0
19:44:11.286000,-546.0,375.0,-760.0,-1216.0,-405.0,-134.0,0.0,0.0,0.0
19:44:11.290000,-534.0,409.0,-749.0,-1216.0,-397.0,-131.0,0.0,0.0,0.0
19:44:11.295000,-542.0,424.0,-735.0,-1258.0,-397.0,-131.0,0.0,0.0,0.0
19:44:11.300000,-519.0,445.0,-810.0,-1258.0,-397.0,-131.0,0.0,0.0,0.0
19:44:11.305000,-503.0,466.0,-932.0,-1154.0,-356.0,-138.0,0.0,0.0,0.0
19:44:11.309000,-503.0,482.0,-969.0,-1154.0,-356.0,-138.0,0.0,0.0,0.0
19:44:11.314000,-497.0,503.0,-981.0,-942.0,-320.0,-140.0,0.0,0.0,0.0
19:44:11.319000,-494.0,509.0,-959.0,-942.0,-320.0,-140.0,0.0,0.0,0.0
19:44:11.323000,-553.0,550.0,-961.0,-817.0,-292.0,-151.0,0.0,0.0,0.0
19:44:11.328000,-527.0,558.0,-1044.0,-817.0,-292.0,-151.0,0.0,0.0,0.0
19:44:11.333000,-536.0,540.0,-980.0,-678.0,-301.0,-210.0,0.0,0.0,0.0
19:44:11.337000,-716.0,361.0,-980.0,-678.0,-301.0,-210.0,0.0,0.0,0.0
19:44:11.342000,-566.0,536.0,-918.0,-719.0,-288.0,-259.0,0.0,0.0,0.0
19:44:11.347000,-562.0,481.0,-916.0,-719.0,-288.0,-259.0,0.0,0.0,0.0
19:44:11.352000,-592.0,433.0,-898.0,-1161.0,-165.0,-238.0,0.0,0.0,0.0
19:44:11.356000,-580.0,378.0,-930.0,-1161.0,-165.0,-238.0,0.0,0.0,0.0
19:44:11.360000,-508.0,392.0,-900.0,-1106.0,-116.0,-279.0,0.0,0.0,0.0
19:44:11.366000,-397.0,310.0,-873.0,-1106.0,-116.0,-279.0,0.0,0.0,0.0
19:44:11.370000,-483.0,305.0,-983.0,-757.0,-112.0,-284.0,0.0,0.0,0.0
19:44:11.375000,-394.0,265.0,-1024.0,-757.0,-112.0,-284.0,0.0,0.0,0.0
19:44:11.380000,-381.0,225.0,-952.0,-762.0,-46.0,-236.0,0.0,0.0,0.0
19:44:11.384000,-387.0,196.0,-898.0,-762.0,-46.0,-236.0,0.0,0.0,0.0
19:44:11.389000,-346.0,147.0,-870.0,-847.0,1.0,-244.0,0.0,0.0,0.0
19:44:11.394000,-338.0,99.0,-826.0,-847.0,1.0,-244.0,0.0,0.0,0.0
19:44:11.399000,-321.0,51.0,-816.0,-911.0,31.0,-224.0,0.0,0.0,0.0
19:44:11.403000,-310.0,3.0,-813.0,-911.0,31.0,-224.0,0.0,0.0,0.0
19:44:11.408000,-333.0,-41.0,-813.0,-911.0,31.0,-224.0,0.0,0.0,0.0
19:44:11.413000,-368.0,-74.0,-843.0,-920.0,89.0,-186.0,0.0,0.0,0.0
19:44:11.417000,-422.0,-109.0,-836.0,-920.0,89.0,-186.0,0.0,0.0,0.0
19:44:11.422000,-456.0,-117.0,-755.0,-983.0,154.0,-137.0,0.0,0.0,0.0
19:44:11.427000,-490.0,-116.0,-724.0,-983.0,154.0,-137.0,0.0,0.0,0.0
19:44:11.431000,-534.0,-115.0,-772.0,-997.0,179.0,-102.0,0.0,0.0,0.0
19:44:11.436000,-576.0,-107.0,-807.0,-997.0,179.0,-102.0,0.0,0.0,0.0
19:44:11.441000,-613.0,-92.0,-819.0,-989.0,251.0,-88.0,0.0,0.0,0.0
19:44:11.446000,-626.0,-88.0,-872.0,-989.0,251.0,-88.0,0.0,0.0,0.0
19:44:11.450000,-626.0,-88.0,-872.0,-1037.0,308.0,-73.0,0.0,0.0,0.0
19:44:11.455000,-658.0,-92.0,-879.0,-1037.0,308.0,-73.0,0.0,0.0,0.0
19:44:11.460000,-661.0,-90.0,-858.0,-1049.0,238.0,-59.0,0.0,0.0,0.0
19:44:11.464000,-669.0,-95.0,-854.0,-1049.0,238.0,-59.0,0.0,0.0,0.0
19:44:11.469000,-669.0,-98.0,-835.0,-968.0,174.0,-48.0,0.0,0.0,0.0
19:44:11.474000,-657.0,-96.0,-821.0,-968.0,174.0,-48.0,0.0,0.0,0.0
19:44:11.478000,-655.0,-95.0,-817.0,-876.0,210.0,-41.0,0.0,0.0,0.0
19:44:11.483000,-656.0,-99.0,-786.0,-876.0,210.0,-41.0,0.0,0.0,0.0
19:44:11.488000,-649.0,-101.0,-747.0,-876.0,251.0,-39.0,0.0,0.0,0.0
19:44:11.493000,-641.0,-107.0,-705.0,-876.0,251.0,-39.0,0.0,0.0,0.0
19:44:11.497000,-632.0,-110.0,-667.0,-945.0,268.0,-39.0,0.0,0.0,0.0
19:44:11.502000,-626.0,-113.0,-646.0,-945.0,268.0,-39.0,0.0,0.0,0.0
19:44:11.507000,-615.0,-111.0,-625.0,-961.0,304.0,-35.0,0.0,0.0,0.0
19:44:11.511000,-613.0,-103.0,-611.0,-961.0,304.0,-35.0,0.0,0.0,0.0
19:44:11.516000,-611.0,-90.0,-599.0,-961.0,304.0,-35.0,0.0,0.0,0.0
19:44:11.521000,-613.0,-76.0,-588.0,-937.0,342.0,-25.0,0.0,0.0,0.0
19:44:11.525000,-616.0,-58.0,-568.0,-937.0,342.0,-25.0,0.0,0.0,0.0
19:44:11.530000,-620.0,-35.0,-550.0,-943.0,360.0,-14.0,0.0,0.0,0.0
19:44:11.535000,-627.0,-9.0,-539.0,-943.0,360.0,-14.0,0.0,0.0,0.0
19:44:11.540000,-637.0,25.0,-525.0,-961.0,367.0,-12.0,0.0,0.0,0.0
19:44:11.544000,-654.0,62.0,-511.0,-961.0,367.0,-12.0,0.0,0.0,0.0
19:44:11.549000,-678.0,98.0,-492.0,-980.0,385.0,-19.0,0.0,0.0,0.0
19:44:11.554000,-700.0,127.0,-466.0,-980.0,385.0,-19.0,0.0,0.0,0.0
19:44:11.558000,-700.0,127.0,-466.0,-1000.0,403.0,-22.0,0.0,0.0,0.0
19:44:11.563000,-722.0,151.0,-435.0,-1000.0,403.0,-22.0,0.0,0.0,0.0
19:44:11.568000,-746.0,178.0,-399.0,-974.0,398.0,-18.0,0.0,0.0,0.0
19:44:11.572000,-771.0,203.0,-366.0,-974.0,398.0,-18.0,0.0,0.0,0.0
19:44:11.577000,-795.0,225.0,-338.0,-919.0,388.0,-10.0,0.0,0.0,0.0
19:44:11.582000,-821.0,240.0,-310.0,-919.0,388.0,-10.0,0.0,0.0,0.0
19:44:11.587000,-842.0,252.0,-277.0,-861.0,375.0,2.0,0.0,0.0,0.0
19:44:11.591000,-862.0,261.0,-248.0,-861.0,375.0,2.0,0.0,0.0,0.0
19:44:11.595000,-879.0,266.0,-230.0,-816.0,361.0,20.0,0.0,0.0,0.0
19:44:11.601000,-897.0,268.0,-221.0,-816.0,361.0,20.0,0.0,0.0,0.0
19:44:11.605000,-916.0,267.0,-211.0,-812.0,367.0,41.0,0.0,0.0,0.0
19:44:11.610000,-936.0,265.0,-192.0,-812.0,367.0,41.0,0.0,0.0,0.0
19:44:11.614000,-959.0,259.0,-180.0,-835.0,384.0,64.0,0.0,0.0,0.0
19:44:11.619000,-988.0,256.0,-185.0,-835.0,384.0,64.0,0.0,0.0,0.0
19:44:11.624000,-1028.0,250.0,-180.0,-835.0,384.0,64.0,0.0,0.0,0.0
19:44:11.629000,-1081.0,247.0,-152.0,-851.0,412.0,92.0,0.0,0.0,0.0
19:44:11.634000,-1140.0,245.0,-128.0,-851.0,412.0,92.0,0.0,0.0,0.0
19:44:11.638000,-1210.0,242.0,-113.0,-868.0,473.0,122.0,0.0,0.0,0.0
19:44:11.643000,-1287.0,242.0,-98.0,-868.0,473.0,122.0,0.0,0.0,0.0
19:44:11.648000,-1367.0,245.0,-81.0,-901.0,550.0,143.0,0.0,0.0,0.0
19:44:11.652000,-1449.0,248.0,-57.0,-901.0,550.0,143.0,0.0,0.0,0.0
19:44:11.657000,-1532.0,250.0,-35.0,-941.0,604.0,154.0,0.0,0.0,0.0
19:44:11.662000,-1615.0,249.0,-13.0,-941.0,604.0,154.0,0.0,0.0,0.0
19:44:11.666000,-1615.0,249.0,-13.0,-976.0,618.0,160.0,0.0,0.0,0.0
19:44:11.671000,-1696.0,243.0,15.0,-976.0,618.0,160.0,0.0,0.0,0.0
19:44:11.676000,-1763.0,235.0,51.0,-959.0,562.0,161.0,0.0,0.0,0.0
19:44:11.681000,-1815.0,228.0,85.0,-959.0,562.0,161.0,0.0,0.0,0.0
19:44:11.685000,-1851.0,228.0,109.0,-892.0,439.0,136.0,0.0,0.0,0.0
19:44:11.690000,-1872.0,231.0,128.0,-892.0,439.0,136.0,0.0,0.0,0.0
19:44:11.695000,-1880.0,238.0,139.0,-865.0,311.0,81.0,0.0,0.0,0.0
19:44:11.699000,-1880.0,253.0,151.0,-865.0,311.0,81.0,0.0,0.0,0.0
19:44:11.704000,-1869.0,273.0,162.0,-907.0,211.0,7.0,0.0,0.0,0.0
19:44:11.709000,-1850.0,301.0,168.0,-907.0,211.0,7.0,0.0,0.0,0.0
19:44:11.713000,-1828.0,337.0,167.0,-975.0,137.0,-75.0,0.0,0.0,0.0
19:44:11.718000,-1801.0,379.0,170.0,-975.0,137.0,-75.0,0.0,0.0,0.0
19:44:11.723000,-1772.0,424.0,182.0,-1020.0,67.0,-147.0,0.0,0.0,0.0
19:44:11.728000,-1736.0,471.0,200.0,-1020.0,67.0,-147.0,0.0,0.0,0.0
19:44:11.732000,-1697.0,521.0,219.0,-1007.0,-16.0,-203.0,0.0,0.0,0.0
19:44:11.737000,-1652.0,571.0,239.0,-1007.0,-16.0,-203.0,0.0,0.0,0.0
19:44:11.742000,-1603.0,623.0,259.0,-1007.0,-16.0,-203.0,0.0,0.0,0.0
19:44:11.746000,-1551.0,666.0,273.0,-951.0,-93.0,-247.0,0.0,0.0,0.0
19:44:11.751000,-1496.0,700.0,281.0,-951.0,-93.0,-247.0,0.0,0.0,0.0
19:44:11.756000,-1439.0,729.0,286.0,-867.0,-140.0,-272.0,0.0,0.0,0.0
19:44:11.760000,-1382.0,752.0,273.0,-867.0,-140.0,-272.0,0.0,0.0,0.0
19:44:11.765000,-1326.0,770.0,245.0,-768.0,-147.0,-281.0,0.0,0.0,0.0
19:44:11.770000,-1273.0,780.0,206.0,-768.0,-147.0,-281.0,0.0,0.0,0.0
19:44:11.775000,-1220.0,786.0,154.0,-703.0,-110.0,-282.0,0.0,0.0,0.0
19:44:11.779000,-1220.0,786.0,154.0,-703.0,-110.0,-282.0,0.0,0.0,0.0
19:44:11.784000,-1171.0,788.0,107.0,-681.0,-70.0,-279.0,0.0,0.0,0.0
19:44:11.789000,-1122.0,787.0,70.0,-681.0,-70.0,-279.0,0.0,0.0,0.0
19:44:11.793000,-1077.0,784.0,34.0,-680.0,-57.0,-278.0,0.0,0.0,0.0
19:44:11.798000,-1039.0,779.0,1.0,-680.0,-57.0,-278.0,0.0,0.0,0.0
19:44:11.803000,-1007.0,773.0,-28.0,-688.0,-39.0,-274.0,0.0,0.0,0.0
19:44:11.807000,-984.0,767.0,-51.0,-688.0,-39.0,-274.0,0.0,0.0,0.0
19:44:11.812000,-968.0,762.0,-60.0,-680.0,-13.0,-275.0,0.0,0.0,0.0
19:44:11.817000,-956.0,758.0,-63.0,-680.0,-13.0,-275.0,0.0,0.0,0.0
19:44:11.822000,-950.0,757.0,-59.0,-677.0,6.0,-285.0,0.0,0.0,0.0
19:44:11.826000,-948.0,756.0,-54.0,-677.0,6.0,-285.0,0.0,0.0,0.0
19:44:11.830000,-948.0,758.0,-46.0,-702.0,19.0,-296.0,0.0,0.0,0.0
19:44:11.836000,-950.0,763.0,-30.0,-702.0,19.0,-296.0,0.0,0.0,0.0
19:44:11.840000,-954.0,774.0,-11.0,-702.0,19.0,-296.0,0.0,0.0,0.0
19:44:11.845000,-956.0,788.0,4.0,-721.0,13.0,-308.0,0.0,0.0,0.0
19:44:11.850000,-960.0,802.0,20.0,-716.0,-8.0,-320.0,0.0,0.0,0.0
19:44:11.854000,-959.0,813.0,32.0,-716.0,-8.0,-320.0,0.0,0.0,0.0
19:44:11.859000,-953.0,821.0,39.0,-716.0,-8.0,-320.0,0.0,0.0,0.0
19:44:11.864000,-940.0,823.0,43.0,-689.0,-39.0,-324.0,0.0,0.0,0.0
19:44:11.869000,-920.0,823.0,42.0,-689.0,-39.0,-324.0,0.0,0.0,0.0
19:44:11.873000,-893.0,819.0,39.0,-646.0,-80.0,-321.0,0.0,0.0,0.0
19:44:11.878000,-865.0,813.0,37.0,-646.0,-80.0,-321.0,0.0,0.0,0.0
19:44:11.883000,-835.0,807.0,35.0,-599.0,-120.0,-316.0,0.0,0.0,0.0
19:44:11.887000,-835.0,807.0,35.0,-599.0,-120.0,-316.0,0.0,0.0,0.0
19:44:11.892000,-807.0,802.0,36.0,-561.0,-140.0,-313.0,0.0,0.0,0.0
19:44:11.897000,-784.0,802.0,43.0,-561.0,-140.0,-313.0,0.0,0.0,0.0
19:44:11.901000,-763.0,809.0,55.0,-554.0,-143.0,-312.0,0.0,0.0,0.0
19:44:11.906000,-747.0,821.0,72.0,-554.0,-143.0,-312.0,0.0,0.0,0.0
19:44:11.911000,-732.0,835.0,89.0,-566.0,-140.0,-319.0,0.0,0.0,0.0
19:44:11.916000,-721.0,853.0,97.0,-566.0,-140.0,-319.0,0.0,0.0,0.0
19:44:11.920000,-710.0,872.0,95.0,-574.0,-126.0,-337.0,0.0,0.0,0.0
19:44:11.925000,-700.0,891.0,93.0,-574.0,-126.0,-337.0,0.0,0.0,0.0
19:44:11.930000,-691.0,907.0,94.0,-563.0,-114.0,-358.0,0.0,0.0,0.0
19:44:11.934000,-684.0,922.0,98.0,-563.0,-114.0,-358.0,0.0,0.0,0.0
19:44:11.939000,-679.0,935.0,108.0,-517.0,-135.0,-376.0,0.0,0.0,0.0
19:44:11.944000,-676.0,947.0,128.0,-517.0,-135.0,-376.0,0.0,0.0,0.0
19:44:11.948000,-677.0,960.0,158.0,-517.0,-135.0,-376.0,0.0,0.0,0.0
19:44:11.953000,-685.0,973.0,191.0,-442.0,-172.0,-391.0,0.0,0.0,0.0
19:44:11.958000,-697.0,987.0,218.0,-442.0,-172.0,-391.0,0.0,0.0,0.0
19:44:11.963000,-709.0,996.0,240.0,-377.0,-182.0,-404.0,0.0,0.0,0.0
19:44:11.967000,-716.0,1007.0,256.0,-377.0,-182.0,-404.0,0.0,0.0,0.0
19:44:11.972000,-711.0,1016.0,263.0,-329.0,-191.0,-427.0,0.0,0.0,0.0
19:44:11.977000,-694.0,1025.0,261.0,-329.0,-191.0,-427.0,0.0,0.0,0.0
19:44:11.981000,-662.0,1029.0,249.0,-290.0,-253.0,-472.0,0.0,0.0,0.0
19:44:11.986000,-618.0,1033.0,230.0,-290.0,-253.0,-472.0,0.0,0.0,0.0
19:44:11.991000,-569.0,1038.0,202.0,-251.0,-339.0,-533.0,0.0,0.0,0.0
19:44:11.995000,-569.0,1038.0,202.0,-251.0,-339.0,-533.0,0.0,0.0,0.0
19:44:12.000000,-519.0,1047.0,161.0,-221.0,-370.0,-597.0,0.0,0.0,0.0
19:44:12.005000,-477.0,1059.0,102.0,-221.0,-370.0,-597.0,0.0,0.0,0.0
19:44:12.010000,-448.0,1068.0,34.0,-228.0,-298.0,-643.0,0.0,0.0,0.0
19:44:12.014000,-431.0,1073.0,-29.0,-228.0,-298.0,-643.0,0.0,0.0,0.0
19:44:12.019000,-421.0,1075.0,-91.0,-220.0,-196.0,-670.0,0.0,0.0,0.0
19:44:12.024000,-413.0,1075.0,-156.0,-220.0,-196.0,-670.0,0.0,0.0,0.0
19:44:12.028000,-406.0,1076.0,-219.0,-167.0,-140.0,-690.0,0.0,0.0,0.0
19:44:12.033000,-402.0,1080.0,-275.0,-167.0,-140.0,-690.0,0.0,0.0,0.0
19:44:12.038000,-401.0,1088.0,-316.0,-128.0,-118.0,-711.0,0.0,0.0,0.0
19:44:12.042000,-403.0,1099.0,-340.0,-128.0,-118.0,-711.0,0.0,0.0,0.0
19:44:12.047000,-410.0,1115.0,-351.0,-140.0,-96.0,-749.0,0.0,0.0,0.0
19:44:12.052000,-424.0,1132.0,-352.0,-140.0,-96.0,-749.0,0.0,0.0,0.0
19:44:12.057000,-443.0,1150.0,-341.0,-140.0,-96.0,-749.0,0.0,0.0,0.0
19:44:12.061000,-462.0,1169.0,-324.0,-189.0,-62.0,-804.0,0.0,0.0,0.0
19:44:12.065000,-481.0,1187.0,-305.0,-189.0,-62.0,-804.0,0.0,0.0,0.0
19:44:12.071000,-497.0,1201.0,-289.0,-213.0,-41.0,-872.0,0.0,0.0,0.0
19:44:12.075000,-510.0,1208.0,-277.0,-213.0,-41.0,-872.0,0.0,0.0,0.0
19:44:12.079000,-518.0,1209.0,-271.0,-182.0,-40.0,-944.0,0.0,0.0,0.0
19:44:12.085000,-519.0,1204.0,-269.0,-182.0,-40.0,-944.0,0.0,0.0,0.0
19:44:12.089000,-515.0,1193.0,-276.0,-122.0,-45.0,-1008.0,0.0,0.0,0.0
19:44:12.094000,-508.0,1175.0,-290.0,-122.0,-45.0,-1008.0,0.0,0.0,0.0
19:44:12.099000,-497.0,1148.0,-308.0,-48.0,-56.0,-1058.0,0.0,0.0,0.0
19:44:12.104000,-497.0,1148.0,-308.0,-48.0,-56.0,-1058.0,0.0,0.0,0.0
19:44:12.108000,-486.0,1120.0,-330.0,24.0,-54.0,-1089.0,0.0,0.0,0.0
19:44:12.113000,-478.0,1090.0,-354.0,24.0,-54.0,-1089.0,0.0,0.0,0.0
19:44:12.118000,-475.0,1059.0,-373.0,67.0,-28.0,-1101.0,0.0,0.0,0.0
19:44:12.122000,-478.0,1026.0,-378.0,67.0,-28.0,-1101.0,0.0,0.0,0.0
19:44:12.127000,-485.0,989.0,-369.0,78.0,3.0,-1101.0,0.0,0.0,0.0
19:44:12.132000,-498.0,956.0,-352.0,78.0,3.0,-1101.0,0.0,0.0,0.0
19:44:12.136000,-520.0,921.0,-328.0,51.0,38.0,-1101.0,0.0,0.0,0.0
19:44:12.141000,-546.0,891.0,-294.0,51.0,38.0,-1101.0,0.0,0.0,0.0
19:44:12.146000,-578.0,863.0,-252.0,-3.0,66.0,-1109.0,0.0,0.0,0.0
19:44:12.151000,-614.0,835.0,-206.0,-3.0,66.0,-1109.0,0.0,0.0,0.0
19:44:12.155000,-651.0,805.0,-156.0,-35.0,62.0,-1121.0,0.0,0.0,0.0
19:44:12.160000,-684.0,771.0,-104.0,-35.0,62.0,-1121.0,0.0,0.0,0.0
19:44:12.165000,-709.0,737.0,-58.0,-16.0,19.0,-1152.0,0.0,0.0,0.0
19:44:12.169000,-723.0,695.0,-23.0,-16.0,19.0,-1152.0,0.0,0.0,0.0
19:44:12.174000,-716.0,636.0,4.0,-16.0,19.0,-1152.0,0.0,0.0,0.0
19:44:12.179000,-692.0,572.0,21.0,39.0,-82.0,-1179.0,0.0,0.0,0.0
19:44:12.183000,-679.0,514.0,5.0,39.0,-82.0,-1179.0,0.0,0.0,0.0
19:44:12.188000,-688.0,465.0,-21.0,106.0,-177.0,-1153.0,0.0,0.0,0.0
19:44:12.193000,-702.0,418.0,-33.0,106.0,-177.0,-1153.0,0.0,0.0,0.0
19:44:12.197000,-711.0,368.0,-42.0,139.0,-127.0,-1088.0,0.0,0.0,0.0
19:44:12.202000,-715.0,322.0,-60.0,139.0,-127.0,-1088.0,0.0,0.0,0.0
19:44:12.207000,-717.0,283.0,-97.0,120.0,-126.0,-1024.0,0.0,0.0,0.0
19:44:12.212000,-723.0,251.0,-130.0,120.0,-126.0,-1024.0,0.0,0.0,0.0
19:44:12.216000,-723.0,251.0,-130.0,31.0,-218.0,-965.0,0.0,0.0,0.0
19:44:12.221000,-744.0,221.0,-137.0,31.0,-218.0,-965.0,0.0,0.0,0.0
19:44:12.226000,-784.0,193.0,-124.0,-67.0,-177.0,-887.0,0.0,0.0,0.0
19:44:12.230000,-828.0,165.0,-129.0,-67.0,-177.0,-887.0,0.0,0.0,0.0
19:44:12.235000,-865.0,137.0,-161.0,-71.0,-136.0,-826.0,0.0,0.0,0.0
19:44:12.240000,-894.0,114.0,-191.0,-71.0,-136.0,-826.0,0.0,0.0,0.0
19:44:12.244000,-917.0,95.0,-207.0,-64.0,-203.0,-797.0,0.0,0.0,0.0
19:44:12.249000,-940.0,77.0,-224.0,-64.0,-203.0,-797.0,0.0,0.0,0.0
19:44:12.254000,-967.0,62.0,-246.0,-117.0,-250.0,-773.0,0.0,0.0,0.0
19:44:12.259000,-997.0,53.0,-268.0,-117.0,-250.0,-773.0,0.0,0.0,0.0
19:44:12.263000,-1031.0,42.0,-287.0,-145.0,-242.0,-751.0,0.0,0.0,0.0
19:44:12.268000,-1067.0,32.0,-305.0,-145.0,-242.0,-751.0,0.0,0.0,0.0
19:44:12.273000,-1103.0,22.0,-331.0,-136.0,-237.0,-742.0,0.0,0.0,0.0
19:44:12.277000,-1143.0,16.0,-364.0,-136.0,-237.0,-742.0,0.0,0.0,0.0
19:44:12.282000,-1185.0,10.0,-403.0,-136.0,-237.0,-742.0,0.0,0.0,0.0
19:44:12.287000,-1226.0,6.0,-445.0,-137.0,-228.0,-740.0,0.0,0.0,0.0
19:44:12.291000,-1267.0,2.0,-481.0,-137.0,-228.0,-740.0,0.0,0.0,0.0
19:44:12.296000,-1303.0,-2.0,-514.0,-152.0,-233.0,-737.0,0.0,0.0,0.0
19:44:12.300000,-1338.0,-9.0,-546.0,-152.0,-233.0,-737.0,0.0,0.0,0.0
19:44:12.306000,-1375.0,-16.0,-574.0,-168.0,-256.0,-735.0,0.0,0.0,0.0
19:44:12.310000,-1413.0,-25.0,-602.0,-168.0,-256.0,-735.0,0.0,0.0,0.0
19:44:12.315000,-1453.0,-31.0,-630.0,-159.0,-257.0,-736.0,0.0,0.0,0.0
19:44:12.320000,-1494.0,-37.0,-660.0,-159.0,-257.0,-736.0,0.0,0.0,0.0
19:44:12.324000,-1494.0,-37.0,-660.0,-144.0,-242.0,-739.0,0.0,0.0,0.0
19:44:12.329000,-1540.0,-39.0,-682.0,-144.0,-242.0,-739.0,0.0,0.0,0.0
19:44:12.334000,-1588.0,-43.0,-697.0,-149.0,-234.0,-744.0,0.0,0.0,0.0
19:44:12.338000,-1640.0,-45.0,-710.0,-149.0,-234.0,-744.0,0.0,0.0,0.0
19:44:12.343000,-1695.0,-44.0,-719.0,-159.0,-227.0,-749.0,0.0,0.0,0.0
19:44:12.348000,-1750.0,-39.0,-725.0,-159.0,-227.0,-749.0,0.0,0.0,0.0
19:44:12.353000,-1805.0,-33.0,-735.0,-171.0,-223.0,-757.0,0.0,0.0,0.0
19:44:12.357000,-1855.0,-29.0,-742.0,-171.0,-223.0,-757.0,0.0,0.0,0.0
19:44:12.362000,-1898.0,-28.0,-743.0,-195.0,-250.0,-772.0,0.0,0.0,0.0
19:44:12.367000,-1935.0,-29.0,-746.0,-195.0,-250.0,-772.0,0.0,0.0,0.0
19:44:12.371000,-1965.0,-29.0,-761.0,-201.0,-301.0,-794.0,0.0,0.0,0.0
19:44:12.376000,-1988.0,-30.0,-783.0,-201.0,-301.0,-794.0,0.0,0.0,0.0
19:44:12.381000,-2002.0,-30.0,-798.0,-189.0,-353.0,-814.0,0.0,0.0,0.0
19:44:12.385000,-2012.0,-35.0,-809.0,-189.0,-353.0,-814.0,0.0,0.0,0.0
19:44:12.390000,-2016.0,-45.0,-822.0,-189.0,-353.0,-814.0,0.0,0.0,0.0
19:44:12.395000,-2011.0,-60.0,-842.0,-178.0,-410.0,-831.0,0.0,0.0,0.0
19:44:12.400000,-2009.0,-93.0,-864.0,-178.0,-410.0,-831.0,0.0,0.0,0.0
19:44:12.404000,-2000.0,-123.0,-868.0,-174.0,-487.0,-839.0,0.0,0.0,0.0
19:44:12.409000,-1986.0,-147.0,-875.0,-174.0,-487.0,-839.0,0.0,0.0,0.0
19:44:12.414000,-1978.0,-169.0,-892.0,-181.0,-579.0,-835.0,0.0,0.0,0.0
19:44:12.418000,-1969.0,-187.0,-891.0,-181.0,-579.0,-835.0,0.0,0.0,0.0
19:44:12.423000,-1975.0,-202.0,-900.0,-200.0,-613.0,-820.0,0.0,0.0,0.0
19:44:12.428000,-1985.0,-221.0,-932.0,-200.0,-613.0,-820.0,0.0,0.0,0.0
19:44:12.432000,-1985.0,-221.0,-932.0,-277.0,-589.0,-790.0,0.0,0.0,0.0
19:44:12.437000,-1988.0,-235.0,-947.0,-277.0,-589.0,-790.0,0.0,0.0,0.0
19:44:12.442000,-1997.0,-248.0,-952.0,-376.0,-621.0,-749.0,0.0,0.0,0.0
19:44:12.447000,-2003.0,-263.0,-949.0,-376.0,-621.0,-749.0,0.0,0.0,0.0
19:44:12.451000,-2019.0,-283.0,-905.0,-348.0,-762.0,-699.0,0.0,0.0,0.0
19:44:12.456000,-2036.0,-290.0,-854.0,-348.0,-762.0,-699.0,0.0,0.0,0.0
19:44:12.461000,-2005.0,-279.0,-777.0,-358.0,-860.0,-688.0,0.0,0.0,0.0
19:44:12.465000,-1967.0,-289.0,-755.0,-358.0,-860.0,-688.0,0.0,0.0,0.0
19:44:12.470000,-1939.0,-296.0,-942.0,-483.0,-729.0,-680.0,0.0,0.0,0.0
19:44:12.475000,-1910.0,-298.0,-1176.0,-483.0,-729.0,-680.0,0.0,0.0,0.0
19:44:12.479000,-1901.0,-306.0,-1206.0,-443.0,-655.0,-634.0,0.0,0.0,0.0
19:44:12.484000,-1908.0,-311.0,-1090.0,-443.0,-655.0,-634.0,0.0,0.0,0.0
19:44:12.489000,-1899.0,-322.0,-989.0,-409.0,-771.0,-605.0,0.0,0.0,0.0
19:44:12.494000,-1883.0,-319.0,-993.0,-409.0,-771.0,-605.0,0.0,0.0,0.0
19:44:12.498000,-1857.0,-319.0,-1029.0,-409.0,-771.0,-605.0,0.0,0.0,0.0
19:44:12.503000,-1837.0,-326.0,-1067.0,-540.0,-859.0,-596.0,0.0,0.0,0.0
19:44:12.507000,-1813.0,-338.0,-1104.0,-540.0,-859.0,-596.0,0.0,0.0,0.0
19:44:12.512000,-1789.0,-358.0,-1089.0,-621.0,-918.0,-574.0,0.0,0.0,0.0
19:44:12.517000,-1746.0,-386.0,-1042.0,-621.0,-918.0,-574.0,0.0,0.0,0.0
19:44:12.522000,-1751.0,-373.0,-994.0,-633.0,-926.0,-536.0,0.0,0.0,0.0
19:44:12.526000,-1751.0,-340.0,-930.0,-633.0,-926.0,-536.0,0.0,0.0,0.0
19:44:12.531000,-1705.0,-352.0,-939.0,-579.0,-900.0,-510.0,0.0,0.0,0.0
19:44:12.535000,-1705.0,-352.0,-939.0,-579.0,-900.0,-510.0,0.0,0.0,0.0
19:44:12.541000,-1696.0,-369.0,-962.0,-434.0,-895.0,-479.0,0.0,0.0,0.0
19:44:12.545000,-1660.0,-370.0,-938.0,-434.0,-895.0,-479.0,0.0,0.0,0.0
19:44:12.550000,-1640.0,-383.0,-890.0,-394.0,-898.0,-437.0,0.0,0.0,0.0
19:44:12.555000,-1646.0,-390.0,-837.0,-394.0,-898.0,-437.0,0.0,0.0,0.0
19:44:12.559000,-1554.0,-394.0,-791.0,-505.0,-873.0,-425.0,0.0,0.0,0.0
19:44:12.564000,-1516.0,-390.0,-771.0,-505.0,-873.0,-425.0,0.0,0.0,0.0
19:44:12.569000,-1481.0,-391.0,-791.0,-604.0,-824.0,-408.0,0.0,0.0,0.0
19:44:12.573000,-1437.0,-380.0,-800.0,-604.0,-824.0,-408.0,0.0,0.0,0.0
19:44:12.578000,-1430.0,-378.0,-797.0,-652.0,-820.0,-366.0,0.0,0.0,0.0
19:44:12.583000,-1379.0,-376.0,-791.0,-652.0,-820.0,-366.0,0.0,0.0,0.0
19:44:12.588000,-1359.0,-373.0,-805.0,-651.0,-873.0,-331.0,0.0,0.0,0.0
19:44:12.592000,-1340.0,-367.0,-782.0,-651.0,-873.0,-331.0,0.0,0.0,0.0
19:44:12.597000,-1303.0,-359.0,-720.0,-630.0,-909.0,-313.0,0.0,0.0,0.0
19:44:12.602000,-1264.0,-354.0,-707.0,-630.0,-909.0,-313.0,0.0,0.0,0.0
19:44:12.606000,-1244.0,-352.0,-730.0,-630.0,-909.0,-313.0,0.0,0.0,0.0
19:44:12.611000,-1230.0,-346.0,-737.0,-626.0,-841.0,-301.0,0.0,0.0,0.0
19:44:12.616000,-1229.0,-334.0,-676.0,-626.0,-841.0,-301.0,0.0,0.0,0.0
19:44:12.620000,-1187.0,-325.0,-556.0,-639.0,-782.0,-286.0,0.0,0.0,0.0
19:44:12.625000,-1176.0,-299.0,-549.0,-639.0,-782.0,-286.0,0.0,0.0,0.0
19:44:12.630000,-1156.0,-283.0,-627.0,-719.0,-776.0,-289.0,0.0,0.0,0.0
19:44:12.635000,-1115.0,-271.0,-693.0,-719.0,-776.0,-289.0,0.0,0.0,0.0
19:44:12.639000,-1094.0,-263.0,-726.0,-782.0,-724.0,-300.0,0.0,0.0,0.0
19:44:12.644000,-1068.0,-256.0,-756.0,-782.0,-724.0,-300.0,0.0,0.0,0.0
19:44:12.649000,-1043.0,-249.0,-749.0,-786.0,-659.0,-299.0,0.0,0.0,0.0
19:44:12.653000,-1043.0,-249.0,-749.0,-786.0,-659.0,-299.0,0.0,0.0,0.0
19:44:12.658000,-1036.0,-240.0,-629.0,-843.0,-683.0,-298.0,0.0,0.0,0.0
19:44:12.663000,-1005.0,-237.0,-504.0,-843.0,-683.0,-298.0,0.0,0.0,0.0
19:44:12.667000,-968.0,-237.0,-490.0,-942.0,-724.0,-303.0,0.0,0.0,0.0
19:44:12.672000,-919.0,-235.0,-575.0,-942.0,-724.0,-303.0,0.0,0.0,0.0
19:44:12.677000,-890.0,-230.0,-676.0,-923.0,-672.0,-303.0,0.0,0.0,0.0
19:44:12.682000,-847.0,-225.0,-695.0,-923.0,-672.0,-303.0,0.0,0.0,0.0
19:44:12.686000,-804.0,-226.0,-615.0,-774.0,-639.0,-305.0,0.0,0.0,0.0
19:44:12.691000,-766.0,-232.0,-545.0,-774.0,-639.0,-305.0,0.0,0.0,0.0
19:44:12.696000,-736.0,-234.0,-544.0,-802.0,-562.0,-305.0,0.0,0.0,0.0
19:44:12.700000,-723.0,-238.0,-543.0,-802.0,-562.0,-305.0,0.0,0.0,0.0
19:44:12.705000,-700.0,-237.0,-513.0,-883.0,-505.0,-303.0,0.0,0.0,0.0
19:44:12.710000,-662.0,-235.0,-497.0,-883.0,-505.0,-303.0,0.0,0.0,0.0
19:44:12.714000,-621.0,-236.0,-512.0,-883.0,-505.0,-303.0,0.0,0.0,0.0
19:44:12.719000,-585.0,-239.0,-501.0,-861.0,-523.0,-317.0,0.0,0.0,0.0
19:44:12.724000,-551.0,-246.0,-463.0,-861.0,-523.0,-317.0,0.0,0.0,0.0
19:44:12.729000,-520.0,-254.0,-460.0,-930.0,-453.0,-318.0,0.0,0.0,0.0
19:44:12.733000,-518.0,-252.0,-465.0,-930.0,-453.0,-318.0,0.0,0.0,0.0
19:44:12.738000,-523.0,-253.0,-390.0,-979.0,-332.0,-276.0,0.0,0.0,0.0
19:44:12.743000,-539.0,-261.0,-261.0,-979.0,-332.0,-276.0,0.0,0.0,0.0
19:44:12.747000,-553.0,-270.0,-184.0,-953.0,-275.0,-271.0,0.0,0.0,0.0
19:44:12.752000,-529.0,-276.0,-192.0,-953.0,-275.0,-271.0,0.0,0.0,0.0
19:44:12.757000,-500.0,-280.0,-221.0,-999.0,-290.0,-293.0,0.0,0.0,0.0
19:44:12.761000,-500.0,-280.0,-221.0,-999.0,-290.0,-293.0,0.0,0.0,0.0
19:44:12.766000,-466.0,-283.0,-189.0,-1021.0,-325.0,-303.0,0.0,0.0,0.0
19:44:12.770000,-439.0,-284.0,-143.0,-1021.0,-325.0,-303.0,0.0,0.0,0.0
19:44:12.776000,-415.0,-288.0,-130.0,-1006.0,-304.0,-308.0,0.0,0.0,0.0
19:44:12.780000,-400.0,-285.0,-123.0,-1006.0,-304.0,-308.0,0.0,0.0,0.0
19:44:12.785000,-381.0,-282.0,-134.0,-1037.0,-260.0,-295.0,0.0,0.0,0.0
19:44:12.790000,-368.0,-277.0,-162.0,-1037.0,-260.0,-295.0,0.0,0.0,0.0
19:44:12.794000,-357.0,-269.0,-187.0,-1043.0,-266.0,-288.0,0.0,0.0,0.0
19:44:12.799000,-348.0,-257.0,-192.0,-1043.0,-266.0,-288.0,0.0,0.0,0.0
19:44:12.804000,-337.0,-248.0,-179.0,-1019.0,-257.0,-285.0,0.0,0.0,0.0
19:44:12.808000,-317.0,-240.0,-190.0,-1019.0,-257.0,-285.0,0.0,0.0,0.0
19:44:12.813000,-312.0,-231.0,-225.0,-1028.0,-204.0,-287.0,0.0,0.0,0.0
19:44:12.818000,-303.0,-233.0,-244.0,-1028.0,-204.0,-287.0,0.0,0.0,0.0
19:44:12.823000,-287.0,-231.0,-234.0,-1028.0,-204.0,-287.0,0.0,0.0,0.0
19:44:12.827000,-261.0,-229.0,-217.0,-1042.0,-187.0,-292.0,0.0,0.0,0.0
19:44:12.832000,-238.0,-224.0,-196.0,-1042.0,-187.0,-292.0,0.0,0.0,0.0
19:44:12.837000,-219.0,-219.0,-154.0,-1026.0,-192.0,-299.0,0.0,0.0,0.0
19:44:12.841000,-207.0,-207.0,-102.0,-1026.0,-192.0,-299.0,0.0,0.0,0.0
19:44:12.846000,-172.0,-193.0,-66.0,-1046.0,-157.0,-299.0,0.0,0.0,0.0
19:44:12.851000,-174.0,-173.0,-6.0,-1046.0,-157.0,-299.0,0.0,0.0,0.0
19:44:12.855000,-165.0,-151.0,70.0,-1107.0,-129.0,-289.0,0.0,0.0,0.0
19:44:12.860000,-154.0,-124.0,119.0,-1107.0,-129.0,-289.0,0.0,0.0,0.0
19:44:12.865000,-141.0,-96.0,147.0,-1161.0,-124.0,-283.0,0.0,0.0,0.0
19:44:12.870000,-141.0,-96.0,147.0,-1161.0,-124.0,-283.0,0.0,0.0,0.0
19:44:12.874000,-132.0,-67.0,194.0,-1190.0,-143.0,-280.0,0.0,0.0,0.0
19:44:12.879000,-115.0,-45.0,221.0,-1190.0,-143.0,-280.0,0.0,0.0,0.0
19:44:12.884000,-102.0,-22.0,211.0,-1183.0,-145.0,-271.0,0.0,0.0,0.0
19:44:12.888000,-92.0,0.0,233.0,-1183.0,-145.0,-271.0,0.0,0.0,0.0
19:44:12.893000,-79.0,17.0,302.0,-1152.0,-164.0,-276.0,0.0,0.0,0.0
19:44:12.898000,-51.0,30.0,343.0,-1152.0,-164.0,-276.0,0.0,0.0,0.0
19:44:12.902000,-28.0,49.0,329.0,-1182.0,-165.0,-291.0,0.0,0.0,0.0
19:44:12.907000,-17.0,62.0,287.0,-1182.0,-165.0,-291.0,0.0,0.0,0.0
19:44:12.912000,8.0,69.0,238.0,-1292.0,-155.0,-306.0,0.0,0.0,0.0
19:44:12.917000,51.0,74.0,198.0,-1292.0,-155.0,-306.0,0.0,0.0,0.0
19:44:12.921000,105.0,67.0,221.0,-1361.0,-228.0,-320.0,0.0,0.0,0.0
19:44:12.926000,186.0,58.0,325.0,-1361.0,-228.0,-320.0,0.0,0.0,0.0
19:44:12.931000,254.0,64.0,452.0,-1361.0,-273.0,-320.0,0.0,0.0,0.0
19:44:12.935000,280.0,52.0,534.0,-1364.0,-273.0,-324.0,0.0,0.0,0.0
19:44:12.940000,266.0,38.0,534.0,-1364.0,-273.0,-324.0,0.0,0.0,0.0
19:44:12.945000,251.0,28.0,501.0,-1392.0,-176.0,-301.0,0.0,0.0,0.0
19:44:12.949000,204.0,9.0,362.0,-1392.0,-176.0,-301.0,0.0,0.0,0.0
19:44:12.954000,181.0,-13.0,196.0,-1369.0,-2.0,-264.0,0.0,0.0,0.0
19:44:12.959000,142.0,4.0,153.0,-1369.0,-2.0,-264.0,0.0,0.0,0.0
19:44:12.963000,97.0,2.0,149.0,-1312.0,53.0,-241.0,0.0,0.0,0.0
19:44:12.968000,58.0,-3.0,2.0,-1312.0,53.0,-241.0,0.0,0.0,0.0
19:44:12.973000,34.0,-4.0,-160.0,-1434.0,63.0,-240.0,0.0,0.0,0.0
19:44:12.978000,34.0,-4.0,-160.0,-1434.0,63.0,-240.0,0.0,0.0,0.0
19:44:12.982000,-39.0,6.0,-115.0,-1494.0,11.0,-249.0,0.0,0.0,0.0
19:44:12.987000,-68.0,-2.0,7.0,-1494.0,11.0,-249.0,0.0,0.0,0.0
19:44:12.992000,-124.0,-9.0,-84.0,-1444.0,-39.0,-259.0,0.0,0.0,0.0
19:44:12.996000,-84.0,0.0,-324.0,-1444.0,-39.0,-259.0,0.0,0.0,0.0
19:44:13.001000,2.0,-9.0,-518.0,-1441.0,-151.0,-289.0,0.0,0.0,0.0
19:44:13.005000,50.0,-24.0,-445.0,-1441.0,-151.0,-289.0,0.0,0.0,0.0
19:44:13.011000,56.0,9.0,-389.0,-1442.0,-259.0,-306.0,0.0,0.0,0.0
19:44:13.015000,53.0,-5.0,-373.0,-1442.0,-259.0,-306.0,0.0,0.0,0.0
19:44:13.020000,81.0,3.0,-318.0,-1402.0,-254.0,-304.0,0.0,0.0,0.0
19:44:13.025000,48.0,-25.0,-574.0,-1402.0,-254.0,-304.0,0.0,0.0,0.0
19:44:13.029000,-35.0,-35.0,-663.0,-1218.0,-268.0,-292.0,0.0,0.0,0.0
19:44:13.034000,-14.0,-49.0,-414.0,-1218.0,-268.0,-292.0,0.0,0.0,0.0
19:44:13.039000,-32.0,-66.0,-299.0,-1151.0,-362.0,-283.0,0.0,0.0,0.0
19:44:13.043000,-50.0,-82.0,-219.0,-1151.0,-362.0,-283.0,0.0,0.0,0.0
19:44:13.048000,-123.0,-109.0,-371.0,-1151.0,-362.0,-283.0,0.0,0.0,0.0
19:44:13.053000,-79.0,-147.0,-403.0,-1022.0,-525.0,-236.0,0.0,0.0,0.0
19:44:13.058000,-90.0,-165.0,-133.0,-1022.0,-525.0,-236.0,0.0,0.0,0.0
19:44:13.062000,-7.0,-204.0,52.0,-613.0,-818.0,-139.0,0.0,0.0,0.0
19:44:13.067000,33.0,-228.0,342.0,-613.0,-818.0,-139.0,0.0,0.0,0.0
19:44:13.072000,-67.0,-217.0,651.0,-421.0,-1226.0,-69.0,0.0,0.0,0.0
19:44:13.076000,-175.0,-186.0,651.0,-421.0,-1226.0,-69.0,0.0,0.0,0.0
19:44:13.081000,-150.0,-186.0,485.0,-476.0,-1206.0,-1.0,0.0,0.0,0.0
19:44:13.086000,-122.0,-198.0,352.0,-476.0,-1206.0,-1.0,0.0,0.0,0.0
19:44:13.090000,-122.0,-198.0,352.0,-369.0,-1149.0,59.0,0.0,0.0,0.0
19:44:13.095000,-151.0,-158.0,289.0,-369.0,-1149.0,59.0,0.0,0.0,0.0
19:44:13.100000,-178.0,-174.0,277.0,-343.0,-1147.0,87.0,0.0,0.0,0.0
19:44:13.105000,-151.0,-189.0,16.0,-343.0,-1147.0,87.0,0.0,0.0,0.0
19:44:13.109000,-162.0,-174.0,-270.0,-534.0,-834.0,100.0,0.0,0.0,0.0
19:44:13.114000,-171.0,-128.0,-378.0,-534.0,-834.0,100.0,0.0,0.0,0.0
19:44:13.119000,-123.0,-132.0,-597.0,-643.0,-719.0,101.0,0.0,0.0,0.0
19:44:13.123000,-44.0,-117.0,-802.0,-643.0,-719.0,101.0,0.0,0.0,0.0
19:44:13.128000,-60.0,-134.0,-811.0,-631.0,-846.0,111.0,0.0,0.0,0.0
19:44:13.133000,-140.0,-120.0,-826.0,-631.0,-846.0,111.0,0.0,0.0,0.0
19:44:13.137000,-160.0,-111.0,-855.0,-605.0,-771.0,126.0,0.0,0.0,0.0
19:44:13.142000,-91.0,-165.0,-784.0,-605.0,-771.0,126.0,0.0,0.0,0.0
19:44:13.147000,-61.0,-166.0,-623.0,-664.0,-839.0,115.0,0.0,0.0,0.0
19:44:13.152000,-54.0,-184.0,-389.0,-664.0,-839.0,115.0,0.0,0.0,0.0
19:44:13.156000,-45.0,-129.0,-222.0,-664.0,-839.0,115.0,0.0,0.0,0.0
19:44:13.161000,-15.0,-172.0,-427.0,-768.0,-861.0,98.0,0.0,0.0,0.0
19:44:13.166000,-11.0,-177.0,-485.0,-768.0,-861.0,98.0,0.0,0.0,0.0
19:44:13.170000,9.0,-166.0,-353.0,-671.0,-687.0,108.0,0.0,0.0,0.0
19:44:13.175000,49.0,-186.0,-266.0,-671.0,-687.0,108.0,0.0,0.0,0.0
19:44:13.180000,89.0,-182.0,-205.0,-631.0,-811.0,112.0,0.0,0.0,0.0
19:44:13.184000,106.0,-186.0,-17.0,-631.0,-811.0,112.0,0.0,0.0,0.0
19:44:13.189000,69.0,-166.0,-17.0,-710.0,-867.0,107.0,0.0,0.0,0.0
19:44:13.194000,76.0,-164.0,-110.0,-710.0,-867.0,107.0,0.0,0.0,0.0
19:44:13.199000,76.0,-164.0,-110.0,-683.0,-875.0,98.0,0.0,0.0,0.0
19:44:13.203000,152.0,-160.0,-71.0,-683.0,-875.0,98.0,0.0,0.0,0.0
19:44:13.208000,199.0,-170.0,18.0,-732.0,-892.0,89.0,0.0,0.0,0.0
19:44:13.213000,133.0,-107.0,147.0,-732.0,-892.0,89.0,0.0,0.0,0.0
19:44:13.217000,154.0,-109.0,102.0,-817.0,-751.0,82.0,0.0,0.0,0.0
19:44:13.222000,146.0,-95.0,-45.0,-817.0,-751.0,82.0,0.0,0.0,0.0
19:44:13.227000,214.0,-105.0,-126.0,-798.0,-739.0,54.0,0.0,0.0,0.0
19:44:13.231000,203.0,-85.0,-216.0,-798.0,-739.0,54.0,0.0,0.0,0.0
19:44:13.236000,130.0,-75.0,-257.0,-694.0,-798.0,36.0,0.0,0.0,0.0
19:44:13.240000,100.0,-30.0,-248.0,-694.0,-798.0,36.0,0.0,0.0,0.0
19:44:13.246000,75.0,-40.0,-370.0,-717.0,-738.0,31.0,0.0,0.0,0.0
19:44:13.250000,54.0,-42.0,-351.0,-717.0,-738.0,31.0,0.0,0.0,0.0
19:44:13.255000,72.0,-36.0,-254.0,-797.0,-805.0,-5.0,0.0,0.0,0.0
19:44:13.260000,53.0,-18.0,-44.0,-797.0,-805.0,-5.0,0.0,0.0,0.0
19:44:13.264000,9.0,2.0,-14.0,-797.0,-805.0,-5.0,0.0,0.0,0.0
19:44:13.269000,39.0,10.0,-357.0,-873.0,-822.0,-32.0,0.0,0.0,0.0
19:44:13.274000,4.0,19.0,-515.0,-873.0,-822.0,-32.0,0.0,0.0,0.0
19:44:13.278000,0.0,48.0,-380.0,-884.0,-722.0,-21.0,0.0,0.0,0.0
19:44:13.283000,8.0,61.0,-272.0,-884.0,-722.0,-21.0,0.0,0.0,0.0
19:44:13.288000,69.0,60.0,-324.0,-760.0,-812.0,-23.0,0.0,0.0,0.0
19:44:13.293000,14.0,56.0,-425.0,-760.0,-812.0,-23.0,0.0,0.0,0.0
19:44:13.297000,-18.0,72.0,-574.0,-748.0,-838.0,-16.0,0.0,0.0,0.0
19:44:13.302000,-44.0,70.0,-618.0,-748.0,-838.0,-16.0,0.0,0.0,0.0
19:44:13.307000,-44.0,70.0,-618.0,-815.0,-764.0,0.0,0.0,0.0,0.0
19:44:13.311000,-72.0,95.0,-574.0,-815.0,-764.0,0.0,0.0,0.0,0.0
19:44:13.316000,-41.0,67.0,-532.0,-848.0,-779.0,-6.0,0.0,0.0,0.0
19:44:13.321000,-16.0,72.0,-477.0,-848.0,-779.0,-6.0,0.0,0.0,0.0
19:44:13.325000,-18.0,67.0,-342.0,-882.0,-718.0,-9.0,0.0,0.0,0.0
19:44:13.330000,-60.0,70.0,-397.0,-882.0,-718.0,-9.0,0.0,0.0,0.0
19:44:13.335000,-123.0,84.0,-625.0,-899.0,-616.0,-7.0,0.0,0.0,0.0
19:44:13.340000,-171.0,74.0,-674.0,-899.0,-616.0,-7.0,0.0,0.0,0.0
19:44:13.344000,-172.0,100.0,-591.0,-830.0,-788.0,-21.0,0.0,0.0,0.0
19:44:13.349000,-163.0,93.0,-424.0,-830.0,-788.0,-21.0,0.0,0.0,0.0
19:44:13.354000,-140.0,76.0,-438.0,-838.0,-774.0,-24.0,0.0,0.0,0.0
19:44:13.358000,-84.0,51.0,-546.0,-838.0,-774.0,-24.0,0.0,0.0,0.0
19:44:13.363000,-112.0,44.0,-459.0,-862.0,-616.0,3.0,0.0,0.0,0.0
19:44:13.368000,-177.0,80.0,-327.0,-862.0,-616.0,3.0,0.0,0.0,0.0
19:44:13.372000,-171.0,102.0,-344.0,-862.0,-616.0,3.0,0.0,0.0,0.0
19:44:13.377000,-50.0,98.0,-530.0,-871.0,-693.0,5.0,0.0,0.0,0.0
19:44:13.382000,-87.0,87.0,-640.0,-844.0,-741.0,8.0,0.0,0.0,0.0
19:44:13.387000,-98.0,102.0,-485.0,-844.0,-741.0,8.0,0.0,0.0,0.0
19:44:13.391000,-123.0,112.0,-480.0,-844.0,-741.0,8.0,0.0,0.0,0.0
19:44:13.396000,-216.0,96.0,-498.0,-772.0,-704.0,37.0,0.0,0.0,0.0
19:44:13.401000,-229.0,100.0,-478.0,-772.0,-704.0,37.0,0.0,0.0,0.0
19:44:13.405000,-215.0,111.0,-410.0,-753.0,-578.0,32.0,0.0,0.0,0.0
19:44:13.410000,-172.0,98.0,-448.0,-753.0,-578.0,32.0,0.0,0.0,0.0
19:44:13.415000,-175.0,98.0,-627.0,-748.0,-539.0,0.0,0.0,0.0,0.0
19:44:13.419000,-175.0,109.0,-579.0,-748.0,-539.0,0.0,0.0,0.0,0.0
19:44:13.424000,-155.0,135.0,-641.0,-803.0,-614.0,-18.0,0.0,0.0,0.0
19:44:13.429000,-170.0,131.0,-625.0,-803.0,-614.0,-18.0,0.0,0.0,0.0
19:44:13.434000,-199.0,112.0,-541.0,-732.0,-661.0,23.0,0.0,0.0,0.0
19:44:13.438000,-192.0,96.0,-459.0,-732.0,-661.0,23.0,0.0,0.0,0.0
19:44:13.443000,-168.0,91.0,-481.0,-751.0,-594.0,32.0,0.0,0.0,0.0
19:44:13.448000,-135.0,91.0,-516.0,-751.0,-594.0,32.0,0.0,0.0,0.0
19:44:13.452000,-114.0,93.0,-471.0,-912.0,-610.0,-5.0,0.0,0.0,0.0
19:44:13.457000,-134.0,102.0,-391.0,-912.0,-610.0,-5.0,0.0,0.0,0.0
19:44:13.462000,-142.0,108.0,-366.0,-965.0,-634.0,-4.0,0.0,0.0,0.0
19:44:13.466000,-142.0,119.0,-462.0,-965.0,-634.0,-4.0,0.0,0.0,0.0
19:44:13.471000,-148.0,140.0,-536.0,-873.0,-507.0,-2.0,0.0,0.0,0.0
19:44:13.475000,-170.0,143.0,-457.0,-873.0,-507.0,-2.0,0.0,0.0,0.0
19:44:13.481000,-158.0,148.0,-404.0,-873.0,-507.0,-2.0,0.0,0.0,0.0
19:44:13.485000,-156.0,147.0,-281.0,-775.0,-506.0,-4.0,0.0,0.0,0.0
19:44:13.490000,-130.0,156.0,-285.0,-775.0,-506.0,-4.0,0.0,0.0,0.0
19:44:13.495000,-93.0,156.0,-467.0,-840.0,-536.0,-17.0,0.0,0.0,0.0
19:44:13.499000,-76.0,147.0,-473.0,-840.0,-536.0,-17.0,0.0,0.0,0.0
19:44:13.504000,-69.0,153.0,-256.0,-812.0,-542.0,-22.0,0.0,0.0,0.0
19:44:13.509000,-58.0,151.0,-158.0,-812.0,-542.0,-22.0,0.0,0.0,0.0
19:44:13.513000,-51.0,151.0,-307.0,-759.0,-564.0,-25.0,0.0,0.0,0.0
19:44:13.518000,-59.0,139.0,-407.0,-759.0,-564.0,-25.0,0.0,0.0,0.0
19:44:13.523000,-116.0,140.0,-334.0,-789.0,-535.0,-20.0,0.0,0.0,0.0
19:44:13.528000,-116.0,140.0,-334.0,-789.0,-535.0,-20.0,0.0,0.0,0.0
19:44:13.532000,-103.0,141.0,-188.0,-814.0,-533.0,-25.0,0.0,0.0,0.0
19:44:13.537000,-67.0,127.0,-274.0,-814.0,-533.0,-25.0,0.0,0.0,0.0
19:44:13.542000,-51.0,104.0,-345.0,-872.0,-514.0,-34.0,0.0,0.0,0.0
19:44:13.546000,-53.0,118.0,-201.0,-872.0,-514.0,-34.0,0.0,0.0,0.0
19:44:13.551000,-55.0,135.0,-41.0,-836.0,-466.0,-5.0,0.0,0.0,0.0
19:44:13.556000,-2.0,123.0,-105.0,-836.0,-466.0,-5.0,0.0,0.0,0.0
19:44:13.560000,-9.0,137.0,-389.0,-787.0,-515.0,-3.0,0.0,0.0,0.0
19:44:13.565000,3.0,158.0,-359.0,-787.0,-515.0,-3.0,0.0,0.0,0.0
19:44:13.570000,-1.0,145.0,-231.0,-806.0,-456.0,8.0,0.0,0.0,0.0
19:44:13.575000,-59.0,145.0,-231.0,-806.0,-456.0,8.0,0.0,0.0,0.0
19:44:13.579000,-24.0,135.0,-189.0,-763.0,-417.0,5.0,0.0,0.0,0.0
19:44:13.584000,19.0,119.0,-200.0,-763.0,-417.0,5.0,0.0,0.0,0.0
19:44:13.589000,42.0,135.0,-449.0,-763.0,-417.0,5.0,0.0,0.0,0.0
19:44:13.593000,37.0,128.0,-601.0,-766.0,-512.0,-88.0,0.0,0.0,0.0
19:44:13.598000,-14.0,121.0,-429.0,-766.0,-512.0,-88.0,0.0,0.0,0.0
19:44:13.603000,-36.0,106.0,-181.0,-852.0,-436.0,-119.0,0.0,0.0,0.0
19:44:13.607000,1.0,78.0,-101.0,-852.0,-436.0,-119.0,0.0,0.0,0.0
19:44:13.612000,0.0,46.0,-144.0,-950.0,-423.0,-71.0,0.0,0.0,0.0
19:44:13.617000,25.0,-3.0,-86.0,-950.0,-423.0,-71.0,0.0,0.0,0.0
19:44:13.622000,65.0,-25.0,-126.0,-896.0,-537.0,-45.0,0.0,0.0,0.0
19:44:13.626000,79.0,-7.0,-298.0,-896.0,-537.0,-45.0,0.0,0.0,0.0
19:44:13.631000,105.0,-4.0,-461.0,-671.0,-481.0,-64.0,0.0,0.0,0.0
19:44:13.636000,105.0,-4.0,-461.0,-671.0,-481.0,-64.0,0.0,0.0,0.0
19:44:13.640000,74.0,3.0,-369.0,-711.0,-336.0,-86.0,0.0,0.0,0.0
19:44:13.645000,46.0,-2.0,-231.0,-711.0,-336.0,-86.0,0.0,0.0,0.0
19:44:13.650000,1.0,-5.0,-172.0,-931.0,-378.0,-78.0,0.0,0.0,0.0
19:44:13.654000,3.0,-11.0,-219.0,-931.0,-378.0,-78.0,0.0,0.0,0.0
19:44:13.659000,18.0,-25.0,-270.0,-969.0,-473.0,-66.0,0.0,0.0,0.0
19:44:13.664000,21.0,-44.0,-289.0,-969.0,-473.0,-66.0,0.0,0.0,0.0
19:44:13.669000,34.0,-73.0,-289.0,-800.0,-479.0,-69.0,0.0,0.0,0.0
19:44:13.673000,15.0,-77.0,-324.0,-800.0,-479.0,-69.0,0.0,0.0,0.0
19:44:13.678000,3.0,-78.0,-326.0,-736.0,-427.0,-68.0,0.0,0.0,0.0
19:44:13.683000,-15.0,-83.0,-255.0,-736.0,-427.0,-68.0,0.0,0.0,0.0
19:44:13.687000,-24.0,-86.0,-248.0,-862.0,-342.0,-61.0,0.0,0.0,0.0
19:44:13.692000,-48.0,-93.0,-298.0,-862.0,-342.0,-61.0,0.0,0.0,0.0
19:44:13.697000,-46.0,-112.0,-299.0,-862.0,-342.0,-61.0,0.0,0.0,0.0
19:44:13.701000,-51.0,-113.0,-285.0,-879.0,-365.0,-66.0,0.0,0.0,0.0
19:44:13.706000,-44.0,-93.0,-296.0,-879.0,-365.0,-66.0,0.0,0.0,0.0
19:44:13.710000,-24.0,-84.0,-320.0,-848.0,-404.0,-55.0,0.0,0.0,0.0
19:44:13.716000,4.0,-88.0,-380.0,-848.0,-404.0,-55.0,0.0,0.0,0.0
19:44:13.720000,21.0,-88.0,-473.0,-831.0,-398.0,-56.0,0.0,0.0,0.0
19:44:13.725000,35.0,-83.0,-590.0,-831.0,-398.0,-56.0,0.0,0.0,0.0
19:44:13.730000,18.0,-62.0,-541.0,-789.0,-443.0,-102.0,0.0,0.0,0.0
19:44:13.734000,-1.0,-59.0,-405.0,-789.0,-443.0,-102.0,0.0,0.0,0.0
19:44:13.739000,-38.0,-76.0,-296.0,-927.0,-427.0,-116.0,0.0,0.0,0.0
19:44:13.744000,-38.0,-76.0,-296.0,-927.0,-427.0,-116.0,0.0,0.0,0.0
19:44:13.748000,-58.0,-84.0,-301.0,-1087.0,-408.0,-82.0,0.0,0.0,0.0
19:44:13.753000,-44.0,-93.0,-309.0,-1087.0,-408.0,-82.0,0.0,0.0,0.0
19:44:13.758000,-17.0,-93.0,-259.0,-1033.0,-484.0,-54.0,0.0,0.0,0.0
19:44:13.763000,25.0,-100.0,-257.0,-1033.0,-484.0,-54.0,0.0,0.0,0.0
19:44:13.767000,48.0,-95.0,-300.0,-883.0,-465.0,-36.0,0.0,0.0,0.0
19:44:13.772000,70.0,-75.0,-364.0,-883.0,-465.0,-36.0,0.0,0.0,0.0
19:44:13.777000,60.0,-56.0,-385.0,-848.0,-332.0,-27.0,0.0,0.0,0.0
19:44:13.781000,22.0,-37.0,-381.0,-848.0,-332.0,-27.0,0.0,0.0,0.0
19:44:13.786000,-14.0,-19.0,-426.0,-944.0,-309.0,-23.0,0.0,0.0,0.0
19:44:13.791000,-31.0,4.0,-466.0,-944.0,-309.0,-23.0,0.0,0.0,0.0
19:44:13.795000,-40.0,20.0,-435.0,-1007.0,-385.0,-27.0,0.0,0.0,0.0
19:44:13.800000,-26.0,25.0,-422.0,-1007.0,-385.0,-27.0,0.0,0.0,0.0
19:44:13.805000,-21.0,42.0,-464.0,-1007.0,-432.0,-25.0,0.0,0.0,0.0
19:44:13.809000,-11.0,62.0,-521.0,-1017.0,-432.0,-25.0,0.0,0.0,0.0
19:44:13.814000,-11.0,70.0,-537.0,-1017.0,-432.0,-25.0,0.0,0.0,0.0
19:44:13.819000,-7.0,72.0,-511.0,-961.0,-408.0,-18.0,0.0,0.0,0.0
19:44:13.824000,-2.0,88.0,-508.0,-961.0,-408.0,-18.0,0.0,0.0,0.0
19:44:13.828000,2.0,101.0,-555.0,-909.0,-350.0,-15.0,0.0,0.0,0.0
19:44:13.833000,-8.0,107.0,-566.0,-909.0,-350.0,-15.0,0.0,0.0,0.0
19:44:13.838000,0.0,103.0,-553.0,-973.0,-341.0,-10.0,0.0,0.0,0.0
19:44:13.842000,17.0,93.0,-541.0,-973.0,-341.0,-10.0,0.0,0.0,0.0
19:44:13.847000,39.0,84.0,-508.0,-1031.0,-379.0,-9.0,0.0,0.0,0.0
19:44:13.852000,60.0,84.0,-450.0,-1031.0,-379.0,-9.0,0.0,0.0,0.0
19:44:13.856000,60.0,84.0,-450.0,-1021.0,-406.0,-20.0,0.0,0.0,0.0
19:44:13.861000,84.0,87.0,-457.0,-1021.0,-406.0,-20.0,0.0,0.0,0.0
19:44:13.866000,96.0,87.0,-508.0,-992.0,-368.0,-20.0,0.0,0.0,0.0
19:44:13.871000,110.0,81.0,-516.0,-992.0,-368.0,-20.0,0.0,0.0,0.0
19:44:13.875000,123.0,78.0,-502.0,-955.0,-342.0,-14.0,0.0,0.0,0.0
19:44:13.880000,139.0,75.0,-543.0,-955.0,-342.0,-14.0,0.0,0.0,0.0
19:44:13.885000,148.0,76.0,-592.0,-949.0,-336.0,-13.0,0.0,0.0,0.0
19:44:13.889000,143.0,79.0,-569.0,-949.0,-336.0,-13.0,0.0,0.0,0.0
19:44:13.894000,131.0,81.0,-512.0,-981.0,-282.0,-8.0,0.0,0.0,0.0
19:44:13.899000,115.0,89.0,-522.0,-981.0,-282.0,-8.0,0.0,0.0,0.0
19:44:13.903000,93.0,108.0,-554.0,-1029.0,-198.0,-5.0,0.0,0.0,0.0
19:44:13.908000,70.0,125.0,-583.0,-1029.0,-198.0,-5.0,0.0,0.0,0.0
19:44:13.913000,49.0,141.0,-595.0,-1060.0,-149.0,-7.0,0.0,0.0,0.0
19:44:13.917000,27.0,151.0,-576.0,-1060.0,-149.0,-7.0,0.0,0.0,0.0
19:44:13.922000,15.0,159.0,-560.0,-1060.0,-149.0,-7.0,0.0,0.0,0.0
19:44:13.927000,10.0,170.0,-604.0,-1032.0,-157.0,-19.0,0.0,0.0,0.0
19:44:13.932000,-2.0,196.0,-606.0,-1032.0,-157.0,-19.0,0.0,0.0,0.0
19:44:13.936000,-7.0,207.0,-568.0,-1061.0,-154.0,-23.0,0.0,0.0,0.0
19:44:13.941000,0.0,203.0,-581.0,-1061.0,-154.0,-23.0,0.0,0.0,0.0
19:44:13.945000,-13.0,218.0,-589.0,-1067.0,-179.0,-27.0,0.0,0.0,0.0
19:44:13.950000,-2.0,229.0,-593.0,-1067.0,-179.0,-27.0,0.0,0.0,0.0
19:44:13.955000,3.0,232.0,-616.0,-992.0,-202.0,-50.0,0.0,0.0,0.0
19:44:13.960000,12.0,235.0,-629.0,-992.0,-202.0,-50.0,0.0,0.0,0.0
19:44:13.965000,12.0,235.0,-629.0,-963.0,-180.0,-72.0,0.0,0.0,0.0
19:44:13.969000,11.0,236.0,-628.0,-963.0,-180.0,-72.0,0.0,0.0,0.0
19:44:13.974000,16.0,226.0,-616.0,-998.0,-172.0,-87.0,0.0,0.0,0.0
19:44:13.979000,30.0,216.0,-608.0,-998.0,-172.0,-87.0,0.0,0.0,0.0
19:44:13.983000,39.0,207.0,-593.0,-1024.0,-202.0,-96.0,0.0,0.0,0.0
19:44:13.988000,62.0,186.0,-575.0,-1024.0,-202.0,-96.0,0.0,0.0,0.0
19:44:13.993000,81.0,172.0,-581.0,-974.0,-194.0,-104.0,0.0,0.0,0.0
19:44:13.997000,96.0,161.0,-585.0,-974.0,-194.0,-104.0,0.0,0.0,0.0
19:44:14.002000,104.0,155.0,-538.0,-945.0,-117.0,-113.0,0.0,0.0,0.0
19:44:14.007000,100.0,150.0,-498.0,-945.0,-117.0,-113.0,0.0,0.0,0.0
19:44:14.012000,90.0,152.0,-475.0,-989.0,-66.0,-122.0,0.0,0.0,0.0
19:44:14.016000,85.0,152.0,-447.0,-989.0,-66.0,-122.0,0.0,0.0,0.0
19:44:14.021000,79.0,148.0,-458.0,-1026.0,-59.0,-129.0,0.0,0.0,0.0
19:44:14.026000,63.0,144.0,-473.0,-1026.0,-59.0,-129.0,0.0,0.0,0.0
19:44:14.030000,46.0,137.0,-464.0,-1026.0,-59.0,-129.0,0.0,0.0,0.0
19:44:14.035000,14.0,135.0,-436.0,-1002.0,-41.0,-134.0,0.0,0.0,0.0
19:44:14.040000,-14.0,137.0,-435.0,-1006.0,1.0,-133.0,0.0,0.0,0.0
19:44:14.044000,-30.0,132.0,-448.0,-1006.0,1.0,-133.0,0.0,0.0,0.0
19:44:14.049000,-53.0,126.0,-436.0,-1006.0,1.0,-133.0,0.0,0.0,0.0
19:44:14.054000,-79.0,123.0,-382.0,-1005.0,-4.0,-136.0,0.0,0.0,0.0
19:44:14.059000,-102.0,122.0,-339.0,-1005.0,-4.0,-136.0,0.0,0.0,0.0
19:44:14.063000,-120.0,117.0,-380.0,-989.0,0.0,-140.0,0.0,0.0,0.0
19:44:14.068000,-136.0,119.0,-414.0,-989.0,0.0,-140.0,0.0,0.0,0.0
19:44:14.073000,-136.0,119.0,-414.0,-1029.0,6.0,-144.0,0.0,0.0,0.0
19:44:14.077000,-135.0,113.0,-409.0,-1029.0,6.0,-144.0,0.0,0.0,0.0
19:44:14.082000,-133.0,99.0,-395.0,-1074.0,-52.0,-148.0,0.0,0.0,0.0
19:44:14.087000,-126.0,88.0,-405.0,-1074.0,-52.0,-148.0,0.0,0.0,0.0
19:44:14.091000,-114.0,86.0,-424.0,-1070.0,-65.0,-142.0,0.0,0.0,0.0
19:44:14.096000,-104.0,91.0,-396.0,-1070.0,-65.0,-142.0,0.0,0.0,0.0
19:44:14.101000,-90.0,95.0,-343.0,-1049.0,-77.0,-127.0,0.0,0.0,0.0
19:44:14.106000,-66.0,98.0,-333.0,-1049.0,-77.0,-127.0,0.0,0.0,0.0
19:44:14.110000,-42.0,106.0,-387.0,-1069.0,-117.0,-119.0,0.0,0.0,0.0
19:44:14.115000,2.0,108.0,-442.0,-1069.0,-117.0,-119.0,0.0,0.0,0.0
19:44:14.120000,47.0,109.0,-453.0,-1071.0,-133.0,-121.0,0.0,0.0,0.0
19:44:14.124000,86.0,108.0,-434.0,-1071.0,-133.0,-121.0,0.0,0.0,0.0
19:44:14.129000,107.0,105.0,-435.0,-1047.0,-109.0,-120.0,0.0,0.0,0.0
19:44:14.134000,136.0,106.0,-464.0,-1047.0,-109.0,-120.0,0.0,0.0,0.0
19:44:14.138000,168.0,100.0,-501.0,-1047.0,-109.0,-120.0,0.0,0.0,0.0
19:44:14.143000,182.0,100.0,-503.0,-1042.0,-75.0,-129.0,0.0,0.0,0.0
19:44:14.148000,190.0,92.0,-506.0,-1042.0,-75.0,-129.0,0.0,0.0,0.0
19:44:14.153000,205.0,88.0,-552.0,-1065.0,-41.0,-136.0,0.0,0.0,0.0
19:44:14.157000,217.0,82.0,-604.0,-1065.0,-41.0,-136.0,0.0,0.0,0.0
19:44:14.162000,221.0,69.0,-614.0,-1072.0,8.0,-132.0,0.0,0.0,0.0
19:44:14.167000,212.0,56.0,-588.0,-1072.0,8.0,-132.0,0.0,0.0,0.0
19:44:14.171000,196.0,50.0,-567.0,-1043.0,34.0,-132.0,0.0,0.0,0.0
19:44:14.176000,181.0,53.0,-577.0,-1043.0,34.0,-132.0,0.0,0.0,0.0
19:44:14.180000,181.0,53.0,-577.0,-1065.0,94.0,-138.0,0.0,0.0,0.0
19:44:14.185000,156.0,55.0,-616.0,-1065.0,94.0,-138.0,0.0,0.0,0.0
19:44:14.190000,137.0,55.0,-634.0,-1139.0,158.0,-140.0,0.0,0.0,0.0
19:44:14.195000,121.0,60.0,-609.0,-1139.0,158.0,-140.0,0.0,0.0,0.0
19:44:14.200000,114.0,59.0,-599.0,-1138.0,153.0,-136.0,0.0,0.0,0.0
19:44:14.204000,102.0,64.0,-602.0,-1138.0,153.0,-136.0,0.0,0.0,0.0
19:44:14.209000,91.0,77.0,-575.0,-1066.0,120.0,-142.0,0.0,0.0,0.0
19:44:14.214000,88.0,89.0,-556.0,-1066.0,120.0,-142.0,0.0,0.0,0.0
19:44:14.218000,91.0,105.0,-560.0,-1039.0,151.0,-151.0,0.0,0.0,0.0
19:44:14.223000,98.0,116.0,-555.0,-1039.0,151.0,-151.0,0.0,0.0,0.0
19:44:14.228000,98.0,125.0,-546.0,-1076.0,182.0,-151.0,0.0,0.0,0.0
19:44:14.232000,98.0,130.0,-532.0,-1076.0,182.0,-151.0,0.0,0.0,0.0
19:44:14.237000,100.0,136.0,-518.0,-1095.0,141.0,-148.0,0.0,0.0,0.0
19:44:14.242000,79.0,160.0,-504.0,-1095.0,141.0,-148.0,0.0,0.0,0.0
19:44:14.247000,107.0,164.0,-481.0,-1095.0,141.0,-148.0,0.0,0.0,0.0
19:44:14.251000,100.0,166.0,-462.0,-1074.0,146.0,-153.0,0.0,0.0,0.0
19:44:14.256000,106.0,168.0,-429.0,-1074.0,146.0,-153.0,0.0,0.0,0.0
19:44:14.261000,122.0,177.0,-417.0,-1028.0,160.0,-158.0,0.0,0.0,0.0
19:44:14.265000,140.0,177.0,-422.0,-1028.0,160.0,-158.0,0.0,0.0,0.0
19:44:14.270000,142.0,185.0,-456.0,-989.0,157.0,-162.0,0.0,0.0,0.0
19:44:14.275000,142.0,192.0,-476.0,-989.0,157.0,-162.0,0.0,0.0,0.0
19:44:14.279000,139.0,189.0,-448.0,-980.0,211.0,-164.0,0.0,0.0,0.0
19:44:14.284000,140.0,192.0,-409.0,-980.0,211.0,-164.0,0.0,0.0,0.0
19:44:14.289000,119.0,191.0,-364.0,-982.0,271.0,-166.0,0.0,0.0,0.0
19:44:14.294000,119.0,191.0,-364.0,-982.0,271.0,-166.0,0.0,0.0,0.0
