hh:mm:ss.ms,gyroX[mdps],gyroY[mdps],gyroZ[mdps],accX[mg],accY[mg],accZ[mg],magX[mG],magY[mG],magZ[mG]
19:44:33.816000,-242.0,-23.0,-470.0,-1051.0,-357.0,68.0,0.0,0.0,0.0
19:44:33.821000,-226.0,-18.0,-468.0,-1051.0,-357.0,68.0,0.0,0.0,0.0
19:44:33.826000,-221.0,-7.0,-449.0,-1058.0,-296.0,49.0,0.0,0.0,0.0
19:44:33.830000,-229.0,5.0,-433.0,-1058.0,-296.0,49.0,0.0,0.0,0.0
19:44:33.835000,-238.0,20.0,-412.0,-1086.0,-255.0,36.0,0.0,0.0,0.0
19:44:33.840000,-229.0,32.0,-396.0,-1086.0,-255.0,36.0,0.0,0.0,0.0
19:44:33.844000,-230.0,44.0,-377.0,-1122.0,-230.0,17.0,0.0,0.0,0.0
19:44:33.849000,-232.0,64.0,-380.0,-1122.0,-230.0,17.0,0.0,0.0,0.0
19:44:33.854000,-251.0,74.0,-384.0,-1059.0,-230.0,0.0,0.0,0.0,0.0
19:44:33.858000,-264.0,93.0,-378.0,-1059.0,-230.0,0.0,0.0,0.0,0.0
19:44:33.863000,-264.0,93.0,-378.0,-977.0,-280.0,-45.0,0.0,0.0,0.0
19:44:33.868000,-263.0,126.0,-504.0,-977.0,-280.0,-45.0,0.0,0.0,0.0
19:44:33.873000,-321.0,123.0,-352.0,-1026.0,-274.0,-65.0,0.0,0.0,0.0
19:44:33.877000,-345.0,142.0,-322.0,-1026.0,-274.0,-65.0,0.0,0.0,0.0
19:44:33.882000,-365.0,155.0,-412.0,-1134.0,-238.0,-96.0,0.0,0.0,0.0
19:44:33.887000,-401.0,143.0,-270.0,-1134.0,-238.0,-96.0,0.0,0.0,0.0
19:44:33.891000,-429.0,158.0,-301.0,-1231.0,-244.0,-136.0,0.0,0.0,0.0
19:44:33.896000,-445.0,163.0,-366.0,-1231.0,-244.0,-136.0,0.0,0.0,0.0
19:44:33.901000,-443.0,144.0,-464.0,-1229.0,-288.0,-90.0,0.0,0.0,0.0
19:44:33.905000,-438.0,134.0,-539.0,-1229.0,-288.0,-90.0,0.0,0.0,0.0
19:44:33.910000,-457.0,119.0,-606.0,-1035.0,-347.0,-77.0,0.0,0.0,0.0
19:44:33.915000,-466.0,101.0,-639.0,-1035.0,-347.0,-77.0,0.0,0.0,0.0
19:44:33.920000,-472.0,77.0,-623.0,-941.0,-292.0,-124.0,0.0,0.0,0.0
19:44:33.924000,-479.0,40.0,-624.0,-941.0,-292.0,-124.0,0.0,0.0,0.0
19:44:33.929000,-473.0,1.0,-646.0,-941.0,-292.0,-124.0,0.0,0.0,0.0
19:44:33.934000,-466.0,-36.0,-714.0,-938.0,-208.0,-136.0,0.0,0.0,0.0
19:44:33.938000,-431.0,-65.0,-757.0,-938.0,-208.0,-136.0,0.0,0.0,0.0
19:44:33.943000,-416.0,-116.0,-736.0,-991.0,-177.0,-66.0,0.0,0.0,0.0
19:44:33.948000,-426.0,-151.0,-694.0,-991.0,-177.0,-66.0,0.0,0.0,0.0
19:44:33.952000,-459.0,-158.0,-716.0,-1007.0,-170.0,-29.0,0.0,0.0,0.0
19:44:33.957000,-455.0,-179.0,-728.0,-1007.0,-170.0,-29.0,0.0,0.0,0.0
19:44:33.962000,-465.0,-175.0,-719.0,-950.0,-114.0,-64.0,0.0,0.0,0.0
19:44:33.967000,-484.0,-183.0,-722.0,-950.0,-114.0,-64.0,0.0,0.0,0.0
19:44:33.971000,-484.0,-183.0,-722.0,-947.0,-21.0,-53.0,0.0,0.0,0.0
19:44:33.975000,-495.0,-193.0,-739.0,-947.0,-21.0,-53.0,0.0,0.0,0.0
19:44:33.981000,-497.0,-175.0,-735.0,-1012.0,119.0,-45.0,0.0,0.0,0.0
19:44:33.985000,-539.0,-156.0,-658.0,-1012.0,119.0,-45.0,0.0,0.0,0.0
19:44:33.990000,-573.0,-126.0,-592.0,-1047.0,89.0,-47.0,0.0,0.0,0.0
19:44:33.995000,-556.0,-90.0,-620.0,-1047.0,89.0,-47.0,0.0,0.0,0.0
19:44:33.999000,-523.0,-72.0,-714.0,-1151.0,-73.0,-23.0,0.0,0.0,0.0
19:44:34.004000,-501.0,-63.0,-758.0,-1151.0,-73.0,-23.0,0.0,0.0,0.0
19:44:34.009000,-551.0,-63.0,-728.0,-1224.0,-110.0,20.0,0.0,0.0,0.0
19:44:34.014000,-569.0,-24.0,-701.0,-1224.0,-110.0,20.0,0.0,0.0,0.0
19:44:34.018000,-585.0,-5.0,-701.0,-1109.0,-14.0,57.0,0.0,0.0,0.0
19:44:34.023000,-600.0,8.0,-705.0,-1109.0,-14.0,57.0,0.0,0.0,0.0
19:44:34.028000,-620.0,11.0,-678.0,-989.0,116.0,48.0,0.0,0.0,0.0
19:44:34.032000,-611.0,24.0,-683.0,-989.0,116.0,48.0,0.0,0.0,0.0
19:44:34.037000,-643.0,38.0,-711.0,-989.0,116.0,48.0,0.0,0.0,0.0
19:44:34.042000,-644.0,59.0,-686.0,-953.0,143.0,30.0,0.0,0.0,0.0
19:44:34.046000,-659.0,69.0,-665.0,-953.0,143.0,30.0,0.0,0.0,0.0
19:44:34.051000,-651.0,70.0,-660.0,-1014.0,114.0,-2.0,0.0,0.0,0.0
19:44:34.056000,-639.0,72.0,-642.0,-1014.0,114.0,-2.0,0.0,0.0,0.0
19:44:34.061000,-629.0,68.0,-610.0,-1086.0,79.0,-21.0,0.0,0.0,0.0
19:44:34.065000,-611.0,56.0,-604.0,-1086.0,79.0,-21.0,0.0,0.0,0.0
19:44:34.070000,-606.0,46.0,-603.0,-1078.0,69.0,-16.0,0.0,0.0,0.0
19:44:34.075000,-596.0,37.0,-604.0,-1078.0,69.0,-16.0,0.0,0.0,0.0
19:44:34.079000,-596.0,37.0,-604.0,-1019.0,110.0,-2.0,0.0,0.0,0.0
19:44:34.084000,-589.0,22.0,-628.0,-1019.0,110.0,-2.0,0.0,0.0,0.0
19:44:34.089000,-581.0,12.0,-645.0,-975.0,144.0,7.0,0.0,0.0,0.0
19:44:34.093000,-578.0,1.0,-658.0,-975.0,144.0,7.0,0.0,0.0,0.0
19:44:34.098000,-577.0,-13.0,-662.0,-979.0,177.0,19.0,0.0,0.0,0.0
19:44:34.103000,-581.0,-27.0,-679.0,-979.0,177.0,19.0,0.0,0.0,0.0
19:44:34.108000,-603.0,-34.0,-708.0,-1001.0,231.0,32.0,0.0,0.0,0.0
19:44:34.112000,-609.0,-40.0,-725.0,-1001.0,231.0,32.0,0.0,0.0,0.0
19:44:34.117000,-622.0,-44.0,-733.0,-1046.0,269.0,41.0,0.0,0.0,0.0
19:44:34.122000,-646.0,-44.0,-739.0,-1046.0,269.0,41.0,0.0,0.0,0.0
19:44:34.126000,-667.0,-32.0,-756.0,-1104.0,294.0,40.0,0.0,0.0,0.0
19:44:34.131000,-689.0,-13.0,-770.0,-1104.0,294.0,40.0,0.0,0.0,0.0
19:44:34.136000,-712.0,13.0,-761.0,-1146.0,316.0,24.0,0.0,0.0,0.0
19:44:34.140000,-735.0,44.0,-737.0,-1146.0,316.0,24.0,0.0,0.0,0.0
19:44:34.145000,-757.0,78.0,-709.0,-1146.0,316.0,24.0,0.0,0.0,0.0
19:44:34.150000,-779.0,116.0,-690.0,-1164.0,326.0,10.0,0.0,0.0,0.0
19:44:34.155000,-801.0,160.0,-666.0,-1167.0,329.0,-1.0,0.0,0.0,0.0
19:44:34.159000,-823.0,203.0,-632.0,-1167.0,329.0,-1.0,0.0,0.0,0.0
19:44:34.164000,-840.0,240.0,-599.0,-1167.0,329.0,-1.0,0.0,0.0,0.0
19:44:34.169000,-849.0,275.0,-569.0,-1142.0,328.0,-14.0,0.0,0.0,0.0
19:44:34.173000,-853.0,296.0,-546.0,-1142.0,328.0,-14.0,0.0,0.0,0.0
19:44:34.178000,-849.0,315.0,-518.0,-1066.0,316.0,-14.0,0.0,0.0,0.0
19:44:34.183000,-838.0,326.0,-497.0,-1066.0,316.0,-14.0,0.0,0.0,0.0
19:44:34.187000,-823.0,339.0,-490.0,-964.0,285.0,-9.0,0.0,0.0,0.0
19:44:34.192000,-823.0,339.0,-490.0,-964.0,285.0,-9.0,0.0,0.0,0.0
19:44:34.197000,-806.0,352.0,-480.0,-883.0,260.0,-17.0,0.0,0.0,0.0
19:44:34.202000,-788.0,364.0,-469.0,-883.0,260.0,-17.0,0.0,0.0,0.0
19:44:34.206000,-772.0,373.0,-459.0,-856.0,267.0,-27.0,0.0,0.0,0.0
19:44:34.211000,-763.0,376.0,-445.0,-856.0,267.0,-27.0,0.0,0.0,0.0
19:44:34.216000,-760.0,377.0,-430.0,-861.0,303.0,-27.0,0.0,0.0,0.0
19:44:34.220000,-759.0,376.0,-417.0,-861.0,303.0,-27.0,0.0,0.0,0.0
19:44:34.225000,-763.0,378.0,-408.0,-851.0,346.0,-29.0,0.0,0.0,0.0
19:44:34.230000,-772.0,379.0,-399.0,-851.0,346.0,-29.0,0.0,0.0,0.0
19:44:34.234000,-784.0,385.0,-384.0,-844.0,379.0,-36.0,0.0,0.0,0.0
19:44:34.239000,-794.0,388.0,-371.0,-844.0,379.0,-36.0,0.0,0.0,0.0
19:44:34.244000,-803.0,394.0,-360.0,-856.0,391.0,-46.0,0.0,0.0,0.0
19:44:34.249000,-809.0,403.0,-347.0,-856.0,391.0,-46.0,0.0,0.0,0.0
19:44:34.253000,-809.0,415.0,-335.0,-856.0,391.0,-46.0,0.0,0.0,0.0
19:44:34.258000,-807.0,428.0,-332.0,-882.0,384.0,-60.0,0.0,0.0,0.0
19:44:34.263000,-798.0,441.0,-326.0,-882.0,384.0,-60.0,0.0,0.0,0.0
19:44:34.267000,-786.0,454.0,-321.0,-908.0,363.0,-75.0,0.0,0.0,0.0
19:44:34.272000,-763.0,466.0,-317.0,-908.0,363.0,-75.0,0.0,0.0,0.0
19:44:34.277000,-733.0,480.0,-319.0,-907.0,327.0,-89.0,0.0,0.0,0.0
19:44:34.281000,-699.0,499.0,-328.0,-907.0,327.0,-89.0,0.0,0.0,0.0
19:44:34.286000,-662.0,521.0,-336.0,-889.0,284.0,-107.0,0.0,0.0,0.0
19:44:34.291000,-623.0,547.0,-342.0,-889.0,284.0,-107.0,0.0,0.0,0.0
19:44:34.296000,-587.0,575.0,-349.0,-877.0,254.0,-131.0,0.0,0.0,0.0
19:44:34.300000,-587.0,575.0,-349.0,-877.0,254.0,-131.0,0.0,0.0,0.0
19:44:34.305000,-555.0,602.0,-352.0,-872.0,247.0,-152.0,0.0,0.0,0.0
19:44:34.310000,-525.0,628.0,-352.0,-872.0,247.0,-152.0,0.0,0.0,0.0
19:44:34.314000,-494.0,651.0,-355.0,-840.0,248.0,-167.0,0.0,0.0,0.0
19:44:34.319000,-465.0,672.0,-361.0,-840.0,248.0,-167.0,0.0,0.0,0.0
19:44:34.324000,-435.0,686.0,-371.0,-781.0,249.0,-181.0,0.0,0.0,0.0
19:44:34.328000,-408.0,695.0,-378.0,-781.0,249.0,-181.0,0.0,0.0,0.0
19:44:34.333000,-384.0,697.0,-385.0,-741.0,265.0,-192.0,0.0,0.0,0.0
19:44:34.338000,-367.0,695.0,-389.0,-741.0,265.0,-192.0,0.0,0.0,0.0
19:44:34.343000,-354.0,684.0,-390.0,-723.0,299.0,-196.0,0.0,0.0,0.0
19:44:34.347000,-349.0,671.0,-385.0,-723.0,299.0,-196.0,0.0,0.0,0.0
19:44:34.352000,-348.0,652.0,-373.0,-697.0,335.0,-196.0,0.0,0.0,0.0
19:44:34.357000,-354.0,634.0,-358.0,-697.0,335.0,-196.0,0.0,0.0,0.0
19:44:34.361000,-364.0,618.0,-345.0,-697.0,335.0,-196.0,0.0,0.0,0.0
19:44:34.366000,-375.0,600.0,-327.0,-674.0,373.0,-195.0,0.0,0.0,0.0
19:44:34.371000,-390.0,587.0,-308.0,-674.0,373.0,-195.0,0.0,0.0,0.0
19:44:34.375000,-404.0,576.0,-291.0,-679.0,403.0,-199.0,0.0,0.0,0.0
19:44:34.380000,-417.0,563.0,-283.0,-679.0,403.0,-199.0,0.0,0.0,0.0
19:44:34.385000,-430.0,548.0,-281.0,-707.0,418.0,-207.0,0.0,0.0,0.0
19:44:34.390000,-443.0,532.0,-275.0,-707.0,418.0,-207.0,0.0,0.0,0.0
19:44:34.394000,-454.0,518.0,-268.0,-725.0,426.0,-214.0,0.0,0.0,0.0
19:44:34.399000,-466.0,506.0,-259.0,-725.0,426.0,-214.0,0.0,0.0,0.0
19:44:34.404000,-481.0,499.0,-249.0,-714.0,429.0,-220.0,0.0,0.0,0.0
19:44:34.408000,-481.0,499.0,-249.0,-714.0,429.0,-220.0,0.0,0.0,0.0
19:44:34.413000,-501.0,497.0,-238.0,-715.0,440.0,-225.0,0.0,0.0,0.0
19:44:34.418000,-524.0,496.0,-219.0,-715.0,440.0,-225.0,0.0,0.0,0.0
19:44:34.422000,-546.0,493.0,-198.0,-739.0,452.0,-223.0,0.0,0.0,0.0
19:44:34.427000,-568.0,490.0,-179.0,-739.0,452.0,-223.0,0.0,0.0,0.0
19:44:34.432000,-588.0,489.0,-162.0,-753.0,445.0,-221.0,0.0,0.0,0.0
19:44:34.437000,-604.0,490.0,-139.0,-753.0,445.0,-221.0,0.0,0.0,0.0
19:44:34.441000,-617.0,492.0,-119.0,-759.0,417.0,-221.0,0.0,0.0,0.0
19:44:34.445000,-627.0,495.0,-105.0,-759.0,417.0,-221.0,0.0,0.0,0.0
19:44:34.451000,-637.0,500.0,-92.0,-769.0,379.0,-219.0,0.0,0.0,0.0
19:44:34.455000,-646.0,508.0,-76.0,-769.0,379.0,-219.0,0.0,0.0,0.0
19:44:34.460000,-656.0,522.0,-59.0,-773.0,343.0,-211.0,0.0,0.0,0.0
19:44:34.465000,-667.0,539.0,-42.0,-773.0,343.0,-211.0,0.0,0.0,0.0
19:44:34.469000,-680.0,560.0,-25.0,-773.0,343.0,-211.0,0.0,0.0,0.0
19:44:34.474000,-693.0,584.0,-14.0,-768.0,310.0,-204.0,0.0,0.0,0.0
19:44:34.479000,-708.0,611.0,-8.0,-768.0,310.0,-204.0,0.0,0.0,0.0
19:44:34.484000,-727.0,639.0,-7.0,-764.0,286.0,-198.0,0.0,0.0,0.0
19:44:34.488000,-746.0,671.0,-4.0,-764.0,286.0,-198.0,0.0,0.0,0.0
19:44:34.493000,-763.0,706.0,-7.0,-762.0,273.0,-191.0,0.0,0.0,0.0
19:44:34.498000,-780.0,744.0,-23.0,-762.0,273.0,-191.0,0.0,0.0,0.0
19:44:34.502000,-798.0,785.0,-46.0,-772.0,261.0,-187.0,0.0,0.0,0.0
19:44:34.507000,-811.0,828.0,-68.0,-772.0,261.0,-187.0,0.0,0.0,0.0
19:44:34.512000,-816.0,872.0,-89.0,-791.0,233.0,-180.0,0.0,0.0,0.0
19:44:34.516000,-816.0,872.0,-89.0,-791.0,233.0,-180.0,0.0,0.0,0.0
19:44:34.521000,-809.0,918.0,-119.0,-786.0,161.0,-173.0,0.0,0.0,0.0
19:44:34.526000,-795.0,963.0,-158.0,-786.0,161.0,-173.0,0.0,0.0,0.0
19:44:34.531000,-768.0,1009.0,-192.0,-745.0,50.0,-183.0,0.0,0.0,0.0
19:44:34.535000,-731.0,1054.0,-227.0,-745.0,50.0,-183.0,0.0,0.0,0.0
19:44:34.540000,-688.0,1101.0,-261.0,-725.0,-45.0,-214.0,0.0,0.0,0.0
19:44:34.545000,-644.0,1140.0,-292.0,-725.0,-45.0,-214.0,0.0,0.0,0.0
19:44:34.549000,-601.0,1175.0,-312.0,-762.0,-82.0,-256.0,0.0,0.0,0.0
19:44:34.554000,-562.0,1207.0,-320.0,-762.0,-82.0,-256.0,0.0,0.0,0.0
19:44:34.559000,-531.0,1239.0,-313.0,-789.0,-71.0,-310.0,0.0,0.0,0.0
19:44:34.563000,-511.0,1274.0,-298.0,-789.0,-71.0,-310.0,0.0,0.0,0.0
19:44:34.568000,-508.0,1304.0,-275.0,-778.0,-20.0,-371.0,0.0,0.0,0.0
19:44:34.573000,-524.0,1325.0,-249.0,-778.0,-20.0,-371.0,0.0,0.0,0.0
19:44:34.578000,-555.0,1339.0,-220.0,-715.0,67.0,-422.0,0.0,0.0,0.0
19:44:34.582000,-601.0,1345.0,-189.0,-716.0,67.0,-422.0,0.0,0.0,0.0
19:44:34.587000,-655.0,1344.0,-165.0,-716.0,67.0,-422.0,0.0,0.0,0.0
19:44:34.592000,-716.0,1332.0,-158.0,-592.0,166.0,-464.0,0.0,0.0,0.0
19:44:34.596000,-781.0,1305.0,-160.0,-592.0,166.0,-464.0,0.0,0.0,0.0
19:44:34.601000,-837.0,1262.0,-169.0,-432.0,238.0,-491.0,0.0,0.0,0.0
19:44:34.606000,-879.0,1208.0,-179.0,-432.0,238.0,-491.0,0.0,0.0,0.0
19:44:34.610000,-903.0,1153.0,-194.0,-236.0,228.0,-517.0,0.0,0.0,0.0
19:44:34.615000,-912.0,1099.0,-213.0,-236.0,228.0,-517.0,0.0,0.0,0.0
19:44:34.620000,-908.0,1045.0,-242.0,-48.0,148.0,-566.0,0.0,0.0,0.0
19:44:34.625000,-901.0,996.0,-275.0,-48.0,148.0,-566.0,0.0,0.0,0.0
19:44:34.629000,-901.0,996.0,-275.0,36.0,103.0,-626.0,0.0,0.0,0.0
19:44:34.634000,-893.0,947.0,-308.0,36.0,103.0,-626.0,0.0,0.0,0.0
19:44:34.639000,-889.0,904.0,-340.0,24.0,128.0,-673.0,0.0,0.0,0.0
19:44:34.643000,-886.0,862.0,-364.0,24.0,128.0,-673.0,0.0,0.0,0.0
19:44:34.648000,-884.0,823.0,-383.0,-8.0,167.0,-698.0,0.0,0.0,0.0
19:44:34.653000,-882.0,786.0,-399.0,-8.0,167.0,-698.0,0.0,0.0,0.0
19:44:34.657000,-877.0,749.0,-413.0,-30.0,178.0,-702.0,0.0,0.0,0.0
19:44:34.662000,-870.0,714.0,-420.0,-30.0,178.0,-702.0,0.0,0.0,0.0
19:44:34.667000,-858.0,685.0,-414.0,-38.0,160.0,-696.0,0.0,0.0,0.0
19:44:34.671000,-843.0,665.0,-401.0,-38.0,160.0,-696.0,0.0,0.0,0.0
19:44:34.676000,-828.0,655.0,-394.0,-51.0,148.0,-698.0,0.0,0.0,0.0
19:44:34.681000,-815.0,653.0,-392.0,-51.0,148.0,-698.0,0.0,0.0,0.0
19:44:34.686000,-809.0,659.0,-392.0,-92.0,179.0,-714.0,0.0,0.0,0.0
19:44:34.690000,-810.0,676.0,-384.0,-92.0,179.0,-714.0,0.0,0.0,0.0
19:44:34.695000,-817.0,701.0,-369.0,-92.0,179.0,-714.0,0.0,0.0,0.0
19:44:34.700000,-827.0,730.0,-350.0,-148.0,223.0,-736.0,0.0,0.0,0.0
19:44:34.704000,-841.0,760.0,-327.0,-148.0,223.0,-736.0,0.0,0.0,0.0
19:44:34.709000,-858.0,786.0,-305.0,-183.0,240.0,-755.0,0.0,0.0,0.0
19:44:34.714000,-874.0,809.0,-284.0,-183.0,240.0,-755.0,0.0,0.0,0.0
19:44:34.718000,-887.0,829.0,-263.0,-165.0,244.0,-771.0,0.0,0.0,0.0
19:44:34.723000,-899.0,842.0,-240.0,-165.0,244.0,-771.0,0.0,0.0,0.0
19:44:34.728000,-907.0,852.0,-219.0,-102.0,237.0,-787.0,0.0,0.0,0.0
19:44:34.733000,-913.0,862.0,-203.0,-102.0,237.0,-787.0,0.0,0.0,0.0
19:44:34.737000,-913.0,862.0,-203.0,-37.0,213.0,-808.0,0.0,0.0,0.0
19:44:34.742000,-917.0,870.0,-192.0,-37.0,213.0,-808.0,0.0,0.0,0.0
19:44:34.747000,-920.0,879.0,-188.0,-4.0,191.0,-844.0,0.0,0.0,0.0
19:44:34.751000,-921.0,887.0,-191.0,-4.0,191.0,-844.0,0.0,0.0,0.0
19:44:34.756000,-919.0,893.0,-198.0,0.0,173.0,-885.0,0.0,0.0,0.0
19:44:34.761000,-911.0,894.0,-207.0,0.0,173.0,-885.0,0.0,0.0,0.0
19:44:34.765000,-901.0,893.0,-214.0,22.0,138.0,-924.0,0.0,0.0,0.0
19:44:34.770000,-887.0,891.0,-219.0,22.0,138.0,-924.0,0.0,0.0,0.0
19:44:34.775000,-875.0,885.0,-218.0,65.0,103.0,-965.0,0.0,0.0,0.0
19:44:34.780000,-868.0,877.0,-210.0,65.0,103.0,-965.0,0.0,0.0,0.0
19:44:34.784000,-868.0,868.0,-194.0,94.0,102.0,-1006.0,0.0,0.0,0.0
19:44:34.789000,-867.0,851.0,-169.0,94.0,102.0,-1006.0,0.0,0.0,0.0
19:44:34.794000,-863.0,823.0,-139.0,119.0,84.0,-1040.0,0.0,0.0,0.0
19:44:34.798000,-854.0,788.0,-120.0,119.0,84.0,-1040.0,0.0,0.0,0.0
19:44:34.803000,-840.0,750.0,-112.0,119.0,84.0,-1040.0,0.0,0.0,0.0
19:44:34.808000,-819.0,707.0,-112.0,166.0,32.0,-1073.0,0.0,0.0,0.0
19:44:34.812000,-798.0,666.0,-129.0,166.0,32.0,-1073.0,0.0,0.0,0.0
19:44:34.817000,-779.0,630.0,-159.0,206.0,5.0,-1084.0,0.0,0.0,0.0
19:44:34.822000,-765.0,597.0,-199.0,206.0,5.0,-1084.0,0.0,0.0,0.0
19:44:34.827000,-747.0,562.0,-246.0,187.0,2.0,-1072.0,0.0,0.0,0.0
19:44:34.831000,-725.0,526.0,-294.0,187.0,2.0,-1072.0,0.0,0.0,0.0
19:44:34.836000,-702.0,496.0,-343.0,132.0,-17.0,-1060.0,0.0,0.0,0.0
19:44:34.841000,-685.0,471.0,-391.0,132.0,-17.0,-1060.0,0.0,0.0,0.0
19:44:34.845000,-685.0,471.0,-391.0,85.0,-35.0,-1041.0,0.0,0.0,0.0
19:44:34.850000,-673.0,448.0,-436.0,85.0,-35.0,-1041.0,0.0,0.0,0.0
19:44:34.855000,-662.0,425.0,-475.0,32.0,-39.0,-1018.0,0.0,0.0,0.0
19:44:34.859000,-648.0,403.0,-494.0,32.0,-39.0,-1018.0,0.0,0.0,0.0
19:44:34.864000,-637.0,384.0,-497.0,-11.0,-69.0,-995.0,0.0,0.0,0.0
19:44:34.869000,-632.0,367.0,-494.0,-11.0,-69.0,-995.0,0.0,0.0,0.0
19:44:34.874000,-636.0,349.0,-494.0,-6.0,-77.0,-969.0,0.0,0.0,0.0
19:44:34.878000,-655.0,332.0,-504.0,-6.0,-77.0,-969.0,0.0,0.0,0.0
19:44:34.883000,-684.0,313.0,-518.0,9.0,-24.0,-937.0,0.0,0.0,0.0
19:44:34.888000,-723.0,292.0,-524.0,9.0,-24.0,-937.0,0.0,0.0,0.0
19:44:34.892000,-772.0,272.0,-524.0,8.0,22.0,-897.0,0.0,0.0,0.0
19:44:34.897000,-824.0,255.0,-532.0,8.0,22.0,-897.0,0.0,0.0,0.0
19:44:34.902000,-882.0,238.0,-539.0,10.0,51.0,-855.0,0.0,0.0,0.0
19:44:34.906000,-944.0,221.0,-538.0,10.0,51.0,-855.0,0.0,0.0,0.0
19:44:34.911000,-1008.0,205.0,-542.0,33.0,80.0,-827.0,0.0,0.0,0.0
19:44:34.916000,-1078.0,186.0,-555.0,33.0,80.0,-827.0,0.0,0.0,0.0
19:44:34.921000,-1155.0,170.0,-571.0,33.0,80.0,-827.0,0.0,0.0,0.0
19:44:34.925000,-1234.0,155.0,-578.0,43.0,98.0,-818.0,0.0,0.0,0.0
19:44:34.930000,-1320.0,136.0,-579.0,43.0,98.0,-818.0,0.0,0.0,0.0
19:44:34.935000,-1413.0,113.0,-583.0,15.0,109.0,-814.0,0.0,0.0,0.0
19:44:34.939000,-1510.0,86.0,-587.0,15.0,109.0,-814.0,0.0,0.0,0.0
19:44:34.944000,-1610.0,54.0,-596.0,-12.0,124.0,-806.0,0.0,0.0,0.0
19:44:34.949000,-1706.0,21.0,-612.0,-12.0,124.0,-806.0,0.0,0.0,0.0
19:44:34.953000,-1706.0,21.0,-612.0,3.0,122.0,-802.0,0.0,0.0,0.0
19:44:34.958000,-1796.0,-14.0,-631.0,3.0,122.0,-802.0,0.0,0.0,0.0
19:44:34.963000,-1881.0,-50.0,-651.0,50.0,79.0,-802.0,0.0,0.0,0.0
19:44:34.968000,-1961.0,-89.0,-680.0,50.0,79.0,-802.0,0.0,0.0,0.0
19:44:34.972000,-2034.0,-133.0,-717.0,66.0,27.0,-801.0,0.0,0.0,0.0
19:44:34.977000,-2100.0,-182.0,-744.0,66.0,27.0,-801.0,0.0,0.0,0.0
19:44:34.982000,-2160.0,-231.0,-766.0,61.0,-31.0,-806.0,0.0,0.0,0.0
19:44:34.986000,-2218.0,-275.0,-796.0,61.0,-31.0,-806.0,0.0,0.0,0.0
19:44:34.991000,-2270.0,-315.0,-833.0,52.0,-85.0,-819.0,0.0,0.0,0.0
19:44:34.996000,-2323.0,-348.0,-872.0,52.0,-85.0,-819.0,0.0,0.0,0.0
19:44:35.000000,-2375.0,-378.0,-914.0,5.0,-110.0,-829.0,0.0,0.0,0.0
19:44:35.005000,-2424.0,-400.0,-952.0,5.0,-110.0,-829.0,0.0,0.0,0.0
19:44:35.010000,-2470.0,-419.0,-994.0,-65.0,-132.0,-835.0,0.0,0.0,0.0
19:44:35.015000,-2508.0,-436.0,-1039.0,-65.0,-132.0,-835.0,0.0,0.0,0.0
19:44:35.019000,-2538.0,-452.0,-1071.0,-65.0,-132.0,-835.0,0.0,0.0,0.0
19:44:35.024000,-2559.0,-465.0,-1081.0,-110.0,-186.0,-841.0,0.0,0.0,0.0
19:44:35.029000,-2575.0,-477.0,-1092.0,-139.0,-264.0,-844.0,0.0,0.0,0.0
19:44:35.033000,-2582.0,-485.0,-1113.0,-139.0,-264.0,-844.0,0.0,0.0,0.0
19:44:35.038000,-2570.0,-492.0,-1129.0,-139.0,-264.0,-844.0,0.0,0.0,0.0
19:44:35.043000,-2555.0,-503.0,-1135.0,-171.0,-342.0,-851.0,0.0,0.0,0.0
19:44:35.047000,-2541.0,-506.0,-1136.0,-171.0,-342.0,-851.0,0.0,0.0,0.0
19:44:35.052000,-2524.0,-507.0,-1159.0,-186.0,-436.0,-856.0,0.0,0.0,0.0
19:44:35.057000,-2491.0,-506.0,-1193.0,-186.0,-436.0,-856.0,0.0,0.0,0.0
19:44:35.062000,-2461.0,-504.0,-1168.0,-198.0,-498.0,-867.0,0.0,0.0,0.0
19:44:35.066000,-2461.0,-504.0,-1168.0,-198.0,-498.0,-867.0,0.0,0.0,0.0
19:44:35.071000,-2433.0,-511.0,-1094.0,-191.0,-549.0,-880.0,0.0,0.0,0.0
19:44:35.076000,-2417.0,-540.0,-1035.0,-191.0,-549.0,-880.0,0.0,0.0,0.0
19:44:35.080000,-2406.0,-575.0,-998.0,-202.0,-659.0,-861.0,0.0,0.0,0.0
19:44:35.085000,-2377.0,-601.0,-996.0,-202.0,-659.0,-861.0,0.0,0.0,0.0
19:44:35.090000,-2374.0,-620.0,-1023.0,-272.0,-705.0,-816.0,0.0,0.0,0.0
19:44:35.094000,-2368.0,-618.0,-1015.0,-272.0,-705.0,-816.0,0.0,0.0,0.0
19:44:35.099000,-2372.0,-631.0,-978.0,-346.0,-636.0,-776.0,0.0,0.0,0.0
19:44:35.104000,-2378.0,-661.0,-929.0,-346.0,-636.0,-776.0,0.0,0.0,0.0
19:44:35.109000,-2364.0,-692.0,-884.0,-322.0,-700.0,-760.0,0.0,0.0,0.0
19:44:35.113000,-2316.0,-700.0,-819.0,-322.0,-700.0,-760.0,0.0,0.0,0.0
19:44:35.118000,-2265.0,-716.0,-781.0,-320.0,-856.0,-749.0,0.0,0.0,0.0
19:44:35.123000,-2209.0,-723.0,-835.0,-320.0,-856.0,-749.0,0.0,0.0,0.0
19:44:35.127000,-2177.0,-707.0,-897.0,-320.0,-856.0,-749.0,0.0,0.0,0.0
19:44:35.132000,-2174.0,-705.0,-926.0,-445.0,-844.0,-723.0,0.0,0.0,0.0
19:44:35.137000,-2174.0,-703.0,-940.0,-445.0,-844.0,-723.0,0.0,0.0,0.0
19:44:35.141000,-2153.0,-694.0,-966.0,-551.0,-776.0,-694.0,0.0,0.0,0.0
19:44:35.146000,-2142.0,-693.0,-991.0,-551.0,-776.0,-694.0,0.0,0.0,0.0
19:44:35.151000,-2156.0,-693.0,-946.0,-621.0,-779.0,-658.0,0.0,0.0,0.0
19:44:35.156000,-2067.0,-660.0,-870.0,-621.0,-779.0,-658.0,0.0,0.0,0.0
19:44:35.160000,-2057.0,-647.0,-858.0,-598.0,-794.0,-672.0,0.0,0.0,0.0
19:44:35.165000,-2004.0,-624.0,-942.0,-598.0,-794.0,-672.0,0.0,0.0,0.0
19:44:35.170000,-1925.0,-600.0,-1017.0,-663.0,-775.0,-667.0,0.0,0.0,0.0
19:44:35.174000,-1925.0,-600.0,-1017.0,-663.0,-775.0,-667.0,0.0,0.0,0.0
19:44:35.179000,-2004.0,-564.0,-898.0,-726.0,-848.0,-595.0,0.0,0.0,0.0
19:44:35.184000,-1974.0,-533.0,-752.0,-726.0,-848.0,-595.0,0.0,0.0,0.0
19:44:35.188000,-1927.0,-503.0,-767.0,-584.0,-868.0,-571.0,0.0,0.0,0.0
19:44:35.193000,-1886.0,-476.0,-907.0,-584.0,-868.0,-571.0,0.0,0.0,0.0
19:44:35.198000,-1861.0,-466.0,-1070.0,-533.0,-806.0,-542.0,0.0,0.0,0.0
19:44:35.203000,-1827.0,-452.0,-1095.0,-533.0,-806.0,-542.0,0.0,0.0,0.0
19:44:35.207000,-1771.0,-435.0,-996.0,-648.0,-898.0,-497.0,0.0,0.0,0.0
19:44:35.212000,-1728.0,-404.0,-919.0,-648.0,-898.0,-497.0,0.0,0.0,0.0
19:44:35.217000,-1663.0,-385.0,-904.0,-652.0,-920.0,-475.0,0.0,0.0,0.0
19:44:35.221000,-1632.0,-380.0,-917.0,-652.0,-920.0,-475.0,0.0,0.0,0.0
19:44:35.226000,-1590.0,-366.0,-892.0,-581.0,-949.0,-458.0,0.0,0.0,0.0
19:44:35.231000,-1519.0,-347.0,-834.0,-581.0,-949.0,-458.0,0.0,0.0,0.0
19:44:35.235000,-1437.0,-331.0,-799.0,-581.0,-949.0,-458.0,0.0,0.0,0.0
19:44:35.240000,-1361.0,-329.0,-810.0,-617.0,-1056.0,-453.0,0.0,0.0,0.0
19:44:35.245000,-1289.0,-328.0,-814.0,-617.0,-1056.0,-453.0,0.0,0.0,0.0
19:44:35.250000,-1213.0,-331.0,-768.0,-631.0,-1037.0,-442.0,0.0,0.0,0.0
19:44:35.254000,-1164.0,-339.0,-710.0,-631.0,-1037.0,-442.0,0.0,0.0,0.0
19:44:35.259000,-1110.0,-345.0,-684.0,-567.0,-955.0,-420.0,0.0,0.0,0.0
19:44:35.264000,-1062.0,-361.0,-672.0,-567.0,-955.0,-420.0,0.0,0.0,0.0
19:44:35.268000,-1019.0,-380.0,-696.0,-572.0,-911.0,-396.0,0.0,0.0,0.0
19:44:35.273000,-981.0,-393.0,-679.0,-572.0,-911.0,-396.0,0.0,0.0,0.0
19:44:35.278000,-912.0,-406.0,-683.0,-587.0,-909.0,-376.0,0.0,0.0,0.0
19:44:35.282000,-912.0,-406.0,-683.0,-587.0,-909.0,-376.0,0.0,0.0,0.0
19:44:35.287000,-879.0,-410.0,-767.0,-615.0,-772.0,-347.0,0.0,0.0,0.0
19:44:35.292000,-927.0,-399.0,-724.0,-615.0,-772.0,-347.0,0.0,0.0,0.0
19:44:35.297000,-938.0,-390.0,-515.0,-708.0,-777.0,-319.0,0.0,0.0,0.0
19:44:35.301000,-905.0,-389.0,-413.0,-708.0,-777.0,-319.0,0.0,0.0,0.0
19:44:35.306000,-858.0,-386.0,-443.0,-763.0,-828.0,-315.0,0.0,0.0,0.0
19:44:35.311000,-830.0,-373.0,-542.0,-763.0,-828.0,-315.0,0.0,0.0,0.0
19:44:35.315000,-809.0,-361.0,-623.0,-749.0,-671.0,-309.0,0.0,0.0,0.0
19:44:35.320000,-798.0,-355.0,-631.0,-749.0,-671.0,-309.0,0.0,0.0,0.0
19:44:35.325000,-784.0,-356.0,-570.0,-672.0,-626.0,-296.0,0.0,0.0,0.0
19:44:35.329000,-746.0,-359.0,-493.0,-672.0,-626.0,-296.0,0.0,0.0,0.0
19:44:35.334000,-722.0,-353.0,-444.0,-686.0,-652.0,-293.0,0.0,0.0,0.0
19:44:35.339000,-702.0,-345.0,-422.0,-686.0,-652.0,-293.0,0.0,0.0,0.0
19:44:35.344000,-669.0,-338.0,-429.0,-686.0,-664.0,-293.0,0.0,0.0,0.0
19:44:35.348000,-634.0,-332.0,-453.0,-776.0,-664.0,-302.0,0.0,0.0,0.0
19:44:35.353000,-596.0,-326.0,-467.0,-776.0,-664.0,-302.0,0.0,0.0,0.0
19:44:35.358000,-553.0,-322.0,-457.0,-824.0,-665.0,-314.0,0.0,0.0,0.0
19:44:35.362000,-516.0,-315.0,-449.0,-824.0,-665.0,-314.0,0.0,0.0,0.0
19:44:35.367000,-492.0,-309.0,-445.0,-837.0,-623.0,-323.0,0.0,0.0,0.0
19:44:35.372000,-473.0,-303.0,-443.0,-837.0,-623.0,-323.0,0.0,0.0,0.0
19:44:35.376000,-448.0,-301.0,-426.0,-850.0,-565.0,-330.0,0.0,0.0,0.0
19:44:35.381000,-418.0,-301.0,-410.0,-850.0,-565.0,-330.0,0.0,0.0,0.0
19:44:35.386000,-407.0,-298.0,-399.0,-866.0,-505.0,-338.0,0.0,0.0,0.0
19:44:35.391000,-407.0,-298.0,-399.0,-866.0,-505.0,-338.0,0.0,0.0,0.0
19:44:35.395000,-407.0,-297.0,-391.0,-902.0,-404.0,-335.0,0.0,0.0,0.0
19:44:35.400000,-413.0,-295.0,-382.0,-902.0,-404.0,-335.0,0.0,0.0,0.0
19:44:35.405000,-419.0,-290.0,-331.0,-927.0,-377.0,-326.0,0.0,0.0,0.0
19:44:35.409000,-420.0,-282.0,-256.0,-927.0,-377.0,-326.0,0.0,0.0,0.0
19:44:35.414000,-403.0,-280.0,-224.0,-935.0,-399.0,-321.0,0.0,0.0,0.0
19:44:35.419000,-401.0,-275.0,-253.0,-935.0,-399.0,-321.0,0.0,0.0,0.0
19:44:35.423000,-400.0,-268.0,-255.0,-1008.0,-357.0,-286.0,0.0,0.0,0.0
19:44:35.428000,-395.0,-252.0,-212.0,-1008.0,-357.0,-286.0,0.0,0.0,0.0
19:44:35.433000,-378.0,-240.0,-167.0,-961.0,-315.0,-257.0,0.0,0.0,0.0
19:44:35.438000,-376.0,-232.0,-131.0,-961.0,-315.0,-257.0,0.0,0.0,0.0
19:44:35.442000,-380.0,-228.0,-136.0,-932.0,-299.0,-271.0,0.0,0.0,0.0
19:44:35.447000,-380.0,-220.0,-178.0,-932.0,-299.0,-271.0,0.0,0.0,0.0
19:44:35.452000,-361.0,-217.0,-200.0,-1056.0,-321.0,-282.0,0.0,0.0,0.0
19:44:35.456000,-339.0,-215.0,-187.0,-1056.0,-321.0,-282.0,0.0,0.0,0.0
19:44:35.461000,-317.0,-211.0,-177.0,-1056.0,-321.0,-282.0,0.0,0.0,0.0
19:44:35.466000,-296.0,-211.0,-194.0,-1079.0,-336.0,-279.0,0.0,0.0,0.0
19:44:35.470000,-282.0,-207.0,-211.0,-1079.0,-336.0,-279.0,0.0,0.0,0.0
19:44:35.475000,-270.0,-201.0,-203.0,-1042.0,-309.0,-273.0,0.0,0.0,0.0
19:44:35.480000,-259.0,-195.0,-179.0,-1042.0,-309.0,-273.0,0.0,0.0,0.0
19:44:35.485000,-246.0,-184.0,-164.0,-1013.0,-308.0,-265.0,0.0,0.0,0.0
19:44:35.489000,-238.0,-168.0,-163.0,-1013.0,-308.0,-265.0,0.0,0.0,0.0
19:44:35.494000,-231.0,-143.0,-172.0,-1028.0,-300.0,-262.0,0.0,0.0,0.0
19:44:35.499000,-228.0,-114.0,-183.0,-1028.0,-300.0,-262.0,0.0,0.0,0.0
19:44:35.503000,-228.0,-114.0,-183.0,-1094.0,-258.0,-263.0,0.0,0.0,0.0
19:44:35.508000,-227.0,-83.0,-193.0,-1094.0,-258.0,-263.0,0.0,0.0,0.0
19:44:35.513000,-223.0,-52.0,-198.0,-1160.0,-251.0,-261.0,0.0,0.0,0.0
19:44:35.517000,-214.0,-21.0,-196.0,-1160.0,-251.0,-261.0,0.0,0.0,0.0
19:44:35.522000,-203.0,2.0,-198.0,-1196.0,-290.0,-263.0,0.0,0.0,0.0
19:44:35.527000,-182.0,18.0,-201.0,-1196.0,-290.0,-263.0,0.0,0.0,0.0
19:44:35.532000,-152.0,24.0,-202.0,-1175.0,-327.0,-272.0,0.0,0.0,0.0
19:44:35.536000,-116.0,29.0,-202.0,-1175.0,-327.0,-272.0,0.0,0.0,0.0
19:44:35.541000,-85.0,39.0,-193.0,-1095.0,-338.0,-274.0,0.0,0.0,0.0
19:44:35.546000,-63.0,48.0,-184.0,-1095.0,-338.0,-274.0,0.0,0.0,0.0
19:44:35.550000,-51.0,55.0,-189.0,-1049.0,-306.0,-265.0,0.0,0.0,0.0
19:44:35.555000,-39.0,59.0,-196.0,-1049.0,-306.0,-265.0,0.0,0.0,0.0
19:44:35.560000,-28.0,65.0,-203.0,-1047.0,-268.0,-259.0,0.0,0.0,0.0
19:44:35.564000,-18.0,72.0,-206.0,-1047.0,-268.0,-259.0,0.0,0.0,0.0
19:44:35.569000,-8.0,84.0,-222.0,-1063.0,-239.0,-267.0,0.0,0.0,0.0
19:44:35.574000,-11.0,97.0,-254.0,-1063.0,-239.0,-267.0,0.0,0.0,0.0
19:44:35.579000,-5.0,98.0,-280.0,-1063.0,-239.0,-267.0,0.0,0.0,0.0
19:44:35.583000,7.0,95.0,-308.0,-1129.0,-179.0,-274.0,0.0,0.0,0.0
19:44:35.588000,16.0,88.0,-313.0,-1129.0,-179.0,-274.0,0.0,0.0,0.0
19:44:35.593000,25.0,80.0,-284.0,-1153.0,-167.0,-282.0,0.0,0.0,0.0
19:44:35.597000,39.0,70.0,-257.0,-1153.0,-167.0,-282.0,0.0,0.0,0.0
19:44:35.602000,46.0,65.0,-213.0,-1111.0,-186.0,-290.0,0.0,0.0,0.0
19:44:35.607000,48.0,62.0,-175.0,-1111.0,-186.0,-290.0,0.0,0.0,0.0
19:44:35.611000,48.0,62.0,-175.0,-1101.0,-137.0,-294.0,0.0,0.0,0.0
19:44:35.616000,61.0,43.0,-186.0,-1101.0,-137.0,-294.0,0.0,0.0,0.0
19:44:35.621000,74.0,26.0,-184.0,-1104.0,-63.0,-295.0,0.0,0.0,0.0
19:44:35.626000,93.0,13.0,-148.0,-1104.0,-63.0,-295.0,0.0,0.0,0.0
19:44:35.630000,108.0,0.0,-136.0,-1149.0,-48.0,-299.0,0.0,0.0,0.0
19:44:35.635000,112.0,-7.0,-142.0,-1149.0,-48.0,-299.0,0.0,0.0,0.0
19:44:35.640000,112.0,-21.0,-79.0,-1205.0,-47.0,-303.0,0.0,0.0,0.0
19:44:35.644000,113.0,-25.0,-56.0,-1205.0,-47.0,-303.0,0.0,0.0,0.0
19:44:35.649000,112.0,-29.0,-128.0,-1214.0,11.0,-301.0,0.0,0.0,0.0
19:44:35.654000,86.0,-19.0,-139.0,-1214.0,11.0,-301.0,0.0,0.0,0.0
19:44:35.658000,19.0,-9.0,-114.0,-1219.0,51.0,-293.0,0.0,0.0,0.0
19:44:35.663000,62.0,-14.0,-136.0,-1219.0,51.0,-293.0,0.0,0.0,0.0
19:44:35.668000,-9.0,-1.0,-191.0,-1264.0,28.0,-280.0,0.0,0.0,0.0
19:44:35.673000,-10.0,5.0,-314.0,-1264.0,28.0,-280.0,0.0,0.0,0.0
19:44:35.677000,25.0,11.0,-332.0,-1264.0,28.0,-280.0,0.0,0.0,0.0
19:44:35.682000,83.0,8.0,-239.0,-1333.0,-86.0,-293.0,0.0,0.0,0.0
19:44:35.687000,64.0,31.0,-170.0,-1425.0,-53.0,-306.0,0.0,0.0,0.0
19:44:35.691000,-2.0,46.0,-179.0,-1425.0,-53.0,-306.0,0.0,0.0,0.0
19:44:35.696000,-4.0,32.0,-207.0,-1425.0,-53.0,-306.0,0.0,0.0,0.0
19:44:35.701000,9.0,44.0,-253.0,-1504.0,135.0,-293.0,0.0,0.0,0.0
19:44:35.705000,28.0,79.0,-276.0,-1504.0,135.0,-293.0,0.0,0.0,0.0
19:44:35.710000,79.0,86.0,-195.0,-1564.0,109.0,-282.0,0.0,0.0,0.0
19:44:35.715000,98.0,77.0,-156.0,-1564.0,109.0,-282.0,0.0,0.0,0.0
19:44:35.720000,98.0,77.0,-156.0,-1568.0,25.0,-264.0,0.0,0.0,0.0
19:44:35.724000,52.0,80.0,-422.0,-1568.0,25.0,-264.0,0.0,0.0,0.0
19:44:35.729000,84.0,130.0,-602.0,-1501.0,-28.0,-268.0,0.0,0.0,0.0
19:44:35.734000,65.0,109.0,-682.0,-1501.0,-28.0,-268.0,0.0,0.0,0.0
19:44:35.738000,6.0,81.0,-740.0,-1372.0,-62.0,-245.0,0.0,0.0,0.0
19:44:35.743000,-65.0,91.0,-612.0,-1372.0,-62.0,-245.0,0.0,0.0,0.0
19:44:35.748000,-149.0,109.0,-609.0,-1216.0,-53.0,-213.0,0.0,0.0,0.0
19:44:35.752000,-38.0,81.0,-659.0,-1216.0,-53.0,-213.0,0.0,0.0,0.0
19:44:35.757000,-54.0,88.0,-688.0,-1217.0,-161.0,-218.0,0.0,0.0,0.0
19:44:35.762000,-135.0,46.0,-549.0,-1217.0,-161.0,-218.0,0.0,0.0,0.0
19:44:35.767000,-204.0,58.0,-567.0,-1210.0,-276.0,-226.0,0.0,0.0,0.0
19:44:35.771000,-176.0,37.0,-590.0,-1210.0,-276.0,-226.0,0.0,0.0,0.0
19:44:35.776000,-180.0,-30.0,-543.0,-945.0,-484.0,-174.0,0.0,0.0,0.0
19:44:35.781000,-133.0,-28.0,-277.0,-945.0,-484.0,-174.0,0.0,0.0,0.0
19:44:35.785000,-193.0,-17.0,-271.0,-945.0,-484.0,-174.0,0.0,0.0,0.0
19:44:35.790000,-193.0,-4.0,-185.0,-748.0,-685.0,-106.0,0.0,0.0,0.0
19:44:35.795000,-194.0,-31.0,135.0,-748.0,-685.0,-106.0,0.0,0.0,0.0
19:44:35.799000,-214.0,-48.0,314.0,-683.0,-921.0,-105.0,0.0,0.0,0.0
19:44:35.804000,-142.0,-66.0,492.0,-592.0,-1192.0,-104.0,0.0,0.0,0.0
19:44:35.809000,-154.0,-60.0,553.0,-592.0,-1192.0,-104.0,0.0,0.0,0.0
19:44:35.814000,-175.0,-102.0,309.0,-592.0,-1192.0,-104.0,0.0,0.0,0.0
19:44:35.818000,-104.0,-116.0,74.0,-511.0,-1145.0,-61.0,0.0,0.0,0.0
19:44:35.823000,-12.0,-80.0,-77.0,-511.0,-1145.0,-61.0,0.0,0.0,0.0
19:44:35.828000,-12.0,-80.0,-77.0,-371.0,-986.0,-71.0,0.0,0.0,0.0
19:44:35.832000,-32.0,-82.0,-322.0,-371.0,-986.0,-71.0,0.0,0.0,0.0
19:44:35.837000,-21.0,-130.0,-443.0,-379.0,-848.0,-111.0,0.0,0.0,0.0
19:44:35.842000,-16.0,-88.0,-366.0,-379.0,-848.0,-111.0,0.0,0.0,0.0
19:44:35.846000,-74.0,-144.0,-453.0,-572.0,-805.0,-90.0,0.0,0.0,0.0
19:44:35.851000,-72.0,-172.0,-642.0,-572.0,-805.0,-90.0,0.0,0.0,0.0
19:44:35.856000,-36.0,-175.0,-747.0,-573.0,-727.0,-78.0,0.0,0.0,0.0
19:44:35.861000,-96.0,-165.0,-797.0,-573.0,-727.0,-78.0,0.0,0.0,0.0
19:44:35.865000,-66.0,-183.0,-942.0,-574.0,-524.0,-98.0,0.0,0.0,0.0
19:44:35.870000,-20.0,-210.0,-987.0,-574.0,-524.0,-98.0,0.0,0.0,0.0
19:44:35.875000,13.0,-240.0,-678.0,-709.0,-617.0,-115.0,0.0,0.0,0.0
19:44:35.879000,-20.0,-302.0,-525.0,-709.0,-617.0,-115.0,0.0,0.0,0.0
19:44:35.884000,-98.0,-340.0,-458.0,-652.0,-618.0,-104.0,0.0,0.0,0.0
19:44:35.889000,-156.0,-357.0,-268.0,-652.0,-618.0,-104.0,0.0,0.0,0.0
19:44:35.893000,-163.0,-425.0,-108.0,-652.0,-618.0,-104.0,0.0,0.0,0.0
19:44:35.898000,-107.0,-462.0,-121.0,-549.0,-446.0,-78.0,0.0,0.0,0.0
19:44:35.903000,-126.0,-466.0,-191.0,-549.0,-446.0,-78.0,0.0,0.0,0.0
19:44:35.908000,-114.0,-457.0,-164.0,-683.0,-463.0,-61.0,0.0,0.0,0.0
19:44:35.912000,-146.0,-479.0,-128.0,-683.0,-463.0,-61.0,0.0,0.0,0.0
19:44:35.917000,-217.0,-416.0,-218.0,-896.0,-525.0,-41.0,0.0,0.0,0.0
19:44:35.922000,-214.0,-391.0,-239.0,-896.0,-525.0,-41.0,0.0,0.0,0.0
19:44:35.926000,-253.0,-389.0,-186.0,-849.0,-508.0,9.0,0.0,0.0,0.0
19:44:35.931000,-319.0,-361.0,-318.0,-849.0,-508.0,9.0,0.0,0.0,0.0
19:44:35.936000,-315.0,-336.0,-295.0,-704.0,-486.0,63.0,0.0,0.0,0.0
19:44:35.940000,-315.0,-336.0,-295.0,-704.0,-486.0,63.0,0.0,0.0,0.0
19:44:35.945000,-268.0,-330.0,-170.0,-676.0,-617.0,55.0,0.0,0.0,0.0
19:44:35.950000,-216.0,-291.0,69.0,-676.0,-617.0,55.0,0.0,0.0,0.0
19:44:35.955000,-169.0,-295.0,186.0,-801.0,-758.0,16.0,0.0,0.0,0.0
19:44:35.959000,-139.0,-291.0,126.0,-801.0,-758.0,16.0,0.0,0.0,0.0
19:44:35.964000,-149.0,-304.0,124.0,-914.0,-684.0,12.0,0.0,0.0,0.0
19:44:35.969000,-179.0,-318.0,84.0,-914.0,-684.0,12.0,0.0,0.0,0.0
19:44:35.973000,-266.0,-284.0,-46.0,-906.0,-536.0,32.0,0.0,0.0,0.0
19:44:35.978000,-291.0,-273.0,-220.0,-906.0,-536.0,32.0,0.0,0.0,0.0
19:44:35.983000,-244.0,-276.0,-356.0,-760.0,-559.0,48.0,0.0,0.0,0.0
19:44:35.987000,-216.0,-262.0,-311.0,-760.0,-559.0,48.0,0.0,0.0,0.0
19:44:35.992000,-231.0,-239.0,-298.0,-667.0,-607.0,45.0,0.0,0.0,0.0
19:44:35.997000,-249.0,-217.0,-233.0,-667.0,-607.0,45.0,0.0,0.0,0.0
19:44:36.002000,-235.0,-215.0,-189.0,-667.0,-607.0,45.0,0.0,0.0,0.0
19:44:36.006000,-205.0,-233.0,-290.0,-882.0,-635.0,26.0,0.0,0.0,0.0
19:44:36.011000,-119.0,-198.0,-248.0,-882.0,-635.0,26.0,0.0,0.0,0.0
19:44:36.016000,-23.0,-182.0,-164.0,-980.0,-721.0,-5.0,0.0,0.0,0.0
19:44:36.020000,23.0,-214.0,-169.0,-980.0,-721.0,-5.0,0.0,0.0,0.0
19:44:36.025000,-32.0,-199.0,-241.0,-993.0,-746.0,-2.0,0.0,0.0,0.0
19:44:36.030000,-21.0,-195.0,-277.0,-993.0,-746.0,-2.0,0.0,0.0,0.0
19:44:36.034000,-46.0,-183.0,-176.0,-952.0,-639.0,4.0,0.0,0.0,0.0
19:44:36.039000,-25.0,-193.0,-77.0,-952.0,-639.0,4.0,0.0,0.0,0.0
19:44:36.044000,7.0,-226.0,-47.0,-782.0,-615.0,-7.0,0.0,0.0,0.0
19:44:36.049000,7.0,-226.0,-47.0,-782.0,-615.0,-7.0,0.0,0.0,0.0
19:44:36.053000,16.0,-232.0,-70.0,-753.0,-625.0,5.0,0.0,0.0,0.0
19:44:36.058000,7.0,-213.0,-66.0,-753.0,-625.0,5.0,0.0,0.0,0.0
19:44:36.063000,4.0,-214.0,-65.0,-804.0,-605.0,14.0,0.0,0.0,0.0
19:44:36.067000,6.0,-197.0,-176.0,-804.0,-605.0,14.0,0.0,0.0,0.0
19:44:36.072000,4.0,-168.0,-320.0,-838.0,-599.0,20.0,0.0,0.0,0.0
19:44:36.077000,14.0,-142.0,-417.0,-838.0,-599.0,20.0,0.0,0.0,0.0
19:44:36.081000,37.0,-133.0,-399.0,-872.0,-645.0,31.0,0.0,0.0,0.0
19:44:36.086000,39.0,-99.0,-293.0,-872.0,-645.0,31.0,0.0,0.0,0.0
19:44:36.091000,60.0,-88.0,-189.0,-920.0,-699.0,45.0,0.0,0.0,0.0
19:44:36.096000,70.0,-74.0,-188.0,-920.0,-699.0,45.0,0.0,0.0,0.0
19:44:36.100000,103.0,-77.0,-259.0,-911.0,-635.0,49.0,0.0,0.0,0.0
19:44:36.104000,139.0,-59.0,-261.0,-911.0,-635.0,49.0,0.0,0.0,0.0
19:44:36.110000,147.0,-53.0,-149.0,-911.0,-635.0,49.0,0.0,0.0,0.0
19:44:36.114000,93.0,-27.0,-152.0,-874.0,-504.0,48.0,0.0,0.0,0.0
19:44:36.119000,155.0,-46.0,-260.0,-874.0,-504.0,48.0,0.0,0.0,0.0
19:44:36.124000,214.0,-50.0,-340.0,-881.0,-468.0,40.0,0.0,0.0,0.0
19:44:36.128000,228.0,-60.0,-291.0,-881.0,-468.0,40.0,0.0,0.0,0.0
19:44:36.133000,198.0,-62.0,-265.0,-888.0,-621.0,35.0,0.0,0.0,0.0
19:44:36.138000,200.0,-51.0,-238.0,-888.0,-621.0,35.0,0.0,0.0,0.0
19:44:36.143000,220.0,-37.0,-88.0,-828.0,-643.0,35.0,0.0,0.0,0.0
19:44:36.147000,233.0,-32.0,-30.0,-828.0,-643.0,35.0,0.0,0.0,0.0
19:44:36.152000,198.0,-24.0,-133.0,-866.0,-477.0,42.0,0.0,0.0,0.0
19:44:36.157000,198.0,-24.0,-133.0,-866.0,-477.0,42.0,0.0,0.0,0.0
19:44:36.161000,177.0,-2.0,-141.0,-940.0,-481.0,52.0,0.0,0.0,0.0
19:44:36.166000,177.0,8.0,-97.0,-940.0,-481.0,52.0,0.0,0.0,0.0
19:44:36.171000,164.0,27.0,-148.0,-911.0,-476.0,58.0,0.0,0.0,0.0
19:44:36.175000,146.0,38.0,-200.0,-911.0,-476.0,58.0,0.0,0.0,0.0
19:44:36.180000,128.0,53.0,-154.0,-851.0,-426.0,60.0,0.0,0.0,0.0
19:44:36.185000,119.0,63.0,-107.0,-851.0,-426.0,60.0,0.0,0.0,0.0
19:44:36.190000,128.0,59.0,-178.0,-911.0,-423.0,50.0,0.0,0.0,0.0
19:44:36.194000,112.0,71.0,-293.0,-911.0,-423.0,50.0,0.0,0.0,0.0
19:44:36.199000,142.0,91.0,-196.0,-944.0,-467.0,38.0,0.0,0.0,0.0
19:44:36.204000,178.0,89.0,-63.0,-944.0,-467.0,38.0,0.0,0.0,0.0
19:44:36.208000,230.0,87.0,-115.0,-897.0,-553.0,35.0,0.0,0.0,0.0
19:44:36.213000,280.0,77.0,-315.0,-897.0,-553.0,35.0,0.0,0.0,0.0
19:44:36.218000,280.0,91.0,-399.0,-911.0,-602.0,41.0,0.0,0.0,0.0
19:44:36.222000,267.0,103.0,-263.0,-911.0,-602.0,41.0,0.0,0.0,0.0
19:44:36.227000,227.0,105.0,-205.0,-911.0,-602.0,41.0,0.0,0.0,0.0
19:44:36.232000,163.0,118.0,-233.0,-876.0,-504.0,47.0,0.0,0.0,0.0
19:44:36.236000,158.0,102.0,-208.0,-876.0,-504.0,47.0,0.0,0.0,0.0
19:44:36.241000,166.0,102.0,-239.0,-867.0,-407.0,34.0,0.0,0.0,0.0
19:44:36.246000,180.0,117.0,-292.0,-867.0,-407.0,34.0,0.0,0.0,0.0
19:44:36.251000,185.0,116.0,-184.0,-904.0,-502.0,0.0,0.0,0.0,0.0
19:44:36.255000,185.0,116.0,-184.0,-904.0,-502.0,0.0,0.0,0.0,0.0
19:44:36.260000,217.0,128.0,-116.0,-920.0,-491.0,-17.0,0.0,0.0,0.0
19:44:36.265000,221.0,114.0,-361.0,-920.0,-491.0,-17.0,0.0,0.0,0.0
19:44:36.269000,221.0,114.0,-361.0,-978.0,-418.0,-5.0,0.0,0.0,0.0
19:44:36.274000,200.0,135.0,-373.0,-978.0,-418.0,-5.0,0.0,0.0,0.0
19:44:36.278000,203.0,158.0,-277.0,-983.0,-441.0,7.0,0.0,0.0,0.0
19:44:36.283000,201.0,170.0,-322.0,-983.0,-441.0,7.0,0.0,0.0,0.0
19:44:36.288000,213.0,161.0,-403.0,-902.0,-466.0,12.0,0.0,0.0,0.0
19:44:36.293000,219.0,149.0,-353.0,-902.0,-466.0,12.0,0.0,0.0,0.0
19:44:36.298000,189.0,149.0,-234.0,-920.0,-478.0,21.0,0.0,0.0,0.0
19:44:36.302000,152.0,168.0,-215.0,-920.0,-478.0,21.0,0.0,0.0,0.0
19:44:36.307000,132.0,180.0,-291.0,-972.0,-435.0,24.0,0.0,0.0,0.0
19:44:36.312000,139.0,170.0,-304.0,-972.0,-435.0,24.0,0.0,0.0,0.0
19:44:36.316000,149.0,175.0,-275.0,-990.0,-403.0,11.0,0.0,0.0,0.0
19:44:36.321000,161.0,187.0,-291.0,-990.0,-403.0,11.0,0.0,0.0,0.0
19:44:36.326000,161.0,211.0,-341.0,-1015.0,-412.0,-11.0,0.0,0.0,0.0
19:44:36.330000,164.0,236.0,-375.0,-1015.0,-412.0,-11.0,0.0,0.0,0.0
19:44:36.335000,163.0,247.0,-360.0,-1015.0,-412.0,-11.0,0.0,0.0,0.0
19:44:36.340000,144.0,253.0,-362.0,-1025.0,-427.0,8.0,0.0,0.0,0.0
19:44:36.345000,135.0,254.0,-378.0,-1025.0,-427.0,8.0,0.0,0.0,0.0
19:44:36.349000,134.0,249.0,-403.0,-1006.0,-443.0,50.0,0.0,0.0,0.0
19:44:36.354000,133.0,242.0,-420.0,-1006.0,-443.0,50.0,0.0,0.0,0.0
19:44:36.359000,123.0,235.0,-418.0,-976.0,-424.0,70.0,0.0,0.0,0.0
19:44:36.363000,123.0,238.0,-385.0,-976.0,-424.0,70.0,0.0,0.0,0.0
19:44:36.368000,103.0,230.0,-347.0,-1001.0,-441.0,87.0,0.0,0.0,0.0
19:44:36.373000,93.0,237.0,-289.0,-1001.0,-441.0,87.0,0.0,0.0,0.0
19:44:36.377000,93.0,237.0,-289.0,-1013.0,-452.0,96.0,0.0,0.0,0.0
19:44:36.382000,116.0,248.0,-302.0,-1013.0,-452.0,96.0,0.0,0.0,0.0
19:44:36.387000,113.0,290.0,-399.0,-827.0,-390.0,89.0,0.0,0.0,0.0
19:44:36.392000,102.0,334.0,-514.0,-827.0,-390.0,89.0,0.0,0.0,0.0
19:44:36.396000,53.0,356.0,-599.0,-470.0,-186.0,64.0,0.0,0.0,0.0
19:44:36.401000,60.0,392.0,-730.0,-470.0,-186.0,64.0,0.0,0.0,0.0
19:44:36.406000,-4.0,402.0,-676.0,-590.0,-214.0,49.0,0.0,0.0,0.0
19:44:36.410000,-47.0,436.0,-465.0,-590.0,-214.0,49.0,0.0,0.0,0.0
19:44:36.415000,-28.0,456.0,-410.0,-844.0,-437.0,0.0,0.0,0.0,0.0
19:44:36.420000,1.0,472.0,-504.0,-844.0,-437.0,0.0,0.0,0.0,0.0
19:44:36.424000,55.0,467.0,-515.0,-818.0,-530.0,-107.0,0.0,0.0,0.0
19:44:36.429000,101.0,449.0,-501.0,-818.0,-530.0,-107.0,0.0,0.0,0.0
19:44:36.434000,122.0,451.0,-786.0,-861.0,-512.0,-192.0,0.0,0.0,0.0
19:44:36.439000,122.0,416.0,-893.0,-861.0,-512.0,-192.0,0.0,0.0,0.0
19:44:36.443000,60.0,361.0,-802.0,-861.0,-512.0,-192.0,0.0,0.0,0.0
19:44:36.448000,-86.0,294.0,-344.0,-1091.0,-398.0,-158.0,0.0,0.0,0.0
19:44:36.453000,-32.0,241.0,-39.0,-1091.0,-398.0,-158.0,0.0,0.0,0.0
19:44:36.457000,41.0,245.0,-301.0,-1103.0,-281.0,-156.0,0.0,0.0,0.0
19:44:36.462000,139.0,230.0,-668.0,-1103.0,-281.0,-156.0,0.0,0.0,0.0
19:44:36.467000,197.0,224.0,-868.0,-606.0,-296.0,-245.0,0.0,0.0,0.0
19:44:36.471000,212.0,194.0,-999.0,-606.0,-296.0,-245.0,0.0,0.0,0.0
19:44:36.476000,59.0,123.0,-813.0,-712.0,-388.0,-254.0,0.0,0.0,0.0
19:44:36.481000,0.0,28.0,-271.0,-712.0,-388.0,-254.0,0.0,0.0,0.0
19:44:36.486000,0.0,28.0,-271.0,-1188.0,-357.0,-202.0,0.0,0.0,0.0
19:44:36.490000,90.0,-18.0,-30.0,-1188.0,-357.0,-202.0,0.0,0.0,0.0
19:44:36.495000,132.0,2.0,-256.0,-1054.0,-277.0,-180.0,0.0,0.0,0.0
19:44:36.500000,184.0,-18.0,-460.0,-1054.0,-277.0,-180.0,0.0,0.0,0.0
19:44:36.504000,184.0,-22.0,-482.0,-822.0,-200.0,-153.0,0.0,0.0,0.0
19:44:36.509000,172.0,-29.0,-329.0,-822.0,-200.0,-153.0,0.0,0.0,0.0
19:44:36.514000,153.0,-33.0,-259.0,-809.0,-170.0,-117.0,0.0,0.0,0.0
19:44:36.518000,168.0,-32.0,-380.0,-809.0,-170.0,-117.0,0.0,0.0,0.0
19:44:36.523000,143.0,-19.0,-511.0,-908.0,-188.0,-119.0,0.0,0.0,0.0
19:44:36.528000,112.0,-15.0,-490.0,-908.0,-188.0,-119.0,0.0,0.0,0.0
19:44:36.533000,92.0,-2.0,-364.0,-1075.0,-248.0,-133.0,0.0,0.0,0.0
19:44:36.537000,89.0,4.0,-294.0,-1075.0,-248.0,-133.0,0.0,0.0,0.0
19:44:36.542000,65.0,18.0,-294.0,-1148.0,-287.0,-138.0,0.0,0.0,0.0
19:44:36.547000,62.0,39.0,-326.0,-1148.0,-287.0,-138.0,0.0,0.0,0.0
19:44:36.551000,62.0,61.0,-364.0,-1148.0,-287.0,-138.0,0.0,0.0,0.0
19:44:36.556000,59.0,70.0,-420.0,-1046.0,-257.0,-129.0,0.0,0.0,0.0
19:44:36.561000,30.0,94.0,-492.0,-1046.0,-257.0,-129.0,0.0,0.0,0.0
19:44:36.565000,11.0,98.0,-424.0,-913.0,-226.0,-129.0,0.0,0.0,0.0
19:44:36.570000,12.0,84.0,-396.0,-913.0,-226.0,-129.0,0.0,0.0,0.0
19:44:36.575000,32.0,88.0,-506.0,-888.0,-193.0,-133.0,0.0,0.0,0.0
19:44:36.580000,56.0,80.0,-596.0,-888.0,-193.0,-133.0,0.0,0.0,0.0
19:44:36.584000,46.0,96.0,-580.0,-877.0,-193.0,-140.0,0.0,0.0,0.0
19:44:36.589000,46.0,90.0,-441.0,-877.0,-193.0,-140.0,0.0,0.0,0.0
19:44:36.594000,46.0,90.0,-441.0,-945.0,-276.0,-147.0,0.0,0.0,0.0
19:44:36.598000,63.0,74.0,-293.0,-945.0,-276.0,-147.0,0.0,0.0,0.0
19:44:36.603000,82.0,74.0,-345.0,-1035.0,-276.0,-161.0,0.0,0.0,0.0
19:44:36.608000,122.0,67.0,-497.0,-1035.0,-276.0,-161.0,0.0,0.0,0.0
19:44:36.612000,125.0,67.0,-538.0,-975.0,-173.0,-164.0,0.0,0.0,0.0
19:44:36.617000,125.0,67.0,-488.0,-975.0,-173.0,-164.0,0.0,0.0,0.0
19:44:36.622000,108.0,65.0,-451.0,-949.0,-108.0,-150.0,0.0,0.0,0.0
19:44:36.627000,105.0,71.0,-447.0,-949.0,-108.0,-150.0,0.0,0.0,0.0
19:44:36.631000,90.0,81.0,-466.0,-1002.0,-97.0,-146.0,0.0,0.0,0.0
19:44:36.636000,68.0,90.0,-436.0,-1002.0,-97.0,-146.0,0.0,0.0,0.0
19:44:36.641000,70.0,98.0,-445.0,-1049.0,-104.0,-150.0,0.0,0.0,0.0
19:44:36.645000,58.0,110.0,-474.0,-1049.0,-104.0,-150.0,0.0,0.0,0.0
19:44:36.650000,47.0,125.0,-476.0,-1083.0,-100.0,-147.0,0.0,0.0,0.0
19:44:36.655000,31.0,133.0,-450.0,-1083.0,-100.0,-147.0,0.0,0.0,0.0
19:44:36.659000,16.0,146.0,-434.0,-1083.0,-100.0,-147.0,0.0,0.0,0.0
19:44:36.664000,5.0,154.0,-427.0,-1080.0,-130.0,-133.0,0.0,0.0,0.0
19:44:36.669000,23.0,158.0,-469.0,-1080.0,-130.0,-133.0,0.0,0.0,0.0
19:44:36.674000,25.0,164.0,-528.0,-1053.0,-145.0,-126.0,0.0,0.0,0.0
19:44:36.678000,37.0,172.0,-601.0,-1053.0,-145.0,-126.0,0.0,0.0,0.0
19:44:36.683000,39.0,176.0,-660.0,-978.0,-140.0,-125.0,0.0,0.0,0.0
19:44:36.688000,25.0,173.0,-570.0,-978.0,-140.0,-125.0,0.0,0.0,0.0
19:44:36.692000,23.0,171.0,-513.0,-965.0,-129.0,-117.0,0.0,0.0,0.0
19:44:36.697000,39.0,168.0,-533.0,-965.0,-129.0,-117.0,0.0,0.0,0.0
19:44:36.702000,60.0,156.0,-581.0,-1017.0,-104.0,-122.0,0.0,0.0,0.0
19:44:36.706000,60.0,156.0,-581.0,-1017.0,-104.0,-122.0,0.0,0.0,0.0
19:44:36.711000,65.0,158.0,-590.0,-1026.0,-76.0,-138.0,0.0,0.0,0.0
19:44:36.716000,51.0,160.0,-556.0,-1026.0,-76.0,-138.0,0.0,0.0,0.0
19:44:36.721000,52.0,170.0,-556.0,-1051.0,-47.0,-146.0,0.0,0.0,0.0
19:44:36.725000,51.0,163.0,-603.0,-1051.0,-47.0,-146.0,0.0,0.0,0.0
19:44:36.730000,36.0,162.0,-599.0,-1062.0,15.0,-154.0,0.0,0.0,0.0
19:44:36.735000,39.0,168.0,-612.0,-1062.0,15.0,-154.0,0.0,0.0,0.0
19:44:36.739000,28.0,166.0,-610.0,-1038.0,60.0,-162.0,0.0,0.0,0.0
19:44:36.744000,18.0,172.0,-595.0,-1038.0,60.0,-162.0,0.0,0.0,0.0
19:44:36.748000,15.0,178.0,-615.0,-1060.0,39.0,-176.0,0.0,0.0,0.0
19:44:36.753000,9.0,186.0,-633.0,-1060.0,39.0,-176.0,0.0,0.0,0.0
19:44:36.758000,0.0,195.0,-599.0,-1093.0,14.0,-183.0,0.0,0.0,0.0
19:44:36.763000,-9.0,189.0,-549.0,-1093.0,14.0,-183.0,0.0,0.0,0.0
19:44:36.768000,6.0,193.0,-525.0,-1093.0,14.0,-183.0,0.0,0.0,0.0
19:44:36.772000,29.0,189.0,-580.0,-1097.0,-24.0,-193.0,0.0,0.0,0.0
19:44:36.777000,59.0,182.0,-621.0,-1097.0,-24.0,-193.0,0.0,0.0,0.0
19:44:36.782000,60.0,181.0,-617.0,-1083.0,-30.0,-211.0,0.0,0.0,0.0
19:44:36.786000,68.0,177.0,-587.0,-1083.0,-30.0,-211.0,0.0,0.0,0.0
19:44:36.791000,82.0,163.0,-574.0,-1044.0,14.0,-217.0,0.0,0.0,0.0
19:44:36.796000,95.0,149.0,-578.0,-1044.0,14.0,-217.0,0.0,0.0,0.0
19:44:36.800000,88.0,142.0,-582.0,-1009.0,32.0,-215.0,0.0,0.0,0.0
19:44:36.805000,88.0,136.0,-585.0,-1009.0,32.0,-215.0,0.0,0.0,0.0
19:44:36.810000,114.0,126.0,-577.0,-1002.0,19.0,-222.0,0.0,0.0,0.0
19:44:36.815000,114.0,126.0,-577.0,-1002.0,19.0,-222.0,0.0,0.0,0.0
19:44:36.819000,121.0,114.0,-588.0,-991.0,41.0,-230.0,0.0,0.0,0.0
19:44:36.824000,123.0,102.0,-585.0,-991.0,41.0,-230.0,0.0,0.0,0.0
19:44:36.829000,126.0,91.0,-578.0,-981.0,93.0,-232.0,0.0,0.0,0.0
19:44:36.833000,130.0,82.0,-574.0,-981.0,93.0,-232.0,0.0,0.0,0.0
19:44:36.838000,118.0,80.0,-564.0,-1001.0,105.0,-236.0,0.0,0.0,0.0
19:44:36.843000,122.0,73.0,-525.0,-1001.0,105.0,-236.0,0.0,0.0,0.0
19:44:36.847000,135.0,58.0,-492.0,-1055.0,100.0,-237.0,0.0,0.0,0.0
19:44:36.852000,135.0,46.0,-494.0,-1055.0,100.0,-237.0,0.0,0.0,0.0
19:44:36.857000,150.0,31.0,-515.0,-1092.0,113.0,-237.0,0.0,0.0,0.0
19:44:36.862000,162.0,16.0,-508.0,-1092.0,113.0,-237.0,0.0,0.0,0.0
19:44:36.866000,172.0,5.0,-469.0,-1069.0,118.0,-241.0,0.0,0.0,0.0
19:44:36.871000,174.0,2.0,-428.0,-1069.0,118.0,-241.0,0.0,0.0,0.0
19:44:36.876000,173.0,-1.0,-418.0,-1069.0,118.0,-241.0,0.0,0.0,0.0
19:44:36.880000,167.0,-3.0,-415.0,-1060.0,159.0,-243.0,0.0,0.0,0.0
19:44:36.885000,144.0,0.0,-403.0,-1060.0,159.0,-243.0,0.0,0.0,0.0
19:44:36.890000,124.0,1.0,-376.0,-1072.0,229.0,-236.0,0.0,0.0,0.0
19:44:36.894000,98.0,4.0,-356.0,-1072.0,229.0,-236.0,0.0,0.0,0.0
