hh:mm:ss.ms,gyroX[mdps],gyroY[mdps],gyroZ[mdps],accX[mg],accY[mg],accZ[mg],magX[mG],magY[mG],magZ[mG]
19:43:49.578000,-469.0,-71.0,-293.0,-1243.0,-427.0,79.0,0.0,0.0,0.0
19:43:49.583000,-469.0,-71.0,-293.0,-1243.0,-427.0,79.0,0.0,0.0,0.0
19:43:49.587000,-457.0,-54.0,-343.0,-1223.0,-396.0,59.0,0.0,0.0,0.0
19:43:49.592000,-445.0,-44.0,-377.0,-1223.0,-396.0,59.0,0.0,0.0,0.0
19:43:49.597000,-462.0,-25.0,-399.0,-1189.0,-319.0,29.0,0.0,0.0,0.0
19:43:49.601000,-460.0,-9.0,-417.0,-1189.0,-319.0,29.0,0.0,0.0,0.0
19:43:49.606000,-483.0,16.0,-429.0,-1189.0,-228.0,0.0,0.0,0.0,0.0
19:43:49.611000,-513.0,42.0,-436.0,-1189.0,-228.0,0.0,0.0,0.0,0.0
19:43:49.615000,-558.0,71.0,-435.0,-1267.0,-174.0,-24.0,0.0,0.0,0.0
19:43:49.620000,-597.0,105.0,-435.0,-1267.0,-174.0,-24.0,0.0,0.0,0.0
19:43:49.625000,-641.0,137.0,-434.0,-1331.0,-171.0,-43.0,0.0,0.0,0.0
19:43:49.630000,-681.0,170.0,-436.0,-1331.0,-171.0,-43.0,0.0,0.0,0.0
19:43:49.634000,-704.0,207.0,-450.0,-1264.0,-168.0,-63.0,0.0,0.0,0.0
19:43:49.639000,-725.0,233.0,-476.0,-1264.0,-168.0,-63.0,0.0,0.0,0.0
19:43:49.644000,-746.0,263.0,-519.0,-1264.0,-168.0,-63.0,0.0,0.0,0.0
19:43:49.648000,-751.0,289.0,-581.0,-1159.0,-151.0,-77.0,0.0,0.0,0.0
19:43:49.653000,-760.0,301.0,-625.0,-1159.0,-151.0,-77.0,0.0,0.0,0.0
19:43:49.658000,-744.0,306.0,-655.0,-1123.0,-169.0,-82.0,0.0,0.0,0.0
19:43:49.662000,-733.0,312.0,-697.0,-1123.0,-169.0,-82.0,0.0,0.0,0.0
19:43:49.667000,-730.0,303.0,-735.0,-1093.0,-156.0,-87.0,0.0,0.0,0.0
19:43:49.672000,-719.0,294.0,-735.0,-1093.0,-156.0,-87.0,0.0,0.0,0.0
19:43:49.677000,-717.0,279.0,-716.0,-1029.0,-96.0,-100.0,0.0,0.0,0.0
19:43:49.681000,-709.0,259.0,-718.0,-1029.0,-96.0,-100.0,0.0,0.0,0.0
19:43:49.686000,-708.0,239.0,-718.0,-990.0,-56.0,-111.0,0.0,0.0,0.0
19:43:49.691000,-708.0,239.0,-718.0,-990.0,-56.0,-111.0,0.0,0.0,0.0
19:43:49.695000,-713.0,223.0,-695.0,-1015.0,-39.0,-116.0,0.0,0.0,0.0
19:43:49.700000,-701.0,210.0,-660.0,-1015.0,-39.0,-116.0,0.0,0.0,0.0
19:43:49.705000,-700.0,201.0,-637.0,-1071.0,-35.0,-120.0,0.0,0.0,0.0
19:43:49.709000,-704.0,184.0,-638.0,-1071.0,-35.0,-120.0,0.0,0.0,0.0
19:43:49.714000,-702.0,167.0,-632.0,-1133.0,-18.0,-117.0,0.0,0.0,0.0
19:43:49.719000,-698.0,150.0,-603.0,-1133.0,-18.0,-117.0,0.0,0.0,0.0
19:43:49.723000,-680.0,134.0,-590.0,-1137.0,-17.0,-112.0,0.0,0.0,0.0
19:43:49.728000,-672.0,128.0,-616.0,-1137.0,-17.0,-112.0,0.0,0.0,0.0
19:43:49.733000,-644.0,149.0,-690.0,-955.0,-5.0,-188.0,0.0,0.0,0.0
19:43:49.738000,-576.0,160.0,-729.0,-955.0,-5.0,-188.0,0.0,0.0,0.0
19:43:49.742000,-616.0,105.0,-632.0,-989.0,-25.0,-180.0,0.0,0.0,0.0
19:43:49.747000,-561.0,107.0,-540.0,-989.0,-25.0,-180.0,0.0,0.0,0.0
19:43:49.752000,-559.0,79.0,-588.0,-989.0,-30.0,-130.0,0.0,0.0,0.0
19:43:49.756000,-541.0,65.0,-628.0,-1024.0,-30.0,-130.0,0.0,0.0,0.0
19:43:49.761000,-541.0,42.0,-639.0,-1024.0,-30.0,-130.0,0.0,0.0,0.0
19:43:49.766000,-557.0,18.0,-646.0,-873.0,102.0,-170.0,0.0,0.0,0.0
19:43:49.770000,-578.0,0.0,-647.0,-873.0,102.0,-170.0,0.0,0.0,0.0
19:43:49.775000,-595.0,-16.0,-666.0,-981.0,215.0,-174.0,0.0,0.0,0.0
19:43:49.780000,-603.0,-37.0,-689.0,-981.0,215.0,-174.0,0.0,0.0,0.0
19:43:49.785000,-629.0,-51.0,-709.0,-1084.0,241.0,-168.0,0.0,0.0,0.0
19:43:49.789000,-658.0,-66.0,-706.0,-1084.0,241.0,-168.0,0.0,0.0,0.0
19:43:49.794000,-688.0,-86.0,-685.0,-1048.0,257.0,-150.0,0.0,0.0,0.0
19:43:49.799000,-688.0,-86.0,-685.0,-1048.0,257.0,-150.0,0.0,0.0,0.0
19:43:49.803000,-713.0,-103.0,-675.0,-1023.0,266.0,-118.0,0.0,0.0,0.0
19:43:49.808000,-728.0,-127.0,-657.0,-1023.0,266.0,-118.0,0.0,0.0,0.0
19:43:49.813000,-727.0,-149.0,-627.0,-1037.0,215.0,-86.0,0.0,0.0,0.0
19:43:49.817000,-729.0,-173.0,-618.0,-1037.0,215.0,-86.0,0.0,0.0,0.0
19:43:49.822000,-720.0,-196.0,-645.0,-1021.0,140.0,-61.0,0.0,0.0,0.0
19:43:49.827000,-700.0,-212.0,-671.0,-1021.0,140.0,-61.0,0.0,0.0,0.0
19:43:49.832000,-688.0,-221.0,-657.0,-967.0,115.0,-38.0,0.0,0.0,0.0
19:43:49.836000,-679.0,-228.0,-645.0,-967.0,115.0,-38.0,0.0,0.0,0.0
19:43:49.841000,-672.0,-231.0,-669.0,-972.0,135.0,-18.0,0.0,0.0,0.0
19:43:49.846000,-673.0,-232.0,-707.0,-972.0,135.0,-18.0,0.0,0.0,0.0
19:43:49.850000,-674.0,-224.0,-742.0,-1001.0,178.0,-7.0,0.0,0.0,0.0
19:43:49.855000,-677.0,-205.0,-772.0,-1001.0,178.0,-7.0,0.0,0.0,0.0
19:43:49.860000,-694.0,-175.0,-793.0,-1018.0,239.0,-10.0,0.0,0.0,0.0
19:43:49.864000,-710.0,-136.0,-813.0,-1018.0,239.0,-10.0,0.0,0.0,0.0
19:43:49.869000,-731.0,-92.0,-845.0,-1018.0,239.0,-10.0,0.0,0.0,0.0
19:43:49.874000,-757.0,-47.0,-883.0,-1083.0,315.0,-26.0,0.0,0.0,0.0
19:43:49.879000,-777.0,-1.0,-896.0,-1083.0,315.0,-26.0,0.0,0.0,0.0
19:43:49.883000,-793.0,38.0,-881.0,-1121.0,365.0,-50.0,0.0,0.0,0.0
19:43:49.888000,-809.0,77.0,-849.0,-1121.0,365.0,-50.0,0.0,0.0,0.0
19:43:49.893000,-822.0,104.0,-817.0,-1103.0,369.0,-64.0,0.0,0.0,0.0
19:43:49.897000,-827.0,128.0,-784.0,-1103.0,369.0,-64.0,0.0,0.0,0.0
19:43:49.902000,-830.0,150.0,-738.0,-1043.0,349.0,-67.0,0.0,0.0,0.0
19:43:49.907000,-836.0,165.0,-695.0,-1043.0,349.0,-67.0,0.0,0.0,0.0
19:43:49.911000,-836.0,165.0,-695.0,-975.0,343.0,-66.0,0.0,0.0,0.0
19:43:49.916000,-842.0,176.0,-658.0,-975.0,343.0,-66.0,0.0,0.0,0.0
19:43:49.921000,-850.0,185.0,-609.0,-928.0,353.0,-59.0,0.0,0.0,0.0
19:43:49.926000,-856.0,193.0,-555.0,-928.0,353.0,-59.0,0.0,0.0,0.0
19:43:49.930000,-859.0,200.0,-516.0,-875.0,374.0,-56.0,0.0,0.0,0.0
19:43:49.935000,-865.0,210.0,-496.0,-875.0,374.0,-56.0,0.0,0.0,0.0
19:43:49.940000,-872.0,221.0,-484.0,-840.0,415.0,-54.0,0.0,0.0,0.0
19:43:49.944000,-882.0,233.0,-478.0,-840.0,415.0,-54.0,0.0,0.0,0.0
19:43:49.949000,-896.0,247.0,-474.0,-849.0,462.0,-50.0,0.0,0.0,0.0
19:43:49.954000,-912.0,254.0,-473.0,-849.0,462.0,-50.0,0.0,0.0,0.0
19:43:49.958000,-928.0,263.0,-470.0,-875.0,485.0,-45.0,0.0,0.0,0.0
19:43:49.963000,-943.0,269.0,-469.0,-875.0,485.0,-45.0,0.0,0.0,0.0
19:43:49.968000,-960.0,274.0,-466.0,-876.0,476.0,-38.0,0.0,0.0,0.0
19:43:49.973000,-975.0,280.0,-462.0,-876.0,476.0,-38.0,0.0,0.0,0.0
19:43:49.977000,-987.0,288.0,-457.0,-876.0,476.0,-38.0,0.0,0.0,0.0
19:43:49.982000,-996.0,295.0,-457.0,-849.0,457.0,-35.0,0.0,0.0,0.0
19:43:49.987000,-1007.0,300.0,-446.0,-849.0,457.0,-35.0,0.0,0.0,0.0
19:43:49.991000,-1015.0,303.0,-428.0,-828.0,442.0,-36.0,0.0,0.0,0.0
19:43:49.996000,-1020.0,308.0,-410.0,-828.0,442.0,-36.0,0.0,0.0,0.0
19:43:50.001000,-1024.0,317.0,-393.0,-827.0,429.0,-43.0,0.0,0.0,0.0
19:43:50.005000,-1025.0,327.0,-376.0,-827.0,429.0,-43.0,0.0,0.0,0.0
19:43:50.010000,-1026.0,343.0,-354.0,-845.0,420.0,-62.0,0.0,0.0,0.0
19:43:50.015000,-1026.0,360.0,-331.0,-845.0,420.0,-62.0,0.0,0.0,0.0
19:43:50.020000,-1026.0,360.0,-331.0,-870.0,416.0,-87.0,0.0,0.0,0.0
19:43:50.024000,-1031.0,379.0,-312.0,-870.0,416.0,-87.0,0.0,0.0,0.0
19:43:50.029000,-1036.0,396.0,-284.0,-886.0,418.0,-106.0,0.0,0.0,0.0
19:43:50.034000,-1039.0,408.0,-248.0,-886.0,418.0,-106.0,0.0,0.0,0.0
19:43:50.038000,-1039.0,417.0,-214.0,-889.0,410.0,-120.0,0.0,0.0,0.0
19:43:50.043000,-1035.0,421.0,-178.0,-889.0,410.0,-120.0,0.0,0.0,0.0
19:43:50.048000,-1024.0,420.0,-140.0,-887.0,384.0,-131.0,0.0,0.0,0.0
19:43:50.052000,-1010.0,413.0,-97.0,-887.0,384.0,-131.0,0.0,0.0,0.0
19:43:50.057000,-994.0,403.0,-52.0,-881.0,346.0,-134.0,0.0,0.0,0.0
19:43:50.062000,-977.0,388.0,-2.0,-881.0,346.0,-134.0,0.0,0.0,0.0
19:43:50.067000,-959.0,375.0,49.0,-867.0,315.0,-128.0,0.0,0.0,0.0
19:43:50.071000,-940.0,364.0,98.0,-867.0,315.0,-128.0,0.0,0.0,0.0
19:43:50.076000,-924.0,355.0,143.0,-863.0,298.0,-119.0,0.0,0.0,0.0
19:43:50.081000,-910.0,348.0,184.0,-863.0,298.0,-119.0,0.0,0.0,0.0
19:43:50.085000,-894.0,343.0,220.0,-863.0,298.0,-119.0,0.0,0.0,0.0
19:43:50.090000,-878.0,344.0,247.0,-873.0,284.0,-110.0,0.0,0.0,0.0
19:43:50.095000,-861.0,350.0,263.0,-873.0,284.0,-110.0,0.0,0.0,0.0
19:43:50.099000,-844.0,359.0,268.0,-879.0,260.0,-105.0,0.0,0.0,0.0
19:43:50.104000,-827.0,368.0,270.0,-879.0,260.0,-105.0,0.0,0.0,0.0
19:43:50.109000,-809.0,378.0,272.0,-884.0,230.0,-98.0,0.0,0.0,0.0
19:43:50.114000,-794.0,390.0,275.0,-884.0,230.0,-98.0,0.0,0.0,0.0
19:43:50.118000,-783.0,407.0,279.0,-867.0,192.0,-89.0,0.0,0.0,0.0
19:43:50.123000,-778.0,425.0,277.0,-867.0,192.0,-89.0,0.0,0.0,0.0
19:43:50.128000,-778.0,425.0,277.0,-849.0,174.0,-87.0,0.0,0.0,0.0
19:43:50.132000,-782.0,446.0,277.0,-849.0,174.0,-87.0,0.0,0.0,0.0
19:43:50.137000,-797.0,467.0,280.0,-861.0,196.0,-83.0,0.0,0.0,0.0
19:43:50.142000,-816.0,490.0,286.0,-861.0,196.0,-83.0,0.0,0.0,0.0
19:43:50.146000,-837.0,518.0,287.0,-859.0,207.0,-80.0,0.0,0.0,0.0
19:43:50.151000,-856.0,546.0,277.0,-859.0,207.0,-80.0,0.0,0.0,0.0
19:43:50.156000,-875.0,575.0,261.0,-840.0,188.0,-83.0,0.0,0.0,0.0
19:43:50.161000,-891.0,602.0,240.0,-840.0,188.0,-83.0,0.0,0.0,0.0
19:43:50.165000,-905.0,631.0,219.0,-835.0,160.0,-87.0,0.0,0.0,0.0
19:43:50.170000,-916.0,659.0,196.0,-835.0,160.0,-87.0,0.0,0.0,0.0
19:43:50.175000,-921.0,688.0,164.0,-837.0,131.0,-96.0,0.0,0.0,0.0
19:43:50.179000,-924.0,716.0,131.0,-837.0,131.0,-96.0,0.0,0.0,0.0
19:43:50.184000,-923.0,746.0,102.0,-837.0,91.0,-115.0,0.0,0.0,0.0
19:43:50.189000,-921.0,774.0,84.0,-837.0,91.0,-115.0,0.0,0.0,0.0
19:43:50.193000,-919.0,800.0,79.0,-827.0,35.0,-130.0,0.0,0.0,0.0
19:43:50.198000,-917.0,824.0,83.0,-827.0,35.0,-130.0,0.0,0.0,0.0
19:43:50.203000,-916.0,842.0,88.0,-827.0,35.0,-130.0,0.0,0.0,0.0
19:43:50.208000,-914.0,856.0,86.0,-776.0,-12.0,-138.0,0.0,0.0,0.0
19:43:50.212000,-912.0,867.0,73.0,-776.0,-12.0,-138.0,0.0,0.0,0.0
19:43:50.217000,-910.0,875.0,51.0,-705.0,-16.0,-154.0,0.0,0.0,0.0
19:43:50.222000,-910.0,882.0,23.0,-664.0,2.0,-176.0,0.0,0.0,0.0
19:43:50.226000,-908.0,887.0,-8.0,-664.0,2.0,-176.0,0.0,0.0,0.0
19:43:50.231000,-907.0,890.0,-36.0,-664.0,2.0,-176.0,0.0,0.0,0.0
19:43:50.236000,-907.0,893.0,-58.0,-634.0,6.0,-205.0,0.0,0.0,0.0
19:43:50.240000,-907.0,893.0,-58.0,-634.0,6.0,-205.0,0.0,0.0,0.0
19:43:50.245000,-909.0,891.0,-73.0,-600.0,5.0,-231.0,0.0,0.0,0.0
19:43:50.250000,-912.0,882.0,-72.0,-600.0,5.0,-231.0,0.0,0.0,0.0
19:43:50.255000,-914.0,871.0,-62.0,-552.0,-8.0,-246.0,0.0,0.0,0.0
19:43:50.259000,-914.0,856.0,-44.0,-552.0,-8.0,-246.0,0.0,0.0,0.0
19:43:50.264000,-913.0,844.0,-23.0,-489.0,-41.0,-262.0,0.0,0.0,0.0
19:43:50.269000,-915.0,835.0,0.0,-489.0,-41.0,-262.0,0.0,0.0,0.0
19:43:50.273000,-923.0,831.0,26.0,-462.0,-42.0,-286.0,0.0,0.0,0.0
19:43:50.278000,-938.0,835.0,55.0,-462.0,-42.0,-286.0,0.0,0.0,0.0
19:43:50.283000,-962.0,841.0,82.0,-479.0,-6.0,-312.0,0.0,0.0,0.0
19:43:50.287000,-988.0,847.0,108.0,-479.0,-6.0,-312.0,0.0,0.0,0.0
19:43:50.292000,-1015.0,853.0,133.0,-478.0,11.0,-338.0,0.0,0.0,0.0
19:43:50.297000,-1036.0,857.0,154.0,-478.0,11.0,-338.0,0.0,0.0,0.0
19:43:50.302000,-1050.0,861.0,174.0,-478.0,11.0,-338.0,0.0,0.0,0.0
19:43:50.306000,-1052.0,862.0,193.0,-424.0,-27.0,-367.0,0.0,0.0,0.0
19:43:50.311000,-1044.0,863.0,198.0,-424.0,-27.0,-367.0,0.0,0.0,0.0
19:43:50.316000,-1029.0,869.0,186.0,-350.0,-105.0,-403.0,0.0,0.0,0.0
19:43:50.320000,-1008.0,875.0,163.0,-350.0,-105.0,-403.0,0.0,0.0,0.0
19:43:50.325000,-985.0,882.0,137.0,-298.0,-168.0,-441.0,0.0,0.0,0.0
19:43:50.330000,-961.0,885.0,109.0,-298.0,-168.0,-441.0,0.0,0.0,0.0
19:43:50.334000,-936.0,888.0,83.0,-265.0,-197.0,-473.0,0.0,0.0,0.0
19:43:50.339000,-910.0,891.0,58.0,-265.0,-197.0,-473.0,0.0,0.0,0.0
19:43:50.344000,-884.0,897.0,32.0,-224.0,-209.0,-497.0,0.0,0.0,0.0
19:43:50.349000,-884.0,897.0,32.0,-224.0,-209.0,-497.0,0.0,0.0,0.0
19:43:50.353000,-861.0,905.0,6.0,-189.0,-197.0,-518.0,0.0,0.0,0.0
19:43:50.358000,-841.0,911.0,-17.0,-189.0,-197.0,-518.0,0.0,0.0,0.0
19:43:50.363000,-822.0,917.0,-38.0,-173.0,-176.0,-540.0,0.0,0.0,0.0
19:43:50.367000,-805.0,924.0,-55.0,-173.0,-176.0,-540.0,0.0,0.0,0.0
19:43:50.372000,-787.0,929.0,-70.0,-156.0,-171.0,-564.0,0.0,0.0,0.0
19:43:50.377000,-773.0,936.0,-87.0,-156.0,-171.0,-564.0,0.0,0.0,0.0
19:43:50.381000,-765.0,946.0,-107.0,-138.0,-151.0,-589.0,0.0,0.0,0.0
19:43:50.386000,-766.0,959.0,-130.0,-138.0,-151.0,-589.0,0.0,0.0,0.0
19:43:50.391000,-777.0,970.0,-155.0,-145.0,-81.0,-614.0,0.0,0.0,0.0
19:43:50.396000,-798.0,981.0,-181.0,-145.0,-81.0,-614.0,0.0,0.0,0.0
19:43:50.400000,-822.0,994.0,-210.0,-155.0,-14.0,-648.0,0.0,0.0,0.0
19:43:50.405000,-846.0,1011.0,-235.0,-155.0,-14.0,-648.0,0.0,0.0,0.0
19:43:50.410000,-865.0,1030.0,-256.0,-155.0,-14.0,-648.0,0.0,0.0,0.0
19:43:50.414000,-881.0,1052.0,-272.0,-130.0,-13.0,-713.0,0.0,0.0,0.0
19:43:50.419000,-895.0,1074.0,-282.0,-130.0,-13.0,-713.0,0.0,0.0,0.0
19:43:50.423000,-911.0,1096.0,-289.0,-111.0,-41.0,-803.0,0.0,0.0,0.0
19:43:50.428000,-930.0,1110.0,-294.0,-111.0,-41.0,-803.0,0.0,0.0,0.0
19:43:50.433000,-950.0,1111.0,-301.0,-125.0,-40.0,-890.0,0.0,0.0,0.0
19:43:50.438000,-969.0,1099.0,-308.0,-125.0,-40.0,-890.0,0.0,0.0,0.0
19:43:50.443000,-988.0,1078.0,-315.0,-100.0,-34.0,-956.0,0.0,0.0,0.0
19:43:50.447000,-1005.0,1052.0,-322.0,-100.0,-34.0,-956.0,0.0,0.0,0.0
19:43:50.452000,-1022.0,1021.0,-335.0,-16.0,-38.0,-999.0,0.0,0.0,0.0
19:43:50.457000,-1022.0,1021.0,-335.0,-16.0,-38.0,-999.0,0.0,0.0,0.0
19:43:50.461000,-1038.0,984.0,-351.0,62.0,-26.0,-1015.0,0.0,0.0,0.0
19:43:50.466000,-1057.0,944.0,-370.0,62.0,-26.0,-1015.0,0.0,0.0,0.0
19:43:50.471000,-1078.0,904.0,-389.0,102.0,-3.0,-1013.0,0.0,0.0,0.0
19:43:50.475000,-1101.0,865.0,-401.0,102.0,-3.0,-1013.0,0.0,0.0,0.0
19:43:50.480000,-1128.0,833.0,-408.0,117.0,4.0,-1025.0,0.0,0.0,0.0
19:43:50.485000,-1159.0,812.0,-417.0,117.0,4.0,-1025.0,0.0,0.0,0.0
19:43:50.490000,-1190.0,800.0,-429.0,77.0,10.0,-1080.0,0.0,0.0,0.0
19:43:50.494000,-1213.0,772.0,-437.0,77.0,10.0,-1080.0,0.0,0.0,0.0
19:43:50.499000,-1227.0,735.0,-436.0,26.0,-31.0,-1127.0,0.0,0.0,0.0
19:43:50.504000,-1238.0,704.0,-431.0,26.0,-31.0,-1127.0,0.0,0.0,0.0
19:43:50.508000,-1240.0,669.0,-429.0,26.0,-105.0,-1175.0,0.0,0.0,0.0
19:43:50.513000,-1232.0,623.0,-424.0,26.0,-105.0,-1175.0,0.0,0.0,0.0
19:43:50.518000,-1228.0,566.0,-410.0,26.0,-105.0,-1175.0,0.0,0.0,0.0
19:43:50.522000,-1220.0,504.0,-376.0,32.0,-148.0,-1216.0,0.0,0.0,0.0
19:43:50.527000,-1203.0,436.0,-337.0,32.0,-148.0,-1216.0,0.0,0.0,0.0
19:43:50.532000,-1178.0,370.0,-316.0,81.0,-199.0,-1220.0,0.0,0.0,0.0
19:43:50.537000,-1147.0,312.0,-318.0,81.0,-199.0,-1220.0,0.0,0.0,0.0
19:43:50.541000,-1126.0,260.0,-333.0,90.0,-245.0,-1194.0,0.0,0.0,0.0
19:43:50.546000,-1122.0,210.0,-335.0,90.0,-245.0,-1194.0,0.0,0.0,0.0
19:43:50.551000,-1131.0,161.0,-326.0,28.0,-223.0,-1123.0,0.0,0.0,0.0
19:43:50.555000,-1157.0,121.0,-331.0,28.0,-223.0,-1123.0,0.0,0.0,0.0
19:43:50.560000,-1192.0,90.0,-361.0,16.0,-137.0,-1037.0,0.0,0.0,0.0
19:43:50.565000,-1192.0,90.0,-361.0,16.0,-137.0,-1037.0,0.0,0.0,0.0
19:43:50.569000,-1236.0,65.0,-394.0,-18.0,-77.0,-959.0,0.0,0.0,0.0
19:43:50.574000,-1283.0,44.0,-435.0,-18.0,-77.0,-959.0,0.0,0.0,0.0
19:43:50.579000,-1332.0,26.0,-499.0,-121.0,-58.0,-896.0,0.0,0.0,0.0
19:43:50.584000,-1386.0,9.0,-573.0,-121.0,-58.0,-896.0,0.0,0.0,0.0
19:43:50.588000,-1446.0,-5.0,-633.0,-196.0,-45.0,-828.0,0.0,0.0,0.0
19:43:50.593000,-1516.0,-22.0,-684.0,-196.0,-45.0,-828.0,0.0,0.0,0.0
19:43:50.598000,-1584.0,-35.0,-735.0,-228.0,-48.0,-765.0,0.0,0.0,0.0
19:43:50.602000,-1652.0,-46.0,-792.0,-228.0,-48.0,-765.0,0.0,0.0,0.0
19:43:50.607000,-1719.0,-55.0,-844.0,-299.0,-78.0,-724.0,0.0,0.0,0.0
19:43:50.612000,-1788.0,-63.0,-871.0,-299.0,-78.0,-724.0,0.0,0.0,0.0
19:43:50.616000,-1864.0,-72.0,-885.0,-350.0,-109.0,-692.0,0.0,0.0,0.0
19:43:50.621000,-1943.0,-79.0,-914.0,-350.0,-109.0,-692.0,0.0,0.0,0.0
19:43:50.626000,-2023.0,-86.0,-965.0,-315.0,-116.0,-670.0,0.0,0.0,0.0
19:43:50.631000,-2100.0,-93.0,-1021.0,-315.0,-116.0,-670.0,0.0,0.0,0.0
19:43:50.635000,-2170.0,-100.0,-1072.0,-315.0,-116.0,-670.0,0.0,0.0,0.0
19:43:50.640000,-2234.0,-108.0,-1117.0,-272.0,-148.0,-666.0,0.0,0.0,0.0
19:43:50.645000,-2294.0,-119.0,-1157.0,-272.0,-148.0,-666.0,0.0,0.0,0.0
19:43:50.649000,-2351.0,-135.0,-1192.0,-261.0,-199.0,-679.0,0.0,0.0,0.0
19:43:50.654000,-2407.0,-158.0,-1220.0,-261.0,-199.0,-679.0,0.0,0.0,0.0
19:43:50.659000,-2461.0,-188.0,-1243.0,-252.0,-230.0,-699.0,0.0,0.0,0.0
19:43:50.663000,-2515.0,-224.0,-1261.0,-252.0,-230.0,-699.0,0.0,0.0,0.0
19:43:50.668000,-2566.0,-261.0,-1274.0,-206.0,-259.0,-716.0,0.0,0.0,0.0
19:43:50.673000,-2615.0,-298.0,-1280.0,-206.0,-259.0,-716.0,0.0,0.0,0.0
19:43:50.678000,-2615.0,-298.0,-1280.0,-145.0,-306.0,-727.0,0.0,0.0,0.0
19:43:50.682000,-2662.0,-331.0,-1277.0,-145.0,-306.0,-727.0,0.0,0.0,0.0
19:43:50.687000,-2699.0,-361.0,-1268.0,-124.0,-373.0,-733.0,0.0,0.0,0.0
19:43:50.692000,-2732.0,-389.0,-1262.0,-124.0,-373.0,-733.0,0.0,0.0,0.0
19:43:50.696000,-2759.0,-420.0,-1253.0,-178.0,-451.0,-734.0,0.0,0.0,0.0
19:43:50.701000,-2779.0,-455.0,-1232.0,-178.0,-451.0,-734.0,0.0,0.0,0.0
19:43:50.706000,-2786.0,-492.0,-1197.0,-229.0,-566.0,-729.0,0.0,0.0,0.0
19:43:50.710000,-2772.0,-527.0,-1161.0,-229.0,-566.0,-729.0,0.0,0.0,0.0
19:43:50.715000,-2744.0,-557.0,-1136.0,-224.0,-701.0,-727.0,0.0,0.0,0.0
19:43:50.720000,-2707.0,-587.0,-1124.0,-224.0,-701.0,-727.0,0.0,0.0,0.0
19:43:50.725000,-2657.0,-620.0,-1125.0,-229.0,-795.0,-726.0,0.0,0.0,0.0
19:43:50.729000,-2599.0,-653.0,-1101.0,-229.0,-795.0,-726.0,0.0,0.0,0.0
19:43:50.734000,-2536.0,-693.0,-1081.0,-260.0,-873.0,-720.0,0.0,0.0,0.0
19:43:50.739000,-2487.0,-744.0,-1073.0,-260.0,-873.0,-720.0,0.0,0.0,0.0
19:43:50.743000,-2479.0,-795.0,-1032.0,-260.0,-873.0,-720.0,0.0,0.0,0.0
19:43:50.748000,-2418.0,-842.0,-1001.0,-345.0,-990.0,-684.0,0.0,0.0,0.0
19:43:50.753000,-2369.0,-880.0,-1016.0,-345.0,-990.0,-684.0,0.0,0.0,0.0
19:43:50.757000,-2363.0,-877.0,-1032.0,-506.0,-1081.0,-599.0,0.0,0.0,0.0
19:43:50.762000,-2379.0,-844.0,-1066.0,-506.0,-1081.0,-599.0,0.0,0.0,0.0
19:43:50.767000,-2350.0,-886.0,-1006.0,-730.0,-1033.0,-507.0,0.0,0.0,0.0
19:43:50.772000,-2389.0,-886.0,-656.0,-730.0,-1033.0,-507.0,0.0,0.0,0.0
19:43:50.776000,-2315.0,-889.0,-432.0,-691.0,-940.0,-449.0,0.0,0.0,0.0
19:43:50.781000,-2271.0,-856.0,-751.0,-691.0,-940.0,-449.0,0.0,0.0,0.0
19:43:50.786000,-2271.0,-856.0,-751.0,-571.0,-835.0,-414.0,0.0,0.0,0.0
19:43:50.790000,-2226.0,-791.0,-1463.0,-571.0,-835.0,-414.0,0.0,0.0,0.0
19:43:50.795000,-2179.0,-746.0,-1776.0,-562.0,-824.0,-352.0,0.0,0.0,0.0
19:43:50.800000,-2207.0,-711.0,-1598.0,-562.0,-824.0,-352.0,0.0,0.0,0.0
19:43:50.804000,-2165.0,-667.0,-1266.0,-593.0,-992.0,-300.0,0.0,0.0,0.0
19:43:50.809000,-2115.0,-595.0,-1057.0,-593.0,-992.0,-300.0,0.0,0.0,0.0
19:43:50.814000,-2111.0,-528.0,-1043.0,-856.0,-1057.0,-277.0,0.0,0.0,0.0
19:43:50.819000,-2087.0,-437.0,-1137.0,-856.0,-1057.0,-277.0,0.0,0.0,0.0
19:43:50.823000,-1963.0,-368.0,-1166.0,-1046.0,-1035.0,-278.0,0.0,0.0,0.0
19:43:50.828000,-1899.0,-329.0,-1143.0,-1046.0,-1035.0,-278.0,0.0,0.0,0.0
19:43:50.833000,-1877.0,-252.0,-1168.0,-1029.0,-1041.0,-268.0,0.0,0.0,0.0
19:43:50.837000,-1763.0,-207.0,-1261.0,-1029.0,-1041.0,-268.0,0.0,0.0,0.0
19:43:50.842000,-1719.0,-147.0,-1317.0,-907.0,-1026.0,-248.0,0.0,0.0,0.0
19:43:50.847000,-1649.0,-105.0,-1255.0,-907.0,-1026.0,-248.0,0.0,0.0,0.0
19:43:50.851000,-1576.0,-53.0,-1198.0,-907.0,-1026.0,-248.0,0.0,0.0,0.0
19:43:50.856000,-1489.0,-13.0,-1239.0,-809.0,-1011.0,-262.0,0.0,0.0,0.0
19:43:50.860000,-1396.0,27.0,-1285.0,-822.0,-978.0,-286.0,0.0,0.0,0.0
19:43:50.866000,-1288.0,53.0,-1339.0,-822.0,-978.0,-286.0,0.0,0.0,0.0
19:43:50.870000,-1208.0,74.0,-1336.0,-822.0,-978.0,-286.0,0.0,0.0,0.0
19:43:50.875000,-1144.0,93.0,-1231.0,-833.0,-927.0,-311.0,0.0,0.0,0.0
19:43:50.880000,-1078.0,110.0,-1101.0,-833.0,-927.0,-311.0,0.0,0.0,0.0
19:43:50.884000,-1014.0,125.0,-1103.0,-812.0,-952.0,-334.0,0.0,0.0,0.0
19:43:50.889000,-932.0,142.0,-1095.0,-812.0,-952.0,-334.0,0.0,0.0,0.0
19:43:50.894000,-932.0,142.0,-1095.0,-753.0,-919.0,-388.0,0.0,0.0,0.0
19:43:50.898000,-849.0,154.0,-1081.0,-753.0,-919.0,-388.0,0.0,0.0,0.0
19:43:50.903000,-782.0,159.0,-1034.0,-700.0,-741.0,-427.0,0.0,0.0,0.0
19:43:50.908000,-755.0,157.0,-961.0,-700.0,-741.0,-427.0,0.0,0.0,0.0
19:43:50.913000,-774.0,135.0,-824.0,-756.0,-679.0,-416.0,0.0,0.0,0.0
19:43:50.917000,-749.0,129.0,-707.0,-756.0,-679.0,-416.0,0.0,0.0,0.0
19:43:50.922000,-693.0,116.0,-638.0,-867.0,-839.0,-422.0,0.0,0.0,0.0
19:43:50.927000,-630.0,93.0,-625.0,-867.0,-839.0,-422.0,0.0,0.0,0.0
19:43:50.931000,-556.0,64.0,-576.0,-875.0,-973.0,-451.0,0.0,0.0,0.0
19:43:50.936000,-481.0,47.0,-493.0,-875.0,-973.0,-451.0,0.0,0.0,0.0
19:43:50.941000,-399.0,17.0,-541.0,-823.0,-804.0,-472.0,0.0,0.0,0.0
19:43:50.945000,-353.0,-21.0,-700.0,-823.0,-804.0,-472.0,0.0,0.0,0.0
19:43:50.950000,-331.0,-57.0,-740.0,-672.0,-623.0,-465.0,0.0,0.0,0.0
19:43:50.955000,-288.0,-92.0,-611.0,-672.0,-623.0,-465.0,0.0,0.0,0.0
19:43:50.960000,-245.0,-121.0,-504.0,-672.0,-623.0,-465.0,0.0,0.0,0.0
19:43:50.964000,-209.0,-141.0,-529.0,-500.0,-606.0,-430.0,0.0,0.0,0.0
19:43:50.969000,-188.0,-152.0,-576.0,-500.0,-606.0,-430.0,0.0,0.0,0.0
19:43:50.974000,-172.0,-161.0,-579.0,-533.0,-527.0,-397.0,0.0,0.0,0.0
19:43:50.978000,-157.0,-168.0,-537.0,-533.0,-527.0,-397.0,0.0,0.0,0.0
19:43:50.983000,-156.0,-171.0,-489.0,-690.0,-440.0,-373.0,0.0,0.0,0.0
19:43:50.988000,-156.0,-165.0,-443.0,-690.0,-440.0,-373.0,0.0,0.0,0.0
19:43:50.992000,-160.0,-159.0,-405.0,-845.0,-343.0,-360.0,0.0,0.0,0.0
19:43:50.997000,-161.0,-152.0,-392.0,-845.0,-343.0,-360.0,0.0,0.0,0.0
19:43:51.002000,-161.0,-152.0,-392.0,-932.0,-238.0,-361.0,0.0,0.0,0.0
19:43:51.007000,-156.0,-142.0,-385.0,-932.0,-238.0,-361.0,0.0,0.0,0.0
19:43:51.011000,-154.0,-129.0,-362.0,-954.0,-214.0,-366.0,0.0,0.0,0.0
19:43:51.016000,-148.0,-115.0,-322.0,-954.0,-214.0,-366.0,0.0,0.0,0.0
19:43:51.021000,-137.0,-98.0,-282.0,-949.0,-199.0,-370.0,0.0,0.0,0.0
19:43:51.025000,-126.0,-84.0,-258.0,-949.0,-199.0,-370.0,0.0,0.0,0.0
19:43:51.030000,-102.0,-73.0,-244.0,-961.0,-167.0,-381.0,0.0,0.0,0.0
19:43:51.035000,-86.0,-65.0,-218.0,-961.0,-167.0,-381.0,0.0,0.0,0.0
19:43:51.039000,-65.0,-60.0,-175.0,-996.0,-148.0,-407.0,0.0,0.0,0.0
19:43:51.044000,-48.0,-56.0,-106.0,-996.0,-148.0,-407.0,0.0,0.0,0.0
19:43:51.049000,-28.0,-63.0,-81.0,-1011.0,-83.0,-434.0,0.0,0.0,0.0
19:43:51.054000,-18.0,-62.0,-85.0,-1011.0,-83.0,-434.0,0.0,0.0,0.0
19:43:51.058000,-7.0,-73.0,-54.0,-993.0,-27.0,-447.0,0.0,0.0,0.0
19:43:51.063000,-2.0,-83.0,-25.0,-993.0,-27.0,-447.0,0.0,0.0,0.0
19:43:51.068000,6.0,-96.0,-19.0,-993.0,-27.0,-447.0,0.0,0.0,0.0
19:43:51.072000,25.0,-110.0,-21.0,-983.0,-5.0,-457.0,0.0,0.0,0.0
19:43:51.077000,22.0,-114.0,4.0,-983.0,-5.0,-457.0,0.0,0.0,0.0
19:43:51.082000,14.0,-117.0,25.0,-991.0,4.0,-467.0,0.0,0.0,0.0
19:43:51.086000,31.0,-126.0,40.0,-991.0,4.0,-467.0,0.0,0.0,0.0
19:43:51.091000,35.0,-128.0,22.0,-998.0,16.0,-472.0,0.0,0.0,0.0
19:43:51.096000,14.0,-128.0,26.0,-998.0,16.0,-472.0,0.0,0.0,0.0
19:43:51.101000,8.0,-128.0,68.0,-1004.0,73.0,-468.0,0.0,0.0,0.0
19:43:51.105000,-11.0,-123.0,93.0,-1004.0,73.0,-468.0,0.0,0.0,0.0
19:43:51.110000,-27.0,-116.0,82.0,-1015.0,106.0,-456.0,0.0,0.0,0.0
19:43:51.115000,-27.0,-116.0,82.0,-1015.0,106.0,-456.0,0.0,0.0,0.0
19:43:51.119000,-38.0,-109.0,75.0,-1031.0,81.0,-457.0,0.0,0.0,0.0
19:43:51.124000,-23.0,-107.0,114.0,-1031.0,81.0,-457.0,0.0,0.0,0.0
19:43:51.129000,-16.0,-107.0,140.0,-1078.0,34.0,-467.0,0.0,0.0,0.0
19:43:51.133000,-11.0,-101.0,148.0,-1078.0,34.0,-467.0,0.0,0.0,0.0
19:43:51.138000,27.0,-113.0,153.0,-1143.0,10.0,-478.0,0.0,0.0,0.0
19:43:51.143000,35.0,-107.0,121.0,-1143.0,10.0,-478.0,0.0,0.0,0.0
19:43:51.148000,69.0,-114.0,119.0,-1164.0,-24.0,-479.0,0.0,0.0,0.0
19:43:51.152000,91.0,-110.0,158.0,-1164.0,-24.0,-479.0,0.0,0.0,0.0
19:43:51.157000,131.0,-105.0,190.0,-1134.0,-65.0,-463.0,0.0,0.0,0.0
19:43:51.162000,158.0,-93.0,212.0,-1134.0,-65.0,-463.0,0.0,0.0,0.0
19:43:51.166000,167.0,-69.0,245.0,-1122.0,-107.0,-430.0,0.0,0.0,0.0
19:43:51.171000,218.0,-53.0,232.0,-1122.0,-107.0,-430.0,0.0,0.0,0.0
19:43:51.176000,238.0,-22.0,218.0,-1122.0,-107.0,-430.0,0.0,0.0,0.0
19:43:51.180000,277.0,5.0,185.0,-1159.0,-125.0,-392.0,0.0,0.0,0.0
19:43:51.185000,305.0,40.0,131.0,-1159.0,-125.0,-392.0,0.0,0.0,0.0
19:43:51.190000,333.0,77.0,90.0,-1205.0,-113.0,-360.0,0.0,0.0,0.0
19:43:51.195000,359.0,121.0,26.0,-1205.0,-113.0,-360.0,0.0,0.0,0.0
19:43:51.199000,375.0,170.0,-12.0,-1234.0,-114.0,-329.0,0.0,0.0,0.0
19:43:51.204000,412.0,217.0,-1.0,-1234.0,-114.0,-329.0,0.0,0.0,0.0
19:43:51.209000,434.0,272.0,-1.0,-1224.0,-108.0,-308.0,0.0,0.0,0.0
19:43:51.213000,452.0,313.0,-28.0,-1224.0,-108.0,-308.0,0.0,0.0,0.0
19:43:51.218000,461.0,343.0,-31.0,-1227.0,-59.0,-284.0,0.0,0.0,0.0
19:43:51.223000,461.0,343.0,-31.0,-1227.0,-59.0,-284.0,0.0,0.0,0.0
19:43:51.227000,477.0,384.0,-30.0,-1243.0,-30.0,-271.0,0.0,0.0,0.0
19:43:51.232000,494.0,401.0,-35.0,-1243.0,-30.0,-271.0,0.0,0.0,0.0
19:43:51.237000,503.0,431.0,-88.0,-1261.0,-2.0,-281.0,0.0,0.0,0.0
19:43:51.242000,528.0,437.0,-160.0,-1261.0,-2.0,-281.0,0.0,0.0,0.0
19:43:51.246000,508.0,441.0,-133.0,-1178.0,34.0,-289.0,0.0,0.0,0.0
19:43:51.251000,541.0,404.0,-30.0,-1178.0,34.0,-289.0,0.0,0.0,0.0
19:43:51.256000,562.0,378.0,84.0,-1022.0,124.0,-314.0,0.0,0.0,0.0
19:43:51.260000,586.0,339.0,144.0,-1022.0,124.0,-314.0,0.0,0.0,0.0
19:43:51.265000,596.0,298.0,192.0,-1035.0,303.0,-346.0,0.0,0.0,0.0
19:43:51.270000,567.0,264.0,182.0,-1035.0,303.0,-346.0,0.0,0.0,0.0
19:43:51.274000,573.0,226.0,121.0,-1118.0,401.0,-382.0,0.0,0.0,0.0
19:43:51.279000,602.0,176.0,63.0,-1118.0,401.0,-382.0,0.0,0.0,0.0
19:43:51.284000,483.0,153.0,39.0,-1118.0,401.0,-382.0,0.0,0.0,0.0
19:43:51.289000,448.0,108.0,121.0,-1100.0,432.0,-398.0,0.0,0.0,0.0
19:43:51.293000,395.0,74.0,128.0,-1100.0,432.0,-398.0,0.0,0.0,0.0
19:43:51.298000,364.0,30.0,56.0,-1068.0,420.0,-404.0,0.0,0.0,0.0
19:43:51.303000,326.0,2.0,15.0,-1068.0,420.0,-404.0,0.0,0.0,0.0
19:43:51.307000,286.0,-21.0,-27.0,-1125.0,373.0,-436.0,0.0,0.0,0.0
19:43:51.312000,254.0,-49.0,9.0,-1125.0,373.0,-436.0,0.0,0.0,0.0
19:43:51.317000,238.0,-79.0,93.0,-1192.0,351.0,-447.0,0.0,0.0,0.0
19:43:51.321000,196.0,-88.0,165.0,-1192.0,351.0,-447.0,0.0,0.0,0.0
19:43:51.325000,196.0,-88.0,165.0,-1252.0,434.0,-442.0,0.0,0.0,0.0
19:43:51.331000,250.0,-126.0,138.0,-1252.0,434.0,-442.0,0.0,0.0,0.0
19:43:51.335000,175.0,-126.0,-39.0,-1366.0,484.0,-436.0,0.0,0.0,0.0
19:43:51.340000,102.0,-138.0,-276.0,-1366.0,484.0,-436.0,0.0,0.0,0.0
19:43:51.345000,25.0,-144.0,-434.0,-1337.0,389.0,-440.0,0.0,0.0,0.0
19:43:51.350000,0.0,-169.0,-389.0,-1337.0,389.0,-440.0,0.0,0.0,0.0
19:43:51.354000,-107.0,-194.0,-264.0,-1307.0,335.0,-433.0,0.0,0.0,0.0
19:43:51.359000,-63.0,-229.0,-215.0,-1307.0,335.0,-433.0,0.0,0.0,0.0
19:43:51.364000,-60.0,-245.0,-308.0,-1440.0,294.0,-417.0,0.0,0.0,0.0
19:43:51.368000,-9.0,-242.0,-371.0,-1440.0,294.0,-417.0,0.0,0.0,0.0
19:43:51.373000,-46.0,-259.0,-450.0,-1516.0,225.0,-373.0,0.0,0.0,0.0
19:43:51.378000,-86.0,-268.0,-452.0,-1516.0,225.0,-373.0,0.0,0.0,0.0
19:43:51.382000,-121.0,-270.0,-413.0,-1413.0,254.0,-297.0,0.0,0.0,0.0
19:43:51.387000,-247.0,-255.0,-351.0,-1413.0,254.0,-297.0,0.0,0.0,0.0
19:43:51.392000,-295.0,-231.0,-175.0,-1413.0,138.0,-265.0,0.0,0.0,0.0
19:43:51.397000,-274.0,-217.0,-220.0,-1249.0,138.0,-256.0,0.0,0.0,0.0
19:43:51.401000,-177.0,-207.0,-289.0,-1249.0,138.0,-256.0,0.0,0.0,0.0
19:43:51.406000,-247.0,-219.0,-230.0,-1232.0,-228.0,-235.0,0.0,0.0,0.0
19:43:51.411000,-333.0,-211.0,-167.0,-1232.0,-228.0,-235.0,0.0,0.0,0.0
19:43:51.415000,-360.0,-171.0,226.0,-1132.0,-479.0,-185.0,0.0,0.0,0.0
19:43:51.420000,-350.0,-173.0,445.0,-1132.0,-479.0,-185.0,0.0,0.0,0.0
19:43:51.425000,-422.0,-147.0,396.0,-812.0,-687.0,-139.0,0.0,0.0,0.0
19:43:51.429000,-422.0,-184.0,219.0,-812.0,-687.0,-139.0,0.0,0.0,0.0
19:43:51.434000,-373.0,-226.0,155.0,-640.0,-910.0,-131.0,0.0,0.0,0.0
19:43:51.439000,-373.0,-226.0,155.0,-640.0,-910.0,-131.0,0.0,0.0,0.0
19:43:51.444000,-308.0,-238.0,219.0,-565.0,-1073.0,-161.0,0.0,0.0,0.0
19:43:51.448000,-223.0,-217.0,30.0,-565.0,-1073.0,-161.0,0.0,0.0,0.0
19:43:51.453000,-142.0,-250.0,-61.0,-536.0,-1237.0,-170.0,0.0,0.0,0.0
19:43:51.458000,-66.0,-289.0,-21.0,-536.0,-1237.0,-170.0,0.0,0.0,0.0
19:43:51.462000,-2.0,-340.0,-220.0,-582.0,-1112.0,-146.0,0.0,0.0,0.0
19:43:51.467000,24.0,-350.0,-436.0,-582.0,-1112.0,-146.0,0.0,0.0,0.0
19:43:51.472000,-88.0,-279.0,-556.0,-555.0,-635.0,-157.0,0.0,0.0,0.0
19:43:51.476000,-157.0,-270.0,-767.0,-555.0,-635.0,-157.0,0.0,0.0,0.0
19:43:51.481000,-200.0,-258.0,-725.0,-694.0,-539.0,-190.0,0.0,0.0,0.0
19:43:51.486000,-91.0,-286.0,-583.0,-694.0,-539.0,-190.0,0.0,0.0,0.0
19:43:51.491000,-48.0,-300.0,-594.0,-880.0,-822.0,-217.0,0.0,0.0,0.0
19:43:51.495000,-37.0,-280.0,-451.0,-880.0,-822.0,-217.0,0.0,0.0,0.0
19:43:51.500000,-98.0,-295.0,-676.0,-913.0,-530.0,-214.0,0.0,0.0,0.0
19:43:51.505000,-203.0,-276.0,-730.0,-913.0,-530.0,-214.0,0.0,0.0,0.0
19:43:51.509000,-282.0,-247.0,-375.0,-913.0,-530.0,-214.0,0.0,0.0,0.0
19:43:51.514000,-322.0,-282.0,-186.0,-775.0,-245.0,-212.0,0.0,0.0,0.0
19:43:51.519000,-280.0,-310.0,-165.0,-775.0,-245.0,-212.0,0.0,0.0,0.0
19:43:51.523000,-207.0,-345.0,-121.0,-737.0,-516.0,-237.0,0.0,0.0,0.0
19:43:51.528000,-158.0,-367.0,-80.0,-737.0,-516.0,-237.0,0.0,0.0,0.0
19:43:51.533000,-170.0,-319.0,-171.0,-872.0,-680.0,-244.0,0.0,0.0,0.0
19:43:51.538000,-287.0,-325.0,-121.0,-872.0,-680.0,-244.0,0.0,0.0,0.0
19:43:51.542000,-196.0,-315.0,217.0,-852.0,-666.0,-215.0,0.0,0.0,0.0
19:43:51.547000,-143.0,-333.0,220.0,-852.0,-666.0,-215.0,0.0,0.0,0.0
19:43:51.552000,-143.0,-333.0,220.0,-825.0,-652.0,-215.0,0.0,0.0,0.0
19:43:51.556000,-116.0,-336.0,-5.0,-825.0,-652.0,-215.0,0.0,0.0,0.0
19:43:51.561000,-105.0,-393.0,-121.0,-700.0,-469.0,-215.0,0.0,0.0,0.0
19:43:51.566000,-196.0,-368.0,-66.0,-700.0,-469.0,-215.0,0.0,0.0,0.0
19:43:51.570000,-201.0,-327.0,25.0,-678.0,-542.0,-210.0,0.0,0.0,0.0
19:43:51.575000,-147.0,-304.0,-32.0,-678.0,-542.0,-210.0,0.0,0.0,0.0
19:43:51.580000,-64.0,-353.0,-1.0,-892.0,-876.0,-212.0,0.0,0.0,0.0
19:43:51.585000,37.0,-353.0,-67.0,-892.0,-876.0,-212.0,0.0,0.0,0.0
19:43:51.589000,-16.0,-343.0,-177.0,-908.0,-765.0,-175.0,0.0,0.0,0.0
19:43:51.594000,-15.0,-310.0,-49.0,-908.0,-765.0,-175.0,0.0,0.0,0.0
19:43:51.599000,-11.0,-306.0,47.0,-825.0,-573.0,-152.0,0.0,0.0,0.0
19:43:51.603000,-4.0,-329.0,-95.0,-825.0,-573.0,-152.0,0.0,0.0,0.0
19:43:51.608000,-28.0,-291.0,-164.0,-802.0,-619.0,-155.0,0.0,0.0,0.0
19:43:51.613000,-86.0,-254.0,-28.0,-802.0,-619.0,-155.0,0.0,0.0,0.0
19:43:51.617000,-16.0,-266.0,-7.0,-802.0,-619.0,-155.0,0.0,0.0,0.0
19:43:51.622000,78.0,-231.0,-9.0,-872.0,-646.0,-141.0,0.0,0.0,0.0
19:43:51.627000,97.0,-219.0,-60.0,-872.0,-646.0,-141.0,0.0,0.0,0.0
19:43:51.632000,34.0,-191.0,25.0,-1036.0,-630.0,-88.0,0.0,0.0,0.0
19:43:51.636000,64.0,-197.0,118.0,-1036.0,-630.0,-88.0,0.0,0.0,0.0
19:43:51.641000,-40.0,-155.0,-21.0,-975.0,-558.0,-52.0,0.0,0.0,0.0
19:43:51.646000,-21.0,-106.0,-135.0,-975.0,-558.0,-52.0,0.0,0.0,0.0
19:43:51.650000,45.0,-145.0,-84.0,-836.0,-563.0,-63.0,0.0,0.0,0.0
19:43:51.655000,28.0,-148.0,-179.0,-836.0,-563.0,-63.0,0.0,0.0,0.0
19:43:51.660000,28.0,-148.0,-179.0,-886.0,-619.0,-55.0,0.0,0.0,0.0
19:43:51.664000,56.0,-154.0,-210.0,-886.0,-619.0,-55.0,0.0,0.0,0.0
19:43:51.669000,-32.0,-128.0,-89.0,-849.0,-553.0,-30.0,0.0,0.0,0.0
19:43:51.674000,-51.0,-95.0,-3.0,-849.0,-553.0,-30.0,0.0,0.0,0.0
19:43:51.679000,-19.0,-63.0,-101.0,-879.0,-504.0,-29.0,0.0,0.0,0.0
19:43:51.683000,30.0,-59.0,-269.0,-879.0,-504.0,-29.0,0.0,0.0,0.0
19:43:51.688000,42.0,-46.0,-317.0,-959.0,-552.0,-26.0,0.0,0.0,0.0
19:43:51.693000,79.0,-67.0,-201.0,-959.0,-552.0,-26.0,0.0,0.0,0.0
19:43:51.697000,15.0,-58.0,-151.0,-911.0,-503.0,-19.0,0.0,0.0,0.0
19:43:51.702000,-24.0,-52.0,-265.0,-911.0,-503.0,-19.0,0.0,0.0,0.0
19:43:51.707000,-29.0,-48.0,-302.0,-840.0,-432.0,-25.0,0.0,0.0,0.0
19:43:51.711000,-31.0,-18.0,-198.0,-840.0,-432.0,-25.0,0.0,0.0,0.0
19:43:51.716000,2.0,-32.0,-54.0,-798.0,-538.0,-36.0,0.0,0.0,0.0
19:43:51.721000,68.0,-46.0,-49.0,-798.0,-538.0,-36.0,0.0,0.0,0.0
19:43:51.726000,53.0,-23.0,-129.0,-798.0,-538.0,-36.0,0.0,0.0,0.0
19:43:51.730000,2.0,-15.0,-266.0,-904.0,-512.0,-42.0,0.0,0.0,0.0
19:43:51.735000,-33.0,-13.0,-263.0,-904.0,-512.0,-42.0,0.0,0.0,0.0
19:43:51.740000,-70.0,1.0,-170.0,-975.0,-425.0,-37.0,0.0,0.0,0.0
19:43:51.744000,-66.0,-11.0,-175.0,-975.0,-425.0,-37.0,0.0,0.0,0.0
19:43:51.749000,-59.0,-6.0,-102.0,-910.0,-465.0,-46.0,0.0,0.0,0.0
19:43:51.754000,-55.0,-14.0,-87.0,-910.0,-465.0,-46.0,0.0,0.0,0.0
19:43:51.758000,-63.0,-35.0,-93.0,-826.0,-405.0,-59.0,0.0,0.0,0.0
19:43:51.763000,-93.0,-16.0,-91.0,-826.0,-405.0,-59.0,0.0,0.0,0.0
19:43:51.768000,-93.0,-16.0,-91.0,-802.0,-410.0,-67.0,0.0,0.0,0.0
19:43:51.773000,-86.0,-7.0,23.0,-802.0,-410.0,-67.0,0.0,0.0,0.0
19:43:51.777000,-73.0,-16.0,124.0,-848.0,-514.0,-82.0,0.0,0.0,0.0
19:43:51.781000,-14.0,-46.0,126.0,-848.0,-514.0,-82.0,0.0,0.0,0.0
19:43:51.787000,-2.0,-73.0,-35.0,-883.0,-424.0,-85.0,0.0,0.0,0.0
19:43:51.791000,-32.0,-74.0,-300.0,-883.0,-424.0,-85.0,0.0,0.0,0.0
19:43:51.796000,-112.0,-85.0,-424.0,-806.0,-396.0,-79.0,0.0,0.0,0.0
19:43:51.801000,-168.0,-60.0,-378.0,-806.0,-396.0,-79.0,0.0,0.0,0.0
19:43:51.805000,-165.0,-56.0,-312.0,-804.0,-565.0,-84.0,0.0,0.0,0.0
19:43:51.810000,-139.0,-74.0,-246.0,-804.0,-565.0,-84.0,0.0,0.0,0.0
19:43:51.815000,-92.0,-76.0,-105.0,-886.0,-579.0,-96.0,0.0,0.0,0.0
19:43:51.820000,-108.0,-93.0,-55.0,-886.0,-579.0,-96.0,0.0,0.0,0.0
19:43:51.824000,-110.0,-96.0,-178.0,-846.0,-491.0,-106.0,0.0,0.0,0.0
19:43:51.829000,-70.0,-116.0,-318.0,-846.0,-491.0,-106.0,0.0,0.0,0.0
19:43:51.834000,-64.0,-132.0,-417.0,-846.0,-491.0,-106.0,0.0,0.0,0.0
19:43:51.838000,-79.0,-151.0,-387.0,-842.0,-474.0,-108.0,0.0,0.0,0.0
19:43:51.843000,-100.0,-157.0,-287.0,-842.0,-474.0,-108.0,0.0,0.0,0.0
19:43:51.848000,-73.0,-143.0,-234.0,-822.0,-486.0,-102.0,0.0,0.0,0.0
19:43:51.852000,-84.0,-143.0,-255.0,-822.0,-486.0,-102.0,0.0,0.0,0.0
19:43:51.857000,-96.0,-144.0,-303.0,-861.0,-476.0,-91.0,0.0,0.0,0.0
19:43:51.862000,-88.0,-141.0,-389.0,-861.0,-476.0,-91.0,0.0,0.0,0.0
19:43:51.867000,-71.0,-137.0,-515.0,-979.0,-432.0,-79.0,0.0,0.0,0.0
19:43:51.871000,-105.0,-120.0,-543.0,-979.0,-432.0,-79.0,0.0,0.0,0.0
19:43:51.876000,-109.0,-120.0,-364.0,-972.0,-435.0,-70.0,0.0,0.0,0.0
19:43:51.881000,-109.0,-103.0,-537.0,-972.0,-435.0,-70.0,0.0,0.0,0.0
19:43:51.885000,-102.0,-100.0,-548.0,-924.0,-425.0,-53.0,0.0,0.0,0.0
19:43:51.890000,-139.0,-88.0,-502.0,-924.0,-425.0,-53.0,0.0,0.0,0.0
19:43:51.895000,-130.0,-84.0,-360.0,-907.0,-453.0,-47.0,0.0,0.0,0.0
19:43:51.899000,-138.0,-72.0,-293.0,-907.0,-453.0,-47.0,0.0,0.0,0.0
19:43:51.904000,-112.0,-59.0,-358.0,-963.0,-474.0,-51.0,0.0,0.0,0.0
19:43:51.909000,-79.0,-60.0,-424.0,-963.0,-474.0,-51.0,0.0,0.0,0.0
19:43:51.914000,-78.0,-58.0,-420.0,-1025.0,-451.0,-44.0,0.0,0.0,0.0
19:43:51.918000,-63.0,-48.0,-443.0,-1025.0,-451.0,-44.0,0.0,0.0,0.0
19:43:51.923000,-43.0,-35.0,-451.0,-971.0,-481.0,-44.0,0.0,0.0,0.0
19:43:51.928000,-15.0,-30.0,-373.0,-971.0,-481.0,-44.0,0.0,0.0,0.0
19:43:51.932000,-5.0,-25.0,-280.0,-924.0,-416.0,-49.0,0.0,0.0,0.0
19:43:51.937000,-4.0,-15.0,-267.0,-924.0,-416.0,-49.0,0.0,0.0,0.0
19:43:51.942000,-24.0,-9.0,-332.0,-924.0,-416.0,-49.0,0.0,0.0,0.0
19:43:51.946000,-18.0,-10.0,-392.0,-955.0,-353.0,-42.0,0.0,0.0,0.0
19:43:51.951000,-3.0,-11.0,-402.0,-955.0,-353.0,-42.0,0.0,0.0,0.0
19:43:51.956000,9.0,0.0,-357.0,-945.0,-397.0,-48.0,0.0,0.0,0.0
19:43:51.961000,2.0,8.0,-373.0,-945.0,-397.0,-48.0,0.0,0.0,0.0
19:43:51.965000,-17.0,16.0,-384.0,-912.0,-390.0,-53.0,0.0,0.0,0.0
19:43:51.970000,-4.0,23.0,-389.0,-912.0,-390.0,-53.0,0.0,0.0,0.0
19:43:51.975000,28.0,31.0,-429.0,-977.0,-341.0,-55.0,0.0,0.0,0.0
19:43:51.979000,21.0,30.0,-442.0,-977.0,-341.0,-55.0,0.0,0.0,0.0
19:43:51.984000,15.0,28.0,-445.0,-1034.0,-356.0,-53.0,0.0,0.0,0.0
19:43:51.989000,15.0,28.0,-445.0,-1034.0,-356.0,-53.0,0.0,0.0,0.0
19:43:51.993000,3.0,43.0,-429.0,-977.0,-371.0,-44.0,0.0,0.0,0.0
19:43:51.998000,14.0,48.0,-423.0,-977.0,-371.0,-44.0,0.0,0.0,0.0
19:43:52.003000,1.0,48.0,-432.0,-943.0,-368.0,-39.0,0.0,0.0,0.0
19:43:52.008000,11.0,44.0,-455.0,-943.0,-368.0,-39.0,0.0,0.0,0.0
19:43:52.012000,39.0,48.0,-478.0,-970.0,-397.0,-46.0,0.0,0.0,0.0
19:43:52.017000,53.0,53.0,-452.0,-970.0,-397.0,-46.0,0.0,0.0,0.0
19:43:52.022000,95.0,53.0,-394.0,-990.0,-391.0,-50.0,0.0,0.0,0.0
19:43:52.026000,105.0,61.0,-391.0,-990.0,-391.0,-50.0,0.0,0.0,0.0
19:43:52.031000,81.0,79.0,-373.0,-1009.0,-311.0,-30.0,0.0,0.0,0.0
19:43:52.036000,68.0,87.0,-333.0,-1009.0,-311.0,-30.0,0.0,0.0,0.0
19:43:52.040000,69.0,90.0,-329.0,-989.0,-269.0,-14.0,0.0,0.0,0.0
19:43:52.045000,81.0,91.0,-367.0,-989.0,-269.0,-14.0,0.0,0.0,0.0
19:43:52.050000,102.0,92.0,-394.0,-989.0,-269.0,-14.0,0.0,0.0,0.0
19:43:52.055000,100.0,95.0,-418.0,-934.0,-294.0,-7.0,0.0,0.0,0.0
19:43:52.059000,102.0,98.0,-424.0,-934.0,-294.0,-7.0,0.0,0.0,0.0
19:43:52.064000,109.0,104.0,-430.0,-910.0,-320.0,4.0,0.0,0.0,0.0
19:43:52.069000,112.0,116.0,-410.0,-910.0,-320.0,4.0,0.0,0.0,0.0
19:43:52.073000,102.0,126.0,-364.0,-944.0,-307.0,4.0,0.0,0.0,0.0
19:43:52.078000,81.0,133.0,-333.0,-944.0,-307.0,4.0,0.0,0.0,0.0
19:43:52.083000,58.0,140.0,-337.0,-980.0,-249.0,-1.0,0.0,0.0,0.0
19:43:52.087000,43.0,142.0,-367.0,-980.0,-249.0,-1.0,0.0,0.0,0.0
19:43:52.092000,39.0,149.0,-393.0,-984.0,-221.0,-7.0,0.0,0.0,0.0
19:43:52.097000,39.0,149.0,-393.0,-984.0,-221.0,-7.0,0.0,0.0,0.0
19:43:52.102000,39.0,154.0,-392.0,-976.0,-216.0,-17.0,0.0,0.0,0.0
19:43:52.106000,26.0,160.0,-375.0,-976.0,-216.0,-17.0,0.0,0.0,0.0
19:43:52.111000,12.0,165.0,-359.0,-961.0,-201.0,-23.0,0.0,0.0,0.0
19:43:52.116000,0.0,172.0,-387.0,-961.0,-201.0,-23.0,0.0,0.0,0.0
19:43:52.120000,-10.0,177.0,-416.0,-955.0,-194.0,-29.0,0.0,0.0,0.0
19:43:52.125000,-21.0,182.0,-429.0,-955.0,-194.0,-29.0,0.0,0.0,0.0
19:43:52.130000,-38.0,191.0,-427.0,-974.0,-188.0,-41.0,0.0,0.0,0.0
19:43:52.134000,-56.0,198.0,-431.0,-974.0,-188.0,-41.0,0.0,0.0,0.0
19:43:52.139000,-64.0,198.0,-402.0,-1001.0,-208.0,-58.0,0.0,0.0,0.0
19:43:52.144000,-68.0,195.0,-354.0,-1001.0,-208.0,-58.0,0.0,0.0,0.0
19:43:52.149000,-65.0,187.0,-333.0,-1011.0,-229.0,-76.0,0.0,0.0,0.0
19:43:52.153000,-58.0,182.0,-341.0,-1011.0,-229.0,-76.0,0.0,0.0,0.0
19:43:52.158000,-49.0,179.0,-331.0,-1011.0,-229.0,-76.0,0.0,0.0,0.0
19:43:52.163000,-35.0,168.0,-326.0,-989.0,-230.0,-91.0,0.0,0.0,0.0
19:43:52.167000,-30.0,161.0,-348.0,-989.0,-230.0,-91.0,0.0,0.0,0.0
19:43:52.172000,-31.0,156.0,-366.0,-965.0,-213.0,-100.0,0.0,0.0,0.0
19:43:52.177000,-30.0,149.0,-359.0,-965.0,-213.0,-100.0,0.0,0.0,0.0
19:43:52.181000,-24.0,144.0,-364.0,-967.0,-216.0,-108.0,0.0,0.0,0.0
19:43:52.186000,-18.0,138.0,-382.0,-967.0,-216.0,-108.0,0.0,0.0,0.0
19:43:52.191000,-12.0,129.0,-375.0,-976.0,-249.0,-122.0,0.0,0.0,0.0
19:43:52.196000,0.0,119.0,-375.0,-976.0,-249.0,-122.0,0.0,0.0,0.0
19:43:52.200000,11.0,108.0,-382.0,-984.0,-248.0,-132.0,0.0,0.0,0.0
19:43:52.205000,11.0,108.0,-382.0,-984.0,-248.0,-132.0,0.0,0.0,0.0
19:43:52.210000,8.0,106.0,-406.0,-988.0,-222.0,-135.0,0.0,0.0,0.0
19:43:52.214000,-3.0,106.0,-433.0,-988.0,-222.0,-135.0,0.0,0.0,0.0
19:43:52.219000,-11.0,102.0,-440.0,-963.0,-171.0,-133.0,0.0,0.0,0.0
19:43:52.224000,-26.0,99.0,-440.0,-963.0,-171.0,-133.0,0.0,0.0,0.0
19:43:52.228000,-37.0,99.0,-425.0,-928.0,-125.0,-131.0,0.0,0.0,0.0
19:43:52.233000,-51.0,98.0,-422.0,-928.0,-125.0,-131.0,0.0,0.0,0.0
19:43:52.238000,-61.0,93.0,-420.0,-935.0,-126.0,-133.0,0.0,0.0,0.0
19:43:52.243000,-66.0,91.0,-412.0,-935.0,-126.0,-133.0,0.0,0.0,0.0
19:43:52.247000,-69.0,86.0,-413.0,-965.0,-147.0,-139.0,0.0,0.0,0.0
19:43:52.252000,-72.0,84.0,-415.0,-965.0,-147.0,-139.0,0.0,0.0,0.0
19:43:52.256000,-73.0,83.0,-425.0,-968.0,-156.0,-144.0,0.0,0.0,0.0
19:43:52.261000,-70.0,83.0,-415.0,-968.0,-156.0,-144.0,0.0,0.0,0.0
19:43:52.266000,-65.0,84.0,-399.0,-968.0,-152.0,-142.0,0.0,0.0,0.0
19:43:52.271000,-60.0,81.0,-400.0,-965.0,-152.0,-142.0,0.0,0.0,0.0
19:43:52.275000,-55.0,79.0,-405.0,-965.0,-152.0,-142.0,0.0,0.0,0.0
19:43:52.280000,-44.0,72.0,-378.0,-973.0,-144.0,-139.0,0.0,0.0,0.0
19:43:52.285000,-30.0,66.0,-337.0,-973.0,-144.0,-139.0,0.0,0.0,0.0
19:43:52.290000,-14.0,63.0,-315.0,-951.0,-143.0,-142.0,0.0,0.0,0.0
19:43:52.294000,-13.0,63.0,-293.0,-951.0,-143.0,-142.0,0.0,0.0,0.0
19:43:52.299000,-24.0,60.0,-284.0,-938.0,-117.0,-143.0,0.0,0.0,0.0
19:43:52.304000,-36.0,59.0,-319.0,-938.0,-117.0,-143.0,0.0,0.0,0.0
19:43:52.308000,-42.0,58.0,-340.0,-946.0,-50.0,-143.0,0.0,0.0,0.0
19:43:52.313000,-47.0,59.0,-317.0,-946.0,-50.0,-143.0,0.0,0.0,0.0
19:43:52.318000,-47.0,59.0,-317.0,-937.0,-45.0,-152.0,0.0,0.0,0.0
19:43:52.322000,-41.0,62.0,-305.0,-937.0,-45.0,-152.0,0.0,0.0,0.0
19:43:52.327000,-36.0,63.0,-312.0,-953.0,-84.0,-158.0,0.0,0.0,0.0
19:43:52.332000,-46.0,65.0,-290.0,-953.0,-84.0,-158.0,0.0,0.0,0.0
19:43:52.337000,-48.0,72.0,-256.0,-1005.0,-90.0,-160.0,0.0,0.0,0.0
19:43:52.341000,-56.0,82.0,-247.0,-1005.0,-90.0,-160.0,0.0,0.0,0.0
19:43:52.346000,-62.0,91.0,-240.0,-1040.0,-74.0,-165.0,0.0,0.0,0.0
19:43:52.351000,-65.0,95.0,-224.0,-1040.0,-74.0,-165.0,0.0,0.0,0.0
19:43:52.355000,-68.0,102.0,-221.0,-1007.0,-60.0,-170.0,0.0,0.0,0.0
19:43:52.360000,-69.0,107.0,-215.0,-1007.0,-60.0,-170.0,0.0,0.0,0.0
19:43:52.365000,-63.0,108.0,-229.0,-946.0,-85.0,-177.0,0.0,0.0,0.0
19:43:52.369000,-47.0,110.0,-259.0,-946.0,-85.0,-177.0,0.0,0.0,0.0
19:43:52.374000,-30.0,109.0,-266.0,-903.0,-94.0,-183.0,0.0,0.0,0.0
19:43:52.379000,-27.0,109.0,-250.0,-903.0,-94.0,-183.0,0.0,0.0,0.0
19:43:52.384000,-24.0,113.0,-240.0,-903.0,-94.0,-183.0,0.0,0.0,0.0
19:43:52.388000,-18.0,112.0,-241.0,-892.0,-76.0,-183.0,0.0,0.0,0.0
19:43:52.393000,-9.0,109.0,-242.0,-892.0,-76.0,-183.0,0.0,0.0,0.0
19:43:52.398000,8.0,105.0,-236.0,-909.0,-91.0,-184.0,0.0,0.0,0.0
19:43:52.402000,28.0,102.0,-235.0,-909.0,-91.0,-184.0,0.0,0.0,0.0
19:43:52.407000,44.0,97.0,-240.0,-911.0,-115.0,-187.0,0.0,0.0,0.0
19:43:52.412000,62.0,90.0,-238.0,-911.0,-115.0,-187.0,0.0,0.0,0.0
19:43:52.416000,77.0,84.0,-235.0,-897.0,-100.0,-187.0,0.0,0.0,0.0
19:43:52.421000,88.0,80.0,-236.0,-897.0,-100.0,-187.0,0.0,0.0,0.0
19:43:52.426000,88.0,80.0,-236.0,-888.0,-60.0,-187.0,0.0,0.0,0.0
19:43:52.431000,96.0,78.0,-231.0,-888.0,-60.0,-187.0,0.0,0.0,0.0
19:43:52.435000,101.0,79.0,-200.0,-907.0,-44.0,-189.0,0.0,0.0,0.0
19:43:52.440000,103.0,77.0,-167.0,-907.0,-44.0,-189.0,0.0,0.0,0.0
19:43:52.445000,105.0,73.0,-164.0,-959.0,-52.0,-191.0,0.0,0.0,0.0
19:43:52.449000,105.0,70.0,-182.0,-959.0,-52.0,-191.0,0.0,0.0,0.0
19:43:52.454000,103.0,70.0,-195.0,-978.0,-47.0,-186.0,0.0,0.0,0.0
19:43:52.459000,103.0,66.0,-196.0,-978.0,-47.0,-186.0,0.0,0.0,0.0
19:43:52.463000,112.0,68.0,-204.0,-954.0,-46.0,-179.0,0.0,0.0,0.0
19:43:52.468000,125.0,67.0,-216.0,-954.0,-46.0,-179.0,0.0,0.0,0.0
19:43:52.473000,137.0,63.0,-236.0,-948.0,-52.0,-172.0,0.0,0.0,0.0
19:43:52.478000,146.0,55.0,-266.0,-948.0,-52.0,-172.0,0.0,0.0,0.0
19:43:52.482000,151.0,49.0,-291.0,-946.0,-51.0,-165.0,0.0,0.0,0.0
19:43:52.487000,151.0,51.0,-304.0,-946.0,-51.0,-165.0,0.0,0.0,0.0
19:43:52.492000,151.0,49.0,-306.0,-946.0,-44.0,-159.0,0.0,0.0,0.0
19:43:52.496000,151.0,43.0,-305.0,-946.0,-44.0,-159.0,0.0,0.0,0.0
19:43:52.501000,153.0,35.0,-306.0,-946.0,-44.0,-159.0,0.0,0.0,0.0
19:43:52.506000,156.0,30.0,-319.0,-956.0,-41.0,-153.0,0.0,0.0,0.0
19:43:52.510000,158.0,29.0,-345.0,-956.0,-41.0,-153.0,0.0,0.0,0.0
19:43:52.515000,161.0,28.0,-371.0,-959.0,-20.0,-152.0,0.0,0.0,0.0
19:43:52.520000,160.0,24.0,-382.0,-959.0,-20.0,-152.0,0.0,0.0,0.0
19:43:52.525000,159.0,22.0,-383.0,-964.0,3.0,-152.0,0.0,0.0,0.0
19:43:52.529000,160.0,16.0,-381.0,-964.0,3.0,-152.0,0.0,0.0,0.0
19:43:52.534000,160.0,16.0,-381.0,-986.0,2.0,-150.0,0.0,0.0,0.0
19:43:52.539000,156.0,12.0,-387.0,-986.0,2.0,-150.0,0.0,0.0,0.0
19:43:52.543000,149.0,7.0,-403.0,-1009.0,3.0,-150.0,0.0,0.0,0.0
19:43:52.548000,147.0,4.0,-421.0,-1009.0,3.0,-150.0,0.0,0.0,0.0
19:43:52.553000,151.0,1.0,-433.0,-1005.0,1.0,-150.0,0.0,0.0,0.0
19:43:52.557000,158.0,-2.0,-434.0,-1005.0,1.0,-150.0,0.0,0.0,0.0
19:43:52.562000,166.0,-7.0,-436.0,-1003.0,-9.0,-149.0,0.0,0.0,0.0
19:43:52.567000,165.0,-9.0,-450.0,-1003.0,-9.0,-149.0,0.0,0.0,0.0
19:43:52.572000,163.0,-12.0,-475.0,-1027.0,-9.0,-148.0,0.0,0.0,0.0
19:43:52.576000,167.0,-17.0,-490.0,-1027.0,-9.0,-148.0,0.0,0.0,0.0
19:43:52.581000,170.0,-17.0,-496.0,-1024.0,-9.0,-149.0,0.0,0.0,0.0
19:43:52.586000,176.0,-21.0,-499.0,-1024.0,-9.0,-149.0,0.0,0.0,0.0
19:43:52.590000,174.0,-23.0,-498.0,-982.0,-1.0,-147.0,0.0,0.0,0.0
19:43:52.595000,174.0,-21.0,-496.0,-982.0,-1.0,-147.0,0.0,0.0,0.0
19:43:52.600000,177.0,-21.0,-492.0,-982.0,-1.0,-147.0,0.0,0.0,0.0
19:43:52.604000,182.0,-18.0,-500.0,-941.0,14.0,-144.0,0.0,0.0,0.0
19:43:52.609000,187.0,-17.0,-513.0,-941.0,14.0,-144.0,0.0,0.0,0.0
19:43:52.614000,182.0,-10.0,-511.0,-917.0,34.0,-146.0,0.0,0.0,0.0
19:43:52.619000,169.0,-5.0,-494.0,-917.0,34.0,-146.0,0.0,0.0,0.0
19:43:52.623000,158.0,-2.0,-475.0,-887.0,79.0,-146.0,0.0,0.0,0.0
19:43:52.628000,149.0,2.0,-466.0,-887.0,79.0,-146.0,0.0,0.0,0.0
19:43:52.633000,140.0,9.0,-474.0,-872.0,137.0,-147.0,0.0,0.0,0.0
19:43:52.637000,135.0,14.0,-472.0,-872.0,137.0,-147.0,0.0,0.0,0.0
19:43:52.642000,135.0,14.0,-472.0,-883.0,177.0,-153.0,0.0,0.0,0.0
19:43:52.647000,129.0,18.0,-457.0,-883.0,177.0,-153.0,0.0,0.0,0.0
19:43:52.651000,121.0,18.0,-449.0,-920.0,194.0,-155.0,0.0,0.0,0.0
19:43:52.656000,107.0,16.0,-443.0,-920.0,194.0,-155.0,0.0,0.0,0.0
