hh:mm:ss.ms,gyroX[mdps],gyroY[mdps],gyroZ[mdps],accX[mg],accY[mg],accZ[mg],magX[mG],magY[mG],magZ[mG]
19:44:45.048000,-510.0,-221.0,-151.0,-1277.0,-437.0,-44.0,0.0,0.0,0.0
19:44:45.053000,-502.0,-191.0,-223.0,-1277.0,-437.0,-44.0,0.0,0.0,0.0
19:44:45.058000,-490.0,-165.0,-277.0,-1314.0,-437.0,-52.0,0.0,0.0,0.0
19:44:45.063000,-487.0,-135.0,-293.0,-1314.0,-437.0,-52.0,0.0,0.0,0.0
19:44:45.067000,-476.0,-114.0,-340.0,-1312.0,-461.0,-66.0,0.0,0.0,0.0
19:44:45.072000,-447.0,-83.0,-413.0,-1312.0,-461.0,-66.0,0.0,0.0,0.0
19:44:45.077000,-417.0,-56.0,-463.0,-1312.0,-461.0,-66.0,0.0,0.0,0.0
19:44:45.081000,-401.0,-44.0,-478.0,-1303.0,-464.0,-78.0,0.0,0.0,0.0
19:44:45.086000,-385.0,-36.0,-471.0,-1303.0,-464.0,-78.0,0.0,0.0,0.0
19:44:45.091000,-364.0,-30.0,-460.0,-1270.0,-432.0,-82.0,0.0,0.0,0.0
19:44:45.095000,-340.0,-25.0,-444.0,-1270.0,-432.0,-82.0,0.0,0.0,0.0
19:44:45.100000,-322.0,-24.0,-434.0,-1226.0,-367.0,-83.0,0.0,0.0,0.0
19:44:45.105000,-330.0,-21.0,-439.0,-1226.0,-367.0,-83.0,0.0,0.0,0.0
19:44:45.110000,-343.0,-15.0,-464.0,-1187.0,-298.0,-78.0,0.0,0.0,0.0
19:44:45.114000,-344.0,0.0,-480.0,-1187.0,-298.0,-78.0,0.0,0.0,0.0
19:44:45.119000,-357.0,13.0,-499.0,-1155.0,-276.0,-69.0,0.0,0.0,0.0
19:44:45.124000,-357.0,13.0,-499.0,-1155.0,-276.0,-69.0,0.0,0.0,0.0
19:44:45.128000,-389.0,32.0,-518.0,-1124.0,-235.0,-61.0,0.0,0.0,0.0
19:44:45.133000,-422.0,45.0,-513.0,-1124.0,-235.0,-61.0,0.0,0.0,0.0
19:44:45.138000,-462.0,52.0,-518.0,-1122.0,-198.0,-48.0,0.0,0.0,0.0
19:44:45.142000,-482.0,68.0,-563.0,-1122.0,-198.0,-48.0,0.0,0.0,0.0
19:44:45.147000,-506.0,105.0,-617.0,-1104.0,-168.0,-42.0,0.0,0.0,0.0
19:44:45.152000,-527.0,102.0,-650.0,-1104.0,-168.0,-42.0,0.0,0.0,0.0
19:44:45.157000,-590.0,126.0,-650.0,-1027.0,-146.0,-18.0,0.0,0.0,0.0
19:44:45.161000,-579.0,130.0,-644.0,-1027.0,-146.0,-18.0,0.0,0.0,0.0
19:44:45.166000,-596.0,142.0,-634.0,-917.0,-177.0,-4.0,0.0,0.0,0.0
19:44:45.171000,-615.0,144.0,-618.0,-917.0,-177.0,-4.0,0.0,0.0,0.0
19:44:45.175000,-594.0,181.0,-671.0,-955.0,-181.0,-33.0,0.0,0.0,0.0
19:44:45.180000,-617.0,185.0,-778.0,-955.0,-181.0,-33.0,0.0,0.0,0.0
19:44:45.185000,-644.0,215.0,-774.0,-1046.0,-141.0,-62.0,0.0,0.0,0.0
19:44:45.189000,-619.0,198.0,-779.0,-1046.0,-141.0,-62.0,0.0,0.0,0.0
19:44:45.194000,-646.0,163.0,-715.0,-1046.0,-141.0,-62.0,0.0,0.0,0.0
19:44:45.199000,-639.0,165.0,-719.0,-1054.0,-186.0,-35.0,0.0,0.0,0.0
19:44:45.204000,-652.0,133.0,-722.0,-1054.0,-186.0,-35.0,0.0,0.0,0.0
19:44:45.208000,-618.0,177.0,-690.0,-893.0,-206.0,1.0,0.0,0.0,0.0
19:44:45.213000,-636.0,156.0,-843.0,-893.0,-206.0,1.0,0.0,0.0,0.0
19:44:45.218000,-634.0,217.0,-796.0,-685.0,-66.0,-2.0,0.0,0.0,0.0
19:44:45.222000,-633.0,212.0,-775.0,-685.0,-66.0,-2.0,0.0,0.0,0.0
19:44:45.227000,-669.0,233.0,-811.0,-635.0,11.0,-36.0,0.0,0.0,0.0
19:44:45.232000,-669.0,233.0,-811.0,-635.0,11.0,-36.0,0.0,0.0,0.0
19:44:45.236000,-678.0,238.0,-853.0,-873.0,-23.0,-81.0,0.0,0.0,0.0
19:44:45.241000,-672.0,231.0,-931.0,-873.0,-23.0,-81.0,0.0,0.0,0.0
19:44:45.246000,-669.0,204.0,-984.0,-1191.0,-58.0,-101.0,0.0,0.0,0.0
19:44:45.251000,-674.0,198.0,-984.0,-1191.0,-58.0,-101.0,0.0,0.0,0.0
19:44:45.255000,-653.0,208.0,-977.0,-1196.0,-57.0,-116.0,0.0,0.0,0.0
19:44:45.260000,-651.0,196.0,-977.0,-1196.0,-57.0,-116.0,0.0,0.0,0.0
19:44:45.265000,-653.0,182.0,-994.0,-1156.0,-53.0,-112.0,0.0,0.0,0.0
19:44:45.269000,-634.0,161.0,-1012.0,-1156.0,-53.0,-112.0,0.0,0.0,0.0
19:44:45.274000,-639.0,149.0,-985.0,-1116.0,-58.0,-105.0,0.0,0.0,0.0
19:44:45.279000,-641.0,146.0,-933.0,-1116.0,-58.0,-105.0,0.0,0.0,0.0
19:44:45.283000,-648.0,139.0,-879.0,-1103.0,-16.0,-116.0,0.0,0.0,0.0
19:44:45.288000,-644.0,130.0,-868.0,-1103.0,-16.0,-116.0,0.0,0.0,0.0
19:44:45.293000,-646.0,127.0,-893.0,-1103.0,-16.0,-116.0,0.0,0.0,0.0
19:44:45.298000,-641.0,122.0,-932.0,-1164.0,25.0,-117.0,0.0,0.0,0.0
19:44:45.302000,-620.0,121.0,-949.0,-1164.0,25.0,-117.0,0.0,0.0,0.0
19:44:45.307000,-593.0,129.0,-940.0,-1129.0,2.0,-113.0,0.0,0.0,0.0
19:44:45.312000,-568.0,137.0,-932.0,-1129.0,2.0,-113.0,0.0,0.0,0.0
19:44:45.316000,-547.0,145.0,-949.0,-1113.0,-29.0,-103.0,0.0,0.0,0.0
19:44:45.321000,-521.0,150.0,-976.0,-1113.0,-29.0,-103.0,0.0,0.0,0.0
19:44:45.326000,-491.0,148.0,-1005.0,-1178.0,-45.0,-85.0,0.0,0.0,0.0
19:44:45.330000,-470.0,149.0,-1015.0,-1178.0,-45.0,-85.0,0.0,0.0,0.0
19:44:45.335000,-469.0,151.0,-996.0,-1147.0,-19.0,-71.0,0.0,0.0,0.0
19:44:45.340000,-469.0,151.0,-996.0,-1147.0,-19.0,-71.0,0.0,0.0,0.0
19:44:45.345000,-473.0,152.0,-991.0,-1101.0,74.0,-65.0,0.0,0.0,0.0
19:44:45.349000,-482.0,151.0,-1015.0,-1101.0,74.0,-65.0,0.0,0.0,0.0
19:44:45.354000,-490.0,154.0,-1024.0,-1117.0,165.0,-64.0,0.0,0.0,0.0
19:44:45.359000,-511.0,154.0,-997.0,-1117.0,165.0,-64.0,0.0,0.0,0.0
19:44:45.363000,-537.0,158.0,-970.0,-1096.0,236.0,-63.0,0.0,0.0,0.0
19:44:45.368000,-570.0,166.0,-963.0,-1096.0,236.0,-63.0,0.0,0.0,0.0
19:44:45.373000,-600.0,172.0,-947.0,-1060.0,299.0,-63.0,0.0,0.0,0.0
19:44:45.377000,-627.0,182.0,-912.0,-1060.0,299.0,-63.0,0.0,0.0,0.0
19:44:45.382000,-650.0,184.0,-895.0,-1041.0,320.0,-68.0,0.0,0.0,0.0
19:44:45.387000,-673.0,182.0,-900.0,-1041.0,320.0,-68.0,0.0,0.0,0.0
19:44:45.392000,-690.0,180.0,-870.0,-994.0,335.0,-78.0,0.0,0.0,0.0
19:44:45.396000,-723.0,182.0,-788.0,-994.0,335.0,-78.0,0.0,0.0,0.0
19:44:45.401000,-740.0,183.0,-724.0,-952.0,368.0,-87.0,0.0,0.0,0.0
19:44:45.406000,-758.0,183.0,-708.0,-952.0,368.0,-87.0,0.0,0.0,0.0
19:44:45.410000,-786.0,184.0,-697.0,-952.0,368.0,-87.0,0.0,0.0,0.0
19:44:45.415000,-807.0,184.0,-674.0,-954.0,399.0,-94.0,0.0,0.0,0.0
19:44:45.419000,-828.0,187.0,-632.0,-954.0,399.0,-94.0,0.0,0.0,0.0
19:44:45.424000,-856.0,197.0,-583.0,-923.0,416.0,-107.0,0.0,0.0,0.0
19:44:45.429000,-889.0,209.0,-542.0,-923.0,416.0,-107.0,0.0,0.0,0.0
19:44:45.434000,-919.0,226.0,-515.0,-870.0,439.0,-126.0,0.0,0.0,0.0
19:44:45.439000,-955.0,243.0,-506.0,-870.0,439.0,-126.0,0.0,0.0,0.0
19:44:45.443000,-993.0,261.0,-498.0,-855.0,488.0,-138.0,0.0,0.0,0.0
19:44:45.448000,-1032.0,286.0,-485.0,-855.0,488.0,-138.0,0.0,0.0,0.0
19:44:45.453000,-1032.0,286.0,-485.0,-845.0,506.0,-146.0,0.0,0.0,0.0
19:44:45.457000,-1068.0,309.0,-473.0,-845.0,506.0,-146.0,0.0,0.0,0.0
19:44:45.462000,-1098.0,331.0,-457.0,-835.0,481.0,-157.0,0.0,0.0,0.0
19:44:45.467000,-1123.0,347.0,-437.0,-835.0,481.0,-157.0,0.0,0.0,0.0
19:44:45.471000,-1149.0,361.0,-413.0,-837.0,466.0,-166.0,0.0,0.0,0.0
19:44:45.476000,-1175.0,369.0,-384.0,-837.0,466.0,-166.0,0.0,0.0,0.0
19:44:45.481000,-1198.0,370.0,-342.0,-830.0,483.0,-171.0,0.0,0.0,0.0
19:44:45.486000,-1218.0,363.0,-295.0,-830.0,483.0,-171.0,0.0,0.0,0.0
19:44:45.490000,-1236.0,349.0,-231.0,-794.0,495.0,-171.0,0.0,0.0,0.0
19:44:45.495000,-1251.0,335.0,-152.0,-794.0,495.0,-171.0,0.0,0.0,0.0
19:44:45.500000,-1263.0,323.0,-81.0,-741.0,495.0,-168.0,0.0,0.0,0.0
19:44:45.504000,-1275.0,315.0,-18.0,-741.0,495.0,-168.0,0.0,0.0,0.0
19:44:45.509000,-1288.0,310.0,28.0,-722.0,514.0,-169.0,0.0,0.0,0.0
19:44:45.514000,-1301.0,304.0,65.0,-722.0,514.0,-169.0,0.0,0.0,0.0
19:44:45.518000,-1313.0,295.0,90.0,-722.0,514.0,-169.0,0.0,0.0,0.0
19:44:45.523000,-1324.0,284.0,117.0,-733.0,527.0,-169.0,0.0,0.0,0.0
19:44:45.528000,-1328.0,269.0,138.0,-733.0,527.0,-169.0,0.0,0.0,0.0
19:44:45.533000,-1325.0,252.0,142.0,-727.0,487.0,-163.0,0.0,0.0,0.0
19:44:45.537000,-1320.0,234.0,132.0,-727.0,487.0,-163.0,0.0,0.0,0.0
19:44:45.542000,-1314.0,213.0,118.0,-696.0,422.0,-152.0,0.0,0.0,0.0
19:44:45.547000,-1309.0,196.0,103.0,-696.0,422.0,-152.0,0.0,0.0,0.0
19:44:45.551000,-1306.0,179.0,84.0,-661.0,373.0,-137.0,0.0,0.0,0.0
19:44:45.556000,-1308.0,167.0,65.0,-661.0,373.0,-137.0,0.0,0.0,0.0
19:44:45.561000,-1308.0,167.0,65.0,-640.0,350.0,-116.0,0.0,0.0,0.0
19:44:45.565000,-1311.0,159.0,37.0,-640.0,350.0,-116.0,0.0,0.0,0.0
19:44:45.570000,-1312.0,159.0,-4.0,-652.0,345.0,-99.0,0.0,0.0,0.0
19:44:45.575000,-1310.0,165.0,-60.0,-652.0,345.0,-99.0,0.0,0.0,0.0
19:44:45.580000,-1306.0,176.0,-119.0,-708.0,332.0,-95.0,0.0,0.0,0.0
19:44:45.584000,-1303.0,192.0,-179.0,-708.0,332.0,-95.0,0.0,0.0,0.0
19:44:45.589000,-1299.0,211.0,-235.0,-791.0,312.0,-96.0,0.0,0.0,0.0
19:44:45.594000,-1294.0,231.0,-286.0,-791.0,312.0,-96.0,0.0,0.0,0.0
19:44:45.598000,-1289.0,256.0,-332.0,-850.0,300.0,-101.0,0.0,0.0,0.0
19:44:45.603000,-1285.0,282.0,-373.0,-850.0,300.0,-101.0,0.0,0.0,0.0
19:44:45.608000,-1281.0,311.0,-404.0,-877.0,294.0,-110.0,0.0,0.0,0.0
19:44:45.612000,-1276.0,343.0,-427.0,-877.0,294.0,-110.0,0.0,0.0,0.0
19:44:45.617000,-1272.0,374.0,-447.0,-903.0,295.0,-120.0,0.0,0.0,0.0
19:44:45.622000,-1271.0,405.0,-459.0,-903.0,295.0,-120.0,0.0,0.0,0.0
19:44:45.627000,-1272.0,438.0,-453.0,-903.0,295.0,-120.0,0.0,0.0,0.0
19:44:45.631000,-1274.0,471.0,-431.0,-918.0,292.0,-127.0,0.0,0.0,0.0
19:44:45.636000,-1276.0,508.0,-399.0,-918.0,292.0,-127.0,0.0,0.0,0.0
19:44:45.641000,-1278.0,543.0,-368.0,-914.0,279.0,-137.0,0.0,0.0,0.0
19:44:45.645000,-1281.0,580.0,-334.0,-914.0,279.0,-137.0,0.0,0.0,0.0
19:44:45.650000,-1280.0,611.0,-291.0,-916.0,265.0,-150.0,0.0,0.0,0.0
19:44:45.654000,-1280.0,611.0,-291.0,-916.0,265.0,-150.0,0.0,0.0,0.0
19:44:45.659000,-1269.0,674.0,-191.0,-894.0,238.0,-162.0,0.0,0.0,0.0
19:44:45.664000,-1261.0,707.0,-150.0,-894.0,238.0,-162.0,0.0,0.0,0.0
19:44:45.669000,-1261.0,707.0,-150.0,-839.0,208.0,-183.0,0.0,0.0,0.0
19:44:45.674000,-1250.0,739.0,-115.0,-839.0,208.0,-183.0,0.0,0.0,0.0
19:44:45.678000,-1237.0,771.0,-85.0,-801.0,196.0,-216.0,0.0,0.0,0.0
19:44:45.683000,-1221.0,799.0,-61.0,-801.0,196.0,-216.0,0.0,0.0,0.0
19:44:45.688000,-1202.0,823.0,-47.0,-795.0,188.0,-256.0,0.0,0.0,0.0
19:44:45.692000,-1178.0,838.0,-36.0,-795.0,188.0,-256.0,0.0,0.0,0.0
19:44:45.697000,-1150.0,849.0,-18.0,-767.0,158.0,-291.0,0.0,0.0,0.0
19:44:45.702000,-1117.0,857.0,5.0,-767.0,158.0,-291.0,0.0,0.0,0.0
19:44:45.706000,-1083.0,861.0,32.0,-690.0,106.0,-323.0,0.0,0.0,0.0
19:44:45.711000,-1047.0,861.0,58.0,-690.0,106.0,-323.0,0.0,0.0,0.0
19:44:45.716000,-1013.0,857.0,81.0,-605.0,66.0,-352.0,0.0,0.0,0.0
19:44:45.721000,-982.0,852.0,109.0,-605.0,66.0,-352.0,0.0,0.0,0.0
19:44:45.725000,-952.0,845.0,142.0,-530.0,40.0,-379.0,0.0,0.0,0.0
19:44:45.730000,-921.0,835.0,174.0,-530.0,40.0,-379.0,0.0,0.0,0.0
19:44:45.735000,-891.0,826.0,200.0,-530.0,40.0,-379.0,0.0,0.0,0.0
19:44:45.739000,-860.0,814.0,228.0,-458.0,6.0,-407.0,0.0,0.0,0.0
19:44:45.744000,-824.0,801.0,253.0,-458.0,6.0,-407.0,0.0,0.0,0.0
19:44:45.749000,-788.0,791.0,274.0,-383.0,-43.0,-437.0,0.0,0.0,0.0
19:44:45.753000,-751.0,786.0,282.0,-383.0,-43.0,-437.0,0.0,0.0,0.0
19:44:45.758000,-714.0,786.0,277.0,-311.0,-84.0,-476.0,0.0,0.0,0.0
19:44:45.763000,-681.0,786.0,259.0,-311.0,-84.0,-476.0,0.0,0.0,0.0
19:44:45.768000,-655.0,788.0,226.0,-279.0,-71.0,-518.0,0.0,0.0,0.0
19:44:45.772000,-638.0,788.0,177.0,-279.0,-71.0,-518.0,0.0,0.0,0.0
19:44:45.777000,-638.0,788.0,177.0,-289.0,8.0,-550.0,0.0,0.0,0.0
19:44:45.782000,-629.0,782.0,124.0,-289.0,8.0,-550.0,0.0,0.0,0.0
19:44:45.786000,-625.0,769.0,79.0,-274.0,84.0,-557.0,0.0,0.0,0.0
19:44:45.791000,-624.0,749.0,41.0,-274.0,84.0,-557.0,0.0,0.0,0.0
19:44:45.796000,-625.0,727.0,9.0,-195.0,106.0,-543.0,0.0,0.0,0.0
19:44:45.800000,-630.0,702.0,-16.0,-195.0,106.0,-543.0,0.0,0.0,0.0
19:44:45.805000,-637.0,679.0,-40.0,-121.0,118.0,-529.0,0.0,0.0,0.0
19:44:45.810000,-648.0,658.0,-58.0,-121.0,118.0,-529.0,0.0,0.0,0.0
19:44:45.815000,-660.0,642.0,-72.0,-113.0,131.0,-532.0,0.0,0.0,0.0
19:44:45.819000,-675.0,632.0,-74.0,-113.0,131.0,-532.0,0.0,0.0,0.0
19:44:45.824000,-689.0,630.0,-66.0,-149.0,109.0,-556.0,0.0,0.0,0.0
19:44:45.829000,-704.0,638.0,-56.0,-149.0,109.0,-556.0,0.0,0.0,0.0
19:44:45.833000,-720.0,652.0,-43.0,-203.0,75.0,-595.0,0.0,0.0,0.0
19:44:45.838000,-736.0,669.0,-28.0,-203.0,75.0,-595.0,0.0,0.0,0.0
19:44:45.843000,-751.0,688.0,-11.0,-203.0,75.0,-595.0,0.0,0.0,0.0
19:44:45.847000,-763.0,707.0,9.0,-252.0,54.0,-633.0,0.0,0.0,0.0
19:44:45.852000,-767.0,730.0,33.0,-252.0,54.0,-633.0,0.0,0.0,0.0
19:44:45.857000,-765.0,756.0,59.0,-248.0,5.0,-670.0,0.0,0.0,0.0
19:44:45.861000,-761.0,784.0,81.0,-248.0,5.0,-670.0,0.0,0.0,0.0
19:44:45.866000,-758.0,814.0,98.0,-223.0,-56.0,-716.0,0.0,0.0,0.0
19:44:45.871000,-753.0,844.0,113.0,-223.0,-56.0,-716.0,0.0,0.0,0.0
19:44:45.876000,-744.0,872.0,129.0,-232.0,-89.0,-769.0,0.0,0.0,0.0
19:44:45.880000,-730.0,897.0,142.0,-232.0,-89.0,-769.0,0.0,0.0,0.0
19:44:45.885000,-709.0,920.0,145.0,-230.0,-131.0,-824.0,0.0,0.0,0.0
19:44:45.889000,-709.0,920.0,145.0,-230.0,-131.0,-824.0,0.0,0.0,0.0
19:44:45.894000,-683.0,942.0,137.0,-199.0,-177.0,-876.0,0.0,0.0,0.0
19:44:45.899000,-657.0,959.0,119.0,-199.0,-177.0,-876.0,0.0,0.0,0.0
19:44:45.904000,-626.0,971.0,95.0,-172.0,-195.0,-918.0,0.0,0.0,0.0
19:44:45.908000,-592.0,982.0,63.0,-172.0,-195.0,-918.0,0.0,0.0,0.0
19:44:45.913000,-553.0,988.0,24.0,-153.0,-208.0,-954.0,0.0,0.0,0.0
19:44:45.918000,-511.0,989.0,-18.0,-153.0,-208.0,-954.0,0.0,0.0,0.0
19:44:45.923000,-465.0,986.0,-60.0,-137.0,-223.0,-981.0,0.0,0.0,0.0
19:44:45.927000,-420.0,978.0,-103.0,-137.0,-223.0,-981.0,0.0,0.0,0.0
19:44:45.932000,-378.0,969.0,-147.0,-125.0,-208.0,-996.0,0.0,0.0,0.0
19:44:45.937000,-344.0,961.0,-191.0,-125.0,-208.0,-996.0,0.0,0.0,0.0
19:44:45.941000,-317.0,953.0,-229.0,-116.0,-157.0,-1002.0,0.0,0.0,0.0
19:44:45.946000,-299.0,942.0,-260.0,-116.0,-157.0,-1002.0,0.0,0.0,0.0
19:44:45.951000,-289.0,932.0,-285.0,-116.0,-157.0,-1002.0,0.0,0.0,0.0
19:44:45.955000,-287.0,919.0,-305.0,-115.0,-96.0,-1001.0,0.0,0.0,0.0
19:44:45.960000,-287.0,903.0,-318.0,-115.0,-96.0,-1001.0,0.0,0.0,0.0
19:44:45.965000,-288.0,883.0,-322.0,-116.0,-52.0,-992.0,0.0,0.0,0.0
19:44:45.970000,-287.0,861.0,-322.0,-116.0,-52.0,-992.0,0.0,0.0,0.0
19:44:45.974000,-283.0,840.0,-322.0,-92.0,-41.0,-991.0,0.0,0.0,0.0
19:44:45.979000,-274.0,812.0,-319.0,-92.0,-41.0,-991.0,0.0,0.0,0.0
19:44:45.984000,-259.0,781.0,-317.0,-56.0,-42.0,-998.0,0.0,0.0,0.0
19:44:45.988000,-244.0,749.0,-321.0,-56.0,-42.0,-998.0,0.0,0.0,0.0
19:44:45.993000,-233.0,721.0,-334.0,-19.0,-46.0,-999.0,0.0,0.0,0.0
19:44:45.998000,-233.0,721.0,-334.0,-19.0,-46.0,-999.0,0.0,0.0,0.0
19:44:46.002000,-223.0,697.0,-352.0,-9.0,-14.0,-998.0,0.0,0.0,0.0
19:44:46.007000,-221.0,680.0,-366.0,-9.0,-14.0,-998.0,0.0,0.0,0.0
19:44:46.012000,-226.0,664.0,-376.0,-30.0,55.0,-996.0,0.0,0.0,0.0
19:44:46.017000,-235.0,646.0,-385.0,-30.0,55.0,-996.0,0.0,0.0,0.0
19:44:46.021000,-247.0,626.0,-393.0,-32.0,107.0,-985.0,0.0,0.0,0.0
19:44:46.026000,-269.0,606.0,-387.0,-32.0,107.0,-985.0,0.0,0.0,0.0
19:44:46.031000,-302.0,589.0,-371.0,-22.0,152.0,-946.0,0.0,0.0,0.0
19:44:46.035000,-338.0,576.0,-346.0,-22.0,152.0,-946.0,0.0,0.0,0.0
19:44:46.040000,-374.0,567.0,-312.0,-4.0,185.0,-893.0,0.0,0.0,0.0
19:44:46.045000,-406.0,561.0,-267.0,-4.0,185.0,-893.0,0.0,0.0,0.0
19:44:46.049000,-436.0,562.0,-206.0,-2.0,159.0,-855.0,0.0,0.0,0.0
19:44:46.054000,-462.0,565.0,-140.0,-2.0,159.0,-855.0,0.0,0.0,0.0
19:44:46.059000,-486.0,567.0,-92.0,-2.0,159.0,-855.0,0.0,0.0,0.0
19:44:46.064000,-513.0,570.0,-73.0,-72.0,105.0,-826.0,0.0,0.0,0.0
19:44:46.068000,-546.0,574.0,-71.0,-72.0,105.0,-826.0,0.0,0.0,0.0
19:44:46.073000,-582.0,574.0,-60.0,-113.0,81.0,-794.0,0.0,0.0,0.0
19:44:46.078000,-623.0,571.0,-53.0,-113.0,81.0,-794.0,0.0,0.0,0.0
19:44:46.082000,-669.0,566.0,-65.0,-37.0,95.0,-765.0,0.0,0.0,0.0
19:44:46.087000,-721.0,559.0,-94.0,-37.0,95.0,-765.0,0.0,0.0,0.0
19:44:46.092000,-776.0,551.0,-112.0,25.0,114.0,-754.0,0.0,0.0,0.0
19:44:46.096000,-827.0,536.0,-109.0,25.0,114.0,-754.0,0.0,0.0,0.0
19:44:46.101000,-876.0,513.0,-105.0,13.0,82.0,-763.0,0.0,0.0,0.0
19:44:46.106000,-876.0,513.0,-105.0,13.0,82.0,-763.0,0.0,0.0,0.0
19:44:46.111000,-931.0,486.0,-112.0,-9.0,43.0,-775.0,0.0,0.0,0.0
19:44:46.115000,-989.0,458.0,-123.0,-9.0,43.0,-775.0,0.0,0.0,0.0
19:44:46.120000,-1052.0,433.0,-123.0,-4.0,34.0,-785.0,0.0,0.0,0.0
19:44:46.124000,-1120.0,408.0,-114.0,-4.0,34.0,-785.0,0.0,0.0,0.0
19:44:46.129000,-1195.0,385.0,-111.0,2.0,34.0,-798.0,0.0,0.0,0.0
19:44:46.134000,-1280.0,361.0,-121.0,2.0,34.0,-798.0,0.0,0.0,0.0
19:44:46.139000,-1372.0,336.0,-142.0,-10.0,52.0,-803.0,0.0,0.0,0.0
19:44:46.143000,-1469.0,311.0,-173.0,-10.0,52.0,-803.0,0.0,0.0,0.0
19:44:46.148000,-1565.0,286.0,-210.0,-9.0,50.0,-801.0,0.0,0.0,0.0
19:44:46.153000,-1659.0,259.0,-250.0,-9.0,50.0,-801.0,0.0,0.0,0.0
19:44:46.158000,-1750.0,230.0,-295.0,5.0,19.0,-794.0,0.0,0.0,0.0
19:44:46.162000,-1838.0,196.0,-342.0,5.0,19.0,-794.0,0.0,0.0,0.0
19:44:46.167000,-1924.0,161.0,-385.0,5.0,-15.0,-794.0,0.0,0.0,0.0
19:44:46.172000,-2005.0,123.0,-427.0,20.0,-15.0,-781.0,0.0,0.0,0.0
19:44:46.176000,-2080.0,83.0,-464.0,20.0,-15.0,-781.0,0.0,0.0,0.0
19:44:46.181000,-2151.0,45.0,-496.0,43.0,-59.0,-767.0,0.0,0.0,0.0
19:44:46.186000,-2216.0,11.0,-522.0,43.0,-59.0,-767.0,0.0,0.0,0.0
19:44:46.190000,-2279.0,-21.0,-548.0,50.0,-111.0,-760.0,0.0,0.0,0.0
19:44:46.195000,-2339.0,-51.0,-569.0,50.0,-111.0,-760.0,0.0,0.0,0.0
19:44:46.200000,-2399.0,-81.0,-585.0,20.0,-153.0,-761.0,0.0,0.0,0.0
19:44:46.205000,-2455.0,-106.0,-597.0,20.0,-153.0,-761.0,0.0,0.0,0.0
19:44:46.209000,-2506.0,-126.0,-609.0,-11.0,-195.0,-764.0,0.0,0.0,0.0
19:44:46.214000,-2506.0,-126.0,-609.0,-11.0,-195.0,-764.0,0.0,0.0,0.0
19:44:46.219000,-2550.0,-147.0,-620.0,-39.0,-247.0,-767.0,0.0,0.0,0.0
19:44:46.223000,-2588.0,-169.0,-631.0,-39.0,-247.0,-767.0,0.0,0.0,0.0
19:44:46.242000,-2653.0,-235.0,-728.0,-88.0,-394.0,-770.0,0.0,0.0,0.0
19:44:46.247000,-2647.0,-250.0,-753.0,-78.0,-474.0,-775.0,0.0,0.0,0.0
19:44:46.252000,-2638.0,-262.0,-771.0,-78.0,-474.0,-775.0,0.0,0.0,0.0
19:44:46.256000,-2632.0,-268.0,-777.0,-89.0,-558.0,-780.0,0.0,0.0,0.0
19:44:46.261000,-2609.0,-289.0,-800.0,-89.0,-558.0,-780.0,0.0,0.0,0.0
19:44:46.266000,-2588.0,-301.0,-862.0,-124.0,-617.0,-786.0,0.0,0.0,0.0
19:44:46.270000,-2580.0,-319.0,-900.0,-124.0,-617.0,-786.0,0.0,0.0,0.0
19:44:46.275000,-2578.0,-343.0,-877.0,-146.0,-701.0,-780.0,0.0,0.0,0.0
19:44:46.280000,-2578.0,-361.0,-819.0,-146.0,-701.0,-780.0,0.0,0.0,0.0
19:44:46.284000,-2570.0,-380.0,-797.0,-146.0,-701.0,-780.0,0.0,0.0,0.0
19:44:46.289000,-2566.0,-396.0,-844.0,-189.0,-787.0,-750.0,0.0,0.0,0.0
19:44:46.294000,-2578.0,-413.0,-901.0,-189.0,-787.0,-750.0,0.0,0.0,0.0
19:44:46.299000,-2582.0,-433.0,-903.0,-291.0,-747.0,-705.0,0.0,0.0,0.0
19:44:46.303000,-2576.0,-446.0,-899.0,-291.0,-747.0,-705.0,0.0,0.0,0.0
19:44:46.308000,-2539.0,-461.0,-926.0,-363.0,-746.0,-672.0,0.0,0.0,0.0
19:44:46.313000,-2501.0,-474.0,-936.0,-363.0,-746.0,-672.0,0.0,0.0,0.0
19:44:46.317000,-2468.0,-482.0,-874.0,-354.0,-892.0,-658.0,0.0,0.0,0.0
19:44:46.322000,-2411.0,-490.0,-797.0,-354.0,-892.0,-658.0,0.0,0.0,0.0
19:44:46.327000,-2411.0,-490.0,-797.0,-359.0,-1025.0,-651.0,0.0,0.0,0.0
19:44:46.331000,-2368.0,-499.0,-840.0,-359.0,-1025.0,-651.0,0.0,0.0,0.0
19:44:46.336000,-2321.0,-504.0,-934.0,-428.0,-1015.0,-647.0,0.0,0.0,0.0
19:44:46.341000,-2302.0,-504.0,-1027.0,-428.0,-1015.0,-647.0,0.0,0.0,0.0
19:44:46.346000,-2275.0,-521.0,-1059.0,-505.0,-935.0,-623.0,0.0,0.0,0.0
19:44:46.350000,-2256.0,-552.0,-1015.0,-505.0,-935.0,-623.0,0.0,0.0,0.0
19:44:46.355000,-2256.0,-601.0,-923.0,-619.0,-944.0,-575.0,0.0,0.0,0.0
19:44:46.360000,-2285.0,-559.0,-884.0,-619.0,-944.0,-575.0,0.0,0.0,0.0
19:44:46.364000,-2184.0,-532.0,-954.0,-669.0,-991.0,-565.0,0.0,0.0,0.0
19:44:46.369000,-2134.0,-491.0,-1075.0,-669.0,-991.0,-565.0,0.0,0.0,0.0
19:44:46.374000,-2163.0,-510.0,-1103.0,-534.0,-1035.0,-541.0,0.0,0.0,0.0
19:44:46.378000,-2116.0,-506.0,-1019.0,-534.0,-1035.0,-541.0,0.0,0.0,0.0
19:44:46.383000,-2072.0,-499.0,-965.0,-453.0,-1055.0,-482.0,0.0,0.0,0.0
19:44:46.388000,-2032.0,-490.0,-929.0,-453.0,-1055.0,-482.0,0.0,0.0,0.0
19:44:46.393000,-1945.0,-484.0,-919.0,-453.0,-1055.0,-482.0,0.0,0.0,0.0
19:44:46.397000,-1880.0,-459.0,-984.0,-480.0,-1058.0,-464.0,0.0,0.0,0.0
19:44:46.402000,-1836.0,-451.0,-1117.0,-579.0,-1141.0,-435.0,0.0,0.0,0.0
19:44:46.407000,-1703.0,-443.0,-1131.0,-579.0,-1141.0,-435.0,0.0,0.0,0.0
19:44:46.411000,-1610.0,-430.0,-1080.0,-579.0,-1141.0,-435.0,0.0,0.0,0.0
19:44:46.416000,-1544.0,-430.0,-1096.0,-639.0,-1173.0,-406.0,0.0,0.0,0.0
19:44:46.421000,-1491.0,-421.0,-1148.0,-639.0,-1173.0,-406.0,0.0,0.0,0.0
19:44:46.425000,-1442.0,-418.0,-1121.0,-620.0,-1087.0,-397.0,0.0,0.0,0.0
19:44:46.430000,-1366.0,-415.0,-1074.0,-620.0,-1087.0,-397.0,0.0,0.0,0.0
19:44:46.435000,-1366.0,-415.0,-1074.0,-616.0,-1072.0,-389.0,0.0,0.0,0.0
19:44:46.440000,-1293.0,-412.0,-1055.0,-616.0,-1072.0,-389.0,0.0,0.0,0.0
19:44:46.444000,-1240.0,-410.0,-1040.0,-621.0,-1061.0,-379.0,0.0,0.0,0.0
19:44:46.449000,-1184.0,-402.0,-1028.0,-621.0,-1061.0,-379.0,0.0,0.0,0.0
19:44:46.454000,-1152.0,-402.0,-1024.0,-672.0,-990.0,-349.0,0.0,0.0,0.0
19:44:46.458000,-1139.0,-402.0,-1017.0,-672.0,-990.0,-349.0,0.0,0.0,0.0
19:44:46.463000,-1067.0,-406.0,-1003.0,-717.0,-977.0,-341.0,0.0,0.0,0.0
19:44:46.468000,-1005.0,-413.0,-998.0,-717.0,-977.0,-341.0,0.0,0.0,0.0
19:44:46.472000,-958.0,-424.0,-979.0,-695.0,-990.0,-336.0,0.0,0.0,0.0
19:44:46.477000,-902.0,-441.0,-947.0,-695.0,-990.0,-336.0,0.0,0.0,0.0
19:44:46.482000,-840.0,-459.0,-964.0,-666.0,-961.0,-317.0,0.0,0.0,0.0
19:44:46.487000,-805.0,-478.0,-1002.0,-666.0,-961.0,-317.0,0.0,0.0,0.0
19:44:46.491000,-758.0,-495.0,-991.0,-661.0,-901.0,-307.0,0.0,0.0,0.0
19:44:46.496000,-719.0,-506.0,-935.0,-661.0,-901.0,-307.0,0.0,0.0,0.0
19:44:46.501000,-690.0,-511.0,-912.0,-661.0,-901.0,-307.0,0.0,0.0,0.0
19:44:46.505000,-658.0,-510.0,-905.0,-663.0,-841.0,-300.0,0.0,0.0,0.0
19:44:46.510000,-634.0,-499.0,-893.0,-729.0,-791.0,-284.0,0.0,0.0,0.0
19:44:46.515000,-620.0,-484.0,-863.0,-729.0,-791.0,-284.0,0.0,0.0,0.0
19:44:46.519000,-608.0,-462.0,-825.0,-729.0,-791.0,-284.0,0.0,0.0,0.0
19:44:46.524000,-608.0,-427.0,-830.0,-797.0,-741.0,-258.0,0.0,0.0,0.0
19:44:46.529000,-615.0,-394.0,-875.0,-797.0,-741.0,-258.0,0.0,0.0,0.0
19:44:46.534000,-629.0,-359.0,-878.0,-819.0,-638.0,-237.0,0.0,0.0,0.0
19:44:46.538000,-654.0,-326.0,-847.0,-819.0,-638.0,-237.0,0.0,0.0,0.0
19:44:46.543000,-654.0,-326.0,-847.0,-836.0,-554.0,-225.0,0.0,0.0,0.0
19:44:46.548000,-661.0,-299.0,-832.0,-836.0,-554.0,-225.0,0.0,0.0,0.0
19:44:46.552000,-653.0,-277.0,-856.0,-900.0,-515.0,-219.0,0.0,0.0,0.0
19:44:46.557000,-655.0,-262.0,-888.0,-900.0,-515.0,-219.0,0.0,0.0,0.0
19:44:46.562000,-648.0,-253.0,-879.0,-939.0,-472.0,-206.0,0.0,0.0,0.0
19:44:46.566000,-640.0,-249.0,-828.0,-939.0,-472.0,-206.0,0.0,0.0,0.0
19:44:46.571000,-624.0,-246.0,-769.0,-886.0,-480.0,-189.0,0.0,0.0,0.0
19:44:46.576000,-603.0,-242.0,-720.0,-886.0,-480.0,-189.0,0.0,0.0,0.0
19:44:46.581000,-557.0,-249.0,-687.0,-819.0,-515.0,-176.0,0.0,0.0,0.0
19:44:46.585000,-504.0,-250.0,-620.0,-819.0,-515.0,-176.0,0.0,0.0,0.0
19:44:46.590000,-444.0,-252.0,-478.0,-892.0,-582.0,-123.0,0.0,0.0,0.0
19:44:46.595000,-399.0,-226.0,-416.0,-892.0,-582.0,-123.0,0.0,0.0,0.0
19:44:46.599000,-326.0,-215.0,-459.0,-879.0,-576.0,-74.0,0.0,0.0,0.0
19:44:46.604000,-307.0,-206.0,-455.0,-879.0,-576.0,-74.0,0.0,0.0,0.0
19:44:46.609000,-296.0,-203.0,-430.0,-879.0,-576.0,-74.0,0.0,0.0,0.0
19:44:46.613000,-272.0,-191.0,-485.0,-750.0,-478.0,-77.0,0.0,0.0,0.0
19:44:46.618000,-264.0,-173.0,-522.0,-795.0,-414.0,-104.0,0.0,0.0,0.0
19:44:46.623000,-248.0,-161.0,-508.0,-795.0,-414.0,-104.0,0.0,0.0,0.0
19:44:46.628000,-231.0,-146.0,-548.0,-795.0,-414.0,-104.0,0.0,0.0,0.0
19:44:46.632000,-214.0,-146.0,-571.0,-893.0,-378.0,-121.0,0.0,0.0,0.0
19:44:46.637000,-199.0,-146.0,-536.0,-893.0,-378.0,-121.0,0.0,0.0,0.0
19:44:46.642000,-205.0,-131.0,-474.0,-951.0,-362.0,-130.0,0.0,0.0,0.0
19:44:46.646000,-208.0,-115.0,-408.0,-951.0,-362.0,-130.0,0.0,0.0,0.0
19:44:46.651000,-29.0,-115.0,-408.0,-1024.0,-386.0,-144.0,0.0,0.0,0.0
19:44:46.656000,-167.0,-107.0,-376.0,-1024.0,-386.0,-144.0,0.0,0.0,0.0
19:44:46.660000,-129.0,-94.0,-486.0,-1094.0,-317.0,-153.0,0.0,0.0,0.0
19:44:46.665000,-125.0,-70.0,-611.0,-1094.0,-317.0,-153.0,0.0,0.0,0.0
19:44:46.670000,-126.0,-49.0,-594.0,-1049.0,-220.0,-149.0,0.0,0.0,0.0
19:44:46.674000,-119.0,-35.0,-529.0,-1049.0,-220.0,-149.0,0.0,0.0,0.0
19:44:46.679000,-115.0,-14.0,-515.0,-1031.0,-221.0,-143.0,0.0,0.0,0.0
19:44:46.684000,-95.0,-4.0,-539.0,-1031.0,-221.0,-143.0,0.0,0.0,0.0
19:44:46.689000,-77.0,0.0,-534.0,-1106.0,-227.0,-151.0,0.0,0.0,0.0
19:44:46.693000,-60.0,0.0,-524.0,-1106.0,-227.0,-151.0,0.0,0.0,0.0
19:44:46.698000,-54.0,2.0,-543.0,-1173.0,-195.0,-162.0,0.0,0.0,0.0
19:44:46.703000,-54.0,4.0,-584.0,-1173.0,-195.0,-162.0,0.0,0.0,0.0
19:44:46.707000,-62.0,4.0,-590.0,-1217.0,-142.0,-174.0,0.0,0.0,0.0
19:44:46.712000,-76.0,2.0,-563.0,-1217.0,-142.0,-174.0,0.0,0.0,0.0
19:44:46.717000,-118.0,5.0,-498.0,-1217.0,-142.0,-174.0,0.0,0.0,0.0
19:44:46.722000,-131.0,-9.0,-478.0,-1215.0,-98.0,-184.0,0.0,0.0,0.0
19:44:46.726000,-144.0,-6.0,-535.0,-1215.0,-98.0,-184.0,0.0,0.0,0.0
19:44:46.731000,-140.0,-7.0,-513.0,-1193.0,-35.0,-195.0,0.0,0.0,0.0
19:44:46.736000,-188.0,11.0,-476.0,-1193.0,-35.0,-195.0,0.0,0.0,0.0
19:44:46.740000,-203.0,16.0,-472.0,-1141.0,-21.0,-198.0,0.0,0.0,0.0
19:44:46.745000,-210.0,23.0,-454.0,-1141.0,-21.0,-198.0,0.0,0.0,0.0
19:44:46.750000,-219.0,35.0,-415.0,-1126.0,-40.0,-196.0,0.0,0.0,0.0
19:44:46.754000,-204.0,42.0,-390.0,-1126.0,-40.0,-196.0,0.0,0.0,0.0
19:44:46.759000,-206.0,53.0,-386.0,-1178.0,-90.0,-202.0,0.0,0.0,0.0
19:44:46.764000,-206.0,53.0,-386.0,-1178.0,-90.0,-202.0,0.0,0.0,0.0
19:44:46.769000,-186.0,63.0,-408.0,-1237.0,-167.0,-218.0,0.0,0.0,0.0
19:44:46.773000,-149.0,72.0,-441.0,-1237.0,-167.0,-218.0,0.0,0.0,0.0
19:44:46.778000,-104.0,75.0,-448.0,-1274.0,-97.0,-232.0,0.0,0.0,0.0
19:44:46.783000,-144.0,91.0,-426.0,-1274.0,-97.0,-232.0,0.0,0.0,0.0
19:44:46.787000,-116.0,91.0,-381.0,-1289.0,-2.0,-237.0,0.0,0.0,0.0
19:44:46.792000,-107.0,87.0,-384.0,-1289.0,-2.0,-237.0,0.0,0.0,0.0
19:44:46.797000,-74.0,74.0,-397.0,-1290.0,-6.0,-245.0,0.0,0.0,0.0
19:44:46.801000,-33.0,63.0,-351.0,-1290.0,-6.0,-245.0,0.0,0.0,0.0
19:44:46.806000,6.0,48.0,-291.0,-1285.0,6.0,-247.0,0.0,0.0,0.0
19:44:46.811000,30.0,42.0,-270.0,-1285.0,6.0,-247.0,0.0,0.0,0.0
19:44:46.816000,70.0,26.0,-280.0,-1300.0,80.0,-239.0,0.0,0.0,0.0
19:44:46.820000,102.0,14.0,-269.0,-1300.0,80.0,-239.0,0.0,0.0,0.0
19:44:46.825000,126.0,-6.0,-259.0,-1300.0,80.0,-239.0,0.0,0.0,0.0
19:44:46.830000,139.0,-22.0,-261.0,-1326.0,185.0,-219.0,0.0,0.0,0.0
19:44:46.834000,127.0,-30.0,-186.0,-1326.0,185.0,-219.0,0.0,0.0,0.0
19:44:46.839000,114.0,-37.0,-72.0,-1346.0,238.0,-192.0,0.0,0.0,0.0
19:44:46.844000,112.0,-46.0,-46.0,-1346.0,238.0,-192.0,0.0,0.0,0.0
19:44:46.848000,113.0,-59.0,-65.0,-1391.0,273.0,-179.0,0.0,0.0,0.0
19:44:46.853000,105.0,-72.0,-65.0,-1391.0,273.0,-179.0,0.0,0.0,0.0
19:44:46.858000,74.0,-79.0,-49.0,-1421.0,317.0,-171.0,0.0,0.0,0.0
19:44:46.863000,70.0,-89.0,-67.0,-1421.0,317.0,-171.0,0.0,0.0,0.0
19:44:46.867000,106.0,-117.0,-167.0,-1449.0,339.0,-170.0,0.0,0.0,0.0
19:44:46.872000,106.0,-117.0,-167.0,-1449.0,339.0,-170.0,0.0,0.0,0.0
19:44:46.877000,112.0,-128.0,-199.0,-1447.0,267.0,-181.0,0.0,0.0,0.0
19:44:46.881000,142.0,-146.0,-169.0,-1447.0,267.0,-181.0,0.0,0.0,0.0
19:44:46.886000,151.0,-152.0,-210.0,-1424.0,142.0,-190.0,0.0,0.0,0.0
19:44:46.891000,173.0,-158.0,-300.0,-1424.0,142.0,-190.0,0.0,0.0,0.0
19:44:46.895000,132.0,-149.0,-299.0,-1445.0,66.0,-188.0,0.0,0.0,0.0
19:44:46.900000,126.0,-121.0,-312.0,-1445.0,66.0,-188.0,0.0,0.0,0.0
19:44:46.905000,147.0,-97.0,-392.0,-1497.0,9.0,-188.0,0.0,0.0,0.0
19:44:46.910000,137.0,-72.0,-376.0,-1497.0,9.0,-188.0,0.0,0.0,0.0
19:44:46.914000,121.0,-39.0,-246.0,-1462.0,26.0,-189.0,0.0,0.0,0.0
19:44:46.919000,139.0,-31.0,-385.0,-1462.0,26.0,-189.0,0.0,0.0,0.0
19:44:46.924000,241.0,-9.0,-643.0,-1403.0,8.0,-223.0,0.0,0.0,0.0
19:44:46.928000,223.0,30.0,-662.0,-1403.0,8.0,-223.0,0.0,0.0,0.0
19:44:46.933000,220.0,59.0,-507.0,-1403.0,8.0,-223.0,0.0,0.0,0.0
19:44:46.938000,132.0,59.0,-487.0,-1320.0,14.0,-251.0,0.0,0.0,0.0
19:44:46.942000,105.0,45.0,-671.0,-1320.0,14.0,-251.0,0.0,0.0,0.0
19:44:46.947000,79.0,77.0,-723.0,-1240.0,151.0,-247.0,0.0,0.0,0.0
19:44:46.952000,-8.0,81.0,-914.0,-1240.0,151.0,-247.0,0.0,0.0,0.0
19:44:46.957000,5.0,79.0,-998.0,-1293.0,187.0,-232.0,0.0,0.0,0.0
19:44:46.961000,-71.0,67.0,-832.0,-1293.0,187.0,-232.0,0.0,0.0,0.0
19:44:46.966000,-116.0,94.0,-298.0,-1239.0,-99.0,-201.0,0.0,0.0,0.0
19:44:46.971000,-187.0,137.0,84.0,-1239.0,-99.0,-201.0,0.0,0.0,0.0
19:44:46.975000,-128.0,122.0,186.0,-1207.0,-273.0,-158.0,0.0,0.0,0.0
19:44:46.980000,-128.0,122.0,186.0,-1207.0,-273.0,-158.0,0.0,0.0,0.0
19:44:46.985000,-198.0,87.0,181.0,-1169.0,-427.0,-87.0,0.0,0.0,0.0
19:44:46.989000,-163.0,65.0,168.0,-1169.0,-427.0,-87.0,0.0,0.0,0.0
19:44:46.994000,-168.0,28.0,82.0,-832.0,-601.0,-16.0,0.0,0.0,0.0
19:44:46.999000,-301.0,-13.0,16.0,-832.0,-601.0,-16.0,0.0,0.0,0.0
19:44:47.004000,-298.0,56.0,246.0,-445.0,-546.0,8.0,0.0,0.0,0.0
19:44:47.008000,-331.0,99.0,332.0,-445.0,-546.0,8.0,0.0,0.0,0.0
19:44:47.013000,-58.0,-46.0,455.0,-614.0,-1028.0,16.0,0.0,0.0,0.0
19:44:47.018000,97.0,-110.0,295.0,-614.0,-1028.0,16.0,0.0,0.0,0.0
19:44:47.032000,59.0,-14.0,39.0,-657.0,-821.0,11.0,0.0,0.0,0.0
19:44:47.036000,4.0,-60.0,-118.0,-657.0,-821.0,11.0,0.0,0.0,0.0
19:44:47.041000,58.0,14.0,-310.0,-657.0,-654.0,-7.0,0.0,0.0,0.0
19:44:47.046000,246.0,19.0,-685.0,-605.0,-654.0,-7.0,0.0,0.0,0.0
19:44:47.051000,273.0,-16.0,-896.0,-605.0,-654.0,-7.0,0.0,0.0,0.0
19:44:47.055000,262.0,-33.0,-730.0,-669.0,-911.0,-47.0,0.0,0.0,0.0
19:44:47.059000,213.0,14.0,-536.0,-669.0,-911.0,-47.0,0.0,0.0,0.0
19:44:47.065000,186.0,3.0,-655.0,-619.0,-863.0,-93.0,0.0,0.0,0.0
19:44:47.069000,76.0,-37.0,-847.0,-619.0,-863.0,-93.0,0.0,0.0,0.0
19:44:47.074000,-70.0,-28.0,-701.0,-599.0,-492.0,-110.0,0.0,0.0,0.0
19:44:47.079000,-13.0,-49.0,-635.0,-599.0,-492.0,-110.0,0.0,0.0,0.0
19:44:47.083000,85.0,-39.0,-491.0,-629.0,-518.0,-128.0,0.0,0.0,0.0
19:44:47.088000,222.0,-29.0,-289.0,-629.0,-518.0,-128.0,0.0,0.0,0.0
19:44:47.092000,222.0,-29.0,-289.0,-753.0,-739.0,-203.0,0.0,0.0,0.0
19:44:47.098000,224.0,-89.0,-266.0,-753.0,-739.0,-203.0,0.0,0.0,0.0
19:44:47.102000,185.0,-118.0,-238.0,-751.0,-588.0,-211.0,0.0,0.0,0.0
19:44:47.107000,113.0,-165.0,-45.0,-751.0,-588.0,-211.0,0.0,0.0,0.0
19:44:47.112000,42.0,-185.0,-75.0,-671.0,-316.0,-192.0,0.0,0.0,0.0
19:44:47.116000,61.0,-200.0,-274.0,-671.0,-316.0,-192.0,0.0,0.0,0.0
19:44:47.121000,104.0,-207.0,-184.0,-664.0,-467.0,-176.0,0.0,0.0,0.0
19:44:47.126000,79.0,-238.0,-121.0,-664.0,-467.0,-176.0,0.0,0.0,0.0
19:44:47.130000,89.0,-231.0,-182.0,-671.0,-580.0,-139.0,0.0,0.0,0.0
19:44:47.135000,94.0,-252.0,-265.0,-671.0,-580.0,-139.0,0.0,0.0,0.0
19:44:47.140000,109.0,-261.0,-194.0,-711.0,-513.0,-110.0,0.0,0.0,0.0
19:44:47.145000,142.0,-268.0,-116.0,-711.0,-513.0,-110.0,0.0,0.0,0.0
19:44:47.149000,184.0,-293.0,-47.0,-687.0,-520.0,-85.0,0.0,0.0,0.0
19:44:47.154000,210.0,-315.0,-49.0,-687.0,-520.0,-85.0,0.0,0.0,0.0
19:44:47.159000,174.0,-277.0,-173.0,-687.0,-520.0,-85.0,0.0,0.0,0.0
19:44:47.163000,177.0,-273.0,-234.0,-804.0,-490.0,-63.0,0.0,0.0,0.0
19:44:47.168000,131.0,-245.0,-139.0,-804.0,-490.0,-63.0,0.0,0.0,0.0
19:44:47.173000,161.0,-227.0,-115.0,-851.0,-470.0,-22.0,0.0,0.0,0.0
19:44:47.177000,194.0,-200.0,-174.0,-851.0,-470.0,-22.0,0.0,0.0,0.0
19:44:47.182000,205.0,-179.0,-303.0,-801.0,-441.0,17.0,0.0,0.0,0.0
19:44:47.187000,236.0,-193.0,-363.0,-801.0,-441.0,17.0,0.0,0.0,0.0
19:44:47.192000,205.0,-155.0,-250.0,-834.0,-426.0,22.0,0.0,0.0,0.0
19:44:47.196000,193.0,-124.0,-173.0,-834.0,-426.0,22.0,0.0,0.0,0.0
19:44:47.201000,193.0,-124.0,-173.0,-955.0,-402.0,25.0,0.0,0.0,0.0
19:44:47.206000,158.0,-58.0,-320.0,-955.0,-402.0,25.0,0.0,0.0,0.0
19:44:47.210000,119.0,-25.0,-441.0,-1031.0,-425.0,27.0,0.0,0.0,0.0
19:44:47.215000,44.0,4.0,-268.0,-1031.0,-425.0,27.0,0.0,0.0,0.0
19:44:47.220000,-2.0,4.0,-66.0,-912.0,-484.0,23.0,0.0,0.0,0.0
19:44:47.224000,-30.0,47.0,56.0,-912.0,-484.0,23.0,0.0,0.0,0.0
19:44:47.229000,16.0,49.0,-161.0,-929.0,-406.0,-6.0,0.0,0.0,0.0
19:44:47.234000,148.0,54.0,-214.0,-929.0,-406.0,-6.0,0.0,0.0,0.0
19:44:47.239000,202.0,81.0,49.0,-950.0,-554.0,-38.0,0.0,0.0,0.0
19:44:47.243000,240.0,96.0,219.0,-950.0,-554.0,-38.0,0.0,0.0,0.0
19:44:47.248000,165.0,94.0,252.0,-960.0,-565.0,-47.0,0.0,0.0,0.0
19:44:47.253000,297.0,61.0,153.0,-960.0,-565.0,-47.0,0.0,0.0,0.0
19:44:47.257000,257.0,37.0,-159.0,-917.0,-250.0,-38.0,0.0,0.0,0.0
19:44:47.262000,256.0,53.0,-406.0,-917.0,-250.0,-38.0,0.0,0.0,0.0
19:44:47.267000,336.0,35.0,-376.0,-917.0,-250.0,-38.0,0.0,0.0,0.0
19:44:47.271000,322.0,25.0,-273.0,-809.0,-375.0,-37.0,0.0,0.0,0.0
19:44:47.276000,284.0,70.0,-312.0,-809.0,-375.0,-37.0,0.0,0.0,0.0
19:44:47.281000,275.0,76.0,-302.0,-956.0,-558.0,-48.0,0.0,0.0,0.0
19:44:47.286000,160.0,80.0,-209.0,-956.0,-558.0,-48.0,0.0,0.0,0.0
19:44:47.290000,35.0,112.0,-144.0,-1019.0,-460.0,-37.0,0.0,0.0,0.0
19:44:47.294000,35.0,112.0,-144.0,-1019.0,-460.0,-37.0,0.0,0.0,0.0
19:44:47.300000,179.0,138.0,-9.0,-920.0,-410.0,-46.0,0.0,0.0,0.0
19:44:47.304000,247.0,73.0,170.0,-920.0,-410.0,-46.0,0.0,0.0,0.0
19:44:47.309000,247.0,73.0,170.0,-911.0,-390.0,-41.0,0.0,0.0,0.0
19:44:47.314000,128.0,109.0,3.0,-911.0,-390.0,-41.0,0.0,0.0,0.0
19:44:47.318000,89.0,140.0,-135.0,-993.0,-478.0,-28.0,0.0,0.0,0.0
19:44:47.323000,111.0,116.0,-124.0,-993.0,-478.0,-28.0,0.0,0.0,0.0
19:44:47.328000,77.0,125.0,-93.0,-943.0,-543.0,-60.0,0.0,0.0,0.0
19:44:47.333000,121.0,98.0,-196.0,-943.0,-543.0,-60.0,0.0,0.0,0.0
19:44:47.337000,137.0,72.0,-387.0,-786.0,-412.0,-75.0,0.0,0.0,0.0
19:44:47.342000,124.0,52.0,-418.0,-786.0,-412.0,-75.0,0.0,0.0,0.0
19:44:47.347000,82.0,51.0,-236.0,-742.0,-308.0,-76.0,0.0,0.0,0.0
19:44:47.351000,49.0,18.0,-115.0,-742.0,-308.0,-76.0,0.0,0.0,0.0
19:44:47.356000,-79.0,59.0,-139.0,-884.0,-378.0,-81.0,0.0,0.0,0.0
19:44:47.361000,-81.0,64.0,-163.0,-884.0,-378.0,-81.0,0.0,0.0,0.0
19:44:47.365000,-53.0,54.0,-213.0,-1028.0,-439.0,-87.0,0.0,0.0,0.0
19:44:47.370000,-86.0,56.0,-263.0,-1028.0,-439.0,-87.0,0.0,0.0,0.0
19:44:47.375000,-118.0,43.0,-254.0,-1028.0,-439.0,-87.0,0.0,0.0,0.0
19:44:47.380000,-135.0,68.0,-350.0,-923.0,-319.0,-49.0,0.0,0.0,0.0
19:44:47.384000,-102.0,101.0,-406.0,-923.0,-319.0,-49.0,0.0,0.0,0.0
19:44:47.389000,-117.0,95.0,-76.0,-797.0,-346.0,-14.0,0.0,0.0,0.0
19:44:47.394000,-136.0,81.0,223.0,-797.0,-346.0,-14.0,0.0,0.0,0.0
19:44:47.398000,-154.0,157.0,-63.0,-927.0,-445.0,-10.0,0.0,0.0,0.0
19:44:47.403000,-63.0,171.0,-359.0,-927.0,-445.0,-10.0,0.0,0.0,0.0
19:44:47.408000,-25.0,166.0,-287.0,-1084.0,-437.0,-6.0,0.0,0.0,0.0
19:44:47.412000,-4.0,182.0,-217.0,-1084.0,-437.0,-6.0,0.0,0.0,0.0
19:44:47.417000,-4.0,182.0,-217.0,-1017.0,-371.0,11.0,0.0,0.0,0.0
19:44:47.422000,-42.0,192.0,-279.0,-1017.0,-371.0,11.0,0.0,0.0,0.0
19:44:47.427000,-37.0,191.0,-271.0,-838.0,-306.0,23.0,0.0,0.0,0.0
19:44:47.431000,-28.0,194.0,-197.0,-838.0,-306.0,23.0,0.0,0.0,0.0
19:44:47.436000,-38.0,202.0,-260.0,-789.0,-275.0,17.0,0.0,0.0,0.0
19:44:47.441000,-57.0,219.0,-320.0,-789.0,-275.0,17.0,0.0,0.0,0.0
19:44:47.445000,-52.0,228.0,-387.0,-937.0,-241.0,16.0,0.0,0.0,0.0
19:44:47.450000,-74.0,232.0,-380.0,-937.0,-241.0,16.0,0.0,0.0,0.0
19:44:47.455000,-137.0,252.0,-360.0,-1058.0,-277.0,18.0,0.0,0.0,0.0
19:44:47.459000,-128.0,270.0,-338.0,-1058.0,-277.0,18.0,0.0,0.0,0.0
19:44:47.464000,-128.0,304.0,-245.0,-1009.0,-323.0,15.0,0.0,0.0,0.0
19:44:47.469000,-95.0,298.0,-205.0,-1009.0,-323.0,15.0,0.0,0.0,0.0
19:44:47.473000,-140.0,301.0,-227.0,-965.0,-351.0,19.0,0.0,0.0,0.0
19:44:47.478000,-152.0,329.0,-192.0,-965.0,-351.0,19.0,0.0,0.0,0.0
19:44:47.483000,-103.0,350.0,-210.0,-965.0,-351.0,19.0,0.0,0.0,0.0
19:44:47.488000,-64.0,346.0,-225.0,-1004.0,-325.0,16.0,0.0,0.0,0.0
19:44:47.492000,-71.0,331.0,-196.0,-1004.0,-325.0,16.0,0.0,0.0,0.0
19:44:47.497000,-67.0,350.0,-210.0,-971.0,-330.0,10.0,0.0,0.0,0.0
19:44:47.502000,-62.0,353.0,-230.0,-971.0,-330.0,10.0,0.0,0.0,0.0
19:44:47.506000,-51.0,359.0,-293.0,-956.0,-396.0,-1.0,0.0,0.0,0.0
19:44:47.511000,-38.0,347.0,-305.0,-956.0,-396.0,-1.0,0.0,0.0,0.0
19:44:47.516000,-14.0,332.0,-164.0,-970.0,-386.0,-39.0,0.0,0.0,0.0
19:44:47.520000,32.0,296.0,-144.0,-970.0,-386.0,-39.0,0.0,0.0,0.0
19:44:47.525000,18.0,246.0,-109.0,-906.0,-353.0,-67.0,0.0,0.0,0.0
19:44:47.529000,18.0,246.0,-109.0,-906.0,-353.0,-67.0,0.0,0.0,0.0
19:44:47.535000,-4.0,220.0,11.0,-872.0,-338.0,-98.0,0.0,0.0,0.0
19:44:47.539000,-23.0,193.0,-58.0,-872.0,-338.0,-98.0,0.0,0.0,0.0
19:44:47.544000,3.0,162.0,-219.0,-858.0,-271.0,-127.0,0.0,0.0,0.0
19:44:47.549000,73.0,135.0,-227.0,-858.0,-271.0,-127.0,0.0,0.0,0.0
19:44:47.553000,109.0,109.0,-213.0,-799.0,-288.0,-136.0,0.0,0.0,0.0
19:44:47.558000,140.0,90.0,-300.0,-799.0,-288.0,-136.0,0.0,0.0,0.0
19:44:47.563000,152.0,64.0,-374.0,-816.0,-355.0,-132.0,0.0,0.0,0.0
19:44:47.567000,114.0,38.0,-333.0,-816.0,-355.0,-132.0,0.0,0.0,0.0
19:44:47.572000,61.0,24.0,-303.0,-857.0,-289.0,-130.0,0.0,0.0,0.0
19:44:47.577000,25.0,21.0,-300.0,-857.0,-289.0,-130.0,0.0,0.0,0.0
19:44:47.582000,13.0,4.0,-308.0,-887.0,-271.0,-139.0,0.0,0.0,0.0
19:44:47.586000,-6.0,2.0,-350.0,-887.0,-271.0,-139.0,0.0,0.0,0.0
19:44:47.591000,2.0,2.0,-413.0,-887.0,-271.0,-139.0,0.0,0.0,0.0
19:44:47.596000,21.0,-20.0,-364.0,-975.0,-299.0,-155.0,0.0,0.0,0.0
19:44:47.600000,-67.0,-17.0,-392.0,-975.0,-299.0,-155.0,0.0,0.0,0.0
19:44:47.605000,-63.0,0.0,-432.0,-1029.0,-257.0,-144.0,0.0,0.0,0.0
19:44:47.610000,-60.0,-6.0,-339.0,-1029.0,-257.0,-144.0,0.0,0.0,0.0
19:44:47.614000,-78.0,-9.0,-294.0,-986.0,-181.0,-123.0,0.0,0.0,0.0
19:44:47.619000,-81.0,-10.0,-356.0,-986.0,-181.0,-123.0,0.0,0.0,0.0
19:44:47.624000,-93.0,-3.0,-414.0,-966.0,-176.0,-116.0,0.0,0.0,0.0
19:44:47.629000,-92.0,9.0,-467.0,-966.0,-176.0,-116.0,0.0,0.0,0.0
19:44:47.633000,-69.0,17.0,-506.0,-1012.0,-229.0,-117.0,0.0,0.0,0.0
19:44:47.638000,-69.0,17.0,-506.0,-1012.0,-229.0,-117.0,0.0,0.0,0.0
19:44:47.643000,-70.0,27.0,-508.0,-1041.0,-266.0,-121.0,0.0,0.0,0.0
19:44:47.647000,-78.0,41.0,-487.0,-1041.0,-266.0,-121.0,0.0,0.0,0.0
19:44:47.652000,-93.0,52.0,-479.0,-1055.0,-265.0,-118.0,0.0,0.0,0.0
19:44:47.657000,-91.0,60.0,-510.0,-1055.0,-265.0,-118.0,0.0,0.0,0.0
19:44:47.661000,-91.0,76.0,-536.0,-1059.0,-237.0,-120.0,0.0,0.0,0.0
19:44:47.666000,-98.0,86.0,-531.0,-1059.0,-237.0,-120.0,0.0,0.0,0.0
19:44:47.671000,-99.0,93.0,-532.0,-1068.0,-248.0,-126.0,0.0,0.0,0.0
19:44:47.676000,-91.0,107.0,-549.0,-1068.0,-248.0,-126.0,0.0,0.0,0.0
19:44:47.680000,-88.0,115.0,-597.0,-1073.0,-252.0,-131.0,0.0,0.0,0.0
19:44:47.685000,-79.0,116.0,-602.0,-1073.0,-252.0,-131.0,0.0,0.0,0.0
19:44:47.690000,-73.0,116.0,-573.0,-1054.0,-258.0,-137.0,0.0,0.0,0.0
19:44:47.694000,-77.0,128.0,-532.0,-1054.0,-258.0,-137.0,0.0,0.0,0.0
19:44:47.699000,-73.0,139.0,-524.0,-1054.0,-258.0,-137.0,0.0,0.0,0.0
19:44:47.704000,-60.0,142.0,-534.0,-1042.0,-250.0,-145.0,0.0,0.0,0.0
19:44:47.708000,-52.0,147.0,-543.0,-1042.0,-250.0,-145.0,0.0,0.0,0.0
19:44:47.713000,-44.0,151.0,-534.0,-1067.0,-233.0,-150.0,0.0,0.0,0.0
19:44:47.718000,-35.0,156.0,-526.0,-1067.0,-233.0,-150.0,0.0,0.0,0.0
19:44:47.723000,-35.0,160.0,-534.0,-1081.0,-227.0,-157.0,0.0,0.0,0.0
19:44:47.727000,-39.0,163.0,-545.0,-1081.0,-227.0,-157.0,0.0,0.0,0.0
19:44:47.732000,-39.0,164.0,-548.0,-1067.0,-171.0,-160.0,0.0,0.0,0.0
19:44:47.737000,-30.0,156.0,-549.0,-1067.0,-171.0,-160.0,0.0,0.0,0.0
19:44:47.741000,-16.0,153.0,-558.0,-1035.0,-145.0,-161.0,0.0,0.0,0.0
19:44:47.746000,-16.0,153.0,-558.0,-1035.0,-145.0,-161.0,0.0,0.0,0.0
19:44:47.751000,1.0,147.0,-562.0,-1026.0,-194.0,-168.0,0.0,0.0,0.0
19:44:47.755000,21.0,142.0,-557.0,-1026.0,-194.0,-168.0,0.0,0.0,0.0
19:44:47.760000,43.0,140.0,-547.0,-1048.0,-211.0,-172.0,0.0,0.0,0.0
19:44:47.764000,51.0,143.0,-541.0,-1048.0,-211.0,-172.0,0.0,0.0,0.0
19:44:47.770000,53.0,135.0,-556.0,-1045.0,-197.0,-162.0,0.0,0.0,0.0
19:44:47.774000,63.0,122.0,-589.0,-1045.0,-197.0,-162.0,0.0,0.0,0.0
19:44:47.779000,76.0,115.0,-618.0,-1007.0,-208.0,-156.0,0.0,0.0,0.0
19:44:47.784000,95.0,109.0,-616.0,-1007.0,-208.0,-156.0,0.0,0.0,0.0
19:44:47.788000,115.0,107.0,-588.0,-1015.0,-223.0,-162.0,0.0,0.0,0.0
19:44:47.793000,126.0,103.0,-574.0,-1015.0,-223.0,-162.0,0.0,0.0,0.0
19:44:47.798000,127.0,96.0,-592.0,-1051.0,-198.0,-156.0,0.0,0.0,0.0
19:44:47.802000,120.0,89.0,-597.0,-1051.0,-198.0,-156.0,0.0,0.0,0.0
19:44:47.807000,117.0,89.0,-571.0,-1051.0,-166.0,-156.0,0.0,0.0,0.0
19:44:47.812000,125.0,94.0,-561.0,-1032.0,-158.0,-148.0,0.0,0.0,0.0
19:44:47.817000,136.0,98.0,-590.0,-1032.0,-158.0,-148.0,0.0,0.0,0.0
19:44:47.821000,140.0,99.0,-609.0,-1000.0,-115.0,-151.0,0.0,0.0,0.0
19:44:47.826000,147.0,99.0,-617.0,-1000.0,-115.0,-151.0,0.0,0.0,0.0
19:44:47.831000,151.0,102.0,-640.0,-988.0,-79.0,-154.0,0.0,0.0,0.0
19:44:47.835000,154.0,102.0,-672.0,-988.0,-79.0,-154.0,0.0,0.0,0.0
19:44:47.840000,157.0,98.0,-696.0,-981.0,-82.0,-154.0,0.0,0.0,0.0
19:44:47.845000,165.0,88.0,-711.0,-981.0,-82.0,-154.0,0.0,0.0,0.0
19:44:47.849000,175.0,81.0,-724.0,-967.0,-86.0,-165.0,0.0,0.0,0.0
19:44:47.854000,175.0,81.0,-724.0,-967.0,-86.0,-165.0,0.0,0.0,0.0
19:44:47.868000,191.0,70.0,-751.0,-982.0,-24.0,-199.0,0.0,0.0,0.0
19:44:47.873000,199.0,65.0,-795.0,-982.0,-24.0,-199.0,0.0,0.0,0.0
19:44:47.878000,214.0,51.0,-795.0,-978.0,-10.0,-204.0,0.0,0.0,0.0
19:44:47.882000,231.0,29.0,-765.0,-978.0,-10.0,-204.0,0.0,0.0,0.0
19:44:47.887000,234.0,17.0,-748.0,-947.0,15.0,-214.0,0.0,0.0,0.0
19:44:47.892000,234.0,2.0,-756.0,-947.0,15.0,-214.0,0.0,0.0,0.0
19:44:47.896000,243.0,-22.0,-775.0,-936.0,62.0,-223.0,0.0,0.0,0.0
19:44:47.901000,243.0,-35.0,-797.0,-936.0,62.0,-223.0,0.0,0.0,0.0
19:44:47.906000,244.0,-54.0,-788.0,-906.0,92.0,-205.0,0.0,0.0,0.0
19:44:47.911000,245.0,-77.0,-760.0,-906.0,92.0,-205.0,0.0,0.0,0.0
19:44:47.915000,234.0,-92.0,-751.0,-910.0,131.0,-203.0,0.0,0.0,0.0
19:44:47.920000,226.0,-109.0,-746.0,-910.0,131.0,-203.0,0.0,0.0,0.0
19:44:47.925000,223.0,-133.0,-733.0,-904.0,178.0,-175.0,0.0,0.0,0.0
19:44:47.929000,207.0,-133.0,-723.0,-904.0,178.0,-175.0,0.0,0.0,0.0
19:44:47.934000,185.0,-132.0,-700.0,-904.0,178.0,-175.0,0.0,0.0,0.0
19:44:47.939000,170.0,-136.0,-676.0,-911.0,227.0,-147.0,0.0,0.0,0.0
19:44:47.943000,147.0,-130.0,-669.0,-911.0,227.0,-147.0,0.0,0.0,0.0
19:44:47.948000,114.0,-108.0,-672.0,-969.0,282.0,-154.0,0.0,0.0,0.0
19:44:47.953000,80.0,-84.0,-659.0,-969.0,282.0,-154.0,0.0,0.0,0.0
19:44:47.958000,50.0,-63.0,-613.0,-1038.0,317.0,-185.0,0.0,0.0,0.0
19:44:47.962000,28.0,-49.0,-560.0,-1038.0,317.0,-185.0,0.0,0.0,0.0
19:44:47.967000,28.0,-49.0,-560.0,-1080.0,299.0,-213.0,0.0,0.0,0.0
19:44:47.972000,7.0,-43.0,-522.0,-1080.0,299.0,-213.0,0.0,0.0,0.0
19:44:47.976000,-23.0,-30.0,-505.0,-1072.0,282.0,-204.0,0.0,0.0,0.0
19:44:47.981000,-57.0,-12.0,-486.0,-1072.0,282.0,-204.0,0.0,0.0,0.0
19:44:47.986000,-79.0,-11.0,-451.0,-1014.0,289.0,-175.0,0.0,0.0,0.0
19:44:47.990000,-91.0,-10.0,-407.0,-1014.0,289.0,-175.0,0.0,0.0,0.0
19:44:47.995000,-100.0,-15.0,-382.0,-984.0,295.0,-144.0,0.0,0.0,0.0
19:44:48.000000,-99.0,-8.0,-373.0,-984.0,295.0,-144.0,0.0,0.0,0.0
19:44:48.005000,-95.0,2.0,-357.0,-1023.0,302.0,-140.0,0.0,0.0,0.0
19:44:48.009000,-86.0,3.0,-331.0,-1023.0,302.0,-140.0,0.0,0.0,0.0
19:44:48.014000,-75.0,8.0,-313.0,-1097.0,265.0,-157.0,0.0,0.0,0.0
19:44:48.019000,-73.0,1.0,-319.0,-1097.0,265.0,-157.0,0.0,0.0,0.0
19:44:48.023000,-78.0,-4.0,-336.0,-1128.0,238.0,-152.0,0.0,0.0,0.0
19:44:48.028000,-82.0,-3.0,-326.0,-1128.0,238.0,-152.0,0.0,0.0,0.0
19:44:48.033000,-83.0,-2.0,-270.0,-1128.0,238.0,-152.0,0.0,0.0,0.0
19:44:48.037000,-86.0,-9.0,-197.0,-1093.0,228.0,-179.0,0.0,0.0,0.0
19:44:48.042000,-91.0,-17.0,-151.0,-1093.0,228.0,-179.0,0.0,0.0,0.0
19:44:48.047000,-93.0,-25.0,-137.0,-1042.0,207.0,-225.0,0.0,0.0,0.0
19:44:48.052000,-91.0,-42.0,-135.0,-1042.0,207.0,-225.0,0.0,0.0,0.0
19:44:48.056000,-87.0,-54.0,-124.0,-958.0,224.0,-212.0,0.0,0.0,0.0
19:44:48.061000,-91.0,-55.0,-114.0,-958.0,224.0,-212.0,0.0,0.0,0.0
19:44:48.066000,-95.0,-51.0,-116.0,-895.0,268.0,-183.0,0.0,0.0,0.0
19:44:48.070000,-77.0,-65.0,-109.0,-895.0,268.0,-183.0,0.0,0.0,0.0
19:44:48.075000,-77.0,-65.0,-109.0,-922.0,292.0,-171.0,0.0,0.0,0.0
19:44:48.080000,-65.0,-49.0,-171.0,-922.0,292.0,-171.0,0.0,0.0,0.0
19:44:48.084000,-60.0,-47.0,-70.0,-900.0,278.0,-166.0,0.0,0.0,0.0
19:44:48.089000,-21.0,-51.0,-42.0,-900.0,278.0,-166.0,0.0,0.0,0.0
19:44:48.094000,-9.0,-32.0,-141.0,-858.0,338.0,-170.0,0.0,0.0,0.0
19:44:48.099000,9.0,-28.0,-223.0,-858.0,338.0,-170.0,0.0,0.0,0.0
19:44:48.103000,14.0,-24.0,-234.0,-903.0,402.0,-177.0,0.0,0.0,0.0
19:44:48.108000,14.0,-20.0,-192.0,-903.0,402.0,-177.0,0.0,0.0,0.0
19:44:48.113000,16.0,-14.0,-151.0,-997.0,396.0,-172.0,0.0,0.0,0.0
19:44:48.117000,14.0,-6.0,-118.0,-997.0,396.0,-172.0,0.0,0.0,0.0
19:44:48.122000,18.0,-7.0,-101.0,-1053.0,400.0,-169.0,0.0,0.0,0.0
19:44:48.127000,11.0,-7.0,-100.0,-1053.0,400.0,-169.0,0.0,0.0,0.0
19:44:48.131000,-4.0,-7.0,-56.0,-1047.0,378.0,-164.0,0.0,0.0,0.0
19:44:48.136000,-17.0,-7.0,9.0,-1047.0,378.0,-164.0,0.0,0.0,0.0
19:44:48.141000,-35.0,12.0,30.0,-1047.0,378.0,-164.0,0.0,0.0,0.0
19:44:48.146000,-54.0,20.0,41.0,-1074.0,332.0,-160.0,0.0,0.0,0.0
19:44:48.150000,-77.0,19.0,81.0,-1074.0,332.0,-160.0,0.0,0.0,0.0
19:44:48.155000,-78.0,17.0,132.0,-1064.0,240.0,-145.0,0.0,0.0,0.0
19:44:48.160000,-72.0,16.0,174.0,-1064.0,240.0,-145.0,0.0,0.0,0.0
