hh:mm:ss.ms,gyroX[mdps],gyroY[mdps],gyroZ[mdps],accX[mg],accY[mg],accZ[mg],magX[mG],magY[mG],magZ[mG]
19:37:08.874000,-2877.0,-3259.0,-1735.0,-508.0,181.0,534.0,0.0,0.0,0.0
19:37:08.878000,-2949.0,-3308.0,-1764.0,-508.0,181.0,534.0,0.0,0.0,0.0
19:37:08.883000,-3017.0,-3351.0,-1759.0,-583.0,333.0,643.0,0.0,0.0,0.0
19:37:08.888000,-3040.0,-3386.0,-1759.0,-583.0,333.0,643.0,0.0,0.0,0.0
19:37:08.892000,-3091.0,-3412.0,-1782.0,-716.0,424.0,736.0,0.0,0.0,0.0
19:37:08.897000,-3096.0,-3432.0,-1773.0,-716.0,424.0,736.0,0.0,0.0,0.0
19:37:08.902000,-3079.0,-3430.0,-1734.0,-807.0,450.0,823.0,0.0,0.0,0.0
19:37:08.907000,-3052.0,-3420.0,-1656.0,-807.0,450.0,823.0,0.0,0.0,0.0
19:37:08.911000,-3027.0,-3410.0,-1546.0,-774.0,454.0,884.0,0.0,0.0,0.0
19:37:08.916000,-3067.0,-3402.0,-1411.0,-774.0,454.0,884.0,0.0,0.0,0.0
19:37:08.921000,-3067.0,-3402.0,-1411.0,-726.0,510.0,955.0,0.0,0.0,0.0
19:37:08.925000,-3021.0,-3373.0,-1276.0,-726.0,510.0,955.0,0.0,0.0,0.0
19:37:08.930000,-3049.0,-3346.0,-1158.0,-708.0,635.0,1038.0,0.0,0.0,0.0
19:37:08.935000,-3035.0,-3310.0,-1039.0,-708.0,635.0,1038.0,0.0,0.0,0.0
19:37:08.940000,-3022.0,-3272.0,-891.0,-701.0,671.0,1082.0,0.0,0.0,0.0
19:37:08.944000,-3012.0,-3232.0,-728.0,-701.0,671.0,1082.0,0.0,0.0,0.0
19:37:08.948000,-2974.0,-3189.0,-560.0,-698.0,601.0,1079.0,0.0,0.0,0.0
19:37:08.954000,-2939.0,-3129.0,-391.0,-698.0,601.0,1079.0,0.0,0.0,0.0
19:37:08.958000,-2880.0,-3050.0,-237.0,-713.0,527.0,1029.0,0.0,0.0,0.0
19:37:08.963000,-2821.0,-2957.0,-121.0,-713.0,527.0,1029.0,0.0,0.0,0.0
19:37:08.968000,-2786.0,-2861.0,-61.0,-744.0,574.0,950.0,0.0,0.0,0.0
19:37:08.972000,-2727.0,-2765.0,-70.0,-744.0,574.0,950.0,0.0,0.0,0.0
19:37:08.977000,-2691.0,-2674.0,-101.0,-737.0,701.0,894.0,0.0,0.0,0.0
19:37:08.982000,-2651.0,-2590.0,-102.0,-737.0,701.0,894.0,0.0,0.0,0.0
19:37:08.987000,-2587.0,-2508.0,-67.0,-737.0,701.0,894.0,0.0,0.0,0.0
19:37:08.991000,-2512.0,-2421.0,-20.0,-657.0,672.0,854.0,0.0,0.0,0.0
19:37:08.996000,-2423.0,-2331.0,0.0,-657.0,672.0,854.0,0.0,0.0,0.0
19:37:09.001000,-2321.0,-2242.0,1.0,-623.0,512.0,797.0,0.0,0.0,0.0
19:37:09.005000,-2222.0,-2157.0,-21.0,-623.0,512.0,797.0,0.0,0.0,0.0
19:37:09.009000,-2142.0,-2078.0,-47.0,-659.0,455.0,734.0,0.0,0.0,0.0
19:37:09.015000,-2067.0,-1998.0,-85.0,-659.0,455.0,734.0,0.0,0.0,0.0
19:37:09.019000,-2001.0,-1920.0,-122.0,-630.0,521.0,689.0,0.0,0.0,0.0
19:37:09.024000,-1977.0,-1859.0,-147.0,-630.0,521.0,689.0,0.0,0.0,0.0
19:37:09.029000,-1883.0,-1757.0,-151.0,-538.0,569.0,665.0,0.0,0.0,0.0
19:37:09.034000,-1883.0,-1757.0,-151.0,-538.0,569.0,665.0,0.0,0.0,0.0
19:37:09.038000,-1809.0,-1695.0,-101.0,-560.0,573.0,639.0,0.0,0.0,0.0
19:37:09.043000,-1768.0,-1630.0,-29.0,-560.0,573.0,639.0,0.0,0.0,0.0
19:37:09.048000,-1694.0,-1563.0,-32.0,-675.0,609.0,585.0,0.0,0.0,0.0
19:37:09.052000,-1624.0,-1485.0,-70.0,-675.0,609.0,585.0,0.0,0.0,0.0
19:37:09.057000,-1549.0,-1416.0,-86.0,-686.0,620.0,523.0,0.0,0.0,0.0
19:37:09.062000,-1472.0,-1344.0,-58.0,-686.0,620.0,523.0,0.0,0.0,0.0
19:37:09.066000,-1418.0,-1276.0,-32.0,-572.0,609.0,471.0,0.0,0.0,0.0
19:37:09.071000,-1353.0,-1201.0,-70.0,-572.0,609.0,471.0,0.0,0.0,0.0
19:37:09.076000,-1299.0,-1128.0,-156.0,-454.0,638.0,429.0,0.0,0.0,0.0
19:37:09.081000,-1240.0,-1078.0,-203.0,-454.0,638.0,429.0,0.0,0.0,0.0
19:37:09.085000,-1211.0,-1023.0,-221.0,-448.0,668.0,406.0,0.0,0.0,0.0
19:37:09.090000,-1178.0,-966.0,-252.0,-448.0,668.0,406.0,0.0,0.0,0.0
19:37:09.095000,-1142.0,-922.0,-248.0,-448.0,668.0,406.0,0.0,0.0,0.0
19:37:09.099000,-1114.0,-868.0,-161.0,-508.0,725.0,391.0,0.0,0.0,0.0
19:37:09.104000,-1097.0,-813.0,-89.0,-508.0,725.0,391.0,0.0,0.0,0.0
19:37:09.109000,-1065.0,-762.0,-61.0,-590.0,770.0,380.0,0.0,0.0,0.0
19:37:09.113000,-1049.0,-723.0,-26.0,-590.0,770.0,380.0,0.0,0.0,0.0
19:37:09.118000,-1026.0,-690.0,25.0,-667.0,721.0,371.0,0.0,0.0,0.0
19:37:09.123000,-1025.0,-652.0,32.0,-667.0,721.0,371.0,0.0,0.0,0.0
19:37:09.128000,-999.0,-599.0,3.0,-663.0,681.0,342.0,0.0,0.0,0.0
19:37:09.132000,-931.0,-540.0,26.0,-663.0,681.0,342.0,0.0,0.0,0.0
19:37:09.137000,-890.0,-494.0,81.0,-587.0,698.0,296.0,0.0,0.0,0.0
19:37:09.142000,-890.0,-494.0,81.0,-587.0,698.0,296.0,0.0,0.0,0.0
19:37:09.146000,-854.0,-451.0,106.0,-551.0,704.0,269.0,0.0,0.0,0.0
19:37:09.151000,-806.0,-388.0,95.0,-551.0,704.0,269.0,0.0,0.0,0.0
19:37:09.156000,-779.0,-331.0,96.0,-571.0,723.0,267.0,0.0,0.0,0.0
19:37:09.160000,-777.0,-289.0,112.0,-571.0,723.0,267.0,0.0,0.0,0.0
19:37:09.165000,-774.0,-238.0,111.0,-571.0,727.0,263.0,0.0,0.0,0.0
19:37:09.170000,-770.0,-188.0,82.0,-571.0,727.0,263.0,0.0,0.0,0.0
19:37:09.175000,-765.0,-142.0,25.0,-550.0,710.0,249.0,0.0,0.0,0.0
19:37:09.179000,-759.0,-97.0,-33.0,-550.0,710.0,249.0,0.0,0.0,0.0
19:37:09.183000,-752.0,-51.0,-63.0,-511.0,712.0,227.0,0.0,0.0,0.0
19:37:09.189000,-745.0,-13.0,-92.0,-511.0,712.0,227.0,0.0,0.0,0.0
19:37:09.193000,-734.0,22.0,-121.0,-458.0,697.0,202.0,0.0,0.0,0.0
19:37:09.198000,-721.0,56.0,-151.0,-458.0,697.0,202.0,0.0,0.0,0.0
19:37:09.203000,-700.0,84.0,-190.0,-458.0,697.0,202.0,0.0,0.0,0.0
19:37:09.207000,-669.0,106.0,-242.0,-417.0,658.0,176.0,0.0,0.0,0.0
19:37:09.212000,-637.0,120.0,-264.0,-417.0,658.0,176.0,0.0,0.0,0.0
19:37:09.217000,-596.0,128.0,-280.0,-365.0,610.0,160.0,0.0,0.0,0.0
19:37:09.222000,-556.0,127.0,-297.0,-365.0,610.0,160.0,0.0,0.0,0.0
19:37:09.226000,-525.0,119.0,-296.0,-299.0,587.0,153.0,0.0,0.0,0.0
19:37:09.231000,-502.0,105.0,-298.0,-299.0,587.0,153.0,0.0,0.0,0.0
19:37:09.236000,-485.0,90.0,-315.0,-252.0,634.0,151.0,0.0,0.0,0.0
19:37:09.240000,-490.0,66.0,-318.0,-252.0,634.0,151.0,0.0,0.0,0.0
19:37:09.245000,-502.0,37.0,-299.0,-217.0,737.0,159.0,0.0,0.0,0.0
19:37:09.250000,-502.0,37.0,-299.0,-217.0,737.0,159.0,0.0,0.0,0.0
19:37:09.254000,-509.0,7.0,-282.0,-186.0,784.0,177.0,0.0,0.0,0.0
19:37:09.259000,-511.0,-22.0,-270.0,-186.0,784.0,177.0,0.0,0.0,0.0
19:37:09.264000,-504.0,-42.0,-256.0,-149.0,727.0,190.0,0.0,0.0,0.0
19:37:09.268000,-506.0,-64.0,-228.0,-149.0,727.0,190.0,0.0,0.0,0.0
19:37:09.273000,-491.0,-82.0,-184.0,-132.0,707.0,206.0,0.0,0.0,0.0
19:37:09.278000,-505.0,-102.0,-203.0,-132.0,707.0,206.0,0.0,0.0,0.0
19:37:09.283000,-437.0,-109.0,-343.0,-121.0,790.0,216.0,0.0,0.0,0.0
19:37:09.287000,-421.0,-119.0,-444.0,-121.0,790.0,216.0,0.0,0.0,0.0
19:37:09.292000,-410.0,-142.0,-361.0,-65.0,729.0,234.0,0.0,0.0,0.0
19:37:09.297000,-408.0,-156.0,-230.0,-65.0,729.0,234.0,0.0,0.0,0.0
19:37:09.301000,-376.0,-158.0,-205.0,-117.0,642.0,238.0,0.0,0.0,0.0
19:37:09.306000,-358.0,-159.0,-249.0,-117.0,642.0,238.0,0.0,0.0,0.0
19:37:09.311000,-347.0,-159.0,-263.0,-117.0,734.0,218.0,0.0,0.0,0.0
19:37:09.316000,-332.0,-158.0,-259.0,-188.0,734.0,218.0,0.0,0.0,0.0
19:37:09.320000,-308.0,-154.0,-235.0,-188.0,734.0,218.0,0.0,0.0,0.0
19:37:09.325000,-280.0,-149.0,-205.0,-153.0,816.0,205.0,0.0,0.0,0.0
19:37:09.330000,-268.0,-147.0,-199.0,-153.0,816.0,205.0,0.0,0.0,0.0
19:37:09.334000,-270.0,-152.0,-228.0,-165.0,856.0,196.0,0.0,0.0,0.0
19:37:09.339000,-268.0,-158.0,-255.0,-165.0,856.0,196.0,0.0,0.0,0.0
19:37:09.344000,-261.0,-168.0,-242.0,-180.0,905.0,195.0,0.0,0.0,0.0
19:37:09.348000,-251.0,-172.0,-218.0,-180.0,905.0,195.0,0.0,0.0,0.0
19:37:09.353000,-238.0,-172.0,-208.0,-130.0,909.0,196.0,0.0,0.0,0.0
19:37:09.358000,-222.0,-172.0,-211.0,-130.0,909.0,196.0,0.0,0.0,0.0
19:37:09.363000,-222.0,-166.0,-211.0,-108.0,877.0,194.0,0.0,0.0,0.0
19:37:09.367000,-207.0,-154.0,-224.0,-108.0,877.0,194.0,0.0,0.0,0.0
19:37:09.372000,-194.0,-134.0,-244.0,-164.0,895.0,192.0,0.0,0.0,0.0
19:37:09.377000,-179.0,-111.0,-266.0,-164.0,895.0,192.0,0.0,0.0,0.0
19:37:09.381000,-160.0,-87.0,-293.0,-194.0,921.0,202.0,0.0,0.0,0.0
19:37:09.386000,-130.0,-65.0,-329.0,-194.0,921.0,202.0,0.0,0.0,0.0
19:37:09.391000,-101.0,-45.0,-369.0,-109.0,921.0,222.0,0.0,0.0,0.0
19:37:09.395000,-81.0,-37.0,-380.0,-109.0,921.0,222.0,0.0,0.0,0.0
19:37:09.400000,-50.0,-33.0,-358.0,-8.0,875.0,239.0,0.0,0.0,0.0
19:37:09.405000,-19.0,-35.0,-340.0,-8.0,875.0,239.0,0.0,0.0,0.0
19:37:09.410000,7.0,-36.0,-350.0,-1.0,867.0,244.0,0.0,0.0,0.0
19:37:09.414000,42.0,-39.0,-386.0,-1.0,867.0,244.0,0.0,0.0,0.0
19:37:09.418000,53.0,-47.0,-392.0,-14.0,904.0,244.0,0.0,0.0,0.0
19:37:09.424000,59.0,-58.0,-378.0,-14.0,904.0,244.0,0.0,0.0,0.0
19:37:09.428000,68.0,-66.0,-370.0,-14.0,904.0,244.0,0.0,0.0,0.0
19:37:09.433000,76.0,-82.0,-373.0,-29.0,930.0,240.0,0.0,0.0,0.0
19:37:09.438000,85.0,-100.0,-367.0,-29.0,930.0,240.0,0.0,0.0,0.0
19:37:09.442000,102.0,-115.0,-339.0,-46.0,980.0,237.0,0.0,0.0,0.0
19:37:09.447000,120.0,-127.0,-284.0,-46.0,980.0,237.0,0.0,0.0,0.0
19:37:09.452000,140.0,-141.0,-240.0,-20.0,976.0,238.0,0.0,0.0,0.0
19:37:09.457000,172.0,-154.0,-237.0,-20.0,976.0,238.0,0.0,0.0,0.0
19:37:09.461000,191.0,-171.0,-247.0,0.0,958.0,236.0,0.0,0.0,0.0
19:37:09.466000,207.0,-182.0,-238.0,0.0,958.0,236.0,0.0,0.0,0.0
19:37:09.471000,207.0,-182.0,-238.0,-10.0,984.0,234.0,0.0,0.0,0.0
19:37:09.475000,224.0,-187.0,-233.0,-10.0,984.0,234.0,0.0,0.0,0.0
19:37:09.480000,237.0,-191.0,-235.0,-36.0,1014.0,233.0,0.0,0.0,0.0
19:37:09.485000,259.0,-186.0,-229.0,-36.0,1014.0,233.0,0.0,0.0,0.0
19:37:09.489000,279.0,-181.0,-198.0,-52.0,1028.0,230.0,0.0,0.0,0.0
19:37:09.494000,298.0,-168.0,-168.0,-52.0,1028.0,230.0,0.0,0.0,0.0
19:37:09.499000,312.0,-156.0,-147.0,-91.0,1036.0,230.0,0.0,0.0,0.0
19:37:09.504000,322.0,-143.0,-127.0,-91.0,1036.0,230.0,0.0,0.0,0.0
19:37:09.508000,343.0,-118.0,-116.0,-155.0,1042.0,224.0,0.0,0.0,0.0
19:37:09.513000,364.0,-82.0,-98.0,-155.0,1042.0,224.0,0.0,0.0,0.0
19:37:09.518000,387.0,-46.0,-55.0,-182.0,1018.0,213.0,0.0,0.0,0.0
19:37:09.522000,414.0,-9.0,-13.0,-182.0,1018.0,213.0,0.0,0.0,0.0
19:37:09.527000,439.0,25.0,4.0,-208.0,1006.0,200.0,0.0,0.0,0.0
19:37:09.532000,475.0,65.0,-3.0,-208.0,1006.0,200.0,0.0,0.0,0.0
19:37:09.536000,521.0,108.0,-32.0,-208.0,1006.0,200.0,0.0,0.0,0.0
19:37:09.541000,576.0,151.0,-51.0,-259.0,1014.0,179.0,0.0,0.0,0.0
19:37:09.546000,625.0,196.0,-46.0,-259.0,1014.0,179.0,0.0,0.0,0.0
19:37:09.551000,683.0,238.0,-37.0,-257.0,977.0,158.0,0.0,0.0,0.0
19:37:09.555000,749.0,277.0,-49.0,-257.0,977.0,158.0,0.0,0.0,0.0
19:37:09.560000,833.0,322.0,-86.0,-233.0,931.0,141.0,0.0,0.0,0.0
19:37:09.565000,933.0,359.0,-144.0,-233.0,931.0,141.0,0.0,0.0,0.0
19:37:09.569000,1012.0,394.0,-191.0,-220.0,934.0,118.0,0.0,0.0,0.0
19:37:09.574000,1108.0,417.0,-196.0,-220.0,934.0,118.0,0.0,0.0,0.0
19:37:09.579000,1108.0,417.0,-196.0,-173.0,939.0,111.0,0.0,0.0,0.0
19:37:09.583000,1201.0,434.0,-158.0,-173.0,939.0,111.0,0.0,0.0,0.0
19:37:09.588000,1296.0,457.0,-99.0,-132.0,894.0,115.0,0.0,0.0,0.0
19:37:09.593000,1405.0,479.0,-40.0,-132.0,894.0,115.0,0.0,0.0,0.0
19:37:09.598000,1518.0,504.0,0.0,-133.0,854.0,128.0,0.0,0.0,0.0
19:37:09.602000,1621.0,527.0,17.0,-133.0,854.0,128.0,0.0,0.0,0.0
19:37:09.607000,1720.0,554.0,37.0,-121.0,834.0,171.0,0.0,0.0,0.0
19:37:09.612000,1817.0,581.0,95.0,-121.0,834.0,171.0,0.0,0.0,0.0
19:37:09.616000,1908.0,618.0,196.0,-82.0,780.0,223.0,0.0,0.0,0.0
19:37:09.621000,1996.0,664.0,282.0,-82.0,780.0,223.0,0.0,0.0,0.0
19:37:09.626000,2072.0,716.0,325.0,-105.0,766.0,274.0,0.0,0.0,0.0
19:37:09.630000,2144.0,770.0,315.0,-105.0,766.0,274.0,0.0,0.0,0.0
19:37:09.635000,2200.0,820.0,288.0,-152.0,834.0,317.0,0.0,0.0,0.0
19:37:09.640000,2244.0,867.0,287.0,-152.0,834.0,317.0,0.0,0.0,0.0
19:37:09.645000,2282.0,913.0,335.0,-152.0,834.0,317.0,0.0,0.0,0.0
19:37:09.649000,2325.0,960.0,394.0,-146.0,868.0,349.0,0.0,0.0,0.0
19:37:09.653000,2371.0,1005.0,443.0,-146.0,868.0,349.0,0.0,0.0,0.0
19:37:09.659000,2417.0,1053.0,494.0,-137.0,807.0,382.0,0.0,0.0,0.0
19:37:09.663000,2459.0,1108.0,571.0,-137.0,807.0,382.0,0.0,0.0,0.0
19:37:09.668000,2492.0,1168.0,683.0,-118.0,717.0,406.0,0.0,0.0,0.0
19:37:09.673000,2514.0,1231.0,808.0,-118.0,717.0,406.0,0.0,0.0,0.0
19:37:09.677000,2534.0,1295.0,914.0,-163.0,660.0,409.0,0.0,0.0,0.0
19:37:09.682000,2563.0,1360.0,980.0,-163.0,660.0,409.0,0.0,0.0,0.0
19:37:09.687000,2563.0,1360.0,980.0,-372.0,630.0,404.0,0.0,0.0,0.0
19:37:09.692000,2607.0,1416.0,990.0,-372.0,630.0,404.0,0.0,0.0,0.0
19:37:09.696000,2655.0,1468.0,966.0,-574.0,573.0,405.0,0.0,0.0,0.0
19:37:09.701000,2693.0,1509.0,930.0,-574.0,573.0,405.0,0.0,0.0,0.0
19:37:09.706000,2737.0,1542.0,895.0,-597.0,499.0,434.0,0.0,0.0,0.0
19:37:09.710000,2791.0,1568.0,857.0,-597.0,499.0,434.0,0.0,0.0,0.0
19:37:09.715000,2837.0,1594.0,695.0,-828.0,393.0,544.0,0.0,0.0,0.0
19:37:09.720000,2876.0,1606.0,569.0,-828.0,393.0,544.0,0.0,0.0,0.0
19:37:09.724000,2992.0,1688.0,861.0,-543.0,303.0,640.0,0.0,0.0,0.0
19:37:09.729000,3007.0,1659.0,985.0,-543.0,303.0,640.0,0.0,0.0,0.0
19:37:09.734000,3023.0,1683.0,930.0,-147.0,382.0,705.0,0.0,0.0,0.0
19:37:09.739000,3019.0,1694.0,831.0,-147.0,382.0,705.0,0.0,0.0,0.0
19:37:09.743000,3015.0,1712.0,867.0,-365.0,487.0,804.0,0.0,0.0,0.0
19:37:09.748000,2977.0,1727.0,947.0,-365.0,487.0,804.0,0.0,0.0,0.0
19:37:09.753000,2927.0,1735.0,941.0,-365.0,487.0,804.0,0.0,0.0,0.0
19:37:09.757000,2879.0,1758.0,967.0,-572.0,556.0,880.0,0.0,0.0,0.0
19:37:09.762000,2835.0,1771.0,1008.0,-572.0,556.0,880.0,0.0,0.0,0.0
19:37:09.767000,2808.0,1780.0,974.0,-727.0,583.0,908.0,0.0,0.0,0.0
19:37:09.771000,2776.0,1761.0,940.0,-727.0,583.0,908.0,0.0,0.0,0.0
19:37:09.776000,2780.0,1783.0,1004.0,-734.0,444.0,889.0,0.0,0.0,0.0
19:37:09.781000,2781.0,1778.0,1008.0,-734.0,444.0,889.0,0.0,0.0,0.0
19:37:09.786000,2782.0,1787.0,908.0,-695.0,260.0,850.0,0.0,0.0,0.0
19:37:09.790000,2783.0,1797.0,818.0,-695.0,260.0,850.0,0.0,0.0,0.0
19:37:09.795000,2792.0,1807.0,779.0,-685.0,143.0,810.0,0.0,0.0,0.0
19:37:09.800000,2792.0,1807.0,779.0,-685.0,143.0,810.0,0.0,0.0,0.0
19:37:09.804000,2810.0,1816.0,768.0,-734.0,70.0,782.0,0.0,0.0,0.0
19:37:09.809000,2828.0,1830.0,751.0,-734.0,70.0,782.0,0.0,0.0,0.0
19:37:09.814000,2847.0,1851.0,712.0,-801.0,5.0,785.0,0.0,0.0,0.0
19:37:09.818000,2855.0,1869.0,662.0,-801.0,5.0,785.0,0.0,0.0,0.0
19:37:09.823000,2851.0,1889.0,641.0,-901.0,-74.0,830.0,0.0,0.0,0.0
19:37:09.828000,2851.0,1918.0,636.0,-901.0,-74.0,830.0,0.0,0.0,0.0
19:37:09.833000,2861.0,1963.0,627.0,-1030.0,-179.0,911.0,0.0,0.0,0.0
19:37:09.837000,2884.0,2007.0,616.0,-1030.0,-179.0,911.0,0.0,0.0,0.0
19:37:09.842000,2900.0,2055.0,614.0,-1113.0,-259.0,1038.0,0.0,0.0,0.0
19:37:09.847000,2903.0,2099.0,597.0,-1113.0,-259.0,1038.0,0.0,0.0,0.0
19:37:09.851000,2888.0,2151.0,571.0,-1061.0,-198.0,1157.0,0.0,0.0,0.0
19:37:09.856000,2853.0,2183.0,515.0,-1061.0,-198.0,1157.0,0.0,0.0,0.0
19:37:09.861000,2821.0,2202.0,434.0,-954.0,-35.0,1214.0,0.0,0.0,0.0
19:37:09.865000,2773.0,2214.0,374.0,-954.0,-35.0,1214.0,0.0,0.0,0.0
19:37:09.870000,2733.0,2222.0,308.0,-954.0,-35.0,1214.0,0.0,0.0,0.0
19:37:09.875000,2676.0,2224.0,287.0,-840.0,13.0,1211.0,0.0,0.0,0.0
19:37:09.880000,2634.0,2220.0,312.0,-840.0,13.0,1211.0,0.0,0.0,0.0
19:37:09.884000,2592.0,2214.0,314.0,-713.0,-73.0,1164.0,0.0,0.0,0.0
19:37:09.888000,2542.0,2200.0,280.0,-713.0,-73.0,1164.0,0.0,0.0,0.0
19:37:09.894000,2493.0,2189.0,251.0,-640.0,-77.0,1100.0,0.0,0.0,0.0
19:37:09.898000,2431.0,2165.0,233.0,-640.0,-77.0,1100.0,0.0,0.0,0.0
19:37:09.903000,2371.0,2135.0,200.0,-589.0,23.0,1027.0,0.0,0.0,0.0
19:37:09.908000,2371.0,2135.0,200.0,-589.0,23.0,1027.0,0.0,0.0,0.0
19:37:09.912000,2298.0,2097.0,170.0,-527.0,73.0,947.0,0.0,0.0,0.0
19:37:09.917000,2224.0,2058.0,151.0,-527.0,73.0,947.0,0.0,0.0,0.0
19:37:09.922000,2154.0,2014.0,125.0,-484.0,73.0,867.0,0.0,0.0,0.0
19:37:09.927000,2082.0,1964.0,107.0,-484.0,73.0,867.0,0.0,0.0,0.0
19:37:09.931000,2015.0,1916.0,109.0,-448.0,53.0,785.0,0.0,0.0,0.0
19:37:09.936000,1957.0,1876.0,116.0,-448.0,53.0,785.0,0.0,0.0,0.0
19:37:09.941000,1906.0,1831.0,125.0,-452.0,30.0,708.0,0.0,0.0,0.0
19:37:09.945000,1848.0,1789.0,129.0,-452.0,30.0,708.0,0.0,0.0,0.0
19:37:09.950000,1785.0,1746.0,154.0,-493.0,18.0,647.0,0.0,0.0,0.0
19:37:09.955000,1726.0,1705.0,198.0,-493.0,18.0,647.0,0.0,0.0,0.0
19:37:09.959000,1666.0,1666.0,247.0,-538.0,18.0,599.0,0.0,0.0,0.0
19:37:09.964000,1600.0,1633.0,287.0,-538.0,18.0,599.0,0.0,0.0,0.0
19:37:09.969000,1530.0,1600.0,324.0,-538.0,18.0,599.0,0.0,0.0,0.0
19:37:09.974000,1460.0,1568.0,354.0,-589.0,29.0,552.0,0.0,0.0,0.0
19:37:09.978000,1389.0,1535.0,369.0,-625.0,54.0,508.0,0.0,0.0,0.0
19:37:09.983000,1317.0,1501.0,367.0,-625.0,54.0,508.0,0.0,0.0,0.0
19:37:09.988000,1241.0,1465.0,355.0,-625.0,54.0,508.0,0.0,0.0,0.0
19:37:09.992000,1157.0,1425.0,354.0,-645.0,105.0,469.0,0.0,0.0,0.0
19:37:09.997000,1075.0,1379.0,376.0,-645.0,105.0,469.0,0.0,0.0,0.0
19:37:10.002000,992.0,1331.0,406.0,-638.0,131.0,437.0,0.0,0.0,0.0
19:37:10.006000,908.0,1283.0,417.0,-638.0,131.0,437.0,0.0,0.0,0.0
19:37:10.011000,830.0,1237.0,424.0,-646.0,98.0,406.0,0.0,0.0,0.0
19:37:10.016000,830.0,1237.0,424.0,-646.0,98.0,406.0,0.0,0.0,0.0
19:37:10.021000,750.0,1201.0,452.0,-743.0,-3.0,349.0,0.0,0.0,0.0
19:37:10.025000,689.0,1175.0,497.0,-743.0,-3.0,349.0,0.0,0.0,0.0
19:37:10.030000,644.0,1142.0,502.0,-863.0,-128.0,273.0,0.0,0.0,0.0
19:37:10.035000,597.0,1110.0,493.0,-863.0,-128.0,273.0,0.0,0.0,0.0
19:37:10.039000,542.0,1075.0,513.0,-930.0,-175.0,215.0,0.0,0.0,0.0
19:37:10.044000,483.0,1039.0,546.0,-930.0,-175.0,215.0,0.0,0.0,0.0
19:37:10.049000,432.0,1002.0,560.0,-940.0,-170.0,184.0,0.0,0.0,0.0
19:37:10.053000,388.0,965.0,556.0,-940.0,-170.0,184.0,0.0,0.0,0.0
19:37:10.058000,354.0,926.0,553.0,-914.0,-200.0,163.0,0.0,0.0,0.0
19:37:10.063000,330.0,887.0,525.0,-914.0,-200.0,163.0,0.0,0.0,0.0
19:37:10.068000,296.0,846.0,462.0,-898.0,-237.0,142.0,0.0,0.0,0.0
19:37:10.072000,273.0,808.0,373.0,-898.0,-237.0,142.0,0.0,0.0,0.0
19:37:10.077000,265.0,771.0,298.0,-898.0,-283.0,131.0,0.0,0.0,0.0
19:37:10.082000,252.0,729.0,286.0,-863.0,-283.0,131.0,0.0,0.0,0.0
19:37:10.086000,236.0,699.0,244.0,-863.0,-283.0,131.0,0.0,0.0,0.0
19:37:10.091000,228.0,682.0,160.0,-831.0,-384.0,121.0,0.0,0.0,0.0
19:37:10.096000,221.0,667.0,105.0,-831.0,-438.0,89.0,0.0,0.0,0.0
19:37:10.100000,219.0,653.0,91.0,-862.0,-438.0,89.0,0.0,0.0,0.0
19:37:10.105000,203.0,646.0,73.0,-862.0,-438.0,89.0,0.0,0.0,0.0
19:37:10.110000,204.0,639.0,38.0,-919.0,-445.0,41.0,0.0,0.0,0.0
19:37:10.115000,221.0,636.0,21.0,-919.0,-445.0,41.0,0.0,0.0,0.0
19:37:10.119000,243.0,631.0,18.0,-945.0,-521.0,4.0,0.0,0.0,0.0
19:37:10.123000,243.0,631.0,18.0,-945.0,-521.0,4.0,0.0,0.0,0.0
19:37:10.129000,287.0,623.0,-5.0,-941.0,-626.0,-14.0,0.0,0.0,0.0
19:37:10.133000,346.0,613.0,-39.0,-941.0,-626.0,-14.0,0.0,0.0,0.0
19:37:10.138000,396.0,598.0,-77.0,-930.0,-640.0,-22.0,0.0,0.0,0.0
19:37:10.143000,425.0,571.0,-100.0,-930.0,-640.0,-22.0,0.0,0.0,0.0
19:37:10.147000,456.0,534.0,-113.0,-909.0,-588.0,-36.0,0.0,0.0,0.0
19:37:10.152000,478.0,497.0,-129.0,-909.0,-588.0,-36.0,0.0,0.0,0.0
19:37:10.157000,494.0,455.0,-137.0,-875.0,-548.0,-60.0,0.0,0.0,0.0
19:37:10.162000,497.0,408.0,-126.0,-875.0,-548.0,-60.0,0.0,0.0,0.0
19:37:10.166000,498.0,359.0,-109.0,-847.0,-492.0,-91.0,0.0,0.0,0.0
19:37:10.171000,480.0,315.0,-124.0,-847.0,-492.0,-91.0,0.0,0.0,0.0
19:37:10.176000,459.0,265.0,-154.0,-859.0,-379.0,-115.0,0.0,0.0,0.0
19:37:10.180000,416.0,207.0,-183.0,-859.0,-379.0,-115.0,0.0,0.0,0.0
19:37:10.185000,378.0,154.0,-179.0,-857.0,-367.0,-120.0,0.0,0.0,0.0
19:37:10.190000,354.0,105.0,-151.0,-857.0,-367.0,-120.0,0.0,0.0,0.0
19:37:10.194000,348.0,58.0,-115.0,-857.0,-367.0,-120.0,0.0,0.0,0.0
19:37:10.199000,358.0,20.0,-90.0,-805.0,-518.0,-127.0,0.0,0.0,0.0
19:37:10.204000,376.0,-11.0,-88.0,-805.0,-518.0,-127.0,0.0,0.0,0.0
19:37:10.209000,394.0,-36.0,-100.0,-786.0,-623.0,-143.0,0.0,0.0,0.0
19:37:10.213000,399.0,-56.0,-137.0,-786.0,-623.0,-143.0,0.0,0.0,0.0
19:37:10.217000,401.0,-72.0,-179.0,-825.0,-603.0,-145.0,0.0,0.0,0.0
19:37:10.223000,401.0,-81.0,-182.0,-825.0,-603.0,-145.0,0.0,0.0,0.0
19:37:10.227000,383.0,-85.0,-168.0,-878.0,-559.0,-142.0,0.0,0.0,0.0
19:37:10.232000,359.0,-86.0,-161.0,-878.0,-559.0,-142.0,0.0,0.0,0.0
19:37:10.237000,359.0,-86.0,-161.0,-957.0,-503.0,-143.0,0.0,0.0,0.0
19:37:10.241000,329.0,-83.0,-146.0,-957.0,-503.0,-143.0,0.0,0.0,0.0
19:37:10.246000,289.0,-78.0,-113.0,-1064.0,-421.0,-154.0,0.0,0.0,0.0
19:37:10.251000,247.0,-70.0,-86.0,-1064.0,-421.0,-154.0,0.0,0.0,0.0
19:37:10.256000,207.0,-64.0,-62.0,-1164.0,-327.0,-182.0,0.0,0.0,0.0
19:37:10.260000,165.0,-64.0,-39.0,-1164.0,-327.0,-182.0,0.0,0.0,0.0
19:37:10.265000,119.0,-70.0,-30.0,-1234.0,-240.0,-208.0,0.0,0.0,0.0
19:37:10.270000,81.0,-78.0,-10.0,-1234.0,-240.0,-208.0,0.0,0.0,0.0
19:37:10.274000,56.0,-90.0,23.0,-1233.0,-250.0,-228.0,0.0,0.0,0.0
19:37:10.279000,44.0,-104.0,78.0,-1233.0,-250.0,-228.0,0.0,0.0,0.0
19:37:10.284000,49.0,-123.0,140.0,-1167.0,-369.0,-249.0,0.0,0.0,0.0
19:37:10.288000,70.0,-142.0,193.0,-1167.0,-369.0,-249.0,0.0,0.0,0.0
19:37:10.293000,100.0,-162.0,224.0,-1090.0,-469.0,-258.0,0.0,0.0,0.0
19:37:10.298000,129.0,-187.0,234.0,-1090.0,-469.0,-258.0,0.0,0.0,0.0
19:37:10.303000,146.0,-217.0,240.0,-1090.0,-469.0,-258.0,0.0,0.0,0.0
19:37:10.307000,163.0,-254.0,235.0,-1025.0,-488.0,-252.0,0.0,0.0,0.0
19:37:10.312000,170.0,-294.0,224.0,-1025.0,-488.0,-252.0,0.0,0.0,0.0
19:37:10.317000,161.0,-336.0,217.0,-967.0,-469.0,-240.0,0.0,0.0,0.0
19:37:10.321000,135.0,-376.0,222.0,-967.0,-469.0,-240.0,0.0,0.0,0.0
19:37:10.326000,94.0,-414.0,231.0,-929.0,-414.0,-213.0,0.0,0.0,0.0
19:37:10.331000,36.0,-449.0,242.0,-929.0,-414.0,-213.0,0.0,0.0,0.0
19:37:10.335000,-16.0,-476.0,241.0,-927.0,-363.0,-170.0,0.0,0.0,0.0
19:37:10.340000,-45.0,-492.0,205.0,-927.0,-363.0,-170.0,0.0,0.0,0.0
19:37:10.345000,-45.0,-492.0,205.0,-937.0,-364.0,-139.0,0.0,0.0,0.0
19:37:10.350000,-68.0,-499.0,136.0,-937.0,-364.0,-139.0,0.0,0.0,0.0
19:37:10.354000,-88.0,-504.0,80.0,-926.0,-399.0,-116.0,0.0,0.0,0.0
19:37:10.358000,-103.0,-508.0,70.0,-926.0,-399.0,-116.0,0.0,0.0,0.0
19:37:10.364000,-112.0,-511.0,60.0,-931.0,-437.0,-84.0,0.0,0.0,0.0
19:37:10.368000,-102.0,-511.0,26.0,-931.0,-437.0,-84.0,0.0,0.0,0.0
19:37:10.373000,-77.0,-510.0,5.0,-965.0,-453.0,-53.0,0.0,0.0,0.0
19:37:10.378000,-42.0,-518.0,-1.0,-965.0,-453.0,-53.0,0.0,0.0,0.0
19:37:10.382000,-3.0,-529.0,1.0,-974.0,-442.0,-15.0,0.0,0.0,0.0
19:37:10.387000,31.0,-546.0,10.0,-974.0,-442.0,-15.0,0.0,0.0,0.0
19:37:10.392000,72.0,-560.0,35.0,-952.0,-442.0,17.0,0.0,0.0,0.0
19:37:10.397000,119.0,-574.0,72.0,-952.0,-442.0,17.0,0.0,0.0,0.0
19:37:10.401000,159.0,-588.0,100.0,-937.0,-438.0,32.0,0.0,0.0,0.0
19:37:10.406000,186.0,-603.0,117.0,-937.0,-438.0,32.0,0.0,0.0,0.0
19:37:10.411000,205.0,-620.0,156.0,-937.0,-438.0,32.0,0.0,0.0,0.0
19:37:10.415000,217.0,-638.0,193.0,-926.0,-391.0,38.0,0.0,0.0,0.0
19:37:10.420000,213.0,-654.0,206.0,-926.0,-391.0,38.0,0.0,0.0,0.0
19:37:10.425000,194.0,-669.0,198.0,-906.0,-343.0,42.0,0.0,0.0,0.0
19:37:10.429000,167.0,-682.0,170.0,-906.0,-343.0,42.0,0.0,0.0,0.0
19:37:10.434000,128.0,-698.0,128.0,-886.0,-315.0,37.0,0.0,0.0,0.0
19:37:10.439000,88.0,-716.0,75.0,-886.0,-315.0,37.0,0.0,0.0,0.0
19:37:10.444000,47.0,-734.0,16.0,-863.0,-277.0,22.0,0.0,0.0,0.0
19:37:10.448000,7.0,-756.0,-34.0,-863.0,-277.0,22.0,0.0,0.0,0.0
19:37:10.453000,7.0,-756.0,-34.0,-842.0,-242.0,1.0,0.0,0.0,0.0
19:37:10.458000,-43.0,-780.0,-66.0,-842.0,-242.0,1.0,0.0,0.0,0.0
19:37:10.462000,-91.0,-805.0,-97.0,-841.0,-223.0,-22.0,0.0,0.0,0.0
19:37:10.467000,-136.0,-834.0,-137.0,-841.0,-223.0,-22.0,0.0,0.0,0.0
19:37:10.472000,-182.0,-868.0,-187.0,-868.0,-183.0,-46.0,0.0,0.0,0.0
19:37:10.476000,-229.0,-903.0,-241.0,-868.0,-183.0,-46.0,0.0,0.0,0.0
19:37:10.481000,-275.0,-943.0,-276.0,-885.0,-134.0,-63.0,0.0,0.0,0.0
19:37:10.486000,-319.0,-984.0,-292.0,-885.0,-134.0,-63.0,0.0,0.0,0.0
19:37:10.490000,-359.0,-1029.0,-303.0,-863.0,-106.0,-64.0,0.0,0.0,0.0
19:37:10.495000,-400.0,-1078.0,-315.0,-863.0,-106.0,-64.0,0.0,0.0,0.0
19:37:10.500000,-443.0,-1131.0,-329.0,-812.0,-86.0,-41.0,0.0,0.0,0.0
19:37:10.505000,-481.0,-1186.0,-344.0,-812.0,-86.0,-41.0,0.0,0.0,0.0
19:37:10.509000,-513.0,-1236.0,-351.0,-740.0,-89.0,-1.0,0.0,0.0,0.0
19:37:10.514000,-546.0,-1283.0,-347.0,-740.0,-89.0,-1.0,0.0,0.0,0.0
19:37:10.519000,-581.0,-1325.0,-331.0,-740.0,-89.0,-1.0,0.0,0.0,0.0
19:37:10.523000,-622.0,-1359.0,-319.0,-688.0,-93.0,54.0,0.0,0.0,0.0
19:37:10.528000,-673.0,-1385.0,-323.0,-688.0,-93.0,54.0,0.0,0.0,0.0
19:37:10.533000,-739.0,-1404.0,-343.0,-702.0,-4.0,123.0,0.0,0.0,0.0
19:37:10.537000,-827.0,-1417.0,-359.0,-702.0,-4.0,123.0,0.0,0.0,0.0
19:37:10.542000,-935.0,-1430.0,-362.0,-763.0,190.0,211.0,0.0,0.0,0.0
19:37:10.547000,-1058.0,-1443.0,-358.0,-763.0,190.0,211.0,0.0,0.0,0.0
19:37:10.552000,-1180.0,-1457.0,-341.0,-843.0,396.0,316.0,0.0,0.0,0.0
19:37:10.556000,-1296.0,-1459.0,-307.0,-843.0,396.0,316.0,0.0,0.0,0.0
19:37:10.561000,-1407.0,-1457.0,-256.0,-915.0,517.0,429.0,0.0,0.0,0.0
19:37:10.566000,-1407.0,-1457.0,-256.0,-915.0,517.0,429.0,0.0,0.0,0.0
19:37:10.570000,-1507.0,-1440.0,-210.0,-915.0,508.0,561.0,0.0,0.0,0.0
19:37:10.575000,-1598.0,-1410.0,-201.0,-915.0,508.0,561.0,0.0,0.0,0.0
19:37:10.580000,-1669.0,-1377.0,-211.0,-803.0,369.0,672.0,0.0,0.0,0.0
19:37:10.584000,-1725.0,-1346.0,-191.0,-803.0,369.0,672.0,0.0,0.0,0.0
19:37:10.589000,-1771.0,-1320.0,-114.0,-811.0,140.0,694.0,0.0,0.0,0.0
19:37:10.593000,-1804.0,-1304.0,-48.0,-811.0,140.0,694.0,0.0,0.0,0.0
19:37:10.599000,-1803.0,-1297.0,-38.0,-1023.0,-75.0,625.0,0.0,0.0,0.0
19:37:10.603000,-1757.0,-1290.0,-81.0,-1023.0,-75.0,625.0,0.0,0.0,0.0
19:37:10.608000,-1668.0,-1270.0,-131.0,-1160.0,-261.0,478.0,0.0,0.0,0.0
19:37:10.613000,-1553.0,-1243.0,-154.0,-1160.0,-261.0,478.0,0.0,0.0,0.0
19:37:10.617000,-1424.0,-1217.0,-170.0,-1168.0,-392.0,304.0,0.0,0.0,0.0
19:37:10.622000,-1305.0,-1197.0,-228.0,-1168.0,-392.0,304.0,0.0,0.0,0.0
19:37:10.627000,-1193.0,-1199.0,-317.0,-1168.0,-392.0,304.0,0.0,0.0,0.0
19:37:10.631000,-1099.0,-1205.0,-389.0,-1151.0,-349.0,184.0,0.0,0.0,0.0
19:37:10.636000,-1009.0,-1214.0,-427.0,-1151.0,-349.0,184.0,0.0,0.0,0.0
19:37:10.641000,-912.0,-1220.0,-436.0,-1052.0,-286.0,138.0,0.0,0.0,0.0
19:37:10.646000,-813.0,-1213.0,-407.0,-1052.0,-286.0,138.0,0.0,0.0,0.0
19:37:10.650000,-707.0,-1187.0,-360.0,-855.0,-335.0,144.0,0.0,0.0,0.0
19:37:10.655000,-614.0,-1156.0,-328.0,-855.0,-335.0,144.0,0.0,0.0,0.0
19:37:10.660000,-557.0,-1115.0,-346.0,-733.0,-348.0,185.0,0.0,0.0,0.0
19:37:10.664000,-521.0,-1073.0,-381.0,-733.0,-348.0,185.0,0.0,0.0,0.0
19:37:10.669000,-487.0,-1025.0,-358.0,-736.0,-262.0,250.0,0.0,0.0,0.0
19:37:10.673000,-487.0,-1025.0,-358.0,-736.0,-262.0,250.0,0.0,0.0,0.0
19:37:10.678000,-459.0,-975.0,-243.0,-791.0,-237.0,313.0,0.0,0.0,0.0
19:37:10.683000,-428.0,-912.0,-153.0,-791.0,-237.0,313.0,0.0,0.0,0.0
19:37:10.688000,-398.0,-849.0,-152.0,-916.0,-258.0,353.0,0.0,0.0,0.0
19:37:10.693000,-371.0,-789.0,-158.0,-916.0,-258.0,353.0,0.0,0.0,0.0
19:37:10.697000,-355.0,-722.0,-131.0,-980.0,-218.0,385.0,0.0,0.0,0.0
19:37:10.702000,-345.0,-660.0,-116.0,-980.0,-218.0,385.0,0.0,0.0,0.0
19:37:10.707000,-333.0,-598.0,-126.0,-942.0,-150.0,411.0,0.0,0.0,0.0
19:37:10.711000,-312.0,-539.0,-152.0,-942.0,-150.0,411.0,0.0,0.0,0.0
19:37:10.716000,-287.0,-483.0,-169.0,-905.0,-124.0,427.0,0.0,0.0,0.0
19:37:10.721000,-261.0,-431.0,-156.0,-905.0,-124.0,427.0,0.0,0.0,0.0
19:37:10.725000,-245.0,-373.0,-159.0,-873.0,-141.0,440.0,0.0,0.0,0.0
19:37:10.730000,-242.0,-322.0,-179.0,-873.0,-141.0,440.0,0.0,0.0,0.0
19:37:10.735000,-231.0,-277.0,-181.0,-873.0,-141.0,440.0,0.0,0.0,0.0
19:37:10.740000,-225.0,-238.0,-156.0,-870.0,-133.0,451.0,0.0,0.0,0.0
19:37:10.744000,-226.0,-201.0,-127.0,-870.0,-133.0,451.0,0.0,0.0,0.0
19:37:10.749000,-222.0,-165.0,-101.0,-881.0,-126.0,461.0,0.0,0.0,0.0
19:37:10.754000,-210.0,-128.0,-67.0,-881.0,-126.0,461.0,0.0,0.0,0.0
19:37:10.758000,-195.0,-93.0,-30.0,-890.0,-113.0,468.0,0.0,0.0,0.0
19:37:10.763000,-177.0,-56.0,1.0,-890.0,-113.0,468.0,0.0,0.0,0.0
19:37:10.768000,-153.0,-8.0,4.0,-907.0,-50.0,481.0,0.0,0.0,0.0
19:37:10.772000,-128.0,33.0,-32.0,-907.0,-50.0,481.0,0.0,0.0,0.0
19:37:10.777000,-100.0,63.0,-84.0,-948.0,19.0,499.0,0.0,0.0,0.0
19:37:10.782000,-100.0,63.0,-84.0,-948.0,19.0,499.0,0.0,0.0,0.0
19:37:10.787000,-65.0,98.0,-70.0,-929.0,-14.0,502.0,0.0,0.0,0.0
19:37:10.791000,-26.0,123.0,-27.0,-929.0,-14.0,502.0,0.0,0.0,0.0
19:37:10.796000,14.0,140.0,-29.0,-882.0,-68.0,491.0,0.0,0.0,0.0
19:37:10.801000,58.0,151.0,-71.0,-882.0,-68.0,491.0,0.0,0.0,0.0
19:37:10.805000,93.0,159.0,-91.0,-893.0,-56.0,482.0,0.0,0.0,0.0
19:37:10.810000,117.0,162.0,-94.0,-893.0,-56.0,482.0,0.0,0.0,0.0
19:37:10.815000,133.0,166.0,-98.0,-901.0,-59.0,483.0,0.0,0.0,0.0
19:37:10.819000,145.0,173.0,-117.0,-901.0,-59.0,483.0,0.0,0.0,0.0
19:37:10.824000,153.0,170.0,-119.0,-840.0,-85.0,501.0,0.0,0.0,0.0
19:37:10.828000,158.0,172.0,-119.0,-840.0,-85.0,501.0,0.0,0.0,0.0
19:37:10.834000,167.0,186.0,-130.0,-763.0,-93.0,520.0,0.0,0.0,0.0
19:37:10.838000,177.0,207.0,-145.0,-763.0,-93.0,520.0,0.0,0.0,0.0
19:37:10.843000,185.0,217.0,-175.0,-763.0,-76.0,527.0,0.0,0.0,0.0
19:37:10.848000,180.0,226.0,-198.0,-776.0,-76.0,527.0,0.0,0.0,0.0
19:37:10.852000,183.0,242.0,-177.0,-776.0,-76.0,527.0,0.0,0.0,0.0
19:37:10.857000,196.0,255.0,-145.0,-811.0,-72.0,530.0,0.0,0.0,0.0
19:37:10.862000,202.0,267.0,-128.0,-811.0,-72.0,530.0,0.0,0.0,0.0
19:37:10.866000,192.0,273.0,-123.0,-827.0,-102.0,533.0,0.0,0.0,0.0
19:37:10.871000,184.0,289.0,-149.0,-827.0,-102.0,533.0,0.0,0.0,0.0
19:37:10.876000,179.0,310.0,-186.0,-838.0,-105.0,533.0,0.0,0.0,0.0
19:37:10.881000,163.0,336.0,-207.0,-838.0,-105.0,533.0,0.0,0.0,0.0
19:37:10.885000,138.0,359.0,-204.0,-795.0,-70.0,530.0,0.0,0.0,0.0
19:37:10.890000,138.0,359.0,-204.0,-795.0,-70.0,530.0,0.0,0.0,0.0
19:37:10.895000,116.0,385.0,-184.0,-741.0,-78.0,524.0,0.0,0.0,0.0
19:37:10.899000,107.0,417.0,-168.0,-741.0,-78.0,524.0,0.0,0.0,0.0
19:37:10.904000,109.0,445.0,-181.0,-762.0,-128.0,516.0,0.0,0.0,0.0
19:37:10.909000,107.0,463.0,-197.0,-762.0,-128.0,516.0,0.0,0.0,0.0
19:37:10.913000,94.0,472.0,-207.0,-781.0,-159.0,519.0,0.0,0.0,0.0
19:37:10.918000,86.0,482.0,-226.0,-781.0,-159.0,519.0,0.0,0.0,0.0
19:37:10.923000,67.0,490.0,-217.0,-743.0,-155.0,529.0,0.0,0.0,0.0
19:37:10.928000,58.0,494.0,-186.0,-743.0,-155.0,529.0,0.0,0.0,0.0
19:37:10.932000,28.0,494.0,-148.0,-748.0,-102.0,541.0,0.0,0.0,0.0
19:37:10.937000,-2.0,498.0,-127.0,-748.0,-102.0,541.0,0.0,0.0,0.0
19:37:10.942000,-41.0,503.0,-151.0,-801.0,-34.0,546.0,0.0,0.0,0.0
19:37:10.946000,-70.0,506.0,-165.0,-801.0,-34.0,546.0,0.0,0.0,0.0
19:37:10.951000,-105.0,518.0,-141.0,-828.0,-59.0,547.0,0.0,0.0,0.0
19:37:10.956000,-137.0,531.0,-143.0,-828.0,-59.0,547.0,0.0,0.0,0.0
19:37:10.960000,-152.0,545.0,-173.0,-828.0,-59.0,547.0,0.0,0.0,0.0
19:37:10.965000,-163.0,559.0,-191.0,-851.0,-123.0,549.0,0.0,0.0,0.0
19:37:10.970000,-158.0,564.0,-205.0,-891.0,-142.0,546.0,0.0,0.0,0.0
19:37:10.975000,-149.0,569.0,-220.0,-891.0,-142.0,546.0,0.0,0.0,0.0
19:37:10.979000,-130.0,576.0,-245.0,-891.0,-142.0,546.0,0.0,0.0,0.0
19:37:10.984000,-109.0,583.0,-254.0,-911.0,-146.0,549.0,0.0,0.0,0.0
19:37:10.989000,-97.0,592.0,-254.0,-911.0,-146.0,549.0,0.0,0.0,0.0
19:37:10.993000,-73.0,607.0,-273.0,-913.0,-141.0,558.0,0.0,0.0,0.0
19:37:10.998000,-49.0,627.0,-307.0,-913.0,-141.0,558.0,0.0,0.0,0.0
19:37:11.003000,-49.0,627.0,-307.0,-921.0,-136.0,563.0,0.0,0.0,0.0
19:37:11.007000,-36.0,644.0,-313.0,-921.0,-136.0,563.0,0.0,0.0,0.0
19:37:11.012000,-20.0,655.0,-294.0,-917.0,-154.0,577.0,0.0,0.0,0.0
19:37:11.017000,-2.0,662.0,-266.0,-917.0,-154.0,577.0,0.0,0.0,0.0
19:37:11.022000,21.0,666.0,-230.0,-877.0,-207.0,595.0,0.0,0.0,0.0
19:37:11.026000,60.0,681.0,-226.0,-877.0,-207.0,595.0,0.0,0.0,0.0
19:37:11.031000,86.0,694.0,-249.0,-854.0,-242.0,601.0,0.0,0.0,0.0
19:37:11.036000,119.0,695.0,-263.0,-854.0,-242.0,601.0,0.0,0.0,0.0
19:37:11.040000,155.0,700.0,-289.0,-846.0,-205.0,602.0,0.0,0.0,0.0
19:37:11.045000,188.0,705.0,-320.0,-846.0,-205.0,602.0,0.0,0.0,0.0
19:37:11.050000,224.0,710.0,-336.0,-830.0,-166.0,599.0,0.0,0.0,0.0
19:37:11.054000,261.0,723.0,-341.0,-830.0,-166.0,599.0,0.0,0.0,0.0
19:37:11.059000,296.0,735.0,-329.0,-853.0,-166.0,587.0,0.0,0.0,0.0
19:37:11.063000,333.0,742.0,-294.0,-853.0,-166.0,587.0,0.0,0.0,0.0
19:37:11.069000,373.0,752.0,-266.0,-853.0,-166.0,587.0,0.0,0.0,0.0
19:37:11.073000,396.0,757.0,-254.0,-909.0,-142.0,567.0,0.0,0.0,0.0
19:37:11.078000,422.0,760.0,-278.0,-909.0,-142.0,567.0,0.0,0.0,0.0
19:37:11.083000,443.0,766.0,-295.0,-967.0,-73.0,549.0,0.0,0.0,0.0
19:37:11.087000,457.0,769.0,-264.0,-967.0,-73.0,549.0,0.0,0.0,0.0
19:37:11.092000,466.0,769.0,-215.0,-991.0,-12.0,534.0,0.0,0.0,0.0
19:37:11.097000,476.0,768.0,-182.0,-991.0,-12.0,534.0,0.0,0.0,0.0
19:37:11.101000,487.0,763.0,-170.0,-990.0,6.0,513.0,0.0,0.0,0.0
19:37:11.106000,500.0,753.0,-156.0,-990.0,6.0,513.0,0.0,0.0,0.0
19:37:11.111000,500.0,753.0,-156.0,-985.0,-19.0,482.0,0.0,0.0,0.0
19:37:11.116000,511.0,742.0,-111.0,-985.0,-19.0,482.0,0.0,0.0,0.0
19:37:11.120000,535.0,730.0,-55.0,-952.0,-51.0,455.0,0.0,0.0,0.0
19:37:11.125000,567.0,720.0,-21.0,-952.0,-51.0,455.0,0.0,0.0,0.0
19:37:11.130000,601.0,709.0,-7.0,-923.0,-63.0,435.0,0.0,0.0,0.0
19:37:11.134000,641.0,700.0,-9.0,-923.0,-63.0,435.0,0.0,0.0,0.0
19:37:11.139000,702.0,690.0,-24.0,-928.0,-104.0,412.0,0.0,0.0,0.0
19:37:11.144000,771.0,682.0,-47.0,-928.0,-104.0,412.0,0.0,0.0,0.0
19:37:11.148000,841.0,683.0,-63.0,-927.0,-143.0,392.0,0.0,0.0,0.0
19:37:11.153000,910.0,693.0,-53.0,-927.0,-143.0,392.0,0.0,0.0,0.0
19:37:11.158000,971.0,708.0,-23.0,-949.0,-140.0,387.0,0.0,0.0,0.0
19:37:11.163000,1024.0,728.0,-2.0,-949.0,-140.0,387.0,0.0,0.0,0.0
19:37:11.167000,1071.0,755.0,9.0,-1015.0,-121.0,390.0,0.0,0.0,0.0
19:37:11.172000,1120.0,788.0,25.0,-1015.0,-121.0,390.0,0.0,0.0,0.0
19:37:11.177000,1171.0,830.0,51.0,-1015.0,-121.0,390.0,0.0,0.0,0.0
19:37:11.181000,1218.0,882.0,72.0,-1062.0,-102.0,392.0,0.0,0.0,0.0
19:37:11.186000,1262.0,939.0,81.0,-1062.0,-102.0,392.0,0.0,0.0,0.0
19:37:11.191000,1307.0,1003.0,88.0,-1109.0,-82.0,398.0,0.0,0.0,0.0
19:37:11.195000,1346.0,1071.0,109.0,-1109.0,-82.0,398.0,0.0,0.0,0.0
19:37:11.200000,1379.0,1138.0,142.0,-1173.0,-79.0,398.0,0.0,0.0,0.0
19:37:11.205000,1409.0,1203.0,173.0,-1173.0,-79.0,398.0,0.0,0.0,0.0
19:37:11.210000,1434.0,1264.0,193.0,-1225.0,-68.0,394.0,0.0,0.0,0.0
19:37:11.214000,1461.0,1325.0,203.0,-1225.0,-68.0,394.0,0.0,0.0,0.0
19:37:11.219000,1461.0,1325.0,203.0,-1257.0,-32.0,389.0,0.0,0.0,0.0
19:37:11.224000,1485.0,1381.0,207.0,-1257.0,-32.0,389.0,0.0,0.0,0.0
19:37:11.228000,1513.0,1434.0,200.0,-1265.0,-34.0,373.0,0.0,0.0,0.0
19:37:11.233000,1545.0,1489.0,200.0,-1265.0,-34.0,373.0,0.0,0.0,0.0
19:37:11.238000,1583.0,1547.0,208.0,-1271.0,-72.0,342.0,0.0,0.0,0.0
19:37:11.242000,1621.0,1618.0,219.0,-1271.0,-72.0,342.0,0.0,0.0,0.0
19:37:11.247000,1647.0,1702.0,228.0,-1307.0,-90.0,305.0,0.0,0.0,0.0
19:37:11.252000,1668.0,1802.0,235.0,-1307.0,-90.0,305.0,0.0,0.0,0.0
19:37:11.257000,1692.0,1914.0,242.0,-1378.0,-97.0,255.0,0.0,0.0,0.0
19:37:11.261000,1711.0,2034.0,248.0,-1378.0,-97.0,255.0,0.0,0.0,0.0
19:37:11.266000,1733.0,2159.0,260.0,-1446.0,-124.0,199.0,0.0,0.0,0.0
19:37:11.271000,1769.0,2282.0,279.0,-1446.0,-124.0,199.0,0.0,0.0,0.0
19:37:11.275000,1816.0,2392.0,300.0,-1478.0,-165.0,159.0,0.0,0.0,0.0
19:37:11.280000,1862.0,2490.0,322.0,-1478.0,-165.0,159.0,0.0,0.0,0.0
19:37:11.285000,1918.0,2581.0,353.0,-1478.0,-165.0,159.0,0.0,0.0,0.0
19:37:11.289000,1977.0,2653.0,387.0,-1445.0,-194.0,144.0,0.0,0.0,0.0
19:37:11.294000,2039.0,2717.0,411.0,-1445.0,-194.0,144.0,0.0,0.0,0.0
