hh:mm:ss.ms,gyroX[mdps],gyroY[mdps],gyroZ[mdps],accX[mg],accY[mg],accZ[mg],magX[mG],magY[mG],magZ[mG]
19:37:17.559000,-1837.0,-3132.0,335.0,-2020.0,-815.0,-63.0,0.0,0.0,0.0
19:37:17.564000,-1830.0,-2702.0,-1904.0,-2285.0,-765.0,-257.0,0.0,0.0,0.0
19:37:17.568000,-1830.0,-2702.0,-1904.0,-2285.0,-765.0,-257.0,0.0,0.0,0.0
19:37:17.573000,-1968.0,-2608.0,-2907.0,-750.0,-385.0,-307.0,0.0,0.0,0.0
19:37:17.578000,-2111.0,-2516.0,-2093.0,-750.0,-385.0,-307.0,0.0,0.0,0.0
19:37:17.582000,-2210.0,-2448.0,-1327.0,243.0,-145.0,-47.0,0.0,0.0,0.0
19:37:17.587000,-2270.0,-2356.0,-1357.0,243.0,-145.0,-47.0,0.0,0.0,0.0
19:37:17.592000,-2160.0,-2289.0,-1761.0,-595.0,-52.0,-90.0,0.0,0.0,0.0
19:37:17.596000,-2102.0,-2228.0,-1933.0,-595.0,-52.0,-90.0,0.0,0.0,0.0
19:37:17.601000,-1990.0,-2198.0,-1780.0,-1340.0,-199.0,-206.0,0.0,0.0,0.0
19:37:17.606000,-1924.0,-2171.0,-1501.0,-1340.0,-199.0,-206.0,0.0,0.0,0.0
19:37:17.611000,-1857.0,-2140.0,-1365.0,-1543.0,-560.0,-289.0,0.0,0.0,0.0
19:37:17.615000,-1729.0,-2090.0,-1360.0,-1543.0,-560.0,-289.0,0.0,0.0,0.0
19:37:17.619000,-1605.0,-2041.0,-1353.0,-1418.0,-759.0,-363.0,0.0,0.0,0.0
19:37:17.625000,-1459.0,-2004.0,-1292.0,-1418.0,-759.0,-363.0,0.0,0.0,0.0
19:37:17.629000,-1303.0,-1976.0,-1276.0,-1418.0,-759.0,-363.0,0.0,0.0,0.0
19:37:17.634000,-1190.0,-1929.0,-1493.0,-1130.0,-793.0,-389.0,0.0,0.0,0.0
19:37:17.639000,-1099.0,-1874.0,-1650.0,-1130.0,-793.0,-389.0,0.0,0.0,0.0
19:37:17.643000,-1036.0,-1833.0,-1525.0,-952.0,-674.0,-351.0,0.0,0.0,0.0
19:37:17.648000,-984.0,-1796.0,-1329.0,-952.0,-674.0,-351.0,0.0,0.0,0.0
19:37:17.653000,-942.0,-1754.0,-1276.0,-894.0,-534.0,-298.0,0.0,0.0,0.0
19:37:17.658000,-893.0,-1710.0,-1317.0,-894.0,-534.0,-298.0,0.0,0.0,0.0
19:37:17.662000,-862.0,-1666.0,-1378.0,-1001.0,-392.0,-261.0,0.0,0.0,0.0
19:37:17.667000,-842.0,-1635.0,-1463.0,-1001.0,-392.0,-261.0,0.0,0.0,0.0
19:37:17.672000,-818.0,-1607.0,-1539.0,-1064.0,-178.0,-218.0,0.0,0.0,0.0
19:37:17.676000,-818.0,-1607.0,-1539.0,-1064.0,-178.0,-218.0,0.0,0.0,0.0
19:37:17.681000,-765.0,-1590.0,-1557.0,-967.0,-88.0,-165.0,0.0,0.0,0.0
19:37:17.686000,-710.0,-1568.0,-1544.0,-967.0,-88.0,-165.0,0.0,0.0,0.0
19:37:17.690000,-703.0,-1541.0,-1513.0,-889.0,-128.0,-109.0,0.0,0.0,0.0
19:37:17.695000,-697.0,-1518.0,-1443.0,-889.0,-128.0,-109.0,0.0,0.0,0.0
19:37:17.700000,-635.0,-1505.0,-1390.0,-937.0,-125.0,-61.0,0.0,0.0,0.0
19:37:17.705000,-567.0,-1495.0,-1350.0,-937.0,-125.0,-61.0,0.0,0.0,0.0
19:37:17.709000,-427.0,-1508.0,-1203.0,-956.0,-267.0,-32.0,0.0,0.0,0.0
19:37:17.714000,-200.0,-1545.0,-774.0,-956.0,-267.0,-32.0,0.0,0.0,0.0
19:37:17.719000,279.0,-1621.0,906.0,-968.0,-1235.0,-4.0,0.0,0.0,0.0
19:37:17.723000,201.0,-1576.0,1449.0,-968.0,-1235.0,-4.0,0.0,0.0,0.0
19:37:17.728000,-66.0,-1365.0,-956.0,-1547.0,-25.0,66.0,0.0,0.0,0.0
19:37:17.733000,-210.0,-1253.0,-2098.0,-1547.0,-25.0,66.0,0.0,0.0,0.0
19:37:17.737000,-329.0,-1222.0,-1585.0,-1547.0,-25.0,66.0,0.0,0.0,0.0
19:37:17.742000,-394.0,-1173.0,-921.0,-1277.0,1086.0,168.0,0.0,0.0,0.0
19:37:17.747000,-386.0,-1039.0,-196.0,-1277.0,1086.0,168.0,0.0,0.0,0.0
19:37:17.752000,-305.0,-936.0,1755.0,-599.0,-562.0,186.0,0.0,0.0,0.0
19:37:17.756000,-188.0,-943.0,1488.0,-599.0,-562.0,186.0,0.0,0.0,0.0
19:37:17.761000,-148.0,-818.0,-140.0,-1626.0,-588.0,155.0,0.0,0.0,0.0
19:37:17.766000,-227.0,-731.0,-798.0,-1626.0,-588.0,155.0,0.0,0.0,0.0
19:37:17.770000,-263.0,-701.0,-493.0,-2041.0,331.0,185.0,0.0,0.0,0.0
19:37:17.775000,-267.0,-671.0,-206.0,-2041.0,331.0,185.0,0.0,0.0,0.0
19:37:17.780000,-277.0,-625.0,-267.0,-1245.0,301.0,225.0,0.0,0.0,0.0
19:37:17.784000,-277.0,-625.0,-267.0,-1245.0,301.0,225.0,0.0,0.0,0.0
19:37:17.789000,-268.0,-588.0,-438.0,-1052.0,98.0,229.0,0.0,0.0,0.0
19:37:17.794000,-264.0,-551.0,-496.0,-1052.0,98.0,229.0,0.0,0.0,0.0
19:37:17.799000,-268.0,-515.0,-441.0,-1220.0,54.0,227.0,0.0,0.0,0.0
19:37:17.803000,-257.0,-477.0,-389.0,-1220.0,54.0,227.0,0.0,0.0,0.0
19:37:17.808000,-282.0,-408.0,-446.0,-1332.0,14.0,224.0,0.0,0.0,0.0
19:37:17.813000,-297.0,-335.0,-518.0,-1332.0,14.0,224.0,0.0,0.0,0.0
19:37:17.817000,-273.0,-295.0,-516.0,-1316.0,-23.0,232.0,0.0,0.0,0.0
19:37:17.822000,-253.0,-246.0,-465.0,-1316.0,-23.0,232.0,0.0,0.0,0.0
19:37:17.827000,-241.0,-191.0,-464.0,-1211.0,-130.0,244.0,0.0,0.0,0.0
19:37:17.831000,-221.0,-126.0,-503.0,-1211.0,-130.0,244.0,0.0,0.0,0.0
19:37:17.836000,-196.0,-65.0,-548.0,-1179.0,-158.0,245.0,0.0,0.0,0.0
19:37:17.841000,-166.0,-10.0,-591.0,-1179.0,-158.0,245.0,0.0,0.0,0.0
19:37:17.846000,-130.0,40.0,-618.0,-1179.0,-136.0,248.0,0.0,0.0,0.0
19:37:17.850000,-104.0,90.0,-622.0,-1135.0,-136.0,248.0,0.0,0.0,0.0
19:37:17.855000,-86.0,135.0,-612.0,-1135.0,-136.0,248.0,0.0,0.0,0.0
19:37:17.860000,-76.0,172.0,-618.0,-1055.0,-97.0,260.0,0.0,0.0,0.0
19:37:17.864000,-62.0,200.0,-645.0,-1055.0,-97.0,260.0,0.0,0.0,0.0
19:37:17.869000,-52.0,226.0,-655.0,-1011.0,-20.0,265.0,0.0,0.0,0.0
19:37:17.874000,-44.0,247.0,-638.0,-1011.0,-20.0,265.0,0.0,0.0,0.0
19:37:17.878000,-39.0,266.0,-604.0,-976.0,51.0,259.0,0.0,0.0,0.0
19:37:17.883000,-32.0,286.0,-569.0,-976.0,51.0,259.0,0.0,0.0,0.0
19:37:17.888000,-30.0,308.0,-544.0,-939.0,102.0,249.0,0.0,0.0,0.0
19:37:17.893000,7.0,326.0,-522.0,-939.0,102.0,249.0,0.0,0.0,0.0
19:37:17.897000,7.0,326.0,-522.0,-907.0,155.0,242.0,0.0,0.0,0.0
19:37:17.902000,-12.0,294.0,-557.0,-907.0,155.0,242.0,0.0,0.0,0.0
19:37:17.907000,-102.0,257.0,-441.0,-913.0,172.0,238.0,0.0,0.0,0.0
19:37:17.911000,-62.0,249.0,-389.0,-913.0,172.0,238.0,0.0,0.0,0.0
19:37:17.916000,-12.0,234.0,-450.0,-952.0,164.0,196.0,0.0,0.0,0.0
19:37:17.921000,-11.0,224.0,-506.0,-952.0,164.0,196.0,0.0,0.0,0.0
19:37:17.925000,-17.0,217.0,-462.0,-880.0,116.0,158.0,0.0,0.0,0.0
19:37:17.930000,-5.0,184.0,-399.0,-880.0,116.0,158.0,0.0,0.0,0.0
19:37:17.935000,2.0,154.0,-408.0,-829.0,142.0,152.0,0.0,0.0,0.0
19:37:17.940000,11.0,121.0,-464.0,-829.0,142.0,152.0,0.0,0.0,0.0
19:37:17.944000,27.0,82.0,-459.0,-863.0,187.0,145.0,0.0,0.0,0.0
19:37:17.949000,28.0,49.0,-389.0,-863.0,187.0,145.0,0.0,0.0,0.0
19:37:17.954000,33.0,23.0,-333.0,-909.0,137.0,141.0,0.0,0.0,0.0
19:37:17.958000,25.0,2.0,-331.0,-909.0,137.0,141.0,0.0,0.0,0.0
19:37:17.963000,-4.0,-11.0,-354.0,-909.0,137.0,141.0,0.0,0.0,0.0
19:37:17.968000,-36.0,-28.0,-336.0,-953.0,155.0,155.0,0.0,0.0,0.0
19:37:17.972000,-50.0,-50.0,-291.0,-953.0,155.0,155.0,0.0,0.0,0.0
19:37:17.977000,-96.0,-54.0,-266.0,-919.0,182.0,178.0,0.0,0.0,0.0
19:37:17.982000,-87.0,-59.0,-272.0,-919.0,182.0,178.0,0.0,0.0,0.0
19:37:17.987000,-100.0,-70.0,-294.0,-871.0,206.0,188.0,0.0,0.0,0.0
19:37:17.991000,-124.0,-70.0,-295.0,-871.0,206.0,188.0,0.0,0.0,0.0
19:37:17.996000,-91.0,-84.0,-266.0,-870.0,238.0,200.0,0.0,0.0,0.0
19:37:18.001000,-57.0,-77.0,-226.0,-870.0,238.0,200.0,0.0,0.0,0.0
19:37:18.005000,-57.0,-77.0,-226.0,-924.0,203.0,206.0,0.0,0.0,0.0
19:37:18.010000,-88.0,-61.0,-195.0,-924.0,203.0,206.0,0.0,0.0,0.0
19:37:18.015000,-58.0,-54.0,-163.0,-952.0,184.0,200.0,0.0,0.0,0.0
19:37:18.019000,-86.0,-39.0,-117.0,-952.0,184.0,200.0,0.0,0.0,0.0
19:37:18.024000,-91.0,-26.0,-81.0,-935.0,225.0,198.0,0.0,0.0,0.0
19:37:18.029000,-79.0,-18.0,-67.0,-935.0,225.0,198.0,0.0,0.0,0.0
19:37:18.034000,-78.0,-4.0,-62.0,-930.0,239.0,184.0,0.0,0.0,0.0
19:37:18.038000,-71.0,-1.0,-39.0,-930.0,239.0,184.0,0.0,0.0,0.0
19:37:18.043000,-82.0,4.0,-3.0,-943.0,220.0,169.0,0.0,0.0,0.0
19:37:18.048000,-80.0,-2.0,44.0,-943.0,220.0,169.0,0.0,0.0,0.0
19:37:18.052000,-85.0,-4.0,79.0,-956.0,188.0,154.0,0.0,0.0,0.0
19:37:18.057000,-87.0,-10.0,98.0,-956.0,188.0,154.0,0.0,0.0,0.0
19:37:18.062000,-78.0,-26.0,75.0,-940.0,169.0,147.0,0.0,0.0,0.0
19:37:18.066000,-74.0,-39.0,74.0,-940.0,169.0,147.0,0.0,0.0,0.0
19:37:18.071000,-64.0,-59.0,126.0,-940.0,169.0,147.0,0.0,0.0,0.0
19:37:18.076000,-49.0,-81.0,182.0,-898.0,136.0,156.0,0.0,0.0,0.0
19:37:18.080000,-34.0,-95.0,177.0,-876.0,143.0,173.0,0.0,0.0,0.0
19:37:18.085000,-21.0,-107.0,140.0,-876.0,143.0,173.0,0.0,0.0,0.0
19:37:18.090000,-20.0,-114.0,158.0,-876.0,143.0,173.0,0.0,0.0,0.0
19:37:18.095000,-22.0,-119.0,258.0,-840.0,186.0,200.0,0.0,0.0,0.0
19:37:18.099000,-19.0,-119.0,340.0,-840.0,186.0,200.0,0.0,0.0,0.0
19:37:18.104000,-5.0,-105.0,351.0,-814.0,189.0,232.0,0.0,0.0,0.0
19:37:18.109000,5.0,-83.0,343.0,-814.0,189.0,232.0,0.0,0.0,0.0
19:37:18.113000,5.0,-83.0,343.0,-843.0,201.0,261.0,0.0,0.0,0.0
19:37:18.118000,9.0,-50.0,371.0,-843.0,201.0,261.0,0.0,0.0,0.0
19:37:18.123000,23.0,-14.0,416.0,-872.0,197.0,284.0,0.0,0.0,0.0
19:37:18.128000,49.0,32.0,445.0,-872.0,197.0,284.0,0.0,0.0,0.0
19:37:18.132000,81.0,88.0,467.0,-910.0,165.0,296.0,0.0,0.0,0.0
19:37:18.137000,114.0,154.0,504.0,-910.0,165.0,296.0,0.0,0.0,0.0
19:37:18.142000,139.0,230.0,555.0,-966.0,157.0,304.0,0.0,0.0,0.0
19:37:18.146000,160.0,309.0,604.0,-966.0,157.0,304.0,0.0,0.0,0.0
19:37:18.151000,179.0,392.0,651.0,-1007.0,165.0,321.0,0.0,0.0,0.0
19:37:18.156000,199.0,475.0,704.0,-1007.0,165.0,321.0,0.0,0.0,0.0
19:37:18.160000,221.0,557.0,753.0,-998.0,165.0,342.0,0.0,0.0,0.0
19:37:18.165000,246.0,638.0,795.0,-998.0,165.0,342.0,0.0,0.0,0.0
19:37:18.170000,272.0,718.0,843.0,-967.0,172.0,364.0,0.0,0.0,0.0
19:37:18.175000,294.0,796.0,907.0,-967.0,172.0,364.0,0.0,0.0,0.0
19:37:18.179000,319.0,875.0,970.0,-967.0,172.0,364.0,0.0,0.0,0.0
19:37:18.184000,354.0,956.0,1015.0,-945.0,183.0,386.0,0.0,0.0,0.0
19:37:18.189000,391.0,1039.0,1043.0,-945.0,183.0,386.0,0.0,0.0,0.0
19:37:18.193000,428.0,1133.0,1081.0,-938.0,185.0,399.0,0.0,0.0,0.0
19:37:18.198000,464.0,1226.0,1132.0,-938.0,185.0,399.0,0.0,0.0,0.0
19:37:18.203000,501.0,1320.0,1186.0,-960.0,164.0,405.0,0.0,0.0,0.0
19:37:18.207000,538.0,1423.0,1234.0,-960.0,164.0,405.0,0.0,0.0,0.0
19:37:18.212000,580.0,1528.0,1274.0,-1003.0,121.0,403.0,0.0,0.0,0.0
19:37:18.217000,625.0,1638.0,1311.0,-1003.0,121.0,403.0,0.0,0.0,0.0
19:37:18.222000,625.0,1638.0,1311.0,-1054.0,96.0,380.0,0.0,0.0,0.0
19:37:18.226000,666.0,1753.0,1345.0,-1054.0,96.0,380.0,0.0,0.0,0.0
19:37:18.231000,700.0,1870.0,1372.0,-1112.0,99.0,344.0,0.0,0.0,0.0
19:37:18.236000,731.0,1985.0,1396.0,-1112.0,99.0,344.0,0.0,0.0,0.0
19:37:18.240000,760.0,2091.0,1428.0,-1134.0,99.0,311.0,0.0,0.0,0.0
19:37:18.245000,791.0,2188.0,1453.0,-1134.0,99.0,311.0,0.0,0.0,0.0
19:37:18.250000,828.0,2277.0,1464.0,-1087.0,68.0,276.0,0.0,0.0,0.0
19:37:18.254000,868.0,2359.0,1479.0,-1087.0,68.0,276.0,0.0,0.0,0.0
19:37:18.259000,919.0,2432.0,1500.0,-1005.0,1.0,223.0,0.0,0.0,0.0
19:37:18.264000,974.0,2494.0,1519.0,-1005.0,1.0,223.0,0.0,0.0,0.0
19:37:18.269000,1029.0,2552.0,1528.0,-960.0,-48.0,146.0,0.0,0.0,0.0
19:37:18.273000,1076.0,2598.0,1520.0,-960.0,-48.0,146.0,0.0,0.0,0.0
19:37:18.278000,1113.0,2637.0,1500.0,-953.0,-31.0,61.0,0.0,0.0,0.0
19:37:18.283000,1141.0,2665.0,1472.0,-953.0,-31.0,61.0,0.0,0.0,0.0
19:37:18.287000,1154.0,2681.0,1437.0,-953.0,-31.0,61.0,0.0,0.0,0.0
19:37:18.292000,1155.0,2695.0,1402.0,-918.0,26.0,-24.0,0.0,0.0,0.0
19:37:18.297000,1147.0,2700.0,1370.0,-918.0,26.0,-24.0,0.0,0.0,0.0
19:37:18.301000,1121.0,2698.0,1344.0,-856.0,85.0,-118.0,0.0,0.0,0.0
19:37:18.306000,1083.0,2678.0,1341.0,-856.0,85.0,-118.0,0.0,0.0,0.0
19:37:18.311000,1042.0,2652.0,1365.0,-807.0,121.0,-225.0,0.0,0.0,0.0
19:37:18.316000,995.0,2611.0,1383.0,-807.0,121.0,-225.0,0.0,0.0,0.0
19:37:18.320000,941.0,2558.0,1379.0,-761.0,124.0,-333.0,0.0,0.0,0.0
19:37:18.325000,882.0,2496.0,1374.0,-761.0,124.0,-333.0,0.0,0.0,0.0
19:37:18.330000,821.0,2436.0,1387.0,-676.0,87.0,-436.0,0.0,0.0,0.0
19:37:18.334000,821.0,2436.0,1387.0,-676.0,87.0,-436.0,0.0,0.0,0.0
19:37:18.339000,762.0,2360.0,1396.0,-588.0,6.0,-540.0,0.0,0.0,0.0
19:37:18.344000,702.0,2282.0,1389.0,-588.0,6.0,-540.0,0.0,0.0,0.0
19:37:18.348000,653.0,2200.0,1369.0,-530.0,-104.0,-619.0,0.0,0.0,0.0
19:37:18.353000,613.0,2121.0,1339.0,-530.0,-104.0,-619.0,0.0,0.0,0.0
19:37:18.358000,578.0,2037.0,1305.0,-500.0,-218.0,-657.0,0.0,0.0,0.0
19:37:18.363000,550.0,1950.0,1255.0,-500.0,-218.0,-657.0,0.0,0.0,0.0
19:37:18.367000,522.0,1862.0,1176.0,-515.0,-280.0,-674.0,0.0,0.0,0.0
19:37:18.372000,487.0,1775.0,1085.0,-515.0,-280.0,-674.0,0.0,0.0,0.0
19:37:18.377000,445.0,1688.0,1008.0,-518.0,-245.0,-684.0,0.0,0.0,0.0
19:37:18.381000,386.0,1611.0,953.0,-518.0,-245.0,-684.0,0.0,0.0,0.0
19:37:18.386000,315.0,1545.0,911.0,-547.0,-144.0,-682.0,0.0,0.0,0.0
19:37:18.391000,228.0,1486.0,854.0,-547.0,-144.0,-682.0,0.0,0.0,0.0
19:37:18.395000,143.0,1433.0,761.0,-547.0,-144.0,-682.0,0.0,0.0,0.0
19:37:18.400000,50.0,1381.0,670.0,-660.0,-47.0,-673.0,0.0,0.0,0.0
19:37:18.405000,-45.0,1328.0,617.0,-660.0,-47.0,-673.0,0.0,0.0,0.0
19:37:18.410000,-133.0,1278.0,600.0,-732.0,-32.0,-671.0,0.0,0.0,0.0
19:37:18.414000,-214.0,1227.0,592.0,-732.0,-32.0,-671.0,0.0,0.0,0.0
19:37:18.419000,-292.0,1182.0,577.0,-726.0,-82.0,-686.0,0.0,0.0,0.0
19:37:18.424000,-364.0,1141.0,557.0,-726.0,-82.0,-686.0,0.0,0.0,0.0
19:37:18.428000,-434.0,1103.0,539.0,-742.0,-109.0,-717.0,0.0,0.0,0.0
19:37:18.433000,-499.0,1064.0,543.0,-742.0,-109.0,-717.0,0.0,0.0,0.0
19:37:18.438000,-553.0,1023.0,556.0,-797.0,-139.0,-740.0,0.0,0.0,0.0
19:37:18.442000,-553.0,1023.0,556.0,-797.0,-139.0,-740.0,0.0,0.0,0.0
19:37:18.447000,-602.0,984.0,572.0,-821.0,-216.0,-754.0,0.0,0.0,0.0
19:37:18.452000,-644.0,940.0,555.0,-821.0,-216.0,-754.0,0.0,0.0,0.0
19:37:18.457000,-681.0,889.0,494.0,-772.0,-284.0,-762.0,0.0,0.0,0.0
19:37:18.461000,-717.0,831.0,441.0,-772.0,-284.0,-762.0,0.0,0.0,0.0
19:37:18.466000,-754.0,772.0,413.0,-669.0,-349.0,-755.0,0.0,0.0,0.0
19:37:18.471000,-788.0,712.0,387.0,-669.0,-349.0,-755.0,0.0,0.0,0.0
19:37:18.475000,-826.0,656.0,354.0,-595.0,-407.0,-732.0,0.0,0.0,0.0
19:37:18.480000,-867.0,603.0,312.0,-595.0,-407.0,-732.0,0.0,0.0,0.0
19:37:18.485000,-909.0,550.0,261.0,-589.0,-421.0,-691.0,0.0,0.0,0.0
19:37:18.489000,-952.0,495.0,205.0,-589.0,-421.0,-691.0,0.0,0.0,0.0
19:37:18.494000,-991.0,439.0,142.0,-571.0,-437.0,-641.0,0.0,0.0,0.0
19:37:18.499000,-1022.0,385.0,67.0,-571.0,-437.0,-641.0,0.0,0.0,0.0
19:37:18.503000,-1050.0,331.0,-27.0,-571.0,-437.0,-641.0,0.0,0.0,0.0
19:37:18.508000,-1071.0,277.0,-110.0,-515.0,-441.0,-598.0,0.0,0.0,0.0
19:37:18.513000,-1106.0,224.0,-123.0,-515.0,-441.0,-598.0,0.0,0.0,0.0
19:37:18.518000,-1124.0,173.0,-143.0,-466.0,-432.0,-561.0,0.0,0.0,0.0
19:37:18.522000,-1133.0,126.0,-215.0,-466.0,-432.0,-561.0,0.0,0.0,0.0
19:37:18.527000,-1143.0,75.0,-301.0,-506.0,-411.0,-535.0,0.0,0.0,0.0
19:37:18.532000,-1148.0,15.0,-350.0,-506.0,-411.0,-535.0,0.0,0.0,0.0
19:37:18.536000,-1144.0,-44.0,-367.0,-583.0,-395.0,-511.0,0.0,0.0,0.0
19:37:18.541000,-1132.0,-102.0,-360.0,-583.0,-395.0,-511.0,0.0,0.0,0.0
19:37:18.546000,-1120.0,-157.0,-360.0,-589.0,-429.0,-491.0,0.0,0.0,0.0
19:37:18.550000,-1120.0,-157.0,-360.0,-589.0,-429.0,-491.0,0.0,0.0,0.0
19:37:18.555000,-1101.0,-210.0,-380.0,-580.0,-471.0,-490.0,0.0,0.0,0.0
19:37:18.560000,-1079.0,-258.0,-393.0,-580.0,-471.0,-490.0,0.0,0.0,0.0
19:37:18.565000,-1051.0,-298.0,-399.0,-602.0,-467.0,-481.0,0.0,0.0,0.0
19:37:18.569000,-1029.0,-332.0,-391.0,-602.0,-467.0,-481.0,0.0,0.0,0.0
19:37:18.574000,-997.0,-362.0,-368.0,-644.0,-455.0,-469.0,0.0,0.0,0.0
19:37:18.579000,-982.0,-391.0,-352.0,-644.0,-455.0,-469.0,0.0,0.0,0.0
19:37:18.583000,-961.0,-415.0,-364.0,-683.0,-479.0,-447.0,0.0,0.0,0.0
19:37:18.588000,-935.0,-436.0,-380.0,-683.0,-479.0,-447.0,0.0,0.0,0.0
19:37:18.593000,-900.0,-453.0,-361.0,-673.0,-509.0,-413.0,0.0,0.0,0.0
19:37:18.597000,-878.0,-471.0,-320.0,-673.0,-509.0,-413.0,0.0,0.0,0.0
19:37:18.602000,-849.0,-478.0,-302.0,-664.0,-494.0,-396.0,0.0,0.0,0.0
19:37:18.607000,-820.0,-485.0,-289.0,-664.0,-494.0,-396.0,0.0,0.0,0.0
19:37:18.612000,-786.0,-492.0,-242.0,-664.0,-495.0,-396.0,0.0,0.0,0.0
19:37:18.616000,-753.0,-500.0,-205.0,-689.0,-495.0,-396.0,0.0,0.0,0.0
19:37:18.621000,-718.0,-510.0,-206.0,-689.0,-495.0,-396.0,0.0,0.0,0.0
19:37:18.626000,-671.0,-518.0,-225.0,-699.0,-531.0,-405.0,0.0,0.0,0.0
19:37:18.630000,-626.0,-527.0,-213.0,-699.0,-531.0,-405.0,0.0,0.0,0.0
19:37:18.635000,-595.0,-542.0,-207.0,-650.0,-552.0,-409.0,0.0,0.0,0.0
19:37:18.640000,-580.0,-562.0,-266.0,-650.0,-552.0,-409.0,0.0,0.0,0.0
19:37:18.644000,-565.0,-585.0,-340.0,-571.0,-546.0,-405.0,0.0,0.0,0.0
19:37:18.649000,-534.0,-607.0,-375.0,-571.0,-546.0,-405.0,0.0,0.0,0.0
19:37:18.654000,-499.0,-626.0,-392.0,-529.0,-545.0,-418.0,0.0,0.0,0.0
19:37:18.659000,-468.0,-626.0,-399.0,-529.0,-545.0,-418.0,0.0,0.0,0.0
19:37:18.663000,-468.0,-637.0,-399.0,-541.0,-591.0,-447.0,0.0,0.0,0.0
19:37:18.668000,-445.0,-658.0,-392.0,-541.0,-591.0,-447.0,0.0,0.0,0.0
19:37:18.673000,-422.0,-672.0,-413.0,-600.0,-647.0,-470.0,0.0,0.0,0.0
19:37:18.677000,-392.0,-685.0,-469.0,-600.0,-647.0,-470.0,0.0,0.0,0.0
19:37:18.682000,-361.0,-704.0,-527.0,-613.0,-707.0,-485.0,0.0,0.0,0.0
19:37:18.687000,-314.0,-718.0,-555.0,-613.0,-707.0,-485.0,0.0,0.0,0.0
19:37:18.691000,-262.0,-730.0,-564.0,-544.0,-757.0,-489.0,0.0,0.0,0.0
19:37:18.696000,-209.0,-735.0,-602.0,-544.0,-757.0,-489.0,0.0,0.0,0.0
19:37:18.701000,-176.0,-737.0,-645.0,-591.0,-723.0,-485.0,0.0,0.0,0.0
19:37:18.706000,-149.0,-741.0,-741.0,-591.0,-723.0,-485.0,0.0,0.0,0.0
19:37:18.710000,-116.0,-741.0,-845.0,-675.0,-652.0,-472.0,0.0,0.0,0.0
19:37:18.715000,-92.0,-737.0,-912.0,-675.0,-652.0,-472.0,0.0,0.0,0.0
19:37:18.720000,-60.0,-730.0,-959.0,-607.0,-655.0,-449.0,0.0,0.0,0.0
19:37:18.724000,-22.0,-727.0,-996.0,-607.0,-655.0,-449.0,0.0,0.0,0.0
19:37:18.729000,10.0,-728.0,-1032.0,-607.0,-655.0,-449.0,0.0,0.0,0.0
19:37:18.734000,26.0,-730.0,-1062.0,-544.0,-656.0,-419.0,0.0,0.0,0.0
19:37:18.738000,32.0,-731.0,-1076.0,-544.0,-656.0,-419.0,0.0,0.0,0.0
19:37:18.743000,32.0,-727.0,-1089.0,-544.0,-594.0,-394.0,0.0,0.0,0.0
19:37:18.748000,27.0,-725.0,-1089.0,-544.0,-594.0,-394.0,0.0,0.0,0.0
19:37:18.753000,16.0,-725.0,-1071.0,-569.0,-543.0,-374.0,0.0,0.0,0.0
19:37:18.757000,11.0,-728.0,-1053.0,-569.0,-543.0,-374.0,0.0,0.0,0.0
19:37:18.761000,11.0,-728.0,-1053.0,-578.0,-507.0,-361.0,0.0,0.0,0.0
19:37:18.767000,-19.0,-728.0,-1003.0,-578.0,-507.0,-361.0,0.0,0.0,0.0
19:37:18.771000,-19.0,-728.0,-1003.0,-540.0,-435.0,-348.0,0.0,0.0,0.0
19:37:18.776000,-57.0,-726.0,-938.0,-540.0,-435.0,-348.0,0.0,0.0,0.0
19:37:18.781000,-100.0,-725.0,-886.0,-571.0,-376.0,-337.0,0.0,0.0,0.0
19:37:18.785000,-144.0,-721.0,-837.0,-571.0,-376.0,-337.0,0.0,0.0,0.0
19:37:18.790000,-177.0,-710.0,-784.0,-674.0,-426.0,-341.0,0.0,0.0,0.0
19:37:18.795000,-201.0,-690.0,-737.0,-674.0,-426.0,-341.0,0.0,0.0,0.0
19:37:18.800000,-226.0,-677.0,-711.0,-749.0,-473.0,-355.0,0.0,0.0,0.0
19:37:18.804000,-251.0,-674.0,-725.0,-749.0,-473.0,-355.0,0.0,0.0,0.0
19:37:18.809000,-276.0,-679.0,-758.0,-798.0,-410.0,-360.0,0.0,0.0,0.0
19:37:18.814000,-292.0,-689.0,-775.0,-798.0,-410.0,-360.0,0.0,0.0,0.0
19:37:18.818000,-289.0,-702.0,-776.0,-804.0,-413.0,-357.0,0.0,0.0,0.0
19:37:18.823000,-275.0,-710.0,-770.0,-804.0,-413.0,-357.0,0.0,0.0,0.0
19:37:18.828000,-253.0,-718.0,-774.0,-795.0,-482.0,-341.0,0.0,0.0,0.0
19:37:18.832000,-225.0,-725.0,-783.0,-795.0,-482.0,-341.0,0.0,0.0,0.0
19:37:18.837000,-193.0,-729.0,-781.0,-795.0,-482.0,-341.0,0.0,0.0,0.0
19:37:18.842000,-158.0,-735.0,-760.0,-799.0,-524.0,-309.0,0.0,0.0,0.0
19:37:18.847000,-123.0,-742.0,-756.0,-799.0,-524.0,-309.0,0.0,0.0,0.0
19:37:18.851000,-102.0,-750.0,-772.0,-772.0,-517.0,-284.0,0.0,0.0,0.0
19:37:18.856000,-88.0,-758.0,-779.0,-772.0,-517.0,-284.0,0.0,0.0,0.0
19:37:18.861000,-93.0,-757.0,-790.0,-773.0,-436.0,-259.0,0.0,0.0,0.0
19:37:18.865000,-98.0,-749.0,-786.0,-773.0,-436.0,-259.0,0.0,0.0,0.0
19:37:18.870000,-107.0,-730.0,-776.0,-808.0,-394.0,-244.0,0.0,0.0,0.0
19:37:18.875000,-129.0,-709.0,-786.0,-808.0,-394.0,-244.0,0.0,0.0,0.0
19:37:18.879000,-129.0,-709.0,-786.0,-859.0,-393.0,-250.0,0.0,0.0,0.0
19:37:18.884000,-161.0,-683.0,-797.0,-859.0,-393.0,-250.0,0.0,0.0,0.0
19:37:18.889000,-180.0,-653.0,-780.0,-929.0,-410.0,-252.0,0.0,0.0,0.0
19:37:18.894000,-179.0,-617.0,-761.0,-929.0,-410.0,-252.0,0.0,0.0,0.0
19:37:18.898000,-174.0,-595.0,-771.0,-898.0,-403.0,-269.0,0.0,0.0,0.0
19:37:18.903000,-177.0,-597.0,-788.0,-898.0,-403.0,-269.0,0.0,0.0,0.0
19:37:18.908000,-187.0,-624.0,-802.0,-813.0,-290.0,-271.0,0.0,0.0,0.0
19:37:18.912000,-187.0,-644.0,-818.0,-813.0,-290.0,-271.0,0.0,0.0,0.0
19:37:18.917000,-160.0,-646.0,-827.0,-812.0,-286.0,-256.0,0.0,0.0,0.0
19:37:18.922000,-124.0,-641.0,-797.0,-812.0,-286.0,-256.0,0.0,0.0,0.0
19:37:18.926000,-84.0,-637.0,-758.0,-822.0,-381.0,-255.0,0.0,0.0,0.0
19:37:18.931000,-56.0,-651.0,-751.0,-822.0,-381.0,-255.0,0.0,0.0,0.0
19:37:18.936000,-42.0,-669.0,-753.0,-842.0,-349.0,-233.0,0.0,0.0,0.0
19:37:18.941000,-35.0,-681.0,-753.0,-842.0,-349.0,-233.0,0.0,0.0,0.0
19:37:18.945000,-15.0,-678.0,-737.0,-842.0,-349.0,-233.0,0.0,0.0,0.0
19:37:18.950000,8.0,-658.0,-741.0,-879.0,-340.0,-231.0,0.0,0.0,0.0
19:37:18.955000,20.0,-631.0,-772.0,-879.0,-340.0,-231.0,0.0,0.0,0.0
19:37:18.959000,11.0,-602.0,-802.0,-896.0,-369.0,-262.0,0.0,0.0,0.0
19:37:18.964000,-11.0,-577.0,-844.0,-896.0,-369.0,-262.0,0.0,0.0,0.0
19:37:18.969000,-27.0,-570.0,-879.0,-952.0,-297.0,-270.0,0.0,0.0,0.0
19:37:18.973000,-37.0,-584.0,-893.0,-952.0,-297.0,-270.0,0.0,0.0,0.0
19:37:18.978000,-45.0,-595.0,-902.0,-943.0,-226.0,-259.0,0.0,0.0,0.0
19:37:18.983000,-52.0,-610.0,-921.0,-943.0,-226.0,-259.0,0.0,0.0,0.0
19:37:18.988000,-52.0,-610.0,-921.0,-842.0,-179.0,-264.0,0.0,0.0,0.0
19:37:18.992000,-54.0,-620.0,-926.0,-842.0,-179.0,-264.0,0.0,0.0,0.0
19:37:18.997000,-46.0,-623.0,-900.0,-798.0,-117.0,-260.0,0.0,0.0,0.0
19:37:19.002000,-44.0,-637.0,-886.0,-798.0,-117.0,-260.0,0.0,0.0,0.0
19:37:19.006000,-33.0,-644.0,-853.0,-801.0,-125.0,-237.0,0.0,0.0,0.0
19:37:19.011000,-9.0,-655.0,-794.0,-801.0,-125.0,-237.0,0.0,0.0,0.0
19:37:19.016000,5.0,-667.0,-746.0,-845.0,-163.0,-216.0,0.0,0.0,0.0
19:37:19.020000,19.0,-664.0,-707.0,-845.0,-163.0,-216.0,0.0,0.0,0.0
19:37:19.025000,30.0,-667.0,-685.0,-896.0,-151.0,-201.0,0.0,0.0,0.0
19:37:19.030000,34.0,-655.0,-668.0,-896.0,-151.0,-201.0,0.0,0.0,0.0
19:37:19.035000,33.0,-631.0,-656.0,-911.0,-124.0,-207.0,0.0,0.0,0.0
19:37:19.039000,32.0,-595.0,-651.0,-911.0,-124.0,-207.0,0.0,0.0,0.0
19:37:19.044000,26.0,-567.0,-648.0,-943.0,-120.0,-206.0,0.0,0.0,0.0
19:37:19.049000,19.0,-553.0,-647.0,-943.0,-120.0,-206.0,0.0,0.0,0.0
19:37:19.053000,24.0,-543.0,-636.0,-943.0,-120.0,-206.0,0.0,0.0,0.0
19:37:19.058000,18.0,-522.0,-589.0,-954.0,-116.0,-175.0,0.0,0.0,0.0
19:37:19.063000,12.0,-504.0,-542.0,-954.0,-116.0,-175.0,0.0,0.0,0.0
19:37:19.067000,13.0,-482.0,-531.0,-963.0,-55.0,-155.0,0.0,0.0,0.0
19:37:19.072000,-22.0,-465.0,-546.0,-963.0,-55.0,-155.0,0.0,0.0,0.0
19:37:19.077000,-50.0,-453.0,-616.0,-963.0,73.0,-144.0,0.0,0.0,0.0
19:37:19.082000,-103.0,-449.0,-690.0,-963.0,73.0,-144.0,0.0,0.0,0.0
19:37:19.086000,-182.0,-441.0,-755.0,-878.0,174.0,-163.0,0.0,0.0,0.0
19:37:19.091000,-220.0,-463.0,-777.0,-878.0,174.0,-163.0,0.0,0.0,0.0
19:37:19.096000,-239.0,-492.0,-625.0,-864.0,212.0,-187.0,0.0,0.0,0.0
19:37:19.100000,-239.0,-492.0,-625.0,-864.0,212.0,-187.0,0.0,0.0,0.0
19:37:19.105000,-268.0,-512.0,-460.0,-1077.0,111.0,-188.0,0.0,0.0,0.0
19:37:19.110000,-249.0,-528.0,-506.0,-1077.0,111.0,-188.0,0.0,0.0,0.0
19:37:19.114000,-260.0,-570.0,-622.0,-1253.0,70.0,-143.0,0.0,0.0,0.0
19:37:19.119000,-207.0,-643.0,-457.0,-1253.0,70.0,-143.0,0.0,0.0,0.0
19:37:19.124000,-104.0,-722.0,47.0,-1266.0,-14.0,-55.0,0.0,0.0,0.0
19:37:19.129000,-74.0,-748.0,324.0,-1266.0,-14.0,-55.0,0.0,0.0,0.0
19:37:19.133000,-41.0,-713.0,-144.0,-1434.0,118.0,0.0,0.0,0.0,0.0
19:37:19.138000,38.0,-665.0,-1025.0,-1434.0,118.0,0.0,0.0,0.0,0.0
19:37:19.143000,8.0,-706.0,-1212.0,-1164.0,469.0,106.0,0.0,0.0,0.0
19:37:19.147000,-113.0,-756.0,-651.0,-1164.0,469.0,106.0,0.0,0.0,0.0
19:37:19.152000,-270.0,-758.0,-82.0,-839.0,380.0,224.0,0.0,0.0,0.0
19:37:19.157000,-399.0,-727.0,-41.0,-839.0,380.0,224.0,0.0,0.0,0.0
19:37:19.161000,-494.0,-693.0,-312.0,-839.0,380.0,224.0,0.0,0.0,0.0
19:37:19.166000,-610.0,-676.0,-480.0,-1152.0,333.0,238.0,0.0,0.0,0.0
19:37:19.171000,-748.0,-683.0,-551.0,-1152.0,333.0,238.0,0.0,0.0,0.0
19:37:19.176000,-913.0,-702.0,-602.0,-1294.0,509.0,237.0,0.0,0.0,0.0
19:37:19.180000,-1062.0,-732.0,-579.0,-1294.0,509.0,237.0,0.0,0.0,0.0
19:37:19.185000,-1192.0,-769.0,-575.0,-1164.0,481.0,243.0,0.0,0.0,0.0
19:37:19.190000,-1286.0,-805.0,-628.0,-1164.0,481.0,243.0,0.0,0.0,0.0
19:37:19.194000,-1345.0,-845.0,-723.0,-1074.0,332.0,223.0,0.0,0.0,0.0
19:37:19.199000,-1397.0,-890.0,-810.0,-1074.0,332.0,223.0,0.0,0.0,0.0
19:37:19.204000,-1435.0,-913.0,-876.0,-1010.0,239.0,199.0,0.0,0.0,0.0
19:37:19.208000,-1435.0,-913.0,-876.0,-1010.0,239.0,199.0,0.0,0.0,0.0
19:37:19.213000,-1449.0,-962.0,-941.0,-952.0,133.0,159.0,0.0,0.0,0.0
19:37:19.218000,-1455.0,-1004.0,-963.0,-952.0,133.0,159.0,0.0,0.0,0.0
19:37:19.223000,-1475.0,-1063.0,-956.0,-931.0,110.0,119.0,0.0,0.0,0.0
19:37:19.227000,-1514.0,-1130.0,-926.0,-931.0,110.0,119.0,0.0,0.0,0.0
19:37:19.232000,-1555.0,-1217.0,-889.0,-927.0,165.0,111.0,0.0,0.0,0.0
19:37:19.237000,-1596.0,-1299.0,-867.0,-927.0,165.0,111.0,0.0,0.0,0.0
19:37:19.241000,-1635.0,-1400.0,-879.0,-945.0,268.0,132.0,0.0,0.0,0.0
19:37:19.246000,-1677.0,-1509.0,-891.0,-945.0,268.0,132.0,0.0,0.0,0.0
19:37:19.251000,-1722.0,-1621.0,-886.0,-892.0,330.0,185.0,0.0,0.0,0.0
19:37:19.255000,-1769.0,-1750.0,-850.0,-892.0,330.0,185.0,0.0,0.0,0.0
19:37:19.260000,-1834.0,-1870.0,-857.0,-725.0,371.0,262.0,0.0,0.0,0.0
19:37:19.265000,-1924.0,-2011.0,-900.0,-725.0,371.0,262.0,0.0,0.0,0.0
19:37:19.270000,-1995.0,-2144.0,-891.0,-568.0,454.0,342.0,0.0,0.0,0.0
19:37:19.274000,-2069.0,-2276.0,-833.0,-568.0,454.0,342.0,0.0,0.0,0.0
19:37:19.279000,-2148.0,-2421.0,-765.0,-568.0,454.0,342.0,0.0,0.0,0.0
19:37:19.284000,-2211.0,-2563.0,-695.0,-538.0,471.0,419.0,0.0,0.0,0.0
19:37:19.288000,-2265.0,-2697.0,-654.0,-538.0,471.0,419.0,0.0,0.0,0.0
19:37:19.293000,-2312.0,-2821.0,-599.0,-575.0,441.0,489.0,0.0,0.0,0.0
19:37:19.298000,-2357.0,-2930.0,-541.0,-575.0,441.0,489.0,0.0,0.0,0.0
19:37:19.302000,-2383.0,-3012.0,-490.0,-579.0,367.0,546.0,0.0,0.0,0.0
19:37:19.307000,-2415.0,-3073.0,-452.0,-579.0,367.0,546.0,0.0,0.0,0.0
19:37:19.312000,-2468.0,-3122.0,-424.0,-630.0,341.0,605.0,0.0,0.0,0.0
19:37:19.317000,-2468.0,-3122.0,-424.0,-630.0,341.0,605.0,0.0,0.0,0.0
19:37:19.321000,-2539.0,-3149.0,-402.0,-721.0,448.0,679.0,0.0,0.0,0.0
19:37:19.326000,-2620.0,-3166.0,-409.0,-721.0,448.0,679.0,0.0,0.0,0.0
19:37:19.331000,-2699.0,-3168.0,-416.0,-775.0,488.0,764.0,0.0,0.0,0.0
19:37:19.335000,-2776.0,-3172.0,-414.0,-775.0,488.0,764.0,0.0,0.0,0.0
19:37:19.340000,-2811.0,-3158.0,-436.0,-814.0,439.0,824.0,0.0,0.0,0.0
19:37:19.345000,-2851.0,-3147.0,-485.0,-814.0,439.0,824.0,0.0,0.0,0.0
19:37:19.349000,-2891.0,-3143.0,-531.0,-825.0,458.0,875.0,0.0,0.0,0.0
19:37:19.354000,-2927.0,-3134.0,-546.0,-825.0,458.0,875.0,0.0,0.0,0.0
19:37:19.359000,-2942.0,-3119.0,-538.0,-781.0,471.0,928.0,0.0,0.0,0.0
19:37:19.364000,-2932.0,-3104.0,-560.0,-781.0,471.0,928.0,0.0,0.0,0.0
19:37:19.368000,-2903.0,-3086.0,-581.0,-736.0,450.0,955.0,0.0,0.0,0.0
19:37:19.373000,-2845.0,-3054.0,-581.0,-736.0,450.0,955.0,0.0,0.0,0.0
19:37:19.378000,-2780.0,-3020.0,-542.0,-753.0,414.0,956.0,0.0,0.0,0.0
19:37:19.382000,-2716.0,-2989.0,-488.0,-753.0,414.0,956.0,0.0,0.0,0.0
19:37:19.387000,-2657.0,-2951.0,-448.0,-753.0,414.0,956.0,0.0,0.0,0.0
19:37:19.392000,-2594.0,-2881.0,-429.0,-786.0,416.0,951.0,0.0,0.0,0.0
19:37:19.396000,-2535.0,-2795.0,-414.0,-786.0,416.0,951.0,0.0,0.0,0.0
19:37:19.401000,-2485.0,-2704.0,-386.0,-799.0,487.0,931.0,0.0,0.0,0.0
19:37:19.406000,-2420.0,-2599.0,-357.0,-799.0,487.0,931.0,0.0,0.0,0.0
19:37:19.411000,-2349.0,-2495.0,-296.0,-812.0,500.0,885.0,0.0,0.0,0.0
19:37:19.415000,-2286.0,-2394.0,-221.0,-812.0,500.0,885.0,0.0,0.0,0.0
19:37:19.420000,-2221.0,-2289.0,-184.0,-830.0,448.0,831.0,0.0,0.0,0.0
19:37:19.425000,-2221.0,-2289.0,-184.0,-830.0,448.0,831.0,0.0,0.0,0.0
19:37:19.429000,-2155.0,-2191.0,-179.0,-851.0,464.0,769.0,0.0,0.0,0.0
19:37:19.434000,-2110.0,-2104.0,-154.0,-851.0,464.0,769.0,0.0,0.0,0.0
19:37:19.439000,-2070.0,-2018.0,-121.0,-812.0,515.0,707.0,0.0,0.0,0.0
19:37:19.443000,-2024.0,-1939.0,-112.0,-812.0,515.0,707.0,0.0,0.0,0.0
19:37:19.448000,-1969.0,-1871.0,-59.0,-712.0,513.0,652.0,0.0,0.0,0.0
19:37:19.453000,-1910.0,-1801.0,30.0,-712.0,513.0,652.0,0.0,0.0,0.0
19:37:19.458000,-1861.0,-1721.0,88.0,-642.0,528.0,619.0,0.0,0.0,0.0
19:37:19.462000,-1826.0,-1640.0,96.0,-642.0,528.0,619.0,0.0,0.0,0.0
19:37:19.467000,-1785.0,-1569.0,93.0,-643.0,594.0,598.0,0.0,0.0,0.0
19:37:19.472000,-1733.0,-1504.0,112.0,-643.0,594.0,598.0,0.0,0.0,0.0
19:37:19.476000,-1682.0,-1449.0,149.0,-673.0,592.0,550.0,0.0,0.0,0.0
19:37:19.481000,-1628.0,-1406.0,198.0,-673.0,592.0,550.0,0.0,0.0,0.0
19:37:19.486000,-1563.0,-1362.0,201.0,-642.0,565.0,503.0,0.0,0.0,0.0
19:37:19.490000,-1494.0,-1314.0,187.0,-642.0,565.0,503.0,0.0,0.0,0.0
19:37:19.495000,-1418.0,-1255.0,168.0,-642.0,565.0,503.0,0.0,0.0,0.0
19:37:19.500000,-1367.0,-1214.0,166.0,-635.0,550.0,484.0,0.0,0.0,0.0
19:37:19.505000,-1339.0,-1166.0,172.0,-635.0,550.0,484.0,0.0,0.0,0.0
19:37:19.509000,-1309.0,-1118.0,166.0,-674.0,557.0,484.0,0.0,0.0,0.0
19:37:19.514000,-1303.0,-1078.0,163.0,-674.0,557.0,484.0,0.0,0.0,0.0
19:37:19.519000,-1292.0,-1028.0,182.0,-678.0,641.0,490.0,0.0,0.0,0.0
19:37:19.523000,-1292.0,-1028.0,182.0,-678.0,641.0,490.0,0.0,0.0,0.0
19:37:19.528000,-1195.0,-923.0,288.0,-713.0,672.0,476.0,0.0,0.0,0.0
19:37:19.533000,-1176.0,-847.0,256.0,-713.0,672.0,476.0,0.0,0.0,0.0
19:37:19.537000,-1176.0,-847.0,256.0,-753.0,627.0,469.0,0.0,0.0,0.0
19:37:19.542000,-1181.0,-784.0,104.0,-753.0,627.0,469.0,0.0,0.0,0.0
19:37:19.547000,-1220.0,-772.0,-65.0,-736.0,591.0,483.0,0.0,0.0,0.0
19:37:19.552000,-1243.0,-739.0,-91.0,-736.0,591.0,483.0,0.0,0.0,0.0
19:37:19.556000,-1207.0,-658.0,-69.0,-730.0,626.0,432.0,0.0,0.0,0.0
19:37:19.561000,-1155.0,-564.0,-86.0,-730.0,626.0,432.0,0.0,0.0,0.0
19:37:19.566000,-1134.0,-500.0,-70.0,-710.0,637.0,377.0,0.0,0.0,0.0
19:37:19.570000,-1143.0,-464.0,-49.0,-710.0,637.0,377.0,0.0,0.0,0.0
19:37:19.575000,-1112.0,-397.0,-91.0,-676.0,581.0,346.0,0.0,0.0,0.0
19:37:19.580000,-1085.0,-338.0,-105.0,-676.0,581.0,346.0,0.0,0.0,0.0
19:37:19.584000,-1052.0,-291.0,-70.0,-645.0,602.0,304.0,0.0,0.0,0.0
19:37:19.589000,-1042.0,-259.0,-103.0,-645.0,602.0,304.0,0.0,0.0,0.0
19:37:19.594000,-1026.0,-228.0,-153.0,-578.0,578.0,284.0,0.0,0.0,0.0
19:37:19.599000,-989.0,-198.0,-148.0,-578.0,578.0,284.0,0.0,0.0,0.0
19:37:19.603000,-945.0,-172.0,-114.0,-506.0,507.0,261.0,0.0,0.0,0.0
19:37:19.608000,-914.0,-162.0,-118.0,-506.0,507.0,261.0,0.0,0.0,0.0
19:37:19.613000,-892.0,-165.0,-134.0,-506.0,507.0,261.0,0.0,0.0,0.0
19:37:19.617000,-861.0,-173.0,-121.0,-429.0,548.0,258.0,0.0,0.0,0.0
19:37:19.622000,-830.0,-183.0,-116.0,-429.0,548.0,258.0,0.0,0.0,0.0
19:37:19.627000,-791.0,-191.0,-128.0,-348.0,600.0,266.0,0.0,0.0,0.0
19:37:19.631000,-743.0,-193.0,-170.0,-348.0,600.0,266.0,0.0,0.0,0.0
19:37:19.636000,-702.0,-199.0,-212.0,-329.0,612.0,259.0,0.0,0.0,0.0
19:37:19.641000,-659.0,-204.0,-216.0,-329.0,612.0,259.0,0.0,0.0,0.0
19:37:19.646000,-659.0,-204.0,-216.0,-346.0,640.0,258.0,0.0,0.0,0.0
19:37:19.650000,-633.0,-207.0,-240.0,-346.0,640.0,258.0,0.0,0.0,0.0
19:37:19.655000,-568.0,-205.0,-294.0,-314.0,717.0,263.0,0.0,0.0,0.0
19:37:19.660000,-548.0,-208.0,-389.0,-314.0,717.0,263.0,0.0,0.0,0.0
19:37:19.664000,-525.0,-202.0,-413.0,-225.0,683.0,265.0,0.0,0.0,0.0
19:37:19.669000,-488.0,-205.0,-364.0,-225.0,683.0,265.0,0.0,0.0,0.0
19:37:19.674000,-461.0,-214.0,-308.0,-204.0,638.0,263.0,0.0,0.0,0.0
19:37:19.678000,-429.0,-210.0,-326.0,-204.0,638.0,263.0,0.0,0.0,0.0
19:37:19.683000,-420.0,-215.0,-373.0,-254.0,723.0,257.0,0.0,0.0,0.0
19:37:19.688000,-409.0,-220.0,-427.0,-254.0,723.0,257.0,0.0,0.0,0.0
19:37:19.693000,-378.0,-222.0,-459.0,-249.0,775.0,241.0,0.0,0.0,0.0
19:37:19.697000,-352.0,-230.0,-448.0,-249.0,775.0,241.0,0.0,0.0,0.0
19:37:19.702000,-323.0,-227.0,-422.0,-225.0,818.0,213.0,0.0,0.0,0.0
19:37:19.707000,-298.0,-222.0,-420.0,-225.0,818.0,213.0,0.0,0.0,0.0
19:37:19.711000,-278.0,-222.0,-446.0,-225.0,818.0,213.0,0.0,0.0,0.0
19:37:19.716000,-253.0,-220.0,-466.0,-263.0,881.0,200.0,0.0,0.0,0.0
19:37:19.721000,-226.0,-221.0,-455.0,-263.0,881.0,200.0,0.0,0.0,0.0
19:37:19.725000,-196.0,-225.0,-403.0,-280.0,886.0,203.0,0.0,0.0,0.0
19:37:19.730000,-163.0,-221.0,-329.0,-280.0,886.0,203.0,0.0,0.0,0.0
19:37:19.735000,-126.0,-219.0,-326.0,-254.0,830.0,205.0,0.0,0.0,0.0
19:37:19.740000,-97.0,-219.0,-348.0,-254.0,830.0,205.0,0.0,0.0,0.0
19:37:19.744000,-72.0,-228.0,-338.0,-239.0,835.0,211.0,0.0,0.0,0.0
19:37:19.749000,-44.0,-238.0,-283.0,-239.0,835.0,211.0,0.0,0.0,0.0
19:37:19.754000,-44.0,-238.0,-283.0,-204.0,845.0,228.0,0.0,0.0,0.0
19:37:19.758000,-16.0,-249.0,-238.0,-204.0,845.0,228.0,0.0,0.0,0.0
19:37:19.763000,13.0,-256.0,-240.0,-173.0,824.0,246.0,0.0,0.0,0.0
19:37:19.768000,39.0,-264.0,-259.0,-173.0,824.0,246.0,0.0,0.0,0.0
19:37:19.772000,56.0,-270.0,-254.0,-143.0,821.0,257.0,0.0,0.0,0.0
19:37:19.777000,68.0,-274.0,-210.0,-143.0,821.0,257.0,0.0,0.0,0.0
19:37:19.782000,81.0,-273.0,-186.0,-144.0,804.0,259.0,0.0,0.0,0.0
19:37:19.787000,100.0,-267.0,-197.0,-144.0,804.0,259.0,0.0,0.0,0.0
19:37:19.791000,123.0,-260.0,-221.0,-168.0,810.0,252.0,0.0,0.0,0.0
19:37:19.796000,140.0,-255.0,-241.0,-168.0,810.0,252.0,0.0,0.0,0.0
19:37:19.801000,148.0,-254.0,-256.0,-152.0,837.0,256.0,0.0,0.0,0.0
19:37:19.805000,147.0,-256.0,-266.0,-152.0,837.0,256.0,0.0,0.0,0.0
19:37:19.810000,161.0,-252.0,-256.0,-148.0,842.0,259.0,0.0,0.0,0.0
19:37:19.815000,169.0,-253.0,-234.0,-148.0,842.0,259.0,0.0,0.0,0.0
19:37:19.819000,181.0,-251.0,-223.0,-148.0,842.0,259.0,0.0,0.0,0.0
19:37:19.824000,201.0,-243.0,-220.0,-178.0,835.0,250.0,0.0,0.0,0.0
19:37:19.829000,220.0,-235.0,-219.0,-178.0,835.0,250.0,0.0,0.0,0.0
19:37:19.834000,242.0,-228.0,-230.0,-209.0,854.0,243.0,0.0,0.0,0.0
19:37:19.838000,270.0,-217.0,-236.0,-209.0,854.0,243.0,0.0,0.0,0.0
19:37:19.843000,309.0,-198.0,-226.0,-214.0,854.0,236.0,0.0,0.0,0.0
19:37:19.848000,354.0,-176.0,-207.0,-214.0,854.0,236.0,0.0,0.0,0.0
19:37:19.852000,401.0,-154.0,-200.0,-222.0,828.0,220.0,0.0,0.0,0.0
19:37:19.857000,459.0,-129.0,-212.0,-222.0,828.0,220.0,0.0,0.0,0.0
19:37:19.862000,524.0,-102.0,-232.0,-264.0,816.0,201.0,0.0,0.0,0.0
19:37:19.866000,524.0,-102.0,-232.0,-264.0,816.0,201.0,0.0,0.0,0.0
19:37:19.871000,594.0,-79.0,-229.0,-275.0,795.0,193.0,0.0,0.0,0.0
19:37:19.876000,667.0,-54.0,-217.0,-275.0,795.0,193.0,0.0,0.0,0.0
19:37:19.881000,740.0,-37.0,-200.0,-239.0,774.0,206.0,0.0,0.0,0.0
19:37:19.885000,810.0,-21.0,-182.0,-239.0,774.0,206.0,0.0,0.0,0.0
19:37:19.890000,875.0,-7.0,-151.0,-203.0,785.0,232.0,0.0,0.0,0.0
19:37:19.909000,1093.0,44.0,-28.0,-212.0,837.0,289.0,0.0,0.0,0.0
19:37:19.913000,1153.0,65.0,-2.0,-212.0,837.0,289.0,0.0,0.0,0.0
19:37:19.918000,1213.0,88.0,25.0,-230.0,819.0,312.0,0.0,0.0,0.0
19:37:19.923000,1269.0,112.0,61.0,-230.0,819.0,312.0,0.0,0.0,0.0
19:37:19.928000,1325.0,133.0,94.0,-230.0,819.0,312.0,0.0,0.0,0.0
19:37:19.932000,1385.0,155.0,115.0,-221.0,796.0,344.0,0.0,0.0,0.0
19:37:19.937000,1439.0,178.0,137.0,-221.0,796.0,344.0,0.0,0.0,0.0
19:37:19.942000,1492.0,203.0,163.0,-218.0,778.0,386.0,0.0,0.0,0.0
19:37:19.946000,1551.0,231.0,176.0,-218.0,778.0,386.0,0.0,0.0,0.0
19:37:19.951000,1610.0,266.0,170.0,-240.0,778.0,423.0,0.0,0.0,0.0
19:37:19.956000,1671.0,303.0,166.0,-240.0,778.0,423.0,0.0,0.0,0.0
19:37:19.960000,1743.0,343.0,151.0,-277.0,785.0,447.0,0.0,0.0,0.0
19:37:19.965000,1817.0,390.0,163.0,-277.0,785.0,447.0,0.0,0.0,0.0
19:37:19.970000,1892.0,443.0,179.0,-306.0,753.0,461.0,0.0,0.0,0.0
19:37:19.975000,1892.0,443.0,179.0,-306.0,753.0,461.0,0.0,0.0,0.0
19:37:19.979000,1962.0,505.0,189.0,-322.0,701.0,467.0,0.0,0.0,0.0
19:37:19.984000,2030.0,571.0,207.0,-322.0,701.0,467.0,0.0,0.0,0.0
19:37:19.989000,2090.0,636.0,219.0,-342.0,669.0,486.0,0.0,0.0,0.0
19:37:19.993000,2107.0,715.0,216.0,-342.0,669.0,486.0,0.0,0.0,0.0
