hh:mm:ss.ms,gyroX[mdps],gyroY[mdps],gyroZ[mdps],accX[mg],accY[mg],accZ[mg],magX[mG],magY[mG],magZ[mG]
19:37:10.566000,-1407.0,-1457.0,-256.0,-915.0,517.0,429.0,0.0,0.0,0.0
19:37:10.570000,-1507.0,-1440.0,-210.0,-915.0,508.0,561.0,0.0,0.0,0.0
19:37:10.575000,-1598.0,-1410.0,-201.0,-915.0,508.0,561.0,0.0,0.0,0.0
19:37:10.580000,-1669.0,-1377.0,-211.0,-803.0,369.0,672.0,0.0,0.0,0.0
19:37:10.584000,-1725.0,-1346.0,-191.0,-803.0,369.0,672.0,0.0,0.0,0.0
19:37:10.589000,-1771.0,-1320.0,-114.0,-811.0,140.0,694.0,0.0,0.0,0.0
19:37:10.593000,-1804.0,-1304.0,-48.0,-811.0,140.0,694.0,0.0,0.0,0.0
19:37:10.599000,-1803.0,-1297.0,-38.0,-1023.0,-75.0,625.0,0.0,0.0,0.0
19:37:10.603000,-1757.0,-1290.0,-81.0,-1023.0,-75.0,625.0,0.0,0.0,0.0
19:37:10.608000,-1668.0,-1270.0,-131.0,-1160.0,-261.0,478.0,0.0,0.0,0.0
19:37:10.613000,-1553.0,-1243.0,-154.0,-1160.0,-261.0,478.0,0.0,0.0,0.0
19:37:10.617000,-1424.0,-1217.0,-170.0,-1168.0,-392.0,304.0,0.0,0.0,0.0
19:37:10.622000,-1305.0,-1197.0,-228.0,-1168.0,-392.0,304.0,0.0,0.0,0.0
19:37:10.627000,-1193.0,-1199.0,-317.0,-1168.0,-392.0,304.0,0.0,0.0,0.0
19:37:10.631000,-1099.0,-1205.0,-389.0,-1151.0,-349.0,184.0,0.0,0.0,0.0
19:37:10.636000,-1009.0,-1214.0,-427.0,-1151.0,-349.0,184.0,0.0,0.0,0.0
19:37:10.641000,-912.0,-1220.0,-436.0,-1052.0,-286.0,138.0,0.0,0.0,0.0
19:37:10.646000,-813.0,-1213.0,-407.0,-1052.0,-286.0,138.0,0.0,0.0,0.0
19:37:10.650000,-707.0,-1187.0,-360.0,-855.0,-335.0,144.0,0.0,0.0,0.0
19:37:10.655000,-614.0,-1156.0,-328.0,-855.0,-335.0,144.0,0.0,0.0,0.0
19:37:10.660000,-557.0,-1115.0,-346.0,-733.0,-348.0,185.0,0.0,0.0,0.0
19:37:10.664000,-521.0,-1073.0,-381.0,-733.0,-348.0,185.0,0.0,0.0,0.0
19:37:10.669000,-487.0,-1025.0,-358.0,-736.0,-262.0,250.0,0.0,0.0,0.0
19:37:10.673000,-487.0,-1025.0,-358.0,-736.0,-262.0,250.0,0.0,0.0,0.0
19:37:10.678000,-459.0,-975.0,-243.0,-791.0,-237.0,313.0,0.0,0.0,0.0
19:37:10.683000,-428.0,-912.0,-153.0,-791.0,-237.0,313.0,0.0,0.0,0.0
19:37:10.688000,-398.0,-849.0,-152.0,-916.0,-258.0,353.0,0.0,0.0,0.0
19:37:10.693000,-371.0,-789.0,-158.0,-916.0,-258.0,353.0,0.0,0.0,0.0
19:37:10.697000,-355.0,-722.0,-131.0,-980.0,-218.0,385.0,0.0,0.0,0.0
19:37:10.702000,-345.0,-660.0,-116.0,-980.0,-218.0,385.0,0.0,0.0,0.0
19:37:10.707000,-333.0,-598.0,-126.0,-942.0,-150.0,411.0,0.0,0.0,0.0
19:37:10.711000,-312.0,-539.0,-152.0,-942.0,-150.0,411.0,0.0,0.0,0.0
19:37:10.716000,-287.0,-483.0,-169.0,-905.0,-124.0,427.0,0.0,0.0,0.0
19:37:10.721000,-261.0,-431.0,-156.0,-905.0,-124.0,427.0,0.0,0.0,0.0
19:37:10.725000,-245.0,-373.0,-159.0,-873.0,-141.0,440.0,0.0,0.0,0.0
19:37:10.730000,-242.0,-322.0,-179.0,-873.0,-141.0,440.0,0.0,0.0,0.0
19:37:10.735000,-231.0,-277.0,-181.0,-873.0,-141.0,440.0,0.0,0.0,0.0
19:37:10.740000,-225.0,-238.0,-156.0,-870.0,-133.0,451.0,0.0,0.0,0.0
19:37:10.744000,-226.0,-201.0,-127.0,-870.0,-133.0,451.0,0.0,0.0,0.0
19:37:10.749000,-222.0,-165.0,-101.0,-881.0,-126.0,461.0,0.0,0.0,0.0
19:37:10.754000,-210.0,-128.0,-67.0,-881.0,-126.0,461.0,0.0,0.0,0.0
19:37:10.758000,-195.0,-93.0,-30.0,-890.0,-113.0,468.0,0.0,0.0,0.0
19:37:10.763000,-177.0,-56.0,1.0,-890.0,-113.0,468.0,0.0,0.0,0.0
19:37:10.768000,-153.0,-8.0,4.0,-907.0,-50.0,481.0,0.0,0.0,0.0
19:37:10.772000,-128.0,33.0,-32.0,-907.0,-50.0,481.0,0.0,0.0,0.0
19:37:10.777000,-100.0,63.0,-84.0,-948.0,19.0,499.0,0.0,0.0,0.0
19:37:10.782000,-100.0,63.0,-84.0,-948.0,19.0,499.0,0.0,0.0,0.0
19:37:10.787000,-65.0,98.0,-70.0,-929.0,-14.0,502.0,0.0,0.0,0.0
19:37:10.791000,-26.0,123.0,-27.0,-929.0,-14.0,502.0,0.0,0.0,0.0
19:37:10.796000,14.0,140.0,-29.0,-882.0,-68.0,491.0,0.0,0.0,0.0
19:37:10.801000,58.0,151.0,-71.0,-882.0,-68.0,491.0,0.0,0.0,0.0
19:37:10.805000,93.0,159.0,-91.0,-893.0,-56.0,482.0,0.0,0.0,0.0
19:37:10.810000,117.0,162.0,-94.0,-893.0,-56.0,482.0,0.0,0.0,0.0
19:37:10.815000,133.0,166.0,-98.0,-901.0,-59.0,483.0,0.0,0.0,0.0
19:37:10.819000,145.0,173.0,-117.0,-901.0,-59.0,483.0,0.0,0.0,0.0
19:37:10.824000,153.0,170.0,-119.0,-840.0,-85.0,501.0,0.0,0.0,0.0
19:37:10.828000,158.0,172.0,-119.0,-840.0,-85.0,501.0,0.0,0.0,0.0
19:37:10.834000,167.0,186.0,-130.0,-763.0,-93.0,520.0,0.0,0.0,0.0
19:37:10.838000,177.0,207.0,-145.0,-763.0,-93.0,520.0,0.0,0.0,0.0
19:37:10.843000,185.0,217.0,-175.0,-763.0,-76.0,527.0,0.0,0.0,0.0
19:37:10.848000,180.0,226.0,-198.0,-776.0,-76.0,527.0,0.0,0.0,0.0
19:37:10.852000,183.0,242.0,-177.0,-776.0,-76.0,527.0,0.0,0.0,0.0
19:37:10.857000,196.0,255.0,-145.0,-811.0,-72.0,530.0,0.0,0.0,0.0
19:37:10.862000,202.0,267.0,-128.0,-811.0,-72.0,530.0,0.0,0.0,0.0
19:37:10.866000,192.0,273.0,-123.0,-827.0,-102.0,533.0,0.0,0.0,0.0
19:37:10.871000,184.0,289.0,-149.0,-827.0,-102.0,533.0,0.0,0.0,0.0
19:37:10.876000,179.0,310.0,-186.0,-838.0,-105.0,533.0,0.0,0.0,0.0
19:37:10.881000,163.0,336.0,-207.0,-838.0,-105.0,533.0,0.0,0.0,0.0
19:37:10.885000,138.0,359.0,-204.0,-795.0,-70.0,530.0,0.0,0.0,0.0
19:37:10.890000,138.0,359.0,-204.0,-795.0,-70.0,530.0,0.0,0.0,0.0
19:37:10.895000,116.0,385.0,-184.0,-741.0,-78.0,524.0,0.0,0.0,0.0
19:37:10.899000,107.0,417.0,-168.0,-741.0,-78.0,524.0,0.0,0.0,0.0
19:37:10.904000,109.0,445.0,-181.0,-762.0,-128.0,516.0,0.0,0.0,0.0
19:37:10.909000,107.0,463.0,-197.0,-762.0,-128.0,516.0,0.0,0.0,0.0
19:37:10.913000,94.0,472.0,-207.0,-781.0,-159.0,519.0,0.0,0.0,0.0
19:37:10.918000,86.0,482.0,-226.0,-781.0,-159.0,519.0,0.0,0.0,0.0
19:37:10.923000,67.0,490.0,-217.0,-743.0,-155.0,529.0,0.0,0.0,0.0
19:37:10.928000,58.0,494.0,-186.0,-743.0,-155.0,529.0,0.0,0.0,0.0
19:37:10.932000,28.0,494.0,-148.0,-748.0,-102.0,541.0,0.0,0.0,0.0
19:37:10.937000,-2.0,498.0,-127.0,-748.0,-102.0,541.0,0.0,0.0,0.0
19:37:10.942000,-41.0,503.0,-151.0,-801.0,-34.0,546.0,0.0,0.0,0.0
19:37:10.946000,-70.0,506.0,-165.0,-801.0,-34.0,546.0,0.0,0.0,0.0
19:37:10.951000,-105.0,518.0,-141.0,-828.0,-59.0,547.0,0.0,0.0,0.0
19:37:10.956000,-137.0,531.0,-143.0,-828.0,-59.0,547.0,0.0,0.0,0.0
19:37:10.960000,-152.0,545.0,-173.0,-828.0,-59.0,547.0,0.0,0.0,0.0
19:37:10.965000,-163.0,559.0,-191.0,-851.0,-123.0,549.0,0.0,0.0,0.0
19:37:10.970000,-158.0,564.0,-205.0,-891.0,-142.0,546.0,0.0,0.0,0.0
19:37:10.975000,-149.0,569.0,-220.0,-891.0,-142.0,546.0,0.0,0.0,0.0
19:37:10.979000,-130.0,576.0,-245.0,-891.0,-142.0,546.0,0.0,0.0,0.0
19:37:10.984000,-109.0,583.0,-254.0,-911.0,-146.0,549.0,0.0,0.0,0.0
19:37:10.989000,-97.0,592.0,-254.0,-911.0,-146.0,549.0,0.0,0.0,0.0
19:37:10.993000,-73.0,607.0,-273.0,-913.0,-141.0,558.0,0.0,0.0,0.0
19:37:10.998000,-49.0,627.0,-307.0,-913.0,-141.0,558.0,0.0,0.0,0.0
19:37:11.003000,-49.0,627.0,-307.0,-921.0,-136.0,563.0,0.0,0.0,0.0
19:37:11.007000,-36.0,644.0,-313.0,-921.0,-136.0,563.0,0.0,0.0,0.0
19:37:11.012000,-20.0,655.0,-294.0,-917.0,-154.0,577.0,0.0,0.0,0.0
19:37:11.017000,-2.0,662.0,-266.0,-917.0,-154.0,577.0,0.0,0.0,0.0
19:37:11.022000,21.0,666.0,-230.0,-877.0,-207.0,595.0,0.0,0.0,0.0
19:37:11.026000,60.0,681.0,-226.0,-877.0,-207.0,595.0,0.0,0.0,0.0
19:37:11.031000,86.0,694.0,-249.0,-854.0,-242.0,601.0,0.0,0.0,0.0
19:37:11.036000,119.0,695.0,-263.0,-854.0,-242.0,601.0,0.0,0.0,0.0
19:37:11.040000,155.0,700.0,-289.0,-846.0,-205.0,602.0,0.0,0.0,0.0
19:37:11.045000,188.0,705.0,-320.0,-846.0,-205.0,602.0,0.0,0.0,0.0
19:37:11.050000,224.0,710.0,-336.0,-830.0,-166.0,599.0,0.0,0.0,0.0
19:37:11.054000,261.0,723.0,-341.0,-830.0,-166.0,599.0,0.0,0.0,0.0
19:37:11.059000,296.0,735.0,-329.0,-853.0,-166.0,587.0,0.0,0.0,0.0
19:37:11.063000,333.0,742.0,-294.0,-853.0,-166.0,587.0,0.0,0.0,0.0
19:37:11.069000,373.0,752.0,-266.0,-853.0,-166.0,587.0,0.0,0.0,0.0
19:37:11.073000,396.0,757.0,-254.0,-909.0,-142.0,567.0,0.0,0.0,0.0
19:37:11.078000,422.0,760.0,-278.0,-909.0,-142.0,567.0,0.0,0.0,0.0
19:37:11.083000,443.0,766.0,-295.0,-967.0,-73.0,549.0,0.0,0.0,0.0
19:37:11.087000,457.0,769.0,-264.0,-967.0,-73.0,549.0,0.0,0.0,0.0
19:37:11.092000,466.0,769.0,-215.0,-991.0,-12.0,534.0,0.0,0.0,0.0
19:37:11.097000,476.0,768.0,-182.0,-991.0,-12.0,534.0,0.0,0.0,0.0
19:37:11.101000,487.0,763.0,-170.0,-990.0,6.0,513.0,0.0,0.0,0.0
19:37:11.106000,500.0,753.0,-156.0,-990.0,6.0,513.0,0.0,0.0,0.0
19:37:11.111000,500.0,753.0,-156.0,-985.0,-19.0,482.0,0.0,0.0,0.0
19:37:11.116000,511.0,742.0,-111.0,-985.0,-19.0,482.0,0.0,0.0,0.0
19:37:11.120000,535.0,730.0,-55.0,-952.0,-51.0,455.0,0.0,0.0,0.0
19:37:11.125000,567.0,720.0,-21.0,-952.0,-51.0,455.0,0.0,0.0,0.0
19:37:11.130000,601.0,709.0,-7.0,-923.0,-63.0,435.0,0.0,0.0,0.0
19:37:11.134000,641.0,700.0,-9.0,-923.0,-63.0,435.0,0.0,0.0,0.0
19:37:11.139000,702.0,690.0,-24.0,-928.0,-104.0,412.0,0.0,0.0,0.0
19:37:11.144000,771.0,682.0,-47.0,-928.0,-104.0,412.0,0.0,0.0,0.0
19:37:11.148000,841.0,683.0,-63.0,-927.0,-143.0,392.0,0.0,0.0,0.0
19:37:11.153000,910.0,693.0,-53.0,-927.0,-143.0,392.0,0.0,0.0,0.0
19:37:11.158000,971.0,708.0,-23.0,-949.0,-140.0,387.0,0.0,0.0,0.0
19:37:11.163000,1024.0,728.0,-2.0,-949.0,-140.0,387.0,0.0,0.0,0.0
19:37:11.167000,1071.0,755.0,9.0,-1015.0,-121.0,390.0,0.0,0.0,0.0
19:37:11.172000,1120.0,788.0,25.0,-1015.0,-121.0,390.0,0.0,0.0,0.0
19:37:11.177000,1171.0,830.0,51.0,-1015.0,-121.0,390.0,0.0,0.0,0.0
19:37:11.181000,1218.0,882.0,72.0,-1062.0,-102.0,392.0,0.0,0.0,0.0
19:37:11.186000,1262.0,939.0,81.0,-1062.0,-102.0,392.0,0.0,0.0,0.0
19:37:11.191000,1307.0,1003.0,88.0,-1109.0,-82.0,398.0,0.0,0.0,0.0
19:37:11.195000,1346.0,1071.0,109.0,-1109.0,-82.0,398.0,0.0,0.0,0.0
19:37:11.200000,1379.0,1138.0,142.0,-1173.0,-79.0,398.0,0.0,0.0,0.0
19:37:11.205000,1409.0,1203.0,173.0,-1173.0,-79.0,398.0,0.0,0.0,0.0
19:37:11.210000,1434.0,1264.0,193.0,-1225.0,-68.0,394.0,0.0,0.0,0.0
19:37:11.214000,1461.0,1325.0,203.0,-1225.0,-68.0,394.0,0.0,0.0,0.0
19:37:11.219000,1461.0,1325.0,203.0,-1257.0,-32.0,389.0,0.0,0.0,0.0
19:37:11.224000,1485.0,1381.0,207.0,-1257.0,-32.0,389.0,0.0,0.0,0.0
19:37:11.228000,1513.0,1434.0,200.0,-1265.0,-34.0,373.0,0.0,0.0,0.0
19:37:11.233000,1545.0,1489.0,200.0,-1265.0,-34.0,373.0,0.0,0.0,0.0
19:37:11.238000,1583.0,1547.0,208.0,-1271.0,-72.0,342.0,0.0,0.0,0.0
19:37:11.242000,1621.0,1618.0,219.0,-1271.0,-72.0,342.0,0.0,0.0,0.0
19:37:11.247000,1647.0,1702.0,228.0,-1307.0,-90.0,305.0,0.0,0.0,0.0
19:37:11.252000,1668.0,1802.0,235.0,-1307.0,-90.0,305.0,0.0,0.0,0.0
19:37:11.257000,1692.0,1914.0,242.0,-1378.0,-97.0,255.0,0.0,0.0,0.0
19:37:11.261000,1711.0,2034.0,248.0,-1378.0,-97.0,255.0,0.0,0.0,0.0
19:37:11.266000,1733.0,2159.0,260.0,-1446.0,-124.0,199.0,0.0,0.0,0.0
19:37:11.271000,1769.0,2282.0,279.0,-1446.0,-124.0,199.0,0.0,0.0,0.0
19:37:11.275000,1816.0,2392.0,300.0,-1478.0,-165.0,159.0,0.0,0.0,0.0
19:37:11.280000,1862.0,2490.0,322.0,-1478.0,-165.0,159.0,0.0,0.0,0.0
19:37:11.285000,1918.0,2581.0,353.0,-1478.0,-165.0,159.0,0.0,0.0,0.0
19:37:11.289000,1977.0,2653.0,387.0,-1445.0,-194.0,144.0,0.0,0.0,0.0
19:37:11.294000,2039.0,2717.0,411.0,-1445.0,-194.0,144.0,0.0,0.0,0.0
19:37:11.298000,2073.0,2772.0,427.0,-1311.0,-218.0,146.0,0.0,0.0,0.0
19:37:11.304000,2069.0,2814.0,496.0,-1311.0,-218.0,146.0,0.0,0.0,0.0
19:37:11.308000,2075.0,2816.0,593.0,-1124.0,-254.0,149.0,0.0,0.0,0.0
19:37:11.313000,2153.0,2805.0,662.0,-1124.0,-254.0,149.0,0.0,0.0,0.0
19:37:11.318000,2214.0,2821.0,690.0,-1019.0,-180.0,93.0,0.0,0.0,0.0
19:37:11.322000,2192.0,2797.0,697.0,-1019.0,-180.0,93.0,0.0,0.0,0.0
19:37:11.327000,2151.0,2791.0,718.0,-1003.0,-52.0,32.0,0.0,0.0,0.0
19:37:11.332000,2151.0,2791.0,718.0,-1003.0,-52.0,32.0,0.0,0.0,0.0
19:37:11.336000,2098.0,2779.0,765.0,-1053.0,-10.0,-5.0,0.0,0.0,0.0
19:37:11.341000,2079.0,2781.0,819.0,-1053.0,-10.0,-5.0,0.0,0.0,0.0
19:37:11.346000,2046.0,2797.0,836.0,-1168.0,-11.0,-64.0,0.0,0.0,0.0
19:37:11.351000,2004.0,2830.0,809.0,-1168.0,-11.0,-64.0,0.0,0.0,0.0
19:37:11.355000,1958.0,2865.0,749.0,-1233.0,25.0,-114.0,0.0,0.0,0.0
19:37:11.359000,1916.0,2896.0,669.0,-1233.0,25.0,-114.0,0.0,0.0,0.0
19:37:11.365000,1897.0,2932.0,583.0,-1245.0,25.0,-180.0,0.0,0.0,0.0
19:37:11.369000,1887.0,2961.0,539.0,-1245.0,25.0,-180.0,0.0,0.0,0.0
19:37:11.374000,1878.0,2982.0,543.0,-1226.0,-50.0,-248.0,0.0,0.0,0.0
19:37:11.379000,1866.0,2996.0,568.0,-1226.0,-50.0,-248.0,0.0,0.0,0.0
19:37:11.383000,1860.0,2998.0,598.0,-1125.0,-66.0,-291.0,0.0,0.0,0.0
19:37:11.388000,1853.0,2991.0,627.0,-1125.0,-66.0,-291.0,0.0,0.0,0.0
19:37:11.393000,1859.0,2982.0,655.0,-1125.0,-66.0,-291.0,0.0,0.0,0.0
19:37:11.398000,1871.0,2970.0,711.0,-972.0,-88.0,-309.0,0.0,0.0,0.0
19:37:11.402000,1884.0,2963.0,753.0,-972.0,-88.0,-309.0,0.0,0.0,0.0
19:37:11.407000,1894.0,2964.0,784.0,-848.0,-117.0,-325.0,0.0,0.0,0.0
19:37:11.412000,1901.0,2958.0,849.0,-848.0,-117.0,-325.0,0.0,0.0,0.0
19:37:11.416000,1900.0,2951.0,912.0,-811.0,-68.0,-345.0,0.0,0.0,0.0
19:37:11.421000,1905.0,2952.0,945.0,-811.0,-68.0,-345.0,0.0,0.0,0.0
19:37:11.426000,1895.0,2961.0,942.0,-853.0,5.0,-368.0,0.0,0.0,0.0
19:37:11.430000,1872.0,2969.0,939.0,-853.0,5.0,-368.0,0.0,0.0,0.0
19:37:11.435000,1850.0,2965.0,954.0,-914.0,93.0,-389.0,0.0,0.0,0.0
19:37:11.440000,1850.0,2965.0,954.0,-914.0,93.0,-389.0,0.0,0.0,0.0
19:37:11.445000,1814.0,2952.0,987.0,-906.0,140.0,-403.0,0.0,0.0,0.0
19:37:11.449000,1775.0,2923.0,1022.0,-906.0,140.0,-403.0,0.0,0.0,0.0
19:37:11.454000,1732.0,2883.0,1038.0,-791.0,152.0,-404.0,0.0,0.0,0.0
19:37:11.459000,1674.0,2831.0,1043.0,-791.0,152.0,-404.0,0.0,0.0,0.0
19:37:11.463000,1600.0,2765.0,1050.0,-612.0,204.0,-388.0,0.0,0.0,0.0
19:37:11.468000,1527.0,2683.0,1053.0,-612.0,204.0,-388.0,0.0,0.0,0.0
19:37:11.473000,1456.0,2592.0,1076.0,-395.0,220.0,-380.0,0.0,0.0,0.0
19:37:11.477000,1392.0,2491.0,1096.0,-395.0,220.0,-380.0,0.0,0.0,0.0
19:37:11.482000,1344.0,2384.0,1066.0,-197.0,179.0,-377.0,0.0,0.0,0.0
19:37:11.487000,1301.0,2281.0,1022.0,-197.0,179.0,-377.0,0.0,0.0,0.0
19:37:11.492000,1272.0,2180.0,998.0,-64.0,101.0,-400.0,0.0,0.0,0.0
19:37:11.496000,1250.0,2086.0,982.0,-64.0,101.0,-400.0,0.0,0.0,0.0
19:37:11.501000,1222.0,1998.0,968.0,-64.0,101.0,-400.0,0.0,0.0,0.0
19:37:11.506000,1178.0,1926.0,921.0,-40.0,78.0,-465.0,0.0,0.0,0.0
19:37:11.510000,1104.0,1856.0,842.0,-40.0,78.0,-465.0,0.0,0.0,0.0
19:37:11.515000,1004.0,1786.0,777.0,-133.0,231.0,-520.0,0.0,0.0,0.0
19:37:11.520000,882.0,1717.0,760.0,-133.0,231.0,-520.0,0.0,0.0,0.0
19:37:11.524000,751.0,1638.0,766.0,-205.0,423.0,-578.0,0.0,0.0,0.0
19:37:11.529000,625.0,1545.0,778.0,-205.0,423.0,-578.0,0.0,0.0,0.0
19:37:11.533000,625.0,1545.0,778.0,-216.0,512.0,-629.0,0.0,0.0,0.0
19:37:11.539000,433.0,1350.0,869.0,-216.0,512.0,-629.0,0.0,0.0,0.0
19:37:11.543000,392.0,1270.0,941.0,-163.0,416.0,-656.0,0.0,0.0,0.0
19:37:11.548000,392.0,1270.0,941.0,-163.0,416.0,-656.0,0.0,0.0,0.0
19:37:11.553000,391.0,1204.0,1009.0,-97.0,145.0,-704.0,0.0,0.0,0.0
19:37:11.557000,420.0,1149.0,1063.0,-97.0,145.0,-704.0,0.0,0.0,0.0
19:37:11.562000,463.0,1101.0,1105.0,-139.0,-72.0,-758.0,0.0,0.0,0.0
19:37:11.567000,511.0,1059.0,1135.0,-139.0,-72.0,-758.0,0.0,0.0,0.0
19:37:11.571000,554.0,1025.0,1146.0,-240.0,-114.0,-776.0,0.0,0.0,0.0
19:37:11.576000,581.0,1004.0,1134.0,-240.0,-114.0,-776.0,0.0,0.0,0.0
19:37:11.581000,584.0,987.0,1087.0,-304.0,4.0,-772.0,0.0,0.0,0.0
19:37:11.586000,561.0,968.0,1007.0,-304.0,4.0,-772.0,0.0,0.0,0.0
19:37:11.590000,529.0,938.0,903.0,-291.0,177.0,-763.0,0.0,0.0,0.0
19:37:11.595000,491.0,898.0,798.0,-291.0,177.0,-763.0,0.0,0.0,0.0
19:37:11.600000,453.0,849.0,712.0,-191.0,240.0,-739.0,0.0,0.0,0.0
19:37:11.604000,422.0,791.0,646.0,-191.0,240.0,-739.0,0.0,0.0,0.0
19:37:11.608000,392.0,727.0,601.0,-51.0,213.0,-709.0,0.0,0.0,0.0
19:37:11.614000,366.0,660.0,577.0,-51.0,213.0,-709.0,0.0,0.0,0.0
19:37:11.618000,348.0,596.0,550.0,-51.0,213.0,-709.0,0.0,0.0,0.0
19:37:11.623000,336.0,543.0,518.0,40.0,205.0,-696.0,0.0,0.0,0.0
19:37:11.628000,327.0,501.0,489.0,40.0,205.0,-696.0,0.0,0.0,0.0
19:37:11.633000,314.0,469.0,467.0,49.0,225.0,-703.0,0.0,0.0,0.0
19:37:11.637000,301.0,445.0,461.0,49.0,225.0,-703.0,0.0,0.0,0.0
19:37:11.642000,288.0,430.0,468.0,-6.0,247.0,-728.0,0.0,0.0,0.0
19:37:11.647000,280.0,422.0,479.0,-6.0,247.0,-728.0,0.0,0.0,0.0
19:37:11.651000,272.0,415.0,483.0,-92.0,245.0,-760.0,0.0,0.0,0.0
19:37:11.656000,272.0,415.0,483.0,-92.0,245.0,-760.0,0.0,0.0,0.0
19:37:11.661000,267.0,406.0,473.0,-152.0,234.0,-793.0,0.0,0.0,0.0
19:37:11.665000,267.0,393.0,457.0,-152.0,234.0,-793.0,0.0,0.0,0.0
19:37:11.670000,271.0,375.0,457.0,-137.0,227.0,-818.0,0.0,0.0,0.0
19:37:11.675000,277.0,351.0,472.0,-137.0,227.0,-818.0,0.0,0.0,0.0
19:37:11.680000,283.0,319.0,483.0,-73.0,208.0,-839.0,0.0,0.0,0.0
19:37:11.684000,292.0,282.0,480.0,-73.0,208.0,-839.0,0.0,0.0,0.0
19:37:11.689000,301.0,239.0,476.0,-15.0,195.0,-856.0,0.0,0.0,0.0
19:37:11.694000,306.0,191.0,480.0,-15.0,195.0,-856.0,0.0,0.0,0.0
19:37:11.698000,305.0,139.0,485.0,29.0,203.0,-867.0,0.0,0.0,0.0
19:37:11.703000,299.0,85.0,483.0,29.0,203.0,-867.0,0.0,0.0,0.0
19:37:11.708000,292.0,37.0,481.0,61.0,197.0,-881.0,0.0,0.0,0.0
19:37:11.712000,288.0,-2.0,490.0,61.0,197.0,-881.0,0.0,0.0,0.0
19:37:11.717000,284.0,-37.0,500.0,50.0,168.0,-909.0,0.0,0.0,0.0
19:37:11.722000,280.0,-63.0,499.0,50.0,168.0,-909.0,0.0,0.0,0.0
19:37:11.727000,269.0,-81.0,490.0,50.0,168.0,-909.0,0.0,0.0,0.0
19:37:11.731000,259.0,-91.0,480.0,-18.0,167.0,-932.0,0.0,0.0,0.0
19:37:11.736000,250.0,-94.0,475.0,-18.0,167.0,-932.0,0.0,0.0,0.0
19:37:11.741000,242.0,-93.0,478.0,-87.0,149.0,-940.0,0.0,0.0,0.0
19:37:11.745000,240.0,-90.0,472.0,-87.0,149.0,-940.0,0.0,0.0,0.0
19:37:11.750000,244.0,-83.0,448.0,-121.0,93.0,-941.0,0.0,0.0,0.0
19:37:11.755000,247.0,-72.0,420.0,-121.0,93.0,-941.0,0.0,0.0,0.0
19:37:11.759000,246.0,-60.0,403.0,-120.0,78.0,-937.0,0.0,0.0,0.0
19:37:11.764000,243.0,-47.0,388.0,-120.0,78.0,-937.0,0.0,0.0,0.0
19:37:11.768000,243.0,-47.0,388.0,-115.0,97.0,-932.0,0.0,0.0,0.0
19:37:11.774000,240.0,-36.0,368.0,-115.0,97.0,-932.0,0.0,0.0,0.0
19:37:11.778000,230.0,-26.0,350.0,-123.0,102.0,-923.0,0.0,0.0,0.0
19:37:11.783000,219.0,-14.0,336.0,-123.0,102.0,-923.0,0.0,0.0,0.0
19:37:11.788000,199.0,0.0,328.0,-122.0,106.0,-913.0,0.0,0.0,0.0
19:37:11.792000,169.0,16.0,325.0,-122.0,106.0,-913.0,0.0,0.0,0.0
19:37:11.797000,135.0,31.0,311.0,-127.0,126.0,-910.0,0.0,0.0,0.0
19:37:11.802000,100.0,49.0,277.0,-127.0,126.0,-910.0,0.0,0.0,0.0
19:37:11.806000,74.0,65.0,237.0,-123.0,121.0,-913.0,0.0,0.0,0.0
19:37:11.811000,57.0,83.0,205.0,-123.0,121.0,-913.0,0.0,0.0,0.0
19:37:11.816000,53.0,104.0,170.0,-107.0,69.0,-922.0,0.0,0.0,0.0
19:37:11.821000,60.0,124.0,126.0,-107.0,69.0,-922.0,0.0,0.0,0.0
19:37:11.825000,81.0,143.0,79.0,-113.0,10.0,-935.0,0.0,0.0,0.0
19:37:11.830000,115.0,163.0,33.0,-113.0,10.0,-935.0,0.0,0.0,0.0
19:37:11.835000,160.0,184.0,-8.0,-113.0,10.0,-935.0,0.0,0.0,0.0
19:37:11.839000,206.0,204.0,-41.0,-129.0,-26.0,-944.0,0.0,0.0,0.0
19:37:11.844000,247.0,224.0,-70.0,-129.0,-26.0,-944.0,0.0,0.0,0.0
19:37:11.849000,270.0,242.0,-102.0,-145.0,-7.0,-939.0,0.0,0.0,0.0
19:37:11.853000,274.0,253.0,-135.0,-145.0,-7.0,-939.0,0.0,0.0,0.0
19:37:11.858000,269.0,261.0,-140.0,-130.0,53.0,-908.0,0.0,0.0,0.0
19:37:11.863000,267.0,269.0,-112.0,-130.0,53.0,-908.0,0.0,0.0,0.0
19:37:11.868000,254.0,273.0,-88.0,-36.0,61.0,-877.0,0.0,0.0,0.0
19:37:11.872000,217.0,276.0,-89.0,-36.0,61.0,-877.0,0.0,0.0,0.0
19:37:11.877000,217.0,276.0,-89.0,34.0,122.0,-885.0,0.0,0.0,0.0
19:37:11.882000,165.0,275.0,-99.0,34.0,122.0,-885.0,0.0,0.0,0.0
19:37:11.886000,116.0,268.0,-100.0,59.0,228.0,-936.0,0.0,0.0,0.0
19:37:11.891000,58.0,240.0,-90.0,59.0,228.0,-936.0,0.0,0.0,0.0
19:37:11.896000,6.0,197.0,-104.0,197.0,273.0,-987.0,0.0,0.0,0.0
19:37:11.900000,-42.0,154.0,-144.0,197.0,273.0,-987.0,0.0,0.0,0.0
19:37:11.905000,-67.0,119.0,-189.0,298.0,276.0,-1026.0,0.0,0.0,0.0
19:37:11.910000,-60.0,101.0,-205.0,298.0,276.0,-1026.0,0.0,0.0,0.0
19:37:11.915000,-25.0,104.0,-166.0,106.0,131.0,-1070.0,0.0,0.0,0.0
19:37:11.919000,24.0,121.0,-95.0,106.0,131.0,-1070.0,0.0,0.0,0.0
19:37:11.924000,91.0,144.0,-35.0,-169.0,-51.0,-1093.0,0.0,0.0,0.0
19:37:11.929000,153.0,166.0,-25.0,-169.0,-51.0,-1093.0,0.0,0.0,0.0
19:37:11.933000,187.0,177.0,-58.0,-167.0,-32.0,-1069.0,0.0,0.0,0.0
19:37:11.938000,198.0,173.0,-93.0,-167.0,-32.0,-1069.0,0.0,0.0,0.0
19:37:11.943000,193.0,159.0,-109.0,-167.0,-32.0,-1069.0,0.0,0.0,0.0
19:37:11.947000,182.0,140.0,-98.0,24.0,111.0,-1019.0,0.0,0.0,0.0
19:37:11.952000,172.0,123.0,-72.0,24.0,111.0,-1019.0,0.0,0.0,0.0
19:37:11.957000,166.0,112.0,-43.0,99.0,155.0,-989.0,0.0,0.0,0.0
19:37:11.962000,161.0,104.0,-18.0,99.0,155.0,-989.0,0.0,0.0,0.0
19:37:11.966000,150.0,97.0,4.0,20.0,117.0,-980.0,0.0,0.0,0.0
19:37:11.971000,132.0,89.0,5.0,20.0,117.0,-980.0,0.0,0.0,0.0
19:37:11.976000,109.0,80.0,-25.0,-42.0,153.0,-978.0,0.0,0.0,0.0
19:37:11.980000,79.0,67.0,-49.0,-42.0,153.0,-978.0,0.0,0.0,0.0
19:37:11.985000,79.0,67.0,-49.0,-26.0,222.0,-978.0,0.0,0.0,0.0
19:37:11.990000,59.0,51.0,-60.0,-26.0,222.0,-978.0,0.0,0.0,0.0
19:37:11.994000,60.0,40.0,-58.0,-3.0,164.0,-982.0,0.0,0.0,0.0
19:37:11.999000,81.0,32.0,-59.0,-3.0,164.0,-982.0,0.0,0.0,0.0
19:37:12.003000,109.0,28.0,-69.0,-15.0,58.0,-992.0,0.0,0.0,0.0
19:37:12.009000,141.0,27.0,-82.0,-15.0,58.0,-992.0,0.0,0.0,0.0
19:37:12.013000,171.0,30.0,-105.0,-43.0,59.0,-993.0,0.0,0.0,0.0
19:37:12.018000,194.0,35.0,-135.0,-43.0,59.0,-993.0,0.0,0.0,0.0
19:37:12.023000,207.0,39.0,-168.0,-69.0,128.0,-980.0,0.0,0.0,0.0
19:37:12.027000,217.0,39.0,-198.0,-69.0,128.0,-980.0,0.0,0.0,0.0
19:37:12.032000,228.0,39.0,-214.0,-64.0,175.0,-959.0,0.0,0.0,0.0
19:37:12.037000,236.0,38.0,-224.0,-64.0,175.0,-959.0,0.0,0.0,0.0
19:37:12.041000,236.0,35.0,-226.0,-31.0,208.0,-938.0,0.0,0.0,0.0
19:37:12.046000,229.0,32.0,-226.0,-31.0,208.0,-938.0,0.0,0.0,0.0
19:37:12.051000,219.0,30.0,-217.0,-31.0,208.0,-938.0,0.0,0.0,0.0
19:37:12.055000,207.0,28.0,-185.0,-11.0,243.0,-924.0,0.0,0.0,0.0
19:37:12.060000,196.0,25.0,-155.0,-11.0,243.0,-924.0,0.0,0.0,0.0
19:37:12.065000,180.0,20.0,-137.0,-10.0,259.0,-924.0,0.0,0.0,0.0
19:37:12.070000,164.0,15.0,-124.0,-10.0,259.0,-924.0,0.0,0.0,0.0
19:37:12.074000,149.0,8.0,-109.0,-15.0,283.0,-931.0,0.0,0.0,0.0
19:37:12.079000,135.0,0.0,-94.0,-15.0,283.0,-931.0,0.0,0.0,0.0
19:37:12.084000,125.0,-14.0,-88.0,-8.0,295.0,-935.0,0.0,0.0,0.0
19:37:12.088000,117.0,-29.0,-89.0,-8.0,295.0,-935.0,0.0,0.0,0.0
19:37:12.093000,106.0,-47.0,-102.0,17.0,290.0,-939.0,0.0,0.0,0.0
19:37:12.098000,106.0,-47.0,-102.0,17.0,290.0,-939.0,0.0,0.0,0.0
19:37:12.102000,87.0,-67.0,-116.0,51.0,321.0,-940.0,0.0,0.0,0.0
19:37:12.107000,60.0,-98.0,-125.0,51.0,321.0,-940.0,0.0,0.0,0.0
19:37:12.112000,28.0,-134.0,-128.0,90.0,366.0,-938.0,0.0,0.0,0.0
19:37:12.117000,-7.0,-177.0,-128.0,90.0,366.0,-938.0,0.0,0.0,0.0
19:37:12.121000,-50.0,-220.0,-138.0,119.0,420.0,-935.0,0.0,0.0,0.0
19:37:12.126000,-100.0,-270.0,-147.0,119.0,420.0,-935.0,0.0,0.0,0.0
19:37:12.131000,-158.0,-323.0,-152.0,127.0,488.0,-931.0,0.0,0.0,0.0
19:37:12.135000,-228.0,-382.0,-162.0,127.0,488.0,-931.0,0.0,0.0,0.0
19:37:12.140000,-307.0,-448.0,-175.0,139.0,548.0,-922.0,0.0,0.0,0.0
19:37:12.145000,-399.0,-518.0,-198.0,139.0,548.0,-922.0,0.0,0.0,0.0
19:37:12.149000,-508.0,-595.0,-231.0,172.0,631.0,-904.0,0.0,0.0,0.0
19:37:12.154000,-631.0,-685.0,-270.0,172.0,631.0,-904.0,0.0,0.0,0.0
19:37:12.159000,-767.0,-777.0,-309.0,172.0,631.0,-904.0,0.0,0.0,0.0
19:37:12.164000,-906.0,-872.0,-352.0,226.0,720.0,-870.0,0.0,0.0,0.0
19:37:12.168000,-1047.0,-970.0,-399.0,226.0,720.0,-870.0,0.0,0.0,0.0
19:37:12.173000,-1190.0,-1070.0,-440.0,267.0,763.0,-831.0,0.0,0.0,0.0
19:37:12.178000,-1332.0,-1170.0,-477.0,267.0,763.0,-831.0,0.0,0.0,0.0
19:37:12.182000,-1473.0,-1269.0,-518.0,254.0,759.0,-801.0,0.0,0.0,0.0
19:37:12.187000,-1612.0,-1373.0,-571.0,254.0,759.0,-801.0,0.0,0.0,0.0
19:37:12.192000,-1748.0,-1481.0,-630.0,196.0,737.0,-783.0,0.0,0.0,0.0
19:37:12.196000,-1877.0,-1589.0,-689.0,196.0,737.0,-783.0,0.0,0.0,0.0
19:37:12.201000,-2006.0,-1692.0,-744.0,148.0,717.0,-770.0,0.0,0.0,0.0
19:37:12.206000,-2006.0,-1692.0,-744.0,148.0,717.0,-770.0,0.0,0.0,0.0
19:37:12.211000,-2130.0,-1780.0,-806.0,106.0,725.0,-745.0,0.0,0.0,0.0
19:37:12.215000,-2258.0,-1855.0,-880.0,106.0,725.0,-745.0,0.0,0.0,0.0
19:37:12.220000,-2388.0,-1915.0,-960.0,20.0,780.0,-695.0,0.0,0.0,0.0
19:37:12.225000,-2523.0,-1966.0,-1036.0,20.0,780.0,-695.0,0.0,0.0,0.0
19:37:12.229000,-2659.0,-2012.0,-1101.0,-89.0,828.0,-625.0,0.0,0.0,0.0
19:37:12.234000,-2783.0,-2051.0,-1148.0,-89.0,828.0,-625.0,0.0,0.0,0.0
19:37:12.238000,-2892.0,-2094.0,-1182.0,-187.0,803.0,-572.0,0.0,0.0,0.0
19:37:12.243000,-2985.0,-2140.0,-1211.0,-187.0,803.0,-572.0,0.0,0.0,0.0
19:37:12.248000,-3063.0,-2193.0,-1229.0,-281.0,741.0,-550.0,0.0,0.0,0.0
19:37:12.253000,-3127.0,-2259.0,-1238.0,-281.0,741.0,-550.0,0.0,0.0,0.0
19:37:12.258000,-3174.0,-2337.0,-1227.0,-340.0,635.0,-538.0,0.0,0.0,0.0
19:37:12.262000,-3201.0,-2424.0,-1196.0,-340.0,635.0,-538.0,0.0,0.0,0.0
19:37:12.267000,-3214.0,-2511.0,-1163.0,-340.0,635.0,-538.0,0.0,0.0,0.0
19:37:12.272000,-3219.0,-2596.0,-1130.0,-351.0,440.0,-532.0,0.0,0.0,0.0
19:37:12.276000,-3225.0,-2675.0,-1086.0,-351.0,440.0,-532.0,0.0,0.0,0.0
19:37:12.281000,-3234.0,-2748.0,-1030.0,-308.0,219.0,-522.0,0.0,0.0,0.0
19:37:12.286000,-3236.0,-2818.0,-981.0,-308.0,219.0,-522.0,0.0,0.0,0.0
19:37:12.290000,-3228.0,-2881.0,-954.0,-242.0,41.0,-490.0,0.0,0.0,0.0
19:37:12.295000,-3217.0,-2926.0,-950.0,-242.0,41.0,-490.0,0.0,0.0,0.0
19:37:12.300000,-3189.0,-2959.0,-955.0,-255.0,-74.0,-442.0,0.0,0.0,0.0
19:37:12.305000,-3159.0,-2983.0,-948.0,-255.0,-74.0,-442.0,0.0,0.0,0.0
19:37:12.309000,-3121.0,-3012.0,-943.0,-353.0,-162.0,-378.0,0.0,0.0,0.0
19:37:12.314000,-3121.0,-3012.0,-943.0,-353.0,-162.0,-378.0,0.0,0.0,0.0
19:37:12.319000,-3087.0,-3025.0,-952.0,-567.0,-230.0,-290.0,0.0,0.0,0.0
19:37:12.323000,-3083.0,-3035.0,-968.0,-567.0,-230.0,-290.0,0.0,0.0,0.0
19:37:12.328000,-3109.0,-3079.0,-1009.0,-1037.0,-314.0,-146.0,0.0,0.0,0.0
19:37:12.333000,-3130.0,-3106.0,-1046.0,-1037.0,-314.0,-146.0,0.0,0.0,0.0
19:37:12.337000,-2965.0,-3147.0,-717.0,-1734.0,-566.0,-115.0,0.0,0.0,0.0
19:37:12.342000,-3032.0,-3076.0,204.0,-1734.0,-566.0,-115.0,0.0,0.0,0.0
19:37:12.347000,-2909.0,-3088.0,35.0,-1752.0,-544.0,-218.0,0.0,0.0,0.0
19:37:12.352000,-2761.0,-2891.0,-1514.0,-1752.0,-544.0,-218.0,0.0,0.0,0.0
19:37:12.356000,-2835.0,-2753.0,-2001.0,-535.0,-321.0,-195.0,0.0,0.0,0.0
19:37:12.361000,-2890.0,-2694.0,-1570.0,-535.0,-321.0,-195.0,0.0,0.0,0.0
19:37:12.366000,-2917.0,-2625.0,-1095.0,87.0,-458.0,-102.0,0.0,0.0,0.0
19:37:12.370000,-2893.0,-2567.0,-970.0,87.0,-458.0,-102.0,0.0,0.0,0.0
19:37:12.375000,-2683.0,-2551.0,-1101.0,87.0,-666.0,-102.0,0.0,0.0,0.0
19:37:12.380000,-2519.0,-2520.0,-1160.0,-619.0,-666.0,-123.0,0.0,0.0,0.0
19:37:12.384000,-2372.0,-2515.0,-1085.0,-619.0,-666.0,-123.0,0.0,0.0,0.0
19:37:12.389000,-2174.0,-2531.0,-1106.0,-1270.0,-867.0,-215.0,0.0,0.0,0.0
19:37:12.394000,-2085.0,-2522.0,-1063.0,-1270.0,-867.0,-215.0,0.0,0.0,0.0
19:37:12.399000,-1994.0,-2521.0,-976.0,-1368.0,-981.0,-285.0,0.0,0.0,0.0
19:37:12.403000,-1862.0,-2520.0,-952.0,-1368.0,-981.0,-285.0,0.0,0.0,0.0
19:37:12.408000,-1743.0,-2510.0,-991.0,-1073.0,-910.0,-330.0,0.0,0.0,0.0
19:37:12.413000,-1640.0,-2482.0,-1052.0,-1073.0,-910.0,-330.0,0.0,0.0,0.0
19:37:12.417000,-1517.0,-2469.0,-1061.0,-754.0,-813.0,-314.0,0.0,0.0,0.0
19:37:12.422000,-1517.0,-2469.0,-1061.0,-754.0,-813.0,-314.0,0.0,0.0,0.0
19:37:12.427000,-1408.0,-2450.0,-1044.0,-671.0,-698.0,-234.0,0.0,0.0,0.0
19:37:12.431000,-1327.0,-2422.0,-1007.0,-671.0,-698.0,-234.0,0.0,0.0,0.0
19:37:12.436000,-1269.0,-2377.0,-962.0,-775.0,-588.0,-131.0,0.0,0.0,0.0
19:37:12.441000,-1257.0,-2312.0,-917.0,-775.0,-588.0,-131.0,0.0,0.0,0.0
19:37:12.446000,-1173.0,-2247.0,-930.0,-896.0,-449.0,-63.0,0.0,0.0,0.0
19:37:12.450000,-1150.0,-2164.0,-925.0,-896.0,-449.0,-63.0,0.0,0.0,0.0
19:37:12.455000,-1142.0,-2081.0,-870.0,-982.0,-297.0,-13.0,0.0,0.0,0.0
19:37:12.460000,-1143.0,-1999.0,-792.0,-982.0,-297.0,-13.0,0.0,0.0,0.0
19:37:12.464000,-1157.0,-1904.0,-723.0,-1095.0,-243.0,25.0,0.0,0.0,0.0
19:37:12.469000,-1042.0,-1831.0,-700.0,-1095.0,-243.0,25.0,0.0,0.0,0.0
19:37:12.473000,-1027.0,-1746.0,-616.0,-1202.0,-305.0,40.0,0.0,0.0,0.0
19:37:12.478000,-987.0,-1663.0,-511.0,-1202.0,-305.0,40.0,0.0,0.0,0.0
19:37:12.483000,-905.0,-1582.0,-464.0,-1260.0,-401.0,41.0,0.0,0.0,0.0
19:37:12.488000,-826.0,-1495.0,-452.0,-1260.0,-401.0,41.0,0.0,0.0,0.0
19:37:12.493000,-742.0,-1421.0,-434.0,-1260.0,-401.0,41.0,0.0,0.0,0.0
19:37:12.497000,-679.0,-1341.0,-378.0,-1245.0,-460.0,40.0,0.0,0.0,0.0
19:37:12.502000,-602.0,-1271.0,-319.0,-1245.0,-460.0,40.0,0.0,0.0,0.0
19:37:12.507000,-500.0,-1222.0,-301.0,-1216.0,-506.0,65.0,0.0,0.0,0.0
19:37:12.511000,-432.0,-1150.0,-341.0,-1216.0,-506.0,65.0,0.0,0.0,0.0
19:37:12.516000,-326.0,-1023.0,-320.0,-1392.0,-693.0,149.0,0.0,0.0,0.0
19:37:12.521000,-218.0,-973.0,-272.0,-1392.0,-693.0,149.0,0.0,0.0,0.0
19:37:12.525000,-234.0,-903.0,-308.0,-1275.0,-556.0,233.0,0.0,0.0,0.0
19:37:12.530000,-213.0,-853.0,-336.0,-1275.0,-556.0,233.0,0.0,0.0,0.0
19:37:12.534000,-213.0,-853.0,-336.0,-996.0,-284.0,284.0,0.0,0.0,0.0
19:37:12.540000,-163.0,-804.0,-324.0,-996.0,-284.0,284.0,0.0,0.0,0.0
19:37:12.544000,-123.0,-754.0,-281.0,-1097.0,-372.0,318.0,0.0,0.0,0.0
19:37:12.549000,-116.0,-695.0,-230.0,-1097.0,-372.0,318.0,0.0,0.0,0.0
19:37:12.554000,-84.0,-645.0,-188.0,-1291.0,-381.0,326.0,0.0,0.0,0.0
19:37:12.558000,-81.0,-595.0,-144.0,-1291.0,-381.0,326.0,0.0,0.0,0.0
19:37:12.563000,-83.0,-548.0,-139.0,-1401.0,-318.0,342.0,0.0,0.0,0.0
19:37:12.568000,-89.0,-503.0,-208.0,-1401.0,-318.0,342.0,0.0,0.0,0.0
19:37:12.572000,-104.0,-448.0,-296.0,-1326.0,-300.0,357.0,0.0,0.0,0.0
19:37:12.577000,-110.0,-396.0,-375.0,-1326.0,-300.0,357.0,0.0,0.0,0.0
19:37:12.582000,-147.0,-347.0,-438.0,-1177.0,-249.0,373.0,0.0,0.0,0.0
19:37:12.587000,-188.0,-298.0,-468.0,-1177.0,-249.0,373.0,0.0,0.0,0.0
19:37:12.591000,-219.0,-252.0,-450.0,-1140.0,-211.0,381.0,0.0,0.0,0.0
19:37:12.596000,-225.0,-202.0,-459.0,-1140.0,-211.0,381.0,0.0,0.0,0.0
19:37:12.601000,-238.0,-155.0,-525.0,-1140.0,-211.0,381.0,0.0,0.0,0.0
19:37:12.605000,-248.0,-107.0,-607.0,-1218.0,-198.0,371.0,0.0,0.0,0.0
19:37:12.610000,-259.0,-62.0,-644.0,-1218.0,-198.0,371.0,0.0,0.0,0.0
19:37:12.615000,-259.0,-28.0,-654.0,-1217.0,-206.0,360.0,0.0,0.0,0.0
19:37:12.619000,-273.0,2.0,-655.0,-1217.0,-206.0,360.0,0.0,0.0,0.0
19:37:12.624000,-291.0,33.0,-650.0,-1105.0,-238.0,355.0,0.0,0.0,0.0
19:37:12.629000,-292.0,58.0,-617.0,-1105.0,-238.0,355.0,0.0,0.0,0.0
19:37:12.634000,-315.0,76.0,-578.0,-1038.0,-250.0,343.0,0.0,0.0,0.0
19:37:12.638000,-334.0,83.0,-557.0,-1038.0,-250.0,343.0,0.0,0.0,0.0
19:37:12.643000,-334.0,83.0,-557.0,-1041.0,-199.0,325.0,0.0,0.0,0.0
19:37:12.648000,-338.0,83.0,-587.0,-1041.0,-199.0,325.0,0.0,0.0,0.0
19:37:12.652000,-352.0,83.0,-606.0,-1003.0,-117.0,322.0,0.0,0.0,0.0
19:37:12.657000,-383.0,85.0,-576.0,-1003.0,-117.0,322.0,0.0,0.0,0.0
19:37:12.662000,-433.0,75.0,-492.0,-966.0,-172.0,338.0,0.0,0.0,0.0
19:37:12.666000,-469.0,71.0,-435.0,-966.0,-172.0,338.0,0.0,0.0,0.0
19:37:12.671000,-479.0,76.0,-464.0,-996.0,-185.0,345.0,0.0,0.0,0.0
19:37:12.676000,-515.0,69.0,-470.0,-996.0,-185.0,345.0,0.0,0.0,0.0
19:37:12.681000,-549.0,61.0,-425.0,-998.0,-179.0,344.0,0.0,0.0,0.0
19:37:12.685000,-543.0,58.0,-424.0,-998.0,-179.0,344.0,0.0,0.0,0.0
19:37:12.690000,-550.0,56.0,-459.0,-1004.0,-259.0,350.0,0.0,0.0,0.0
19:37:12.695000,-559.0,53.0,-455.0,-1004.0,-259.0,350.0,0.0,0.0,0.0
19:37:12.699000,-554.0,45.0,-445.0,-997.0,-259.0,353.0,0.0,0.0,0.0
19:37:12.704000,-541.0,42.0,-441.0,-997.0,-259.0,353.0,0.0,0.0,0.0
19:37:12.709000,-521.0,37.0,-445.0,-950.0,-266.0,354.0,0.0,0.0,0.0
19:37:12.713000,-477.0,37.0,-464.0,-950.0,-266.0,354.0,0.0,0.0,0.0
19:37:12.718000,-429.0,31.0,-459.0,-950.0,-266.0,354.0,0.0,0.0,0.0
19:37:12.723000,-380.0,19.0,-438.0,-939.0,-321.0,344.0,0.0,0.0,0.0
19:37:12.728000,-350.0,1.0,-440.0,-939.0,-321.0,344.0,0.0,0.0,0.0
19:37:12.732000,-326.0,-12.0,-457.0,-954.0,-311.0,334.0,0.0,0.0,0.0
19:37:12.737000,-292.0,-32.0,-468.0,-954.0,-311.0,334.0,0.0,0.0,0.0
19:37:12.742000,-257.0,-57.0,-471.0,-973.0,-231.0,323.0,0.0,0.0,0.0
19:37:12.746000,-223.0,-74.0,-459.0,-973.0,-231.0,323.0,0.0,0.0,0.0
19:37:12.751000,-223.0,-74.0,-459.0,-987.0,-145.0,311.0,0.0,0.0,0.0
19:37:12.756000,-198.0,-93.0,-407.0,-987.0,-145.0,311.0,0.0,0.0,0.0
19:37:12.760000,-196.0,-116.0,-334.0,-990.0,-79.0,318.0,0.0,0.0,0.0
19:37:12.765000,-210.0,-135.0,-278.0,-990.0,-79.0,318.0,0.0,0.0,0.0
19:37:12.770000,-197.0,-149.0,-245.0,-989.0,-51.0,320.0,0.0,0.0,0.0
19:37:12.775000,-173.0,-165.0,-226.0,-989.0,-51.0,320.0,0.0,0.0,0.0
19:37:12.779000,-170.0,-177.0,-183.0,-983.0,-12.0,315.0,0.0,0.0,0.0
19:37:12.784000,-182.0,-187.0,-127.0,-983.0,-12.0,315.0,0.0,0.0,0.0
19:37:12.789000,-195.0,-189.0,-76.0,-1005.0,30.0,320.0,0.0,0.0,0.0
19:37:12.793000,-205.0,-188.0,-46.0,-1005.0,30.0,320.0,0.0,0.0,0.0
19:37:12.798000,-204.0,-183.0,-16.0,-1040.0,46.0,321.0,0.0,0.0,0.0
19:37:12.803000,-202.0,-176.0,9.0,-1040.0,46.0,321.0,0.0,0.0,0.0
19:37:12.807000,-209.0,-167.0,39.0,-1033.0,15.0,322.0,0.0,0.0,0.0
19:37:12.812000,-199.0,-154.0,74.0,-1033.0,15.0,322.0,0.0,0.0,0.0
19:37:12.817000,-168.0,-140.0,90.0,-1033.0,15.0,322.0,0.0,0.0,0.0
19:37:12.822000,-128.0,-130.0,83.0,-994.0,-40.0,316.0,0.0,0.0,0.0
19:37:12.826000,-100.0,-120.0,89.0,-994.0,-40.0,316.0,0.0,0.0,0.0
19:37:12.831000,-67.0,-105.0,105.0,-934.0,-62.0,313.0,0.0,0.0,0.0
19:37:12.836000,-30.0,-84.0,107.0,-934.0,-62.0,313.0,0.0,0.0,0.0
19:37:12.840000,7.0,-56.0,102.0,-894.0,-59.0,315.0,0.0,0.0,0.0
19:37:12.845000,49.0,-25.0,122.0,-894.0,-59.0,315.0,0.0,0.0,0.0
19:37:12.850000,87.0,8.0,149.0,-891.0,-59.0,315.0,0.0,0.0,0.0
19:37:12.854000,125.0,49.0,173.0,-891.0,-59.0,315.0,0.0,0.0,0.0
19:37:12.859000,161.0,90.0,221.0,-890.0,-61.0,321.0,0.0,0.0,0.0
19:37:12.864000,161.0,90.0,221.0,-890.0,-61.0,321.0,0.0,0.0,0.0
19:37:12.869000,206.0,138.0,301.0,-882.0,-64.0,328.0,0.0,0.0,0.0
19:37:12.873000,247.0,192.0,382.0,-882.0,-64.0,328.0,0.0,0.0,0.0
19:37:12.878000,284.0,254.0,457.0,-888.0,-67.0,334.0,0.0,0.0,0.0
19:37:12.883000,326.0,322.0,508.0,-888.0,-67.0,334.0,0.0,0.0,0.0
19:37:12.887000,375.0,394.0,533.0,-902.0,-25.0,341.0,0.0,0.0,0.0
19:37:12.892000,412.0,469.0,575.0,-902.0,-25.0,341.0,0.0,0.0,0.0
19:37:12.897000,427.0,541.0,666.0,-894.0,-5.0,360.0,0.0,0.0,0.0
19:37:12.901000,466.0,617.0,749.0,-894.0,-5.0,360.0,0.0,0.0,0.0
19:37:12.906000,522.0,695.0,790.0,-896.0,-31.0,377.0,0.0,0.0,0.0
19:37:12.911000,588.0,771.0,813.0,-896.0,-31.0,377.0,0.0,0.0,0.0
19:37:12.916000,650.0,847.0,849.0,-886.0,-66.0,387.0,0.0,0.0,0.0
19:37:12.920000,715.0,923.0,897.0,-886.0,-66.0,387.0,0.0,0.0,0.0
19:37:12.925000,799.0,999.0,944.0,-886.0,-66.0,387.0,0.0,0.0,0.0
19:37:12.930000,871.0,1074.0,987.0,-863.0,-107.0,393.0,0.0,0.0,0.0
19:37:12.934000,950.0,1150.0,1034.0,-863.0,-107.0,393.0,0.0,0.0,0.0
19:37:12.939000,1035.0,1228.0,1067.0,-882.0,-124.0,390.0,0.0,0.0,0.0
19:37:12.943000,1105.0,1313.0,1102.0,-882.0,-124.0,390.0,0.0,0.0,0.0
19:37:12.948000,1176.0,1400.0,1164.0,-931.0,-128.0,385.0,0.0,0.0,0.0
19:37:12.953000,1256.0,1489.0,1231.0,-931.0,-128.0,385.0,0.0,0.0,0.0
19:37:12.958000,1334.0,1580.0,1267.0,-988.0,-118.0,376.0,0.0,0.0,0.0
19:37:12.963000,1397.0,1662.0,1278.0,-988.0,-118.0,376.0,0.0,0.0,0.0
19:37:12.967000,1414.0,1730.0,1313.0,-1036.0,-93.0,386.0,0.0,0.0,0.0
19:37:12.972000,1414.0,1730.0,1313.0,-1036.0,-93.0,386.0,0.0,0.0,0.0
19:37:12.977000,1481.0,1818.0,1361.0,-1048.0,-96.0,386.0,0.0,0.0,0.0
19:37:12.981000,1537.0,1890.0,1399.0,-1048.0,-96.0,386.0,0.0,0.0,0.0
19:37:12.986000,1606.0,1950.0,1424.0,-1025.0,-128.0,376.0,0.0,0.0,0.0
