hh:mm:ss.ms,gyroX[mdps],gyroY[mdps],gyroZ[mdps],accX[mg],accY[mg],accZ[mg],magX[mG],magY[mG],magZ[mG]
19:36:54.027000,-1869.0,-2049.0,-1757.0,-947.0,49.0,279.0,0.0,0.0,0.0
19:36:54.032000,-1871.0,-2147.0,-1705.0,-715.0,136.0,341.0,0.0,0.0,0.0
19:36:54.037000,-1885.0,-2236.0,-1628.0,-715.0,136.0,341.0,0.0,0.0,0.0
19:36:54.042000,-1885.0,-2236.0,-1628.0,-558.0,224.0,436.0,0.0,0.0,0.0
19:36:54.046000,-1936.0,-2334.0,-1578.0,-558.0,224.0,436.0,0.0,0.0,0.0
19:36:54.051000,-2033.0,-2387.0,-1575.0,-448.0,380.0,523.0,0.0,0.0,0.0
19:36:54.055000,-2028.0,-2431.0,-1465.0,-448.0,380.0,523.0,0.0,0.0,0.0
19:36:54.060000,-2126.0,-2480.0,-1302.0,-449.0,437.0,592.0,0.0,0.0,0.0
19:36:54.065000,-2185.0,-2537.0,-1150.0,-449.0,437.0,592.0,0.0,0.0,0.0
19:36:54.070000,-2213.0,-2551.0,-1064.0,-523.0,475.0,633.0,0.0,0.0,0.0
19:36:54.074000,-2292.0,-2573.0,-1010.0,-523.0,475.0,633.0,0.0,0.0,0.0
19:36:54.079000,-2349.0,-2593.0,-934.0,-489.0,542.0,689.0,0.0,0.0,0.0
19:36:54.084000,-2430.0,-2607.0,-815.0,-489.0,542.0,689.0,0.0,0.0,0.0
19:36:54.089000,-2482.0,-2612.0,-705.0,-479.0,543.0,767.0,0.0,0.0,0.0
19:36:54.093000,-2513.0,-2601.0,-665.0,-479.0,543.0,767.0,0.0,0.0,0.0
19:36:54.098000,-2520.0,-2576.0,-630.0,-494.0,489.0,805.0,0.0,0.0,0.0
19:36:54.103000,-2515.0,-2543.0,-588.0,-494.0,489.0,805.0,0.0,0.0,0.0
19:36:54.107000,-2503.0,-2505.0,-575.0,-493.0,481.0,826.0,0.0,0.0,0.0
19:36:54.112000,-2462.0,-2473.0,-573.0,-493.0,481.0,826.0,0.0,0.0,0.0
19:36:54.117000,-2395.0,-2415.0,-556.0,-493.0,481.0,826.0,0.0,0.0,0.0
19:36:54.121000,-2322.0,-2349.0,-534.0,-523.0,503.0,842.0,0.0,0.0,0.0
19:36:54.126000,-2256.0,-2291.0,-513.0,-523.0,503.0,842.0,0.0,0.0,0.0
19:36:54.131000,-2167.0,-2233.0,-494.0,-609.0,429.0,848.0,0.0,0.0,0.0
19:36:54.136000,-2041.0,-2163.0,-483.0,-609.0,429.0,848.0,0.0,0.0,0.0
19:36:54.140000,-1908.0,-2070.0,-465.0,-655.0,325.0,832.0,0.0,0.0,0.0
19:36:54.145000,-1796.0,-1978.0,-457.0,-655.0,325.0,832.0,0.0,0.0,0.0
19:36:54.149000,-1796.0,-1978.0,-457.0,-623.0,345.0,785.0,0.0,0.0,0.0
19:36:54.154000,-1684.0,-1887.0,-443.0,-623.0,345.0,785.0,0.0,0.0,0.0
19:36:54.159000,-1570.0,-1799.0,-381.0,-578.0,450.0,745.0,0.0,0.0,0.0
19:36:54.164000,-1460.0,-1706.0,-298.0,-578.0,450.0,745.0,0.0,0.0,0.0
19:36:54.168000,-1347.0,-1617.0,-228.0,-573.0,478.0,712.0,0.0,0.0,0.0
19:36:54.173000,-1234.0,-1515.0,-181.0,-573.0,478.0,712.0,0.0,0.0,0.0
19:36:54.178000,-1127.0,-1400.0,-136.0,-626.0,488.0,652.0,0.0,0.0,0.0
19:36:54.183000,-1033.0,-1275.0,-71.0,-626.0,488.0,652.0,0.0,0.0,0.0
19:36:54.187000,-956.0,-1135.0,33.0,-722.0,561.0,583.0,0.0,0.0,0.0
19:36:54.192000,-907.0,-1003.0,151.0,-722.0,561.0,583.0,0.0,0.0,0.0
19:36:54.197000,-893.0,-878.0,240.0,-846.0,666.0,563.0,0.0,0.0,0.0
19:36:54.201000,-914.0,-778.0,319.0,-846.0,666.0,563.0,0.0,0.0,0.0
19:36:54.206000,-934.0,-686.0,414.0,-864.0,733.0,584.0,0.0,0.0,0.0
19:36:54.210000,-963.0,-600.0,497.0,-864.0,733.0,584.0,0.0,0.0,0.0
19:36:54.215000,-999.0,-525.0,525.0,-864.0,733.0,584.0,0.0,0.0,0.0
19:36:54.220000,-1046.0,-465.0,489.0,-738.0,741.0,593.0,0.0,0.0,0.0
19:36:54.225000,-1099.0,-418.0,436.0,-738.0,741.0,593.0,0.0,0.0,0.0
19:36:54.230000,-1152.0,-392.0,393.0,-566.0,772.0,581.0,0.0,0.0,0.0
19:36:54.234000,-1199.0,-375.0,343.0,-566.0,772.0,581.0,0.0,0.0,0.0
19:36:54.239000,-1225.0,-357.0,252.0,-430.0,788.0,547.0,0.0,0.0,0.0
19:36:54.244000,-1233.0,-347.0,133.0,-430.0,788.0,547.0,0.0,0.0,0.0
19:36:54.248000,-1236.0,-359.0,44.0,-406.0,722.0,489.0,0.0,0.0,0.0
19:36:54.253000,-1222.0,-375.0,-18.0,-406.0,722.0,489.0,0.0,0.0,0.0
19:36:54.258000,-1222.0,-375.0,-18.0,-391.0,614.0,416.0,0.0,0.0,0.0
19:36:54.262000,-1182.0,-389.0,-37.0,-391.0,614.0,416.0,0.0,0.0,0.0
19:36:54.267000,-1141.0,-408.0,-42.0,-376.0,514.0,336.0,0.0,0.0,0.0
19:36:54.272000,-1082.0,-420.0,-75.0,-376.0,514.0,336.0,0.0,0.0,0.0
19:36:54.277000,-1010.0,-424.0,-144.0,-414.0,546.0,259.0,0.0,0.0,0.0
19:36:54.281000,-955.0,-434.0,-240.0,-414.0,546.0,259.0,0.0,0.0,0.0
19:36:54.286000,-923.0,-444.0,-330.0,-454.0,643.0,213.0,0.0,0.0,0.0
19:36:54.291000,-884.0,-445.0,-320.0,-454.0,643.0,213.0,0.0,0.0,0.0
19:36:54.295000,-828.0,-448.0,-267.0,-504.0,633.0,190.0,0.0,0.0,0.0
19:36:54.300000,-779.0,-458.0,-220.0,-504.0,633.0,190.0,0.0,0.0,0.0
19:36:54.305000,-739.0,-468.0,-192.0,-480.0,631.0,186.0,0.0,0.0,0.0
19:36:54.309000,-699.0,-464.0,-180.0,-480.0,631.0,186.0,0.0,0.0,0.0
19:36:54.314000,-655.0,-463.0,-177.0,-457.0,653.0,201.0,0.0,0.0,0.0
19:36:54.319000,-622.0,-459.0,-167.0,-457.0,653.0,201.0,0.0,0.0,0.0
19:36:54.324000,-596.0,-456.0,-123.0,-457.0,653.0,201.0,0.0,0.0,0.0
19:36:54.328000,-580.0,-452.0,-52.0,-457.0,656.0,216.0,0.0,0.0,0.0
19:36:54.333000,-567.0,-443.0,9.0,-387.0,714.0,239.0,0.0,0.0,0.0
19:36:54.338000,-554.0,-423.0,23.0,-387.0,714.0,239.0,0.0,0.0,0.0
19:36:54.342000,-535.0,-398.0,-3.0,-387.0,714.0,239.0,0.0,0.0,0.0
19:36:54.347000,-525.0,-373.0,-21.0,-357.0,804.0,259.0,0.0,0.0,0.0
19:36:54.352000,-558.0,-354.0,46.0,-357.0,804.0,259.0,0.0,0.0,0.0
19:36:54.356000,-602.0,-326.0,114.0,-354.0,795.0,289.0,0.0,0.0,0.0
19:36:54.361000,-636.0,-324.0,55.0,-354.0,795.0,289.0,0.0,0.0,0.0
19:36:54.366000,-645.0,-303.0,23.0,-382.0,764.0,309.0,0.0,0.0,0.0
19:36:54.371000,-645.0,-303.0,23.0,-382.0,764.0,309.0,0.0,0.0,0.0
19:36:54.375000,-660.0,-274.0,28.0,-477.0,798.0,298.0,0.0,0.0,0.0
19:36:54.380000,-662.0,-257.0,-21.0,-477.0,798.0,298.0,0.0,0.0,0.0
19:36:54.384000,-686.0,-255.0,-89.0,-422.0,866.0,303.0,0.0,0.0,0.0
19:36:54.389000,-697.0,-257.0,-141.0,-422.0,866.0,303.0,0.0,0.0,0.0
19:36:54.394000,-691.0,-260.0,-145.0,-251.0,893.0,325.0,0.0,0.0,0.0
19:36:54.399000,-677.0,-252.0,-98.0,-251.0,893.0,325.0,0.0,0.0,0.0
19:36:54.403000,-678.0,-246.0,-25.0,-267.0,826.0,340.0,0.0,0.0,0.0
19:36:54.408000,-700.0,-241.0,25.0,-267.0,826.0,340.0,0.0,0.0,0.0
19:36:54.413000,-728.0,-236.0,13.0,-413.0,818.0,346.0,0.0,0.0,0.0
19:36:54.417000,-745.0,-231.0,-12.0,-413.0,818.0,346.0,0.0,0.0,0.0
19:36:54.422000,-755.0,-222.0,35.0,-422.0,841.0,333.0,0.0,0.0,0.0
19:36:54.427000,-759.0,-221.0,111.0,-422.0,841.0,333.0,0.0,0.0,0.0
19:36:54.432000,-764.0,-232.0,128.0,-422.0,841.0,333.0,0.0,0.0,0.0
19:36:54.436000,-760.0,-246.0,82.0,-387.0,820.0,330.0,0.0,0.0,0.0
19:36:54.441000,-732.0,-261.0,30.0,-387.0,820.0,330.0,0.0,0.0,0.0
19:36:54.446000,-702.0,-285.0,28.0,-402.0,759.0,344.0,0.0,0.0,0.0
19:36:54.450000,-662.0,-296.0,46.0,-402.0,759.0,344.0,0.0,0.0,0.0
19:36:54.455000,-607.0,-311.0,38.0,-400.0,660.0,352.0,0.0,0.0,0.0
19:36:54.460000,-553.0,-324.0,-6.0,-400.0,660.0,352.0,0.0,0.0,0.0
19:36:54.464000,-498.0,-338.0,-73.0,-402.0,630.0,363.0,0.0,0.0,0.0
19:36:54.469000,-443.0,-352.0,-140.0,-402.0,630.0,363.0,0.0,0.0,0.0
19:36:54.474000,-391.0,-364.0,-186.0,-367.0,638.0,377.0,0.0,0.0,0.0
19:36:54.479000,-391.0,-364.0,-186.0,-367.0,638.0,377.0,0.0,0.0,0.0
19:36:54.483000,-347.0,-372.0,-218.0,-326.0,634.0,383.0,0.0,0.0,0.0
19:36:54.488000,-307.0,-374.0,-264.0,-326.0,634.0,383.0,0.0,0.0,0.0
19:36:54.493000,-275.0,-368.0,-358.0,-337.0,691.0,375.0,0.0,0.0,0.0
19:36:54.497000,-260.0,-364.0,-431.0,-337.0,691.0,375.0,0.0,0.0,0.0
19:36:54.502000,-254.0,-355.0,-470.0,-360.0,771.0,366.0,0.0,0.0,0.0
19:36:54.507000,-248.0,-345.0,-499.0,-360.0,771.0,366.0,0.0,0.0,0.0
19:36:54.511000,-249.0,-334.0,-533.0,-341.0,809.0,353.0,0.0,0.0,0.0
19:36:54.516000,-259.0,-324.0,-567.0,-341.0,809.0,353.0,0.0,0.0,0.0
19:36:54.521000,-256.0,-318.0,-609.0,-316.0,849.0,339.0,0.0,0.0,0.0
19:36:54.526000,-247.0,-312.0,-647.0,-316.0,849.0,339.0,0.0,0.0,0.0
19:36:54.530000,-235.0,-305.0,-661.0,-302.0,876.0,331.0,0.0,0.0,0.0
19:36:54.535000,-221.0,-300.0,-658.0,-302.0,876.0,331.0,0.0,0.0,0.0
19:36:54.540000,-201.0,-289.0,-650.0,-302.0,876.0,331.0,0.0,0.0,0.0
19:36:54.544000,-183.0,-277.0,-630.0,-275.0,886.0,319.0,0.0,0.0,0.0
19:36:54.549000,-168.0,-265.0,-612.0,-275.0,886.0,319.0,0.0,0.0,0.0
19:36:54.554000,-163.0,-265.0,-601.0,-257.0,941.0,313.0,0.0,0.0,0.0
19:36:54.558000,-158.0,-261.0,-571.0,-257.0,941.0,313.0,0.0,0.0,0.0
19:36:54.563000,-146.0,-257.0,-516.0,-254.0,985.0,317.0,0.0,0.0,0.0
19:36:54.568000,-130.0,-250.0,-462.0,-254.0,985.0,317.0,0.0,0.0,0.0
19:36:54.573000,-108.0,-236.0,-413.0,-238.0,968.0,326.0,0.0,0.0,0.0
19:36:54.577000,-82.0,-219.0,-366.0,-238.0,968.0,326.0,0.0,0.0,0.0
19:36:54.582000,-65.0,-207.0,-325.0,-205.0,923.0,336.0,0.0,0.0,0.0
19:36:54.587000,-65.0,-207.0,-325.0,-205.0,923.0,336.0,0.0,0.0,0.0
19:36:54.591000,-46.0,-204.0,-294.0,-162.0,900.0,352.0,0.0,0.0,0.0
19:36:54.596000,-31.0,-203.0,-259.0,-162.0,900.0,352.0,0.0,0.0,0.0
19:36:54.601000,-19.0,-203.0,-216.0,-94.0,896.0,366.0,0.0,0.0,0.0
19:36:54.605000,2.0,-200.0,-164.0,-94.0,896.0,366.0,0.0,0.0,0.0
19:36:54.610000,14.0,-202.0,-127.0,-58.0,889.0,372.0,0.0,0.0,0.0
19:36:54.615000,33.0,-203.0,-116.0,-58.0,889.0,372.0,0.0,0.0,0.0
19:36:54.619000,51.0,-202.0,-129.0,-74.0,908.0,373.0,0.0,0.0,0.0
19:36:54.624000,64.0,-204.0,-147.0,-74.0,908.0,373.0,0.0,0.0,0.0
19:36:54.629000,76.0,-208.0,-152.0,-83.0,932.0,379.0,0.0,0.0,0.0
19:36:54.634000,82.0,-215.0,-144.0,-83.0,932.0,379.0,0.0,0.0,0.0
19:36:54.638000,97.0,-221.0,-137.0,-78.0,915.0,387.0,0.0,0.0,0.0
19:36:54.643000,112.0,-228.0,-136.0,-78.0,915.0,387.0,0.0,0.0,0.0
19:36:54.648000,126.0,-236.0,-140.0,-78.0,904.0,389.0,0.0,0.0,0.0
19:36:54.652000,139.0,-241.0,-163.0,-89.0,904.0,389.0,0.0,0.0,0.0
19:36:54.657000,148.0,-246.0,-189.0,-89.0,904.0,389.0,0.0,0.0,0.0
19:36:54.662000,154.0,-253.0,-198.0,-107.0,927.0,388.0,0.0,0.0,0.0
19:36:54.667000,158.0,-261.0,-204.0,-107.0,927.0,388.0,0.0,0.0,0.0
19:36:54.671000,170.0,-268.0,-203.0,-119.0,940.0,386.0,0.0,0.0,0.0
19:36:54.676000,188.0,-275.0,-200.0,-119.0,940.0,386.0,0.0,0.0,0.0
19:36:54.681000,208.0,-288.0,-204.0,-121.0,940.0,378.0,0.0,0.0,0.0
19:36:54.685000,230.0,-301.0,-205.0,-121.0,940.0,378.0,0.0,0.0,0.0
19:36:54.690000,248.0,-312.0,-196.0,-122.0,962.0,367.0,0.0,0.0,0.0
19:36:54.695000,273.0,-317.0,-171.0,-122.0,962.0,367.0,0.0,0.0,0.0
19:36:54.699000,273.0,-317.0,-171.0,-138.0,967.0,358.0,0.0,0.0,0.0
19:36:54.704000,296.0,-317.0,-138.0,-138.0,967.0,358.0,0.0,0.0,0.0
19:36:54.709000,325.0,-315.0,-127.0,-162.0,938.0,348.0,0.0,0.0,0.0
19:36:54.714000,364.0,-313.0,-133.0,-162.0,938.0,348.0,0.0,0.0,0.0
19:36:54.718000,406.0,-311.0,-125.0,-166.0,912.0,345.0,0.0,0.0,0.0
19:36:54.723000,451.0,-308.0,-101.0,-166.0,912.0,345.0,0.0,0.0,0.0
19:36:54.728000,490.0,-306.0,-61.0,-147.0,896.0,355.0,0.0,0.0,0.0
19:36:54.732000,520.0,-299.0,-8.0,-147.0,896.0,355.0,0.0,0.0,0.0
19:36:54.737000,541.0,-296.0,53.0,-143.0,925.0,378.0,0.0,0.0,0.0
19:36:54.742000,559.0,-289.0,83.0,-143.0,925.0,378.0,0.0,0.0,0.0
19:36:54.746000,574.0,-278.0,89.0,-155.0,982.0,403.0,0.0,0.0,0.0
19:36:54.751000,589.0,-269.0,102.0,-155.0,982.0,403.0,0.0,0.0,0.0
19:36:54.756000,609.0,-261.0,124.0,-158.0,995.0,423.0,0.0,0.0,0.0
19:36:54.761000,632.0,-249.0,144.0,-158.0,995.0,423.0,0.0,0.0,0.0
19:36:54.765000,664.0,-231.0,156.0,-158.0,995.0,423.0,0.0,0.0,0.0
19:36:54.770000,705.0,-207.0,168.0,-164.0,954.0,430.0,0.0,0.0,0.0
19:36:54.775000,752.0,-177.0,198.0,-164.0,954.0,430.0,0.0,0.0,0.0
19:36:54.779000,802.0,-140.0,238.0,-168.0,886.0,430.0,0.0,0.0,0.0
19:36:54.784000,854.0,-95.0,272.0,-168.0,886.0,430.0,0.0,0.0,0.0
19:36:54.789000,901.0,-44.0,301.0,-180.0,848.0,451.0,0.0,0.0,0.0
19:36:54.793000,945.0,12.0,321.0,-180.0,848.0,451.0,0.0,0.0,0.0
19:36:54.798000,991.0,77.0,329.0,-233.0,875.0,479.0,0.0,0.0,0.0
19:36:54.803000,1046.0,149.0,334.0,-233.0,875.0,479.0,0.0,0.0,0.0
19:36:54.808000,1046.0,149.0,334.0,-310.0,884.0,488.0,0.0,0.0,0.0
19:36:54.812000,1104.0,234.0,345.0,-310.0,884.0,488.0,0.0,0.0,0.0
19:36:54.817000,1167.0,333.0,365.0,-383.0,822.0,474.0,0.0,0.0,0.0
19:36:54.822000,1238.0,437.0,389.0,-383.0,822.0,474.0,0.0,0.0,0.0
19:36:54.826000,1320.0,546.0,422.0,-431.0,732.0,438.0,0.0,0.0,0.0
19:36:54.831000,1409.0,658.0,440.0,-431.0,732.0,438.0,0.0,0.0,0.0
19:36:54.836000,1507.0,769.0,432.0,-451.0,654.0,392.0,0.0,0.0,0.0
19:36:54.840000,1616.0,875.0,427.0,-451.0,654.0,392.0,0.0,0.0,0.0
19:36:54.845000,1730.0,977.0,443.0,-431.0,582.0,350.0,0.0,0.0,0.0
19:36:54.850000,1839.0,1070.0,478.0,-431.0,582.0,350.0,0.0,0.0,0.0
19:36:54.854000,1944.0,1156.0,536.0,-393.0,524.0,325.0,0.0,0.0,0.0
19:36:54.859000,2040.0,1234.0,609.0,-393.0,524.0,325.0,0.0,0.0,0.0
19:36:54.864000,2125.0,1303.0,676.0,-378.0,513.0,314.0,0.0,0.0,0.0
19:36:54.869000,2199.0,1365.0,732.0,-378.0,513.0,314.0,0.0,0.0,0.0
19:36:54.873000,2254.0,1423.0,777.0,-378.0,513.0,314.0,0.0,0.0,0.0
19:36:54.878000,2289.0,1472.0,812.0,-383.0,566.0,298.0,0.0,0.0,0.0
19:36:54.883000,2308.0,1506.0,823.0,-383.0,566.0,298.0,0.0,0.0,0.0
19:36:54.887000,2323.0,1531.0,809.0,-448.0,659.0,287.0,0.0,0.0,0.0
19:36:54.892000,2345.0,1549.0,810.0,-448.0,659.0,287.0,0.0,0.0,0.0
19:36:54.897000,2384.0,1556.0,837.0,-503.0,643.0,297.0,0.0,0.0,0.0
19:36:54.902000,2436.0,1551.0,876.0,-503.0,643.0,297.0,0.0,0.0,0.0
19:36:54.906000,2498.0,1540.0,896.0,-438.0,492.0,321.0,0.0,0.0,0.0
19:36:54.911000,2563.0,1530.0,893.0,-438.0,492.0,321.0,0.0,0.0,0.0
19:36:54.916000,2563.0,1530.0,893.0,-338.0,368.0,381.0,0.0,0.0,0.0
19:36:54.920000,2622.0,1518.0,880.0,-338.0,368.0,381.0,0.0,0.0,0.0
19:36:54.925000,2668.0,1502.0,884.0,-258.0,324.0,480.0,0.0,0.0,0.0
19:36:54.930000,2703.0,1492.0,908.0,-258.0,324.0,480.0,0.0,0.0,0.0
19:36:54.934000,2716.0,1488.0,939.0,-243.0,348.0,589.0,0.0,0.0,0.0
19:36:54.939000,2706.0,1491.0,962.0,-243.0,348.0,589.0,0.0,0.0,0.0
19:36:54.944000,2681.0,1505.0,966.0,-345.0,438.0,681.0,0.0,0.0,0.0
19:36:54.949000,2648.0,1526.0,957.0,-345.0,438.0,681.0,0.0,0.0,0.0
19:36:54.953000,2621.0,1554.0,950.0,-509.0,489.0,729.0,0.0,0.0,0.0
19:36:54.958000,2607.0,1593.0,942.0,-509.0,489.0,729.0,0.0,0.0,0.0
19:36:54.963000,2605.0,1639.0,938.0,-690.0,410.0,740.0,0.0,0.0,0.0
19:36:54.967000,2627.0,1691.0,934.0,-690.0,410.0,740.0,0.0,0.0,0.0
19:36:54.972000,2675.0,1745.0,933.0,-858.0,234.0,741.0,0.0,0.0,0.0
19:36:54.977000,2746.0,1806.0,935.0,-858.0,234.0,741.0,0.0,0.0,0.0
19:36:54.981000,2843.0,1868.0,933.0,-858.0,234.0,741.0,0.0,0.0,0.0
19:36:54.986000,2948.0,1936.0,910.0,-965.0,36.0,735.0,0.0,0.0,0.0
19:36:54.991000,3047.0,2012.0,883.0,-965.0,36.0,735.0,0.0,0.0,0.0
19:36:54.996000,3126.0,2090.0,858.0,-1022.0,-71.0,757.0,0.0,0.0,0.0
19:36:55.000000,3181.0,2167.0,840.0,-1022.0,-71.0,757.0,0.0,0.0,0.0
19:36:55.005000,3217.0,2244.0,848.0,-1093.0,-73.0,839.0,0.0,0.0,0.0
19:36:55.010000,3244.0,2326.0,875.0,-1093.0,-73.0,839.0,0.0,0.0,0.0
19:36:55.014000,3273.0,2419.0,933.0,-1170.0,-66.0,950.0,0.0,0.0,0.0
19:36:55.019000,3291.0,2494.0,984.0,-1170.0,-66.0,950.0,0.0,0.0,0.0
19:36:55.024000,3291.0,2494.0,984.0,-1206.0,0.0,1031.0,0.0,0.0,0.0
19:36:55.028000,3293.0,2556.0,996.0,-1206.0,0.0,1031.0,0.0,0.0,0.0
19:36:55.033000,3280.0,2624.0,1002.0,-1197.0,95.0,1062.0,0.0,0.0,0.0
19:36:55.038000,3273.0,2693.0,1014.0,-1197.0,95.0,1062.0,0.0,0.0,0.0
19:36:55.043000,3280.0,2760.0,1061.0,-1147.0,30.0,1061.0,0.0,0.0,0.0
19:36:55.047000,3301.0,2816.0,1110.0,-1147.0,30.0,1061.0,0.0,0.0,0.0
19:36:55.052000,3337.0,2871.0,1151.0,-1105.0,-146.0,1048.0,0.0,0.0,0.0
19:36:55.057000,3378.0,2926.0,1207.0,-1105.0,-146.0,1048.0,0.0,0.0,0.0
19:36:55.061000,3425.0,2990.0,1267.0,-1093.0,-275.0,1040.0,0.0,0.0,0.0
19:36:55.066000,3470.0,3059.0,1310.0,-1093.0,-275.0,1040.0,0.0,0.0,0.0
19:36:55.071000,3516.0,3134.0,1328.0,-1081.0,-321.0,1044.0,0.0,0.0,0.0
19:36:55.075000,3564.0,3220.0,1338.0,-1081.0,-321.0,1044.0,0.0,0.0,0.0
19:36:55.080000,3615.0,3325.0,1362.0,-1083.0,-346.0,1044.0,0.0,0.0,0.0
19:36:55.085000,3677.0,3430.0,1389.0,-1083.0,-346.0,1044.0,0.0,0.0,0.0
19:36:55.089000,3738.0,3528.0,1381.0,-1083.0,-346.0,1044.0,0.0,0.0,0.0
19:36:55.094000,3792.0,3612.0,1346.0,-1101.0,-385.0,1047.0,0.0,0.0,0.0
19:36:55.099000,3846.0,3686.0,1327.0,-1085.0,-408.0,1054.0,0.0,0.0,0.0
19:36:55.104000,3903.0,3755.0,1341.0,-1085.0,-408.0,1054.0,0.0,0.0,0.0
19:36:55.108000,3954.0,3808.0,1364.0,-1085.0,-408.0,1054.0,0.0,0.0,0.0
19:36:55.113000,3967.0,3838.0,1374.0,-1013.0,-426.0,1039.0,0.0,0.0,0.0
19:36:55.118000,3930.0,3853.0,1358.0,-1013.0,-426.0,1039.0,0.0,0.0,0.0
19:36:55.122000,3872.0,3864.0,1344.0,-963.0,-410.0,1006.0,0.0,0.0,0.0
19:36:55.127000,3805.0,3875.0,1359.0,-963.0,-410.0,1006.0,0.0,0.0,0.0
19:36:55.132000,3726.0,3888.0,1360.0,-953.0,-331.0,943.0,0.0,0.0,0.0
19:36:55.137000,3726.0,3888.0,1360.0,-953.0,-331.0,943.0,0.0,0.0,0.0
19:36:55.141000,3635.0,3898.0,1327.0,-973.0,-211.0,824.0,0.0,0.0,0.0
19:36:55.146000,3518.0,3896.0,1310.0,-973.0,-211.0,824.0,0.0,0.0,0.0
19:36:55.151000,3389.0,3880.0,1338.0,-1005.0,-145.0,681.0,0.0,0.0,0.0
19:36:55.155000,3263.0,3863.0,1360.0,-1005.0,-145.0,681.0,0.0,0.0,0.0
19:36:55.160000,3139.0,3838.0,1311.0,-1045.0,-135.0,533.0,0.0,0.0,0.0
19:36:55.165000,3042.0,3801.0,1246.0,-1045.0,-135.0,533.0,0.0,0.0,0.0
19:36:55.169000,2950.0,3759.0,1201.0,-1043.0,-155.0,376.0,0.0,0.0,0.0
19:36:55.174000,2845.0,3703.0,1145.0,-1043.0,-155.0,376.0,0.0,0.0,0.0
19:36:55.179000,2723.0,3633.0,1113.0,-933.0,-220.0,234.0,0.0,0.0,0.0
19:36:55.184000,2629.0,3552.0,1084.0,-933.0,-220.0,234.0,0.0,0.0,0.0
19:36:55.188000,2547.0,3465.0,1026.0,-783.0,-242.0,89.0,0.0,0.0,0.0
19:36:55.193000,2434.0,3367.0,974.0,-783.0,-242.0,89.0,0.0,0.0,0.0
19:36:55.198000,2319.0,3264.0,947.0,-783.0,-242.0,89.0,0.0,0.0,0.0
19:36:55.202000,2214.0,3137.0,971.0,-653.0,-266.0,-70.0,0.0,0.0,0.0
19:36:55.207000,2132.0,3019.0,1008.0,-606.0,-362.0,-271.0,0.0,0.0,0.0
19:36:55.212000,2058.0,2891.0,980.0,-606.0,-362.0,-271.0,0.0,0.0,0.0
19:36:55.216000,1973.0,2733.0,861.0,-606.0,-362.0,-271.0,0.0,0.0,0.0
19:36:55.221000,1876.0,2571.0,709.0,-537.0,-344.0,-417.0,0.0,0.0,0.0
19:36:55.226000,1748.0,2387.0,593.0,-537.0,-344.0,-417.0,0.0,0.0,0.0
19:36:55.231000,1641.0,2194.0,562.0,-394.0,-229.0,-488.0,0.0,0.0,0.0
19:36:55.235000,1535.0,1993.0,554.0,-394.0,-229.0,-488.0,0.0,0.0,0.0
19:36:55.240000,1388.0,1784.0,480.0,-291.0,-222.0,-584.0,0.0,0.0,0.0
19:36:55.245000,1388.0,1784.0,480.0,-291.0,-222.0,-584.0,0.0,0.0,0.0
19:36:55.249000,1259.0,1575.0,399.0,-182.0,-199.0,-672.0,0.0,0.0,0.0
19:36:55.254000,1121.0,1359.0,340.0,-182.0,-199.0,-672.0,0.0,0.0,0.0
19:36:55.259000,971.0,1148.0,228.0,-90.0,-119.0,-742.0,0.0,0.0,0.0
19:36:55.263000,836.0,937.0,93.0,-90.0,-119.0,-742.0,0.0,0.0,0.0
19:36:55.268000,709.0,729.0,-32.0,-102.0,-102.0,-787.0,0.0,0.0,0.0
19:36:55.273000,563.0,527.0,-154.0,-102.0,-102.0,-787.0,0.0,0.0,0.0
19:36:55.278000,449.0,337.0,-247.0,-155.0,-126.0,-814.0,0.0,0.0,0.0
19:36:55.282000,345.0,156.0,-345.0,-155.0,-126.0,-814.0,0.0,0.0,0.0
19:36:55.287000,242.0,-11.0,-472.0,-201.0,-129.0,-826.0,0.0,0.0,0.0
19:36:55.292000,143.0,-172.0,-620.0,-201.0,-129.0,-826.0,0.0,0.0,0.0
19:36:55.296000,54.0,-329.0,-747.0,-251.0,-110.0,-822.0,0.0,0.0,0.0
19:36:55.301000,-26.0,-477.0,-838.0,-251.0,-110.0,-822.0,0.0,0.0,0.0
19:36:55.306000,-101.0,-618.0,-878.0,-251.0,-110.0,-822.0,0.0,0.0,0.0
19:36:55.310000,-180.0,-753.0,-896.0,-292.0,-158.0,-813.0,0.0,0.0,0.0
19:36:55.315000,-254.0,-882.0,-907.0,-292.0,-158.0,-813.0,0.0,0.0,0.0
19:36:55.320000,-331.0,-1011.0,-937.0,-326.0,-224.0,-791.0,0.0,0.0,0.0
19:36:55.324000,-392.0,-1129.0,-998.0,-326.0,-224.0,-791.0,0.0,0.0,0.0
19:36:55.329000,-432.0,-1239.0,-1052.0,-356.0,-234.0,-757.0,0.0,0.0,0.0
19:36:55.334000,-465.0,-1340.0,-1071.0,-356.0,-234.0,-757.0,0.0,0.0,0.0
19:36:55.339000,-483.0,-1433.0,-1067.0,-378.0,-267.0,-717.0,0.0,0.0,0.0
19:36:55.343000,-499.0,-1510.0,-1078.0,-378.0,-267.0,-717.0,0.0,0.0,0.0
19:36:55.348000,-506.0,-1574.0,-1097.0,-422.0,-342.0,-671.0,0.0,0.0,0.0
19:36:55.353000,-506.0,-1574.0,-1097.0,-422.0,-342.0,-671.0,0.0,0.0,0.0
19:36:55.357000,-498.0,-1625.0,-1123.0,-493.0,-393.0,-623.0,0.0,0.0,0.0
19:36:55.362000,-485.0,-1670.0,-1145.0,-493.0,-393.0,-623.0,0.0,0.0,0.0
19:36:55.367000,-482.0,-1706.0,-1122.0,-542.0,-428.0,-572.0,0.0,0.0,0.0
19:36:55.372000,-470.0,-1737.0,-1067.0,-542.0,-428.0,-572.0,0.0,0.0,0.0
19:36:55.376000,-470.0,-1758.0,-1036.0,-591.0,-449.0,-526.0,0.0,0.0,0.0
19:36:55.381000,-479.0,-1771.0,-1042.0,-591.0,-449.0,-526.0,0.0,0.0,0.0
19:36:55.386000,-478.0,-1779.0,-1067.0,-649.0,-407.0,-491.0,0.0,0.0,0.0
19:36:55.390000,-479.0,-1777.0,-1100.0,-649.0,-407.0,-491.0,0.0,0.0,0.0
19:36:55.395000,-476.0,-1769.0,-1094.0,-694.0,-403.0,-461.0,0.0,0.0,0.0
19:36:55.400000,-462.0,-1757.0,-1077.0,-694.0,-403.0,-461.0,0.0,0.0,0.0
19:36:55.404000,-444.0,-1743.0,-1087.0,-753.0,-417.0,-434.0,0.0,0.0,0.0
19:36:55.409000,-419.0,-1726.0,-1110.0,-753.0,-417.0,-434.0,0.0,0.0,0.0
19:36:55.414000,-389.0,-1705.0,-1158.0,-753.0,-376.0,-422.0,0.0,0.0,0.0
19:36:55.419000,-362.0,-1676.0,-1232.0,-834.0,-376.0,-422.0,0.0,0.0,0.0
19:36:55.423000,-352.0,-1652.0,-1299.0,-834.0,-376.0,-422.0,0.0,0.0,0.0
19:36:55.427000,-361.0,-1631.0,-1340.0,-925.0,-292.0,-412.0,0.0,0.0,0.0
19:36:55.433000,-382.0,-1610.0,-1350.0,-925.0,-292.0,-412.0,0.0,0.0,0.0
19:36:55.437000,-405.0,-1563.0,-1360.0,-941.0,-215.0,-386.0,0.0,0.0,0.0
19:36:55.442000,-423.0,-1524.0,-1368.0,-941.0,-215.0,-386.0,0.0,0.0,0.0
19:36:55.447000,-444.0,-1504.0,-1279.0,-939.0,-213.0,-371.0,0.0,0.0,0.0
19:36:55.451000,-444.0,-1470.0,-1167.0,-939.0,-213.0,-371.0,0.0,0.0,0.0
19:36:55.456000,-458.0,-1434.0,-1149.0,-944.0,-172.0,-379.0,0.0,0.0,0.0
19:36:55.461000,-498.0,-1387.0,-1108.0,-944.0,-172.0,-379.0,0.0,0.0,0.0
19:36:55.466000,-498.0,-1387.0,-1108.0,-865.0,-81.0,-381.0,0.0,0.0,0.0
19:36:55.470000,-545.0,-1351.0,-1060.0,-865.0,-81.0,-381.0,0.0,0.0,0.0
19:36:55.475000,-560.0,-1303.0,-913.0,-797.0,-26.0,-389.0,0.0,0.0,0.0
19:36:55.480000,-587.0,-1267.0,-725.0,-797.0,-26.0,-389.0,0.0,0.0,0.0
19:36:55.484000,-650.0,-1235.0,-562.0,-878.0,-6.0,-396.0,0.0,0.0,0.0
19:36:55.489000,-648.0,-1194.0,-548.0,-878.0,-6.0,-396.0,0.0,0.0,0.0
19:36:55.494000,-626.0,-1145.0,-573.0,-1090.0,40.0,-415.0,0.0,0.0,0.0
19:36:55.498000,-653.0,-1124.0,-480.0,-1090.0,40.0,-415.0,0.0,0.0,0.0
19:36:55.503000,-678.0,-1075.0,-317.0,-1139.0,41.0,-449.0,0.0,0.0,0.0
19:36:55.508000,-679.0,-1043.0,-255.0,-1139.0,41.0,-449.0,0.0,0.0,0.0
19:36:55.513000,-661.0,-1006.0,-219.0,-1068.0,4.0,-478.0,0.0,0.0,0.0
19:36:55.517000,-640.0,-991.0,-144.0,-1068.0,4.0,-478.0,0.0,0.0,0.0
19:36:55.522000,-635.0,-975.0,-40.0,-1011.0,11.0,-500.0,0.0,0.0,0.0
19:36:55.527000,-623.0,-959.0,23.0,-1011.0,11.0,-500.0,0.0,0.0,0.0
19:36:55.531000,-595.0,-938.0,77.0,-1011.0,11.0,-500.0,0.0,0.0,0.0
19:36:55.536000,-555.0,-932.0,130.0,-954.0,-5.0,-497.0,0.0,0.0,0.0
19:36:55.541000,-493.0,-931.0,221.0,-954.0,-5.0,-497.0,0.0,0.0,0.0
19:36:55.545000,-443.0,-915.0,310.0,-960.0,-114.0,-479.0,0.0,0.0,0.0
19:36:55.550000,-389.0,-908.0,333.0,-960.0,-114.0,-479.0,0.0,0.0,0.0
19:36:55.555000,-342.0,-896.0,314.0,-959.0,-177.0,-438.0,0.0,0.0,0.0
19:36:55.559000,-342.0,-896.0,314.0,-959.0,-177.0,-438.0,0.0,0.0,0.0
19:36:55.564000,-254.0,-891.0,344.0,-949.0,-145.0,-387.0,0.0,0.0,0.0
19:36:55.569000,-206.0,-882.0,353.0,-949.0,-145.0,-387.0,0.0,0.0,0.0
19:36:55.574000,-206.0,-882.0,353.0,-950.0,-158.0,-334.0,0.0,0.0,0.0
19:36:55.578000,-164.0,-867.0,340.0,-950.0,-158.0,-334.0,0.0,0.0,0.0
19:36:55.583000,-119.0,-852.0,340.0,-981.0,-157.0,-272.0,0.0,0.0,0.0
19:36:55.588000,-92.0,-840.0,338.0,-981.0,-157.0,-272.0,0.0,0.0,0.0
19:36:55.592000,-59.0,-830.0,332.0,-1018.0,-140.0,-208.0,0.0,0.0,0.0
19:36:55.597000,-25.0,-808.0,336.0,-1018.0,-140.0,-208.0,0.0,0.0,0.0
19:36:55.602000,0.0,-793.0,340.0,-1004.0,-152.0,-156.0,0.0,0.0,0.0
19:36:55.607000,20.0,-770.0,347.0,-1004.0,-152.0,-156.0,0.0,0.0,0.0
19:36:55.611000,37.0,-746.0,323.0,-987.0,-143.0,-118.0,0.0,0.0,0.0
19:36:55.616000,41.0,-728.0,309.0,-987.0,-143.0,-118.0,0.0,0.0,0.0
19:36:55.621000,35.0,-711.0,301.0,-973.0,-113.0,-96.0,0.0,0.0,0.0
19:36:55.625000,28.0,-695.0,299.0,-973.0,-113.0,-96.0,0.0,0.0,0.0
19:36:55.630000,14.0,-687.0,290.0,-948.0,-86.0,-91.0,0.0,0.0,0.0
19:36:55.635000,0.0,-683.0,280.0,-948.0,-86.0,-91.0,0.0,0.0,0.0
19:36:55.639000,-17.0,-681.0,283.0,-948.0,-86.0,-91.0,0.0,0.0,0.0
19:36:55.644000,-26.0,-684.0,291.0,-935.0,-65.0,-110.0,0.0,0.0,0.0
19:36:55.649000,-17.0,-688.0,288.0,-920.0,-89.0,-146.0,0.0,0.0,0.0
19:36:55.654000,-9.0,-704.0,298.0,-920.0,-89.0,-146.0,0.0,0.0,0.0
19:36:55.658000,2.0,-720.0,327.0,-920.0,-89.0,-146.0,0.0,0.0,0.0
19:36:55.663000,21.0,-742.0,350.0,-901.0,-148.0,-185.0,0.0,0.0,0.0
19:36:55.668000,37.0,-772.0,365.0,-901.0,-148.0,-185.0,0.0,0.0,0.0
19:36:55.672000,50.0,-805.0,386.0,-878.0,-195.0,-219.0,0.0,0.0,0.0
19:36:55.677000,58.0,-840.0,406.0,-878.0,-195.0,-219.0,0.0,0.0,0.0
19:36:55.682000,58.0,-840.0,406.0,-840.0,-211.0,-245.0,0.0,0.0,0.0
19:36:55.686000,60.0,-879.0,417.0,-840.0,-211.0,-245.0,0.0,0.0,0.0
19:36:55.691000,59.0,-918.0,422.0,-800.0,-220.0,-258.0,0.0,0.0,0.0
19:36:55.696000,57.0,-956.0,427.0,-800.0,-220.0,-258.0,0.0,0.0,0.0
19:36:55.701000,49.0,-985.0,436.0,-797.0,-221.0,-261.0,0.0,0.0,0.0
19:36:55.705000,35.0,-1008.0,433.0,-797.0,-221.0,-261.0,0.0,0.0,0.0
19:36:55.710000,17.0,-1025.0,417.0,-840.0,-202.0,-252.0,0.0,0.0,0.0
19:36:55.715000,-11.0,-1038.0,382.0,-840.0,-202.0,-252.0,0.0,0.0,0.0
19:36:55.719000,-53.0,-1042.0,349.0,-899.0,-162.0,-221.0,0.0,0.0,0.0
19:36:55.724000,-102.0,-1039.0,318.0,-899.0,-162.0,-221.0,0.0,0.0,0.0
19:36:55.729000,-144.0,-1023.0,237.0,-980.0,-142.0,-174.0,0.0,0.0,0.0
19:36:55.733000,-175.0,-1012.0,159.0,-980.0,-142.0,-174.0,0.0,0.0,0.0
19:36:55.738000,-204.0,-1002.0,183.0,-1016.0,-167.0,-124.0,0.0,0.0,0.0
19:36:55.743000,-243.0,-973.0,206.0,-1016.0,-167.0,-124.0,0.0,0.0,0.0
19:36:55.748000,-273.0,-954.0,98.0,-1016.0,-167.0,-124.0,0.0,0.0,0.0
19:36:55.752000,-288.0,-924.0,-95.0,-1042.0,-58.0,-87.0,0.0,0.0,0.0
19:36:55.757000,-332.0,-904.0,-151.0,-1042.0,-58.0,-87.0,0.0,0.0,0.0
19:36:55.762000,-376.0,-915.0,-109.0,-1009.0,138.0,-49.0,0.0,0.0,0.0
19:36:55.766000,-412.0,-921.0,-98.0,-1009.0,138.0,-49.0,0.0,0.0,0.0
19:36:55.771000,-436.0,-929.0,-107.0,-979.0,215.0,-2.0,0.0,0.0,0.0
19:36:55.776000,-440.0,-945.0,-102.0,-979.0,215.0,-2.0,0.0,0.0,0.0
19:36:55.780000,-428.0,-975.0,-138.0,-1031.0,195.0,38.0,0.0,0.0,0.0
19:36:55.785000,-413.0,-1012.0,-161.0,-1031.0,195.0,38.0,0.0,0.0,0.0
19:36:55.790000,-413.0,-1012.0,-161.0,-983.0,120.0,79.0,0.0,0.0,0.0
19:36:55.794000,-396.0,-1042.0,-130.0,-983.0,120.0,79.0,0.0,0.0,0.0
19:36:55.799000,-374.0,-1073.0,-53.0,-956.0,75.0,163.0,0.0,0.0,0.0
19:36:55.804000,-366.0,-1124.0,170.0,-956.0,75.0,163.0,0.0,0.0,0.0
19:36:55.809000,-361.0,-1120.0,363.0,-1071.0,252.0,280.0,0.0,0.0,0.0
19:36:55.813000,-172.0,-1145.0,120.0,-1071.0,252.0,280.0,0.0,0.0,0.0
19:36:55.818000,63.0,-1193.0,-329.0,-1235.0,613.0,403.0,0.0,0.0,0.0
19:36:55.823000,118.0,-1129.0,-396.0,-1235.0,613.0,403.0,0.0,0.0,0.0
19:36:55.827000,-91.0,-1016.0,-256.0,-1225.0,231.0,646.0,0.0,0.0,0.0
19:36:55.832000,-383.0,-878.0,-287.0,-1225.0,231.0,646.0,0.0,0.0,0.0
19:36:55.837000,-418.0,-715.0,-472.0,-930.0,-414.0,740.0,0.0,0.0,0.0
19:36:55.842000,-524.0,-617.0,-546.0,-930.0,-414.0,740.0,0.0,0.0,0.0
19:36:55.846000,-620.0,-655.0,-735.0,-561.0,-54.0,565.0,0.0,0.0,0.0
19:36:55.851000,-529.0,-580.0,-601.0,-561.0,-54.0,565.0,0.0,0.0,0.0
19:36:55.856000,-576.0,-586.0,-274.0,-561.0,-54.0,565.0,0.0,0.0,0.0
19:36:55.860000,-665.0,-558.0,33.0,-766.0,246.0,393.0,0.0,0.0,0.0
19:36:55.865000,-805.0,-525.0,-125.0,-766.0,246.0,393.0,0.0,0.0,0.0
19:36:55.870000,-770.0,-473.0,-569.0,-1291.0,114.0,244.0,0.0,0.0,0.0
19:36:55.874000,-676.0,-429.0,-553.0,-1291.0,114.0,244.0,0.0,0.0,0.0
19:36:55.878000,-504.0,-432.0,-163.0,-1083.0,-127.0,89.0,0.0,0.0,0.0
19:36:55.884000,-506.0,-425.0,0.0,-1083.0,-127.0,89.0,0.0,0.0,0.0
19:36:55.889000,-414.0,-442.0,-198.0,-780.0,-457.0,3.0,0.0,0.0,0.0
19:36:55.893000,-316.0,-476.0,-290.0,-780.0,-457.0,3.0,0.0,0.0,0.0
19:36:55.898000,-284.0,-502.0,-242.0,-867.0,-462.0,-17.0,0.0,0.0,0.0
19:36:55.903000,-284.0,-502.0,-242.0,-867.0,-462.0,-17.0,0.0,0.0,0.0
19:36:55.907000,-223.0,-533.0,-128.0,-857.0,-386.0,-38.0,0.0,0.0,0.0
19:36:55.912000,-141.0,-567.0,-121.0,-857.0,-386.0,-38.0,0.0,0.0,0.0
19:36:55.917000,-88.0,-586.0,-271.0,-796.0,-297.0,-25.0,0.0,0.0,0.0
19:36:55.921000,-78.0,-599.0,-361.0,-796.0,-297.0,-25.0,0.0,0.0,0.0
19:36:55.926000,-51.0,-604.0,-333.0,-719.0,-261.0,14.0,0.0,0.0,0.0
19:36:55.931000,-35.0,-604.0,-326.0,-719.0,-261.0,14.0,0.0,0.0,0.0
19:36:55.936000,-35.0,-577.0,-352.0,-780.0,-247.0,64.0,0.0,0.0,0.0
19:36:55.940000,-56.0,-543.0,-408.0,-780.0,-247.0,64.0,0.0,0.0,0.0
19:36:55.945000,-58.0,-504.0,-431.0,-908.0,-113.0,107.0,0.0,0.0,0.0
19:36:55.950000,-66.0,-470.0,-429.0,-908.0,-113.0,107.0,0.0,0.0,0.0
19:36:55.954000,-90.0,-432.0,-406.0,-927.0,-19.0,150.0,0.0,0.0,0.0
19:36:55.959000,-121.0,-392.0,-385.0,-927.0,-19.0,150.0,0.0,0.0,0.0
19:36:55.964000,-146.0,-350.0,-367.0,-927.0,-19.0,150.0,0.0,0.0,0.0
19:36:55.968000,-156.0,-308.0,-351.0,-991.0,8.0,171.0,0.0,0.0,0.0
19:36:55.973000,-158.0,-264.0,-336.0,-991.0,8.0,171.0,0.0,0.0,0.0
19:36:55.978000,-140.0,-224.0,-329.0,-1086.0,-17.0,158.0,0.0,0.0,0.0
19:36:55.983000,-114.0,-187.0,-328.0,-1086.0,-17.0,158.0,0.0,0.0,0.0
19:36:55.987000,-88.0,-147.0,-324.0,-1111.0,-56.0,137.0,0.0,0.0,0.0
19:36:55.992000,-61.0,-102.0,-324.0,-1111.0,-56.0,137.0,0.0,0.0,0.0
19:36:55.997000,-24.0,-46.0,-312.0,-1075.0,-116.0,116.0,0.0,0.0,0.0
19:36:56.001000,11.0,-6.0,-303.0,-1075.0,-116.0,116.0,0.0,0.0,0.0
19:36:56.006000,49.0,35.0,-339.0,-1031.0,-163.0,107.0,0.0,0.0,0.0
19:36:56.011000,49.0,35.0,-339.0,-1031.0,-163.0,107.0,0.0,0.0,0.0
19:36:56.015000,95.0,73.0,-364.0,-995.0,-171.0,111.0,0.0,0.0,0.0
19:36:56.020000,129.0,117.0,-349.0,-995.0,-171.0,111.0,0.0,0.0,0.0
19:36:56.025000,163.0,138.0,-336.0,-935.0,-169.0,125.0,0.0,0.0,0.0
19:36:56.029000,210.0,144.0,-341.0,-935.0,-169.0,125.0,0.0,0.0,0.0
19:36:56.034000,238.0,147.0,-344.0,-909.0,-129.0,152.0,0.0,0.0,0.0
19:36:56.039000,242.0,149.0,-342.0,-909.0,-129.0,152.0,0.0,0.0,0.0
19:36:56.044000,242.0,148.0,-322.0,-909.0,-94.0,186.0,0.0,0.0,0.0
19:36:56.048000,237.0,144.0,-276.0,-909.0,-94.0,186.0,0.0,0.0,0.0
19:36:56.053000,235.0,140.0,-218.0,-909.0,-41.0,236.0,0.0,0.0,0.0
19:36:56.058000,245.0,133.0,-259.0,-909.0,-41.0,236.0,0.0,0.0,0.0
19:36:56.062000,281.0,119.0,-320.0,-895.0,-37.0,278.0,0.0,0.0,0.0
19:36:56.067000,289.0,116.0,-361.0,-895.0,-37.0,278.0,0.0,0.0,0.0
19:36:56.072000,253.0,122.0,-338.0,-895.0,-37.0,278.0,0.0,0.0,0.0
19:36:56.076000,229.0,131.0,-287.0,-871.0,-78.0,304.0,0.0,0.0,0.0
19:36:56.081000,208.0,141.0,-263.0,-871.0,-78.0,304.0,0.0,0.0,0.0
19:36:56.086000,187.0,158.0,-287.0,-900.0,-39.0,324.0,0.0,0.0,0.0
19:36:56.091000,175.0,177.0,-333.0,-900.0,-39.0,324.0,0.0,0.0,0.0
19:36:56.095000,163.0,198.0,-375.0,-943.0,0.0,330.0,0.0,0.0,0.0
19:36:56.100000,146.0,217.0,-389.0,-943.0,0.0,330.0,0.0,0.0,0.0
19:36:56.105000,128.0,234.0,-387.0,-959.0,-16.0,337.0,0.0,0.0,0.0
19:36:56.109000,107.0,252.0,-375.0,-959.0,-16.0,337.0,0.0,0.0,0.0
19:36:56.114000,91.0,263.0,-359.0,-955.0,-45.0,345.0,0.0,0.0,0.0
19:36:56.119000,91.0,263.0,-359.0,-955.0,-45.0,345.0,0.0,0.0,0.0
19:36:56.123000,72.0,274.0,-366.0,-939.0,-36.0,346.0,0.0,0.0,0.0
19:36:56.128000,55.0,284.0,-392.0,-939.0,-36.0,346.0,0.0,0.0,0.0
19:36:56.133000,37.0,293.0,-414.0,-922.0,3.0,348.0,0.0,0.0,0.0
19:36:56.138000,17.0,298.0,-417.0,-922.0,3.0,348.0,0.0,0.0,0.0
19:36:56.142000,3.0,309.0,-420.0,-919.0,34.0,359.0,0.0,0.0,0.0
19:36:56.147000,16.0,310.0,-445.0,-919.0,34.0,359.0,0.0,0.0,0.0
19:36:56.152000,25.0,310.0,-462.0,-905.0,-67.0,386.0,0.0,0.0,0.0
19:36:56.156000,25.0,300.0,-442.0,-905.0,-67.0,386.0,0.0,0.0,0.0
19:36:56.161000,26.0,291.0,-400.0,-863.0,-106.0,406.0,0.0,0.0,0.0
19:36:56.166000,-6.0,284.0,-368.0,-863.0,-106.0,406.0,0.0,0.0,0.0
19:36:56.170000,-55.0,270.0,-373.0,-838.0,14.0,401.0,0.0,0.0,0.0
19:36:56.175000,-62.0,272.0,-412.0,-838.0,14.0,401.0,0.0,0.0,0.0
19:36:56.180000,-36.0,292.0,-459.0,-838.0,29.0,385.0,0.0,0.0,0.0
19:36:56.185000,-51.0,287.0,-478.0,-884.0,29.0,385.0,0.0,0.0,0.0
19:36:56.189000,-95.0,261.0,-473.0,-884.0,29.0,385.0,0.0,0.0,0.0
19:36:56.194000,-112.0,270.0,-466.0,-882.0,21.0,388.0,0.0,0.0,0.0
19:36:56.199000,-121.0,252.0,-470.0,-882.0,21.0,388.0,0.0,0.0,0.0
19:36:56.203000,-117.0,254.0,-474.0,-843.0,29.0,392.0,0.0,0.0,0.0
19:36:56.208000,-111.0,257.0,-486.0,-843.0,29.0,392.0,0.0,0.0,0.0
19:36:56.213000,-106.0,265.0,-444.0,-895.0,-30.0,377.0,0.0,0.0,0.0
19:36:56.217000,-115.0,267.0,-426.0,-895.0,-30.0,377.0,0.0,0.0,0.0
19:36:56.222000,-117.0,261.0,-365.0,-936.0,-67.0,381.0,0.0,0.0,0.0
19:36:56.227000,-95.0,251.0,-351.0,-936.0,-67.0,381.0,0.0,0.0,0.0
19:36:56.232000,-95.0,251.0,-351.0,-909.0,-21.0,382.0,0.0,0.0,0.0
19:36:56.236000,-33.0,219.0,-447.0,-909.0,-21.0,382.0,0.0,0.0,0.0
19:36:56.241000,-67.0,225.0,-451.0,-899.0,34.0,388.0,0.0,0.0,0.0
19:36:56.246000,-116.0,240.0,-418.0,-899.0,34.0,388.0,0.0,0.0,0.0
19:36:56.250000,-81.0,206.0,-443.0,-864.0,14.0,402.0,0.0,0.0,0.0
19:36:56.255000,-3.0,181.0,-464.0,-864.0,14.0,402.0,0.0,0.0,0.0
19:36:56.260000,-7.0,205.0,-391.0,-863.0,-11.0,405.0,0.0,0.0,0.0
19:36:56.264000,-7.0,199.0,-382.0,-863.0,-11.0,405.0,0.0,0.0,0.0
19:36:56.269000,38.0,200.0,-364.0,-920.0,-12.0,412.0,0.0,0.0,0.0
19:36:56.274000,46.0,202.0,-359.0,-920.0,-12.0,412.0,0.0,0.0,0.0
19:36:56.279000,54.0,200.0,-360.0,-922.0,20.0,411.0,0.0,0.0,0.0
19:36:56.283000,66.0,204.0,-327.0,-922.0,20.0,411.0,0.0,0.0,0.0
19:36:56.288000,38.0,200.0,-303.0,-901.0,89.0,410.0,0.0,0.0,0.0
19:36:56.293000,35.0,200.0,-309.0,-901.0,89.0,410.0,0.0,0.0,0.0
19:36:56.297000,13.0,187.0,-298.0,-893.0,121.0,401.0,0.0,0.0,0.0
19:36:56.302000,-2.0,185.0,-270.0,-893.0,121.0,401.0,0.0,0.0,0.0
19:36:56.307000,-15.0,172.0,-249.0,-893.0,121.0,401.0,0.0,0.0,0.0
19:36:56.311000,-16.0,161.0,-222.0,-905.0,102.0,375.0,0.0,0.0,0.0
19:36:56.316000,-23.0,144.0,-196.0,-905.0,102.0,375.0,0.0,0.0,0.0
19:36:56.321000,-23.0,126.0,-174.0,-914.0,79.0,344.0,0.0,0.0,0.0
19:36:56.326000,-24.0,109.0,-150.0,-914.0,79.0,344.0,0.0,0.0,0.0
19:36:56.330000,-25.0,89.0,-117.0,-895.0,77.0,323.0,0.0,0.0,0.0
19:36:56.335000,-16.0,70.0,-82.0,-895.0,77.0,323.0,0.0,0.0,0.0
19:36:56.340000,-16.0,70.0,-82.0,-868.0,74.0,308.0,0.0,0.0,0.0
19:36:56.344000,2.0,49.0,-77.0,-868.0,74.0,308.0,0.0,0.0,0.0
19:36:56.349000,1.0,33.0,-78.0,-879.0,69.0,298.0,0.0,0.0,0.0
19:36:56.354000,4.0,19.0,-56.0,-879.0,69.0,298.0,0.0,0.0,0.0
19:36:56.358000,21.0,14.0,-28.0,-924.0,83.0,286.0,0.0,0.0,0.0
19:36:56.363000,24.0,15.0,-25.0,-924.0,83.0,286.0,0.0,0.0,0.0
19:36:56.368000,35.0,35.0,-47.0,-959.0,92.0,276.0,0.0,0.0,0.0
19:36:56.373000,58.0,29.0,-92.0,-959.0,92.0,276.0,0.0,0.0,0.0
19:36:56.377000,68.0,37.0,-85.0,-1028.0,80.0,273.0,0.0,0.0,0.0
19:36:56.382000,80.0,67.0,-91.0,-1028.0,80.0,273.0,0.0,0.0,0.0
19:36:56.387000,98.0,102.0,-130.0,-1128.0,49.0,270.0,0.0,0.0,0.0
19:36:56.391000,126.0,147.0,-142.0,-1128.0,49.0,270.0,0.0,0.0,0.0
19:36:56.396000,158.0,194.0,-133.0,-1146.0,-14.0,265.0,0.0,0.0,0.0
19:36:56.401000,208.0,240.0,-100.0,-1146.0,-14.0,265.0,0.0,0.0,0.0
19:36:56.405000,245.0,295.0,-65.0,-1146.0,-14.0,265.0,0.0,0.0,0.0
19:36:56.410000,266.0,364.0,-73.0,-1140.0,-14.0,266.0,0.0,0.0,0.0
19:36:56.415000,288.0,433.0,-108.0,-1140.0,-14.0,266.0,0.0,0.0,0.0
19:36:56.420000,326.0,498.0,-133.0,-1148.0,48.0,272.0,0.0,0.0,0.0
19:36:56.424000,359.0,556.0,-149.0,-1148.0,48.0,272.0,0.0,0.0,0.0
19:36:56.429000,377.0,620.0,-147.0,-1146.0,68.0,275.0,0.0,0.0,0.0
19:36:56.434000,394.0,676.0,-142.0,-1146.0,68.0,275.0,0.0,0.0,0.0
19:36:56.438000,422.0,733.0,-130.0,-1118.0,83.0,271.0,0.0,0.0,0.0
19:36:56.443000,465.0,774.0,-124.0,-1118.0,83.0,271.0,0.0,0.0,0.0
19:36:56.448000,465.0,774.0,-124.0,-1076.0,86.0,252.0,0.0,0.0,0.0
