hh:mm:ss.ms,gyroX[mdps],gyroY[mdps],gyroZ[mdps],accX[mg],accY[mg],accZ[mg],magX[mG],magY[mG],magZ[mG]
19:37:19.129000,-74.0,-748.0,324.0,-1266.0,-14.0,-55.0,0.0,0.0,0.0
19:37:19.133000,-41.0,-713.0,-144.0,-1434.0,118.0,0.0,0.0,0.0,0.0
19:37:19.138000,38.0,-665.0,-1025.0,-1434.0,118.0,0.0,0.0,0.0,0.0
19:37:19.143000,8.0,-706.0,-1212.0,-1164.0,469.0,106.0,0.0,0.0,0.0
19:37:19.147000,-113.0,-756.0,-651.0,-1164.0,469.0,106.0,0.0,0.0,0.0
19:37:19.152000,-270.0,-758.0,-82.0,-839.0,380.0,224.0,0.0,0.0,0.0
19:37:19.157000,-399.0,-727.0,-41.0,-839.0,380.0,224.0,0.0,0.0,0.0
19:37:19.161000,-494.0,-693.0,-312.0,-839.0,380.0,224.0,0.0,0.0,0.0
19:37:19.166000,-610.0,-676.0,-480.0,-1152.0,333.0,238.0,0.0,0.0,0.0
19:37:19.171000,-748.0,-683.0,-551.0,-1152.0,333.0,238.0,0.0,0.0,0.0
19:37:19.176000,-913.0,-702.0,-602.0,-1294.0,509.0,237.0,0.0,0.0,0.0
19:37:19.180000,-1062.0,-732.0,-579.0,-1294.0,509.0,237.0,0.0,0.0,0.0
19:37:19.185000,-1192.0,-769.0,-575.0,-1164.0,481.0,243.0,0.0,0.0,0.0
19:37:19.190000,-1286.0,-805.0,-628.0,-1164.0,481.0,243.0,0.0,0.0,0.0
19:37:19.194000,-1345.0,-845.0,-723.0,-1074.0,332.0,223.0,0.0,0.0,0.0
19:37:19.199000,-1397.0,-890.0,-810.0,-1074.0,332.0,223.0,0.0,0.0,0.0
19:37:19.204000,-1435.0,-913.0,-876.0,-1010.0,239.0,199.0,0.0,0.0,0.0
19:37:19.208000,-1435.0,-913.0,-876.0,-1010.0,239.0,199.0,0.0,0.0,0.0
19:37:19.213000,-1449.0,-962.0,-941.0,-952.0,133.0,159.0,0.0,0.0,0.0
19:37:19.218000,-1455.0,-1004.0,-963.0,-952.0,133.0,159.0,0.0,0.0,0.0
19:37:19.223000,-1475.0,-1063.0,-956.0,-931.0,110.0,119.0,0.0,0.0,0.0
19:37:19.227000,-1514.0,-1130.0,-926.0,-931.0,110.0,119.0,0.0,0.0,0.0
19:37:19.232000,-1555.0,-1217.0,-889.0,-927.0,165.0,111.0,0.0,0.0,0.0
19:37:19.237000,-1596.0,-1299.0,-867.0,-927.0,165.0,111.0,0.0,0.0,0.0
19:37:19.241000,-1635.0,-1400.0,-879.0,-945.0,268.0,132.0,0.0,0.0,0.0
19:37:19.246000,-1677.0,-1509.0,-891.0,-945.0,268.0,132.0,0.0,0.0,0.0
19:37:19.251000,-1722.0,-1621.0,-886.0,-892.0,330.0,185.0,0.0,0.0,0.0
19:37:19.255000,-1769.0,-1750.0,-850.0,-892.0,330.0,185.0,0.0,0.0,0.0
19:37:19.260000,-1834.0,-1870.0,-857.0,-725.0,371.0,262.0,0.0,0.0,0.0
19:37:19.265000,-1924.0,-2011.0,-900.0,-725.0,371.0,262.0,0.0,0.0,0.0
19:37:19.270000,-1995.0,-2144.0,-891.0,-568.0,454.0,342.0,0.0,0.0,0.0
19:37:19.274000,-2069.0,-2276.0,-833.0,-568.0,454.0,342.0,0.0,0.0,0.0
19:37:19.279000,-2148.0,-2421.0,-765.0,-568.0,454.0,342.0,0.0,0.0,0.0
19:37:19.284000,-2211.0,-2563.0,-695.0,-538.0,471.0,419.0,0.0,0.0,0.0
19:37:19.288000,-2265.0,-2697.0,-654.0,-538.0,471.0,419.0,0.0,0.0,0.0
19:37:19.293000,-2312.0,-2821.0,-599.0,-575.0,441.0,489.0,0.0,0.0,0.0
19:37:19.298000,-2357.0,-2930.0,-541.0,-575.0,441.0,489.0,0.0,0.0,0.0
19:37:19.302000,-2383.0,-3012.0,-490.0,-579.0,367.0,546.0,0.0,0.0,0.0
19:37:19.307000,-2415.0,-3073.0,-452.0,-579.0,367.0,546.0,0.0,0.0,0.0
19:37:19.312000,-2468.0,-3122.0,-424.0,-630.0,341.0,605.0,0.0,0.0,0.0
19:37:19.317000,-2468.0,-3122.0,-424.0,-630.0,341.0,605.0,0.0,0.0,0.0
19:37:19.321000,-2539.0,-3149.0,-402.0,-721.0,448.0,679.0,0.0,0.0,0.0
19:37:19.326000,-2620.0,-3166.0,-409.0,-721.0,448.0,679.0,0.0,0.0,0.0
19:37:19.331000,-2699.0,-3168.0,-416.0,-775.0,488.0,764.0,0.0,0.0,0.0
19:37:19.335000,-2776.0,-3172.0,-414.0,-775.0,488.0,764.0,0.0,0.0,0.0
19:37:19.340000,-2811.0,-3158.0,-436.0,-814.0,439.0,824.0,0.0,0.0,0.0
19:37:19.345000,-2851.0,-3147.0,-485.0,-814.0,439.0,824.0,0.0,0.0,0.0
19:37:19.349000,-2891.0,-3143.0,-531.0,-825.0,458.0,875.0,0.0,0.0,0.0
19:37:19.354000,-2927.0,-3134.0,-546.0,-825.0,458.0,875.0,0.0,0.0,0.0
19:37:19.359000,-2942.0,-3119.0,-538.0,-781.0,471.0,928.0,0.0,0.0,0.0
19:37:19.364000,-2932.0,-3104.0,-560.0,-781.0,471.0,928.0,0.0,0.0,0.0
19:37:19.368000,-2903.0,-3086.0,-581.0,-736.0,450.0,955.0,0.0,0.0,0.0
19:37:19.373000,-2845.0,-3054.0,-581.0,-736.0,450.0,955.0,0.0,0.0,0.0
19:37:19.378000,-2780.0,-3020.0,-542.0,-753.0,414.0,956.0,0.0,0.0,0.0
19:37:19.382000,-2716.0,-2989.0,-488.0,-753.0,414.0,956.0,0.0,0.0,0.0
19:37:19.387000,-2657.0,-2951.0,-448.0,-753.0,414.0,956.0,0.0,0.0,0.0
19:37:19.392000,-2594.0,-2881.0,-429.0,-786.0,416.0,951.0,0.0,0.0,0.0
19:37:19.396000,-2535.0,-2795.0,-414.0,-786.0,416.0,951.0,0.0,0.0,0.0
19:37:19.401000,-2485.0,-2704.0,-386.0,-799.0,487.0,931.0,0.0,0.0,0.0
19:37:19.406000,-2420.0,-2599.0,-357.0,-799.0,487.0,931.0,0.0,0.0,0.0
19:37:19.411000,-2349.0,-2495.0,-296.0,-812.0,500.0,885.0,0.0,0.0,0.0
19:37:19.415000,-2286.0,-2394.0,-221.0,-812.0,500.0,885.0,0.0,0.0,0.0
19:37:19.420000,-2221.0,-2289.0,-184.0,-830.0,448.0,831.0,0.0,0.0,0.0
19:37:19.425000,-2221.0,-2289.0,-184.0,-830.0,448.0,831.0,0.0,0.0,0.0
19:37:19.429000,-2155.0,-2191.0,-179.0,-851.0,464.0,769.0,0.0,0.0,0.0
19:37:19.434000,-2110.0,-2104.0,-154.0,-851.0,464.0,769.0,0.0,0.0,0.0
19:37:19.439000,-2070.0,-2018.0,-121.0,-812.0,515.0,707.0,0.0,0.0,0.0
19:37:19.443000,-2024.0,-1939.0,-112.0,-812.0,515.0,707.0,0.0,0.0,0.0
19:37:19.448000,-1969.0,-1871.0,-59.0,-712.0,513.0,652.0,0.0,0.0,0.0
19:37:19.453000,-1910.0,-1801.0,30.0,-712.0,513.0,652.0,0.0,0.0,0.0
19:37:19.458000,-1861.0,-1721.0,88.0,-642.0,528.0,619.0,0.0,0.0,0.0
19:37:19.462000,-1826.0,-1640.0,96.0,-642.0,528.0,619.0,0.0,0.0,0.0
19:37:19.467000,-1785.0,-1569.0,93.0,-643.0,594.0,598.0,0.0,0.0,0.0
19:37:19.472000,-1733.0,-1504.0,112.0,-643.0,594.0,598.0,0.0,0.0,0.0
19:37:19.476000,-1682.0,-1449.0,149.0,-673.0,592.0,550.0,0.0,0.0,0.0
19:37:19.481000,-1628.0,-1406.0,198.0,-673.0,592.0,550.0,0.0,0.0,0.0
19:37:19.486000,-1563.0,-1362.0,201.0,-642.0,565.0,503.0,0.0,0.0,0.0
19:37:19.490000,-1494.0,-1314.0,187.0,-642.0,565.0,503.0,0.0,0.0,0.0
19:37:19.495000,-1418.0,-1255.0,168.0,-642.0,565.0,503.0,0.0,0.0,0.0
19:37:19.500000,-1367.0,-1214.0,166.0,-635.0,550.0,484.0,0.0,0.0,0.0
19:37:19.505000,-1339.0,-1166.0,172.0,-635.0,550.0,484.0,0.0,0.0,0.0
19:37:19.509000,-1309.0,-1118.0,166.0,-674.0,557.0,484.0,0.0,0.0,0.0
19:37:19.514000,-1303.0,-1078.0,163.0,-674.0,557.0,484.0,0.0,0.0,0.0
19:37:19.519000,-1292.0,-1028.0,182.0,-678.0,641.0,490.0,0.0,0.0,0.0
19:37:19.523000,-1292.0,-1028.0,182.0,-678.0,641.0,490.0,0.0,0.0,0.0
19:37:19.528000,-1195.0,-923.0,288.0,-713.0,672.0,476.0,0.0,0.0,0.0
19:37:19.533000,-1176.0,-847.0,256.0,-713.0,672.0,476.0,0.0,0.0,0.0
19:37:19.537000,-1176.0,-847.0,256.0,-753.0,627.0,469.0,0.0,0.0,0.0
19:37:19.542000,-1181.0,-784.0,104.0,-753.0,627.0,469.0,0.0,0.0,0.0
19:37:19.547000,-1220.0,-772.0,-65.0,-736.0,591.0,483.0,0.0,0.0,0.0
19:37:19.552000,-1243.0,-739.0,-91.0,-736.0,591.0,483.0,0.0,0.0,0.0
19:37:19.556000,-1207.0,-658.0,-69.0,-730.0,626.0,432.0,0.0,0.0,0.0
19:37:19.561000,-1155.0,-564.0,-86.0,-730.0,626.0,432.0,0.0,0.0,0.0
19:37:19.566000,-1134.0,-500.0,-70.0,-710.0,637.0,377.0,0.0,0.0,0.0
19:37:19.570000,-1143.0,-464.0,-49.0,-710.0,637.0,377.0,0.0,0.0,0.0
19:37:19.575000,-1112.0,-397.0,-91.0,-676.0,581.0,346.0,0.0,0.0,0.0
19:37:19.580000,-1085.0,-338.0,-105.0,-676.0,581.0,346.0,0.0,0.0,0.0
19:37:19.584000,-1052.0,-291.0,-70.0,-645.0,602.0,304.0,0.0,0.0,0.0
19:37:19.589000,-1042.0,-259.0,-103.0,-645.0,602.0,304.0,0.0,0.0,0.0
19:37:19.594000,-1026.0,-228.0,-153.0,-578.0,578.0,284.0,0.0,0.0,0.0
19:37:19.599000,-989.0,-198.0,-148.0,-578.0,578.0,284.0,0.0,0.0,0.0
19:37:19.603000,-945.0,-172.0,-114.0,-506.0,507.0,261.0,0.0,0.0,0.0
19:37:19.608000,-914.0,-162.0,-118.0,-506.0,507.0,261.0,0.0,0.0,0.0
19:37:19.613000,-892.0,-165.0,-134.0,-506.0,507.0,261.0,0.0,0.0,0.0
19:37:19.617000,-861.0,-173.0,-121.0,-429.0,548.0,258.0,0.0,0.0,0.0
19:37:19.622000,-830.0,-183.0,-116.0,-429.0,548.0,258.0,0.0,0.0,0.0
19:37:19.627000,-791.0,-191.0,-128.0,-348.0,600.0,266.0,0.0,0.0,0.0
19:37:19.631000,-743.0,-193.0,-170.0,-348.0,600.0,266.0,0.0,0.0,0.0
19:37:19.636000,-702.0,-199.0,-212.0,-329.0,612.0,259.0,0.0,0.0,0.0
19:37:19.641000,-659.0,-204.0,-216.0,-329.0,612.0,259.0,0.0,0.0,0.0
19:37:19.646000,-659.0,-204.0,-216.0,-346.0,640.0,258.0,0.0,0.0,0.0
19:37:19.650000,-633.0,-207.0,-240.0,-346.0,640.0,258.0,0.0,0.0,0.0
19:37:19.655000,-568.0,-205.0,-294.0,-314.0,717.0,263.0,0.0,0.0,0.0
19:37:19.660000,-548.0,-208.0,-389.0,-314.0,717.0,263.0,0.0,0.0,0.0
19:37:19.664000,-525.0,-202.0,-413.0,-225.0,683.0,265.0,0.0,0.0,0.0
19:37:19.669000,-488.0,-205.0,-364.0,-225.0,683.0,265.0,0.0,0.0,0.0
19:37:19.674000,-461.0,-214.0,-308.0,-204.0,638.0,263.0,0.0,0.0,0.0
19:37:19.678000,-429.0,-210.0,-326.0,-204.0,638.0,263.0,0.0,0.0,0.0
19:37:19.683000,-420.0,-215.0,-373.0,-254.0,723.0,257.0,0.0,0.0,0.0
19:37:19.688000,-409.0,-220.0,-427.0,-254.0,723.0,257.0,0.0,0.0,0.0
19:37:19.693000,-378.0,-222.0,-459.0,-249.0,775.0,241.0,0.0,0.0,0.0
19:37:19.697000,-352.0,-230.0,-448.0,-249.0,775.0,241.0,0.0,0.0,0.0
19:37:19.702000,-323.0,-227.0,-422.0,-225.0,818.0,213.0,0.0,0.0,0.0
19:37:19.707000,-298.0,-222.0,-420.0,-225.0,818.0,213.0,0.0,0.0,0.0
19:37:19.711000,-278.0,-222.0,-446.0,-225.0,818.0,213.0,0.0,0.0,0.0
19:37:19.716000,-253.0,-220.0,-466.0,-263.0,881.0,200.0,0.0,0.0,0.0
19:37:19.721000,-226.0,-221.0,-455.0,-263.0,881.0,200.0,0.0,0.0,0.0
19:37:19.725000,-196.0,-225.0,-403.0,-280.0,886.0,203.0,0.0,0.0,0.0
19:37:19.730000,-163.0,-221.0,-329.0,-280.0,886.0,203.0,0.0,0.0,0.0
19:37:19.735000,-126.0,-219.0,-326.0,-254.0,830.0,205.0,0.0,0.0,0.0
19:37:19.740000,-97.0,-219.0,-348.0,-254.0,830.0,205.0,0.0,0.0,0.0
19:37:19.744000,-72.0,-228.0,-338.0,-239.0,835.0,211.0,0.0,0.0,0.0
19:37:19.749000,-44.0,-238.0,-283.0,-239.0,835.0,211.0,0.0,0.0,0.0
19:37:19.754000,-44.0,-238.0,-283.0,-204.0,845.0,228.0,0.0,0.0,0.0
19:37:19.758000,-16.0,-249.0,-238.0,-204.0,845.0,228.0,0.0,0.0,0.0
19:37:19.763000,13.0,-256.0,-240.0,-173.0,824.0,246.0,0.0,0.0,0.0
19:37:19.768000,39.0,-264.0,-259.0,-173.0,824.0,246.0,0.0,0.0,0.0
19:37:19.772000,56.0,-270.0,-254.0,-143.0,821.0,257.0,0.0,0.0,0.0
19:37:19.777000,68.0,-274.0,-210.0,-143.0,821.0,257.0,0.0,0.0,0.0
19:37:19.782000,81.0,-273.0,-186.0,-144.0,804.0,259.0,0.0,0.0,0.0
19:37:19.787000,100.0,-267.0,-197.0,-144.0,804.0,259.0,0.0,0.0,0.0
19:37:19.791000,123.0,-260.0,-221.0,-168.0,810.0,252.0,0.0,0.0,0.0
19:37:19.796000,140.0,-255.0,-241.0,-168.0,810.0,252.0,0.0,0.0,0.0
19:37:19.801000,148.0,-254.0,-256.0,-152.0,837.0,256.0,0.0,0.0,0.0
19:37:19.805000,147.0,-256.0,-266.0,-152.0,837.0,256.0,0.0,0.0,0.0
19:37:19.810000,161.0,-252.0,-256.0,-148.0,842.0,259.0,0.0,0.0,0.0
19:37:19.815000,169.0,-253.0,-234.0,-148.0,842.0,259.0,0.0,0.0,0.0
19:37:19.819000,181.0,-251.0,-223.0,-148.0,842.0,259.0,0.0,0.0,0.0
19:37:19.824000,201.0,-243.0,-220.0,-178.0,835.0,250.0,0.0,0.0,0.0
19:37:19.829000,220.0,-235.0,-219.0,-178.0,835.0,250.0,0.0,0.0,0.0
19:37:19.834000,242.0,-228.0,-230.0,-209.0,854.0,243.0,0.0,0.0,0.0
19:37:19.838000,270.0,-217.0,-236.0,-209.0,854.0,243.0,0.0,0.0,0.0
19:37:19.843000,309.0,-198.0,-226.0,-214.0,854.0,236.0,0.0,0.0,0.0
19:37:19.848000,354.0,-176.0,-207.0,-214.0,854.0,236.0,0.0,0.0,0.0
19:37:19.852000,401.0,-154.0,-200.0,-222.0,828.0,220.0,0.0,0.0,0.0
19:37:19.857000,459.0,-129.0,-212.0,-222.0,828.0,220.0,0.0,0.0,0.0
19:37:19.862000,524.0,-102.0,-232.0,-264.0,816.0,201.0,0.0,0.0,0.0
19:37:19.866000,524.0,-102.0,-232.0,-264.0,816.0,201.0,0.0,0.0,0.0
19:37:19.871000,594.0,-79.0,-229.0,-275.0,795.0,193.0,0.0,0.0,0.0
19:37:19.876000,667.0,-54.0,-217.0,-275.0,795.0,193.0,0.0,0.0,0.0
19:37:19.881000,740.0,-37.0,-200.0,-239.0,774.0,206.0,0.0,0.0,0.0
19:37:19.885000,810.0,-21.0,-182.0,-239.0,774.0,206.0,0.0,0.0,0.0
19:37:19.890000,875.0,-7.0,-151.0,-203.0,785.0,232.0,0.0,0.0,0.0
19:37:19.909000,1093.0,44.0,-28.0,-212.0,837.0,289.0,0.0,0.0,0.0
19:37:19.913000,1153.0,65.0,-2.0,-212.0,837.0,289.0,0.0,0.0,0.0
19:37:19.918000,1213.0,88.0,25.0,-230.0,819.0,312.0,0.0,0.0,0.0
19:37:19.923000,1269.0,112.0,61.0,-230.0,819.0,312.0,0.0,0.0,0.0
19:37:19.928000,1325.0,133.0,94.0,-230.0,819.0,312.0,0.0,0.0,0.0
19:37:19.932000,1385.0,155.0,115.0,-221.0,796.0,344.0,0.0,0.0,0.0
19:37:19.937000,1439.0,178.0,137.0,-221.0,796.0,344.0,0.0,0.0,0.0
19:37:19.942000,1492.0,203.0,163.0,-218.0,778.0,386.0,0.0,0.0,0.0
19:37:19.946000,1551.0,231.0,176.0,-218.0,778.0,386.0,0.0,0.0,0.0
19:37:19.951000,1610.0,266.0,170.0,-240.0,778.0,423.0,0.0,0.0,0.0
19:37:19.956000,1671.0,303.0,166.0,-240.0,778.0,423.0,0.0,0.0,0.0
19:37:19.960000,1743.0,343.0,151.0,-277.0,785.0,447.0,0.0,0.0,0.0
19:37:19.965000,1817.0,390.0,163.0,-277.0,785.0,447.0,0.0,0.0,0.0
19:37:19.970000,1892.0,443.0,179.0,-306.0,753.0,461.0,0.0,0.0,0.0
19:37:19.975000,1892.0,443.0,179.0,-306.0,753.0,461.0,0.0,0.0,0.0
19:37:19.979000,1962.0,505.0,189.0,-322.0,701.0,467.0,0.0,0.0,0.0
19:37:19.984000,2030.0,571.0,207.0,-322.0,701.0,467.0,0.0,0.0,0.0
19:37:19.989000,2090.0,636.0,219.0,-342.0,669.0,486.0,0.0,0.0,0.0
19:37:19.993000,2107.0,715.0,216.0,-342.0,669.0,486.0,0.0,0.0,0.0
19:37:19.998000,2242.0,764.0,228.0,-352.0,629.0,484.0,0.0,0.0,0.0
19:37:20.003000,2319.0,847.0,247.0,-352.0,629.0,484.0,0.0,0.0,0.0
19:37:20.007000,2335.0,907.0,270.0,-367.0,560.0,494.0,0.0,0.0,0.0
19:37:20.012000,2413.0,962.0,311.0,-367.0,560.0,494.0,0.0,0.0,0.0
19:37:20.017000,2459.0,1017.0,341.0,-405.0,532.0,536.0,0.0,0.0,0.0
19:37:20.022000,2485.0,1066.0,408.0,-405.0,532.0,536.0,0.0,0.0,0.0
19:37:20.026000,2532.0,1121.0,448.0,-465.0,573.0,573.0,0.0,0.0,0.0
19:37:20.031000,2536.0,1174.0,447.0,-465.0,573.0,573.0,0.0,0.0,0.0
19:37:20.036000,2522.0,1237.0,459.0,-465.0,573.0,573.0,0.0,0.0,0.0
19:37:20.040000,2492.0,1301.0,502.0,-523.0,630.0,620.0,0.0,0.0,0.0
19:37:20.045000,2432.0,1360.0,539.0,-523.0,630.0,620.0,0.0,0.0,0.0
19:37:20.050000,2395.0,1425.0,468.0,-657.0,546.0,681.0,0.0,0.0,0.0
19:37:20.054000,2408.0,1496.0,528.0,-657.0,546.0,681.0,0.0,0.0,0.0
19:37:20.059000,2421.0,1539.0,591.0,-718.0,440.0,720.0,0.0,0.0,0.0
19:37:20.064000,2429.0,1563.0,602.0,-718.0,440.0,720.0,0.0,0.0,0.0
19:37:20.069000,2476.0,1583.0,580.0,-621.0,392.0,756.0,0.0,0.0,0.0
19:37:20.073000,2548.0,1624.0,525.0,-621.0,392.0,756.0,0.0,0.0,0.0
19:37:20.078000,2634.0,1660.0,470.0,-531.0,247.0,794.0,0.0,0.0,0.0
19:37:20.083000,2634.0,1660.0,470.0,-531.0,247.0,794.0,0.0,0.0,0.0
19:37:20.087000,2720.0,1693.0,394.0,-446.0,145.0,845.0,0.0,0.0,0.0
19:37:20.092000,2784.0,1727.0,331.0,-446.0,145.0,845.0,0.0,0.0,0.0
19:37:20.097000,2831.0,1764.0,340.0,-426.0,153.0,934.0,0.0,0.0,0.0
19:37:20.101000,2866.0,1813.0,355.0,-426.0,153.0,934.0,0.0,0.0,0.0
19:37:20.106000,2873.0,1864.0,366.0,-506.0,216.0,1021.0,0.0,0.0,0.0
19:37:20.111000,2873.0,1925.0,399.0,-506.0,216.0,1021.0,0.0,0.0,0.0
19:37:20.115000,2858.0,1987.0,452.0,-642.0,325.0,1084.0,0.0,0.0,0.0
19:37:20.120000,2828.0,2045.0,466.0,-642.0,325.0,1084.0,0.0,0.0,0.0
19:37:20.125000,2788.0,2095.0,469.0,-808.0,392.0,1115.0,0.0,0.0,0.0
19:37:20.130000,2754.0,2143.0,482.0,-808.0,392.0,1115.0,0.0,0.0,0.0
19:37:20.134000,2728.0,2189.0,496.0,-948.0,314.0,1132.0,0.0,0.0,0.0
19:37:20.139000,2707.0,2241.0,511.0,-948.0,314.0,1132.0,0.0,0.0,0.0
19:37:20.144000,2686.0,2296.0,498.0,-1002.0,162.0,1168.0,0.0,0.0,0.0
19:37:20.148000,2660.0,2351.0,470.0,-1002.0,162.0,1168.0,0.0,0.0,0.0
19:37:20.153000,2627.0,2412.0,436.0,-1002.0,162.0,1168.0,0.0,0.0,0.0
19:37:20.158000,2613.0,2471.0,399.0,-1005.0,83.0,1204.0,0.0,0.0,0.0
19:37:20.162000,2613.0,2523.0,343.0,-1005.0,83.0,1204.0,0.0,0.0,0.0
19:37:20.167000,2609.0,2558.0,282.0,-1028.0,56.0,1191.0,0.0,0.0,0.0
19:37:20.172000,2598.0,2585.0,234.0,-1028.0,56.0,1191.0,0.0,0.0,0.0
19:37:20.177000,2585.0,2611.0,174.0,-1069.0,13.0,1185.0,0.0,0.0,0.0
19:37:20.181000,2566.0,2630.0,108.0,-1069.0,13.0,1185.0,0.0,0.0,0.0
19:37:20.186000,2535.0,2651.0,46.0,-1042.0,-5.0,1217.0,0.0,0.0,0.0
19:37:20.191000,2535.0,2651.0,46.0,-1042.0,-5.0,1217.0,0.0,0.0,0.0
19:37:20.195000,2493.0,2674.0,0.0,-965.0,21.0,1235.0,0.0,0.0,0.0
19:37:20.200000,2436.0,2695.0,-35.0,-965.0,21.0,1235.0,0.0,0.0,0.0
19:37:20.205000,2372.0,2711.0,-67.0,-913.0,62.0,1226.0,0.0,0.0,0.0
19:37:20.209000,2298.0,2719.0,-114.0,-913.0,62.0,1226.0,0.0,0.0,0.0
19:37:20.214000,2214.0,2722.0,-157.0,-900.0,108.0,1195.0,0.0,0.0,0.0
19:37:20.219000,2125.0,2722.0,-190.0,-900.0,108.0,1195.0,0.0,0.0,0.0
19:37:20.224000,2040.0,2713.0,-219.0,-904.0,142.0,1143.0,0.0,0.0,0.0
19:37:20.228000,1958.0,2701.0,-238.0,-904.0,142.0,1143.0,0.0,0.0,0.0
19:37:20.233000,1881.0,2684.0,-264.0,-911.0,140.0,1079.0,0.0,0.0,0.0
19:37:20.238000,1801.0,2664.0,-305.0,-911.0,140.0,1079.0,0.0,0.0,0.0
19:37:20.242000,1720.0,2637.0,-359.0,-896.0,124.0,1017.0,0.0,0.0,0.0
19:37:20.247000,1635.0,2606.0,-430.0,-896.0,124.0,1017.0,0.0,0.0,0.0
19:37:20.252000,1543.0,2573.0,-499.0,-841.0,117.0,953.0,0.0,0.0,0.0
19:37:20.256000,1453.0,2537.0,-534.0,-841.0,117.0,953.0,0.0,0.0,0.0
19:37:20.261000,1366.0,2494.0,-533.0,-841.0,117.0,953.0,0.0,0.0,0.0
19:37:20.266000,1285.0,2451.0,-531.0,-790.0,92.0,868.0,0.0,0.0,0.0
19:37:20.271000,1207.0,2408.0,-541.0,-790.0,92.0,868.0,0.0,0.0,0.0
19:37:20.275000,1133.0,2360.0,-550.0,-791.0,79.0,768.0,0.0,0.0,0.0
19:37:20.280000,1065.0,2308.0,-555.0,-791.0,79.0,768.0,0.0,0.0,0.0
19:37:20.285000,1002.0,2250.0,-552.0,-817.0,98.0,674.0,0.0,0.0,0.0
19:37:20.289000,945.0,2193.0,-543.0,-817.0,98.0,674.0,0.0,0.0,0.0
19:37:20.294000,896.0,2132.0,-515.0,-823.0,102.0,592.0,0.0,0.0,0.0
19:37:20.299000,847.0,2074.0,-474.0,-823.0,102.0,592.0,0.0,0.0,0.0
19:37:20.303000,847.0,2074.0,-474.0,-815.0,96.0,522.0,0.0,0.0,0.0
19:37:20.308000,804.0,2015.0,-442.0,-815.0,96.0,522.0,0.0,0.0,0.0
19:37:20.313000,761.0,1955.0,-427.0,-796.0,114.0,467.0,0.0,0.0,0.0
19:37:20.318000,713.0,1897.0,-410.0,-796.0,114.0,467.0,0.0,0.0,0.0
19:37:20.322000,665.0,1841.0,-378.0,-799.0,136.0,417.0,0.0,0.0,0.0
19:37:20.327000,620.0,1789.0,-363.0,-799.0,136.0,417.0,0.0,0.0,0.0
19:37:20.332000,576.0,1742.0,-365.0,-856.0,137.0,363.0,0.0,0.0,0.0
19:37:20.336000,533.0,1702.0,-366.0,-856.0,137.0,363.0,0.0,0.0,0.0
19:37:20.341000,485.0,1671.0,-368.0,-945.0,84.0,278.0,0.0,0.0,0.0
19:37:20.346000,467.0,1646.0,-338.0,-945.0,84.0,278.0,0.0,0.0,0.0
19:37:20.350000,450.0,1606.0,-324.0,-990.0,12.0,183.0,0.0,0.0,0.0
19:37:20.355000,429.0,1568.0,-323.0,-990.0,12.0,183.0,0.0,0.0,0.0
19:37:20.360000,400.0,1518.0,-296.0,-985.0,24.0,128.0,0.0,0.0,0.0
19:37:20.365000,372.0,1465.0,-291.0,-985.0,24.0,128.0,0.0,0.0,0.0
19:37:20.369000,360.0,1411.0,-320.0,-985.0,24.0,128.0,0.0,0.0,0.0
19:37:20.374000,362.0,1356.0,-301.0,-939.0,31.0,88.0,0.0,0.0,0.0
19:37:20.378000,369.0,1304.0,-238.0,-861.0,-13.0,43.0,0.0,0.0,0.0
19:37:20.383000,373.0,1254.0,-183.0,-861.0,-13.0,43.0,0.0,0.0,0.0
19:37:20.388000,375.0,1204.0,-168.0,-861.0,-13.0,43.0,0.0,0.0,0.0
19:37:20.393000,368.0,1152.0,-179.0,-847.0,9.0,1.0,0.0,0.0,0.0
19:37:20.397000,358.0,1096.0,-193.0,-847.0,9.0,1.0,0.0,0.0,0.0
19:37:20.402000,340.0,1040.0,-182.0,-863.0,91.0,-29.0,0.0,0.0,0.0
19:37:20.407000,318.0,987.0,-158.0,-863.0,91.0,-29.0,0.0,0.0,0.0
19:37:20.412000,318.0,987.0,-158.0,-846.0,127.0,-55.0,0.0,0.0,0.0
19:37:20.416000,303.0,933.0,-140.0,-846.0,127.0,-55.0,0.0,0.0,0.0
19:37:20.421000,283.0,885.0,-126.0,-822.0,111.0,-77.0,0.0,0.0,0.0
19:37:20.426000,257.0,841.0,-101.0,-822.0,111.0,-77.0,0.0,0.0,0.0
19:37:20.430000,234.0,795.0,-74.0,-773.0,91.0,-85.0,0.0,0.0,0.0
19:37:20.435000,205.0,756.0,-46.0,-773.0,91.0,-85.0,0.0,0.0,0.0
19:37:20.440000,176.0,725.0,-38.0,-738.0,104.0,-92.0,0.0,0.0,0.0
19:37:20.444000,147.0,696.0,-49.0,-738.0,104.0,-92.0,0.0,0.0,0.0
19:37:20.449000,119.0,672.0,-49.0,-765.0,106.0,-114.0,0.0,0.0,0.0
19:37:20.454000,90.0,648.0,-46.0,-765.0,106.0,-114.0,0.0,0.0,0.0
19:37:20.459000,65.0,630.0,-42.0,-819.0,82.0,-144.0,0.0,0.0,0.0
19:37:20.463000,50.0,613.0,-44.0,-819.0,82.0,-144.0,0.0,0.0,0.0
19:37:20.468000,22.0,599.0,-45.0,-864.0,89.0,-172.0,0.0,0.0,0.0
19:37:20.473000,1.0,578.0,-42.0,-864.0,89.0,-172.0,0.0,0.0,0.0
19:37:20.477000,-11.0,560.0,-53.0,-864.0,89.0,-172.0,0.0,0.0,0.0
19:37:20.482000,-18.0,537.0,-60.0,-882.0,87.0,-193.0,0.0,0.0,0.0
19:37:20.487000,-17.0,519.0,-35.0,-882.0,87.0,-193.0,0.0,0.0,0.0
19:37:20.491000,-16.0,498.0,0.0,-875.0,32.0,-213.0,0.0,0.0,0.0
19:37:20.496000,-6.0,483.0,21.0,-875.0,32.0,-213.0,0.0,0.0,0.0
19:37:20.501000,9.0,459.0,33.0,-870.0,-26.0,-240.0,0.0,0.0,0.0
19:37:20.506000,9.0,438.0,52.0,-870.0,-26.0,-240.0,0.0,0.0,0.0
19:37:20.510000,13.0,408.0,68.0,-869.0,-33.0,-276.0,0.0,0.0,0.0
19:37:20.515000,19.0,382.0,63.0,-869.0,-33.0,-276.0,0.0,0.0,0.0
19:37:20.520000,19.0,382.0,63.0,-838.0,0.0,-307.0,0.0,0.0,0.0
19:37:20.524000,30.0,350.0,49.0,-838.0,0.0,-307.0,0.0,0.0,0.0
19:37:20.529000,42.0,321.0,21.0,-801.0,29.0,-317.0,0.0,0.0,0.0
19:37:20.534000,14.0,307.0,-2.0,-801.0,29.0,-317.0,0.0,0.0,0.0
19:37:20.538000,51.0,252.0,52.0,-790.0,66.0,-333.0,0.0,0.0,0.0
19:37:20.543000,162.0,162.0,128.0,-790.0,66.0,-333.0,0.0,0.0,0.0
19:37:20.548000,162.0,114.0,193.0,-851.0,130.0,-349.0,0.0,0.0,0.0
19:37:20.553000,151.0,95.0,160.0,-851.0,130.0,-349.0,0.0,0.0,0.0
19:37:20.557000,135.0,71.0,133.0,-868.0,54.0,-332.0,0.0,0.0,0.0
19:37:20.562000,163.0,35.0,186.0,-868.0,54.0,-332.0,0.0,0.0,0.0
19:37:20.567000,160.0,8.0,290.0,-875.0,-55.0,-309.0,0.0,0.0,0.0
19:37:20.571000,179.0,-4.0,312.0,-875.0,-55.0,-309.0,0.0,0.0,0.0
19:37:20.576000,192.0,-25.0,286.0,-967.0,-34.0,-289.0,0.0,0.0,0.0
19:37:20.581000,200.0,-35.0,264.0,-967.0,-34.0,-289.0,0.0,0.0,0.0
19:37:20.585000,208.0,-53.0,246.0,-967.0,-34.0,-289.0,0.0,0.0,0.0
19:37:20.590000,210.0,-69.0,266.0,-913.0,-40.0,-269.0,0.0,0.0,0.0
19:37:20.595000,203.0,-90.0,256.0,-913.0,-40.0,-269.0,0.0,0.0,0.0
19:37:20.600000,200.0,-105.0,199.0,-860.0,-25.0,-258.0,0.0,0.0,0.0
19:37:20.604000,193.0,-120.0,152.0,-860.0,-25.0,-258.0,0.0,0.0,0.0
19:37:20.609000,176.0,-143.0,171.0,-917.0,18.0,-270.0,0.0,0.0,0.0
19:37:20.614000,161.0,-157.0,207.0,-917.0,18.0,-270.0,0.0,0.0,0.0
19:37:20.618000,149.0,-179.0,209.0,-872.0,33.0,-283.0,0.0,0.0,0.0
19:37:20.623000,131.0,-199.0,195.0,-872.0,33.0,-283.0,0.0,0.0,0.0
19:37:20.628000,118.0,-219.0,205.0,-780.0,69.0,-280.0,0.0,0.0,0.0
19:37:20.632000,118.0,-219.0,205.0,-780.0,69.0,-280.0,0.0,0.0,0.0
19:37:20.637000,112.0,-231.0,217.0,-736.0,31.0,-277.0,0.0,0.0,0.0
19:37:20.642000,119.0,-235.0,212.0,-736.0,31.0,-277.0,0.0,0.0,0.0
19:37:20.647000,131.0,-235.0,203.0,-768.0,-74.0,-281.0,0.0,0.0,0.0
19:37:20.651000,153.0,-235.0,189.0,-768.0,-74.0,-281.0,0.0,0.0,0.0
19:37:20.656000,171.0,-229.0,175.0,-867.0,-130.0,-281.0,0.0,0.0,0.0
19:37:20.661000,191.0,-216.0,168.0,-867.0,-130.0,-281.0,0.0,0.0,0.0
19:37:20.665000,214.0,-203.0,137.0,-954.0,-137.0,-275.0,0.0,0.0,0.0
19:37:20.670000,231.0,-192.0,104.0,-954.0,-137.0,-275.0,0.0,0.0,0.0
19:37:20.675000,244.0,-188.0,97.0,-975.0,-108.0,-262.0,0.0,0.0,0.0
19:37:20.679000,246.0,-190.0,109.0,-975.0,-108.0,-262.0,0.0,0.0,0.0
19:37:20.684000,245.0,-196.0,115.0,-944.0,-41.0,-254.0,0.0,0.0,0.0
19:37:20.689000,240.0,-202.0,117.0,-944.0,-41.0,-254.0,0.0,0.0,0.0
19:37:20.694000,235.0,-220.0,129.0,-944.0,-41.0,-254.0,0.0,0.0,0.0
19:37:20.698000,232.0,-238.0,151.0,-885.0,16.0,-254.0,0.0,0.0,0.0
19:37:20.703000,227.0,-256.0,173.0,-885.0,16.0,-254.0,0.0,0.0,0.0
19:37:20.708000,219.0,-280.0,189.0,-828.0,26.0,-249.0,0.0,0.0,0.0
19:37:20.712000,205.0,-298.0,214.0,-828.0,26.0,-249.0,0.0,0.0,0.0
19:37:20.717000,186.0,-316.0,211.0,-806.0,38.0,-232.0,0.0,0.0,0.0
19:37:20.722000,175.0,-327.0,186.0,-806.0,38.0,-232.0,0.0,0.0,0.0
19:37:20.726000,164.0,-333.0,173.0,-816.0,57.0,-210.0,0.0,0.0,0.0
19:37:20.731000,158.0,-339.0,177.0,-816.0,57.0,-210.0,0.0,0.0,0.0
19:37:20.736000,150.0,-340.0,174.0,-850.0,38.0,-189.0,0.0,0.0,0.0
19:37:20.741000,150.0,-340.0,174.0,-850.0,38.0,-189.0,0.0,0.0,0.0
19:37:20.755000,142.0,-331.0,157.0,-969.0,6.0,-164.0,0.0,0.0,0.0
19:37:20.759000,143.0,-325.0,178.0,-969.0,6.0,-164.0,0.0,0.0,0.0
19:37:20.764000,135.0,-330.0,196.0,-975.0,14.0,-161.0,0.0,0.0,0.0
19:37:20.769000,126.0,-336.0,205.0,-975.0,14.0,-161.0,0.0,0.0,0.0
19:37:20.773000,114.0,-350.0,213.0,-940.0,56.0,-152.0,0.0,0.0,0.0
19:37:20.778000,98.0,-366.0,230.0,-940.0,56.0,-152.0,0.0,0.0,0.0
19:37:20.783000,81.0,-382.0,247.0,-890.0,73.0,-136.0,0.0,0.0,0.0
19:37:20.788000,63.0,-396.0,252.0,-890.0,73.0,-136.0,0.0,0.0,0.0
19:37:20.792000,49.0,-408.0,242.0,-880.0,70.0,-111.0,0.0,0.0,0.0
19:37:20.797000,38.0,-417.0,225.0,-880.0,70.0,-111.0,0.0,0.0,0.0
19:37:20.802000,33.0,-424.0,214.0,-880.0,70.0,-111.0,0.0,0.0,0.0
19:37:20.806000,32.0,-428.0,205.0,-911.0,42.0,-96.0,0.0,0.0,0.0
19:37:20.811000,35.0,-428.0,189.0,-911.0,42.0,-96.0,0.0,0.0,0.0
19:37:20.815000,33.0,-423.0,171.0,-971.0,12.0,-95.0,0.0,0.0,0.0
19:37:20.820000,23.0,-416.0,160.0,-971.0,12.0,-95.0,0.0,0.0,0.0
19:37:20.825000,8.0,-414.0,152.0,-1043.0,29.0,-111.0,0.0,0.0,0.0
19:37:20.830000,-9.0,-420.0,133.0,-1043.0,29.0,-111.0,0.0,0.0,0.0
19:37:20.835000,-21.0,-431.0,106.0,-1059.0,69.0,-138.0,0.0,0.0,0.0
19:37:20.839000,-25.0,-448.0,93.0,-1059.0,69.0,-138.0,0.0,0.0,0.0
19:37:20.844000,-24.0,-472.0,98.0,-985.0,72.0,-168.0,0.0,0.0,0.0
19:37:20.849000,-24.0,-472.0,98.0,-985.0,72.0,-168.0,0.0,0.0,0.0
19:37:20.853000,-15.0,-504.0,105.0,-902.0,28.0,-187.0,0.0,0.0,0.0
19:37:20.858000,6.0,-534.0,106.0,-902.0,28.0,-187.0,0.0,0.0,0.0
19:37:20.863000,41.0,-560.0,110.0,-871.0,-62.0,-186.0,0.0,0.0,0.0
19:37:20.867000,90.0,-580.0,102.0,-871.0,-62.0,-186.0,0.0,0.0,0.0
19:37:20.872000,149.0,-597.0,71.0,-905.0,-159.0,-177.0,0.0,0.0,0.0
19:37:20.876000,210.0,-611.0,26.0,-905.0,-159.0,-177.0,0.0,0.0,0.0
19:37:20.882000,266.0,-622.0,-17.0,-978.0,-193.0,-171.0,0.0,0.0,0.0
19:37:20.886000,314.0,-626.0,-54.0,-978.0,-193.0,-171.0,0.0,0.0,0.0
19:37:20.891000,350.0,-632.0,-85.0,-1020.0,-161.0,-165.0,0.0,0.0,0.0
19:37:20.896000,371.0,-637.0,-119.0,-1020.0,-161.0,-165.0,0.0,0.0,0.0
19:37:20.900000,378.0,-642.0,-163.0,-1030.0,-63.0,-158.0,0.0,0.0,0.0
19:37:20.905000,377.0,-651.0,-208.0,-1030.0,-63.0,-158.0,0.0,0.0,0.0
19:37:20.910000,374.0,-666.0,-238.0,-1030.0,18.0,-158.0,0.0,0.0,0.0
19:37:20.914000,375.0,-688.0,-249.0,-1001.0,18.0,-153.0,0.0,0.0,0.0
19:37:20.919000,379.0,-710.0,-247.0,-1001.0,18.0,-153.0,0.0,0.0,0.0
19:37:20.924000,387.0,-732.0,-236.0,-942.0,36.0,-147.0,0.0,0.0,0.0
19:37:20.928000,404.0,-749.0,-219.0,-942.0,36.0,-147.0,0.0,0.0,0.0
19:37:20.933000,425.0,-762.0,-198.0,-899.0,32.0,-135.0,0.0,0.0,0.0
19:37:20.938000,447.0,-769.0,-170.0,-899.0,32.0,-135.0,0.0,0.0,0.0
19:37:20.943000,465.0,-764.0,-142.0,-892.0,13.0,-122.0,0.0,0.0,0.0
19:37:20.947000,478.0,-755.0,-123.0,-892.0,13.0,-122.0,0.0,0.0,0.0
19:37:20.952000,469.0,-741.0,-109.0,-924.0,19.0,-115.0,0.0,0.0,0.0
19:37:20.957000,469.0,-741.0,-109.0,-924.0,19.0,-115.0,0.0,0.0,0.0
19:37:20.961000,459.0,-733.0,-111.0,-971.0,64.0,-114.0,0.0,0.0,0.0
19:37:20.966000,432.0,-713.0,-126.0,-971.0,64.0,-114.0,0.0,0.0,0.0
19:37:20.971000,403.0,-692.0,-156.0,-1052.0,96.0,-116.0,0.0,0.0,0.0
19:37:20.976000,373.0,-681.0,-224.0,-1052.0,96.0,-116.0,0.0,0.0,0.0
19:37:20.980000,328.0,-676.0,-114.0,-979.0,66.0,-97.0,0.0,0.0,0.0
19:37:20.985000,294.0,-675.0,17.0,-979.0,66.0,-97.0,0.0,0.0,0.0
19:37:20.990000,283.0,-676.0,-99.0,-805.0,110.0,-68.0,0.0,0.0,0.0
19:37:20.994000,270.0,-672.0,-257.0,-805.0,110.0,-68.0,0.0,0.0,0.0
19:37:20.999000,265.0,-676.0,-256.0,-765.0,136.0,-41.0,0.0,0.0,0.0
19:37:21.004000,263.0,-673.0,-196.0,-765.0,136.0,-41.0,0.0,0.0,0.0
19:37:21.008000,264.0,-665.0,-161.0,-821.0,84.0,-7.0,0.0,0.0,0.0
19:37:21.013000,261.0,-651.0,-139.0,-821.0,84.0,-7.0,0.0,0.0,0.0
19:37:21.018000,225.0,-637.0,-56.0,-949.0,77.0,36.0,0.0,0.0,0.0
19:37:21.023000,240.0,-629.0,56.0,-949.0,77.0,36.0,0.0,0.0,0.0
19:37:21.027000,243.0,-613.0,177.0,-949.0,77.0,36.0,0.0,0.0,0.0
19:37:21.032000,259.0,-596.0,107.0,-1038.0,89.0,62.0,0.0,0.0,0.0
19:37:21.037000,268.0,-571.0,-55.0,-1038.0,89.0,62.0,0.0,0.0,0.0
19:37:21.041000,241.0,-535.0,-211.0,-1023.0,205.0,61.0,0.0,0.0,0.0
19:37:21.046000,184.0,-495.0,-239.0,-1023.0,205.0,61.0,0.0,0.0,0.0
19:37:21.051000,130.0,-475.0,-226.0,-915.0,262.0,79.0,0.0,0.0,0.0
19:37:21.055000,89.0,-455.0,-140.0,-915.0,262.0,79.0,0.0,0.0,0.0
19:37:21.060000,56.0,-428.0,0.0,-887.0,109.0,95.0,0.0,0.0,0.0
19:37:21.065000,46.0,-404.0,77.0,-887.0,109.0,95.0,0.0,0.0,0.0
19:37:21.070000,46.0,-404.0,77.0,-1030.0,-45.0,87.0,0.0,0.0,0.0
19:37:21.074000,53.0,-372.0,40.0,-1030.0,-45.0,87.0,0.0,0.0,0.0
19:37:21.079000,49.0,-339.0,-58.0,-1117.0,-49.0,94.0,0.0,0.0,0.0
19:37:21.084000,40.0,-312.0,-170.0,-1117.0,-49.0,94.0,0.0,0.0,0.0
19:37:21.088000,42.0,-289.0,-234.0,-1016.0,-15.0,123.0,0.0,0.0,0.0
19:37:21.093000,56.0,-276.0,-242.0,-1016.0,-15.0,123.0,0.0,0.0,0.0
19:37:21.098000,51.0,-260.0,-256.0,-876.0,-9.0,160.0,0.0,0.0,0.0
19:37:21.102000,70.0,-252.0,-289.0,-876.0,-9.0,160.0,0.0,0.0,0.0
19:37:21.107000,73.0,-226.0,-322.0,-864.0,24.0,168.0,0.0,0.0,0.0
19:37:21.112000,76.0,-206.0,-364.0,-864.0,24.0,168.0,0.0,0.0,0.0
19:37:21.117000,87.0,-189.0,-394.0,-895.0,51.0,163.0,0.0,0.0,0.0
19:37:21.121000,91.0,-178.0,-392.0,-895.0,51.0,163.0,0.0,0.0,0.0
19:37:21.126000,81.0,-181.0,-386.0,-878.0,53.0,180.0,0.0,0.0,0.0
19:37:21.131000,72.0,-178.0,-373.0,-878.0,53.0,180.0,0.0,0.0,0.0
19:37:21.135000,46.0,-184.0,-351.0,-878.0,53.0,180.0,0.0,0.0,0.0
19:37:21.140000,37.0,-191.0,-336.0,-825.0,83.0,191.0,0.0,0.0,0.0
19:37:21.145000,18.0,-207.0,-341.0,-825.0,83.0,191.0,0.0,0.0,0.0
19:37:21.149000,-9.0,-217.0,-335.0,-773.0,117.0,203.0,0.0,0.0,0.0
19:37:21.154000,-32.0,-235.0,-331.0,-773.0,117.0,203.0,0.0,0.0,0.0
19:37:21.159000,-52.0,-252.0,-326.0,-768.0,137.0,224.0,0.0,0.0,0.0
19:37:21.163000,-52.0,-252.0,-326.0,-768.0,137.0,224.0,0.0,0.0,0.0
19:37:21.168000,-82.0,-249.0,-266.0,-804.0,116.0,234.0,0.0,0.0,0.0
19:37:21.173000,-70.0,-241.0,-242.0,-804.0,116.0,234.0,0.0,0.0,0.0
19:37:21.178000,-70.0,-241.0,-242.0,-883.0,39.0,203.0,0.0,0.0,0.0
19:37:21.182000,-63.0,-224.0,-230.0,-883.0,39.0,203.0,0.0,0.0,0.0
19:37:21.187000,-53.0,-224.0,-210.0,-919.0,14.0,168.0,0.0,0.0,0.0
19:37:21.192000,-45.0,-233.0,-166.0,-919.0,14.0,168.0,0.0,0.0,0.0
19:37:21.196000,-48.0,-238.0,-165.0,-854.0,87.0,178.0,0.0,0.0,0.0
19:37:21.201000,-56.0,-252.0,-196.0,-854.0,87.0,178.0,0.0,0.0,0.0
19:37:21.206000,-60.0,-270.0,-204.0,-818.0,122.0,204.0,0.0,0.0,0.0
19:37:21.211000,-64.0,-289.0,-198.0,-818.0,122.0,204.0,0.0,0.0,0.0
19:37:21.215000,-67.0,-289.0,-161.0,-889.0,35.0,197.0,0.0,0.0,0.0
19:37:21.220000,-70.0,-263.0,-97.0,-889.0,35.0,197.0,0.0,0.0,0.0
19:37:21.225000,-74.0,-243.0,-31.0,-987.0,-43.0,167.0,0.0,0.0,0.0
19:37:21.229000,-73.0,-231.0,23.0,-987.0,-43.0,167.0,0.0,0.0,0.0
19:37:21.234000,-77.0,-229.0,37.0,-1028.0,15.0,157.0,0.0,0.0,0.0
19:37:21.239000,-86.0,-227.0,19.0,-1028.0,15.0,157.0,0.0,0.0,0.0
19:37:21.243000,-95.0,-225.0,2.0,-1028.0,15.0,157.0,0.0,0.0,0.0
19:37:21.248000,-102.0,-225.0,0.0,-974.0,109.0,177.0,0.0,0.0,0.0
19:37:21.253000,-101.0,-225.0,-4.0,-974.0,109.0,177.0,0.0,0.0,0.0
19:37:21.258000,-81.0,-235.0,7.0,-864.0,78.0,224.0,0.0,0.0,0.0
19:37:21.262000,-72.0,-254.0,31.0,-864.0,78.0,224.0,0.0,0.0,0.0
19:37:21.267000,-65.0,-295.0,49.0,-781.0,1.0,290.0,0.0,0.0,0.0
19:37:21.272000,-52.0,-361.0,37.0,-781.0,1.0,290.0,0.0,0.0,0.0
19:37:21.276000,-63.0,-429.0,-8.0,-778.0,53.0,374.0,0.0,0.0,0.0
19:37:21.281000,-110.0,-460.0,-90.0,-778.0,53.0,374.0,0.0,0.0,0.0
19:37:21.286000,-110.0,-460.0,-90.0,-855.0,114.0,442.0,0.0,0.0,0.0
19:37:21.290000,-136.0,-449.0,-137.0,-855.0,114.0,442.0,0.0,0.0,0.0
19:37:21.295000,-182.0,-424.0,-100.0,-955.0,-33.0,447.0,0.0,0.0,0.0
19:37:21.300000,-252.0,-398.0,15.0,-955.0,-33.0,447.0,0.0,0.0,0.0
19:37:21.305000,-291.0,-365.0,114.0,-1066.0,-103.0,412.0,0.0,0.0,0.0
19:37:21.309000,-339.0,-322.0,88.0,-1066.0,-103.0,412.0,0.0,0.0,0.0
19:37:21.314000,-407.0,-277.0,-14.0,-1167.0,79.0,389.0,0.0,0.0,0.0
19:37:21.319000,-442.0,-226.0,-114.0,-1167.0,79.0,389.0,0.0,0.0,0.0
19:37:21.323000,-453.0,-181.0,-189.0,-1178.0,131.0,382.0,0.0,0.0,0.0
19:37:21.328000,-455.0,-140.0,-234.0,-1178.0,131.0,382.0,0.0,0.0,0.0
19:37:21.333000,-460.0,-108.0,-228.0,-1105.0,-16.0,390.0,0.0,0.0,0.0
19:37:21.337000,-448.0,-91.0,-193.0,-1105.0,-16.0,390.0,0.0,0.0,0.0
19:37:21.342000,-429.0,-75.0,-154.0,-1024.0,-125.0,405.0,0.0,0.0,0.0
19:37:21.347000,-408.0,-63.0,-127.0,-1024.0,-125.0,405.0,0.0,0.0,0.0
19:37:21.352000,-394.0,-47.0,-103.0,-956.0,-153.0,407.0,0.0,0.0,0.0
19:37:21.356000,-377.0,-42.0,-104.0,-956.0,-153.0,407.0,0.0,0.0,0.0
19:37:21.361000,-361.0,-44.0,-137.0,-956.0,-153.0,407.0,0.0,0.0,0.0
19:37:21.366000,-354.0,-56.0,-161.0,-920.0,-112.0,414.0,0.0,0.0,0.0
19:37:21.370000,-359.0,-88.0,-178.0,-920.0,-112.0,414.0,0.0,0.0,0.0
19:37:21.375000,-359.0,-135.0,-197.0,-925.0,-66.0,434.0,0.0,0.0,0.0
19:37:21.380000,-373.0,-212.0,-221.0,-925.0,-66.0,434.0,0.0,0.0,0.0
19:37:21.384000,-399.0,-286.0,-256.0,-906.0,-37.0,491.0,0.0,0.0,0.0
19:37:21.389000,-451.0,-321.0,-308.0,-906.0,-37.0,491.0,0.0,0.0,0.0
19:37:21.394000,-502.0,-336.0,-347.0,-811.0,27.0,527.0,0.0,0.0,0.0
19:37:21.398000,-502.0,-336.0,-347.0,-811.0,27.0,527.0,0.0,0.0,0.0
19:37:21.403000,-557.0,-333.0,-394.0,-832.0,48.0,502.0,0.0,0.0,0.0
19:37:21.408000,-601.0,-335.0,-435.0,-832.0,48.0,502.0,0.0,0.0,0.0
19:37:21.436000,-532.0,-328.0,-515.0,-1213.0,-148.0,453.0,0.0,0.0,0.0
19:37:21.441000,-557.0,-312.0,-545.0,-1225.0,-3.0,453.0,0.0,0.0,0.0
19:37:21.446000,-602.0,-303.0,-553.0,-1225.0,-3.0,453.0,0.0,0.0,0.0
19:37:21.450000,-665.0,-294.0,-541.0,-1217.0,51.0,449.0,0.0,0.0,0.0
19:37:21.455000,-736.0,-291.0,-523.0,-1217.0,51.0,449.0,0.0,0.0,0.0
19:37:21.460000,-814.0,-299.0,-527.0,-1217.0,51.0,449.0,0.0,0.0,0.0
19:37:21.464000,-901.0,-299.0,-548.0,-1192.0,83.0,447.0,0.0,0.0,0.0
19:37:21.469000,-982.0,-312.0,-578.0,-1192.0,83.0,447.0,0.0,0.0,0.0
19:37:21.474000,-1050.0,-322.0,-616.0,-1160.0,128.0,452.0,0.0,0.0,0.0
19:37:21.478000,-1123.0,-326.0,-662.0,-1160.0,128.0,452.0,0.0,0.0,0.0
19:37:21.483000,-1176.0,-340.0,-688.0,-1140.0,116.0,458.0,0.0,0.0,0.0
19:37:21.488000,-1207.0,-354.0,-709.0,-1140.0,116.0,458.0,0.0,0.0,0.0
19:37:21.493000,-1229.0,-372.0,-743.0,-1104.0,21.0,460.0,0.0,0.0,0.0
19:37:21.497000,-1248.0,-389.0,-781.0,-1104.0,21.0,460.0,0.0,0.0,0.0
19:37:21.502000,-1277.0,-396.0,-818.0,-1059.0,-15.0,458.0,0.0,0.0,0.0
19:37:21.507000,-1277.0,-396.0,-818.0,-1059.0,-15.0,458.0,0.0,0.0,0.0
19:37:21.511000,-1293.0,-412.0,-840.0,-1056.0,-9.0,459.0,0.0,0.0,0.0
19:37:21.516000,-1292.0,-426.0,-854.0,-1056.0,-9.0,459.0,0.0,0.0,0.0
19:37:21.521000,-1286.0,-436.0,-866.0,-1035.0,-71.0,460.0,0.0,0.0,0.0
19:37:21.525000,-1273.0,-449.0,-879.0,-1035.0,-71.0,460.0,0.0,0.0,0.0
19:37:21.530000,-1260.0,-463.0,-892.0,-993.0,-60.0,454.0,0.0,0.0,0.0
19:37:21.535000,-1264.0,-469.0,-915.0,-993.0,-60.0,454.0,0.0,0.0,0.0
19:37:21.540000,-1267.0,-476.0,-931.0,-983.0,9.0,452.0,0.0,0.0,0.0
19:37:21.544000,-1264.0,-487.0,-935.0,-983.0,9.0,452.0,0.0,0.0,0.0
19:37:21.548000,-1260.0,-499.0,-956.0,-948.0,38.0,449.0,0.0,0.0,0.0
19:37:21.554000,-1259.0,-513.0,-968.0,-948.0,38.0,449.0,0.0,0.0,0.0
19:37:21.558000,-1259.0,-528.0,-977.0,-900.0,102.0,442.0,0.0,0.0,0.0
19:37:21.563000,-1267.0,-540.0,-975.0,-900.0,102.0,442.0,0.0,0.0,0.0
19:37:21.568000,-1271.0,-548.0,-977.0,-900.0,102.0,442.0,0.0,0.0,0.0
19:37:21.572000,-1276.0,-555.0,-990.0,-912.0,181.0,432.0,0.0,0.0,0.0
19:37:21.577000,-1282.0,-564.0,-1003.0,-912.0,181.0,432.0,0.0,0.0,0.0
19:37:21.582000,-1288.0,-575.0,-1012.0,-947.0,223.0,412.0,0.0,0.0,0.0
19:37:21.587000,-1297.0,-587.0,-1019.0,-947.0,223.0,412.0,0.0,0.0,0.0
19:37:21.591000,-1311.0,-599.0,-1024.0,-951.0,272.0,393.0,0.0,0.0,0.0
19:37:21.596000,-1325.0,-612.0,-1028.0,-951.0,272.0,393.0,0.0,0.0,0.0
