hh:mm:ss.ms,gyroX[mdps],gyroY[mdps],gyroZ[mdps],accX[mg],accY[mg],accZ[mg],magX[mG],magY[mG],magZ[mG]
19:36:22.549000,-2429.0,-1763.0,-544.0,-965.0,324.0,620.0,0.0,0.0,0.0
19:36:22.553000,-2431.0,-1756.0,-473.0,-952.0,181.0,616.0,0.0,0.0,0.0
19:36:22.558000,-2411.0,-1755.0,-447.0,-952.0,181.0,616.0,0.0,0.0,0.0
19:36:22.563000,-2362.0,-1721.0,-439.0,-926.0,60.0,622.0,0.0,0.0,0.0
19:36:22.568000,-2258.0,-1713.0,-430.0,-926.0,60.0,622.0,0.0,0.0,0.0
19:36:22.572000,-2217.0,-1715.0,-431.0,-855.0,9.0,609.0,0.0,0.0,0.0
19:36:22.577000,-2154.0,-1707.0,-461.0,-855.0,9.0,609.0,0.0,0.0,0.0
19:36:22.582000,-2062.0,-1715.0,-476.0,-794.0,-11.0,603.0,0.0,0.0,0.0
19:36:22.586000,-2027.0,-1722.0,-473.0,-794.0,-11.0,603.0,0.0,0.0,0.0
19:36:22.591000,-1981.0,-1711.0,-520.0,-794.0,-11.0,603.0,0.0,0.0,0.0
19:36:22.596000,-1961.0,-1719.0,-543.0,-772.0,41.0,587.0,0.0,0.0,0.0
19:36:22.600000,-1953.0,-1728.0,-527.0,-772.0,41.0,587.0,0.0,0.0,0.0
19:36:22.605000,-1940.0,-1729.0,-520.0,-721.0,128.0,592.0,0.0,0.0,0.0
19:36:22.610000,-1914.0,-1719.0,-515.0,-721.0,128.0,592.0,0.0,0.0,0.0
19:36:22.615000,-1886.0,-1707.0,-501.0,-678.0,134.0,602.0,0.0,0.0,0.0
19:36:22.619000,-1855.0,-1687.0,-485.0,-678.0,134.0,602.0,0.0,0.0,0.0
19:36:22.624000,-1843.0,-1653.0,-467.0,-692.0,149.0,595.0,0.0,0.0,0.0
19:36:22.629000,-1829.0,-1612.0,-428.0,-692.0,149.0,595.0,0.0,0.0,0.0
19:36:22.633000,-1829.0,-1612.0,-428.0,-709.0,182.0,587.0,0.0,0.0,0.0
19:36:22.638000,-1817.0,-1561.0,-364.0,-709.0,182.0,587.0,0.0,0.0,0.0
19:36:22.643000,-1800.0,-1500.0,-291.0,-704.0,172.0,578.0,0.0,0.0,0.0
19:36:22.647000,-1775.0,-1438.0,-218.0,-704.0,172.0,578.0,0.0,0.0,0.0
19:36:22.652000,-1757.0,-1367.0,-144.0,-698.0,152.0,568.0,0.0,0.0,0.0
19:36:22.657000,-1730.0,-1304.0,-107.0,-698.0,152.0,568.0,0.0,0.0,0.0
19:36:22.662000,-1713.0,-1241.0,-118.0,-696.0,181.0,564.0,0.0,0.0,0.0
19:36:22.666000,-1678.0,-1186.0,-113.0,-696.0,181.0,564.0,0.0,0.0,0.0
19:36:22.671000,-1649.0,-1138.0,-58.0,-673.0,242.0,568.0,0.0,0.0,0.0
19:36:22.676000,-1626.0,-1091.0,-38.0,-673.0,242.0,568.0,0.0,0.0,0.0
19:36:22.680000,-1584.0,-1040.0,-75.0,-633.0,291.0,562.0,0.0,0.0,0.0
19:36:22.685000,-1505.0,-991.0,-122.0,-633.0,291.0,562.0,0.0,0.0,0.0
19:36:22.690000,-1339.0,-963.0,-191.0,-572.0,373.0,561.0,0.0,0.0,0.0
19:36:22.694000,-1425.0,-921.0,-258.0,-572.0,373.0,561.0,0.0,0.0,0.0
19:36:22.699000,-1365.0,-900.0,-154.0,-572.0,373.0,561.0,0.0,0.0,0.0
19:36:22.704000,-1307.0,-854.0,-157.0,-519.0,325.0,554.0,0.0,0.0,0.0
19:36:22.709000,-1332.0,-875.0,-121.0,-519.0,325.0,554.0,0.0,0.0,0.0
19:36:22.713000,-1313.0,-855.0,13.0,-534.0,330.0,559.0,0.0,0.0,0.0
19:36:22.718000,-1269.0,-833.0,74.0,-534.0,330.0,559.0,0.0,0.0,0.0
19:36:22.723000,-1224.0,-793.0,75.0,-669.0,492.0,556.0,0.0,0.0,0.0
19:36:22.727000,-1229.0,-745.0,42.0,-669.0,492.0,556.0,0.0,0.0,0.0
19:36:22.732000,-1219.0,-706.0,68.0,-743.0,509.0,535.0,0.0,0.0,0.0
19:36:22.737000,-1187.0,-655.0,140.0,-743.0,509.0,535.0,0.0,0.0,0.0
19:36:22.741000,-1187.0,-655.0,140.0,-674.0,499.0,533.0,0.0,0.0,0.0
19:36:22.746000,-1190.0,-609.0,173.0,-674.0,499.0,533.0,0.0,0.0,0.0
19:36:22.751000,-1164.0,-559.0,191.0,-684.0,576.0,523.0,0.0,0.0,0.0
19:36:22.756000,-1173.0,-529.0,160.0,-684.0,576.0,523.0,0.0,0.0,0.0
19:36:22.760000,-1178.0,-486.0,93.0,-763.0,653.0,510.0,0.0,0.0,0.0
19:36:22.765000,-1158.0,-463.0,70.0,-763.0,653.0,510.0,0.0,0.0,0.0
19:36:22.770000,-1138.0,-434.0,58.0,-736.0,595.0,501.0,0.0,0.0,0.0
19:36:22.774000,-1114.0,-417.0,32.0,-736.0,595.0,501.0,0.0,0.0,0.0
19:36:22.779000,-1087.0,-396.0,35.0,-593.0,482.0,485.0,0.0,0.0,0.0
19:36:22.784000,-1061.0,-385.0,69.0,-593.0,482.0,485.0,0.0,0.0,0.0
19:36:22.788000,-1012.0,-368.0,88.0,-535.0,501.0,447.0,0.0,0.0,0.0
19:36:22.793000,-985.0,-346.0,73.0,-535.0,501.0,447.0,0.0,0.0,0.0
19:36:22.798000,-988.0,-338.0,51.0,-586.0,609.0,424.0,0.0,0.0,0.0
19:36:22.803000,-983.0,-330.0,56.0,-586.0,609.0,424.0,0.0,0.0,0.0
19:36:22.807000,-986.0,-315.0,67.0,-586.0,609.0,424.0,0.0,0.0,0.0
19:36:22.812000,-983.0,-298.0,54.0,-616.0,640.0,418.0,0.0,0.0,0.0
19:36:22.817000,-969.0,-279.0,61.0,-616.0,640.0,418.0,0.0,0.0,0.0
19:36:22.821000,-970.0,-277.0,100.0,-586.0,592.0,401.0,0.0,0.0,0.0
19:36:22.826000,-973.0,-279.0,151.0,-586.0,592.0,401.0,0.0,0.0,0.0
19:36:22.831000,-945.0,-279.0,172.0,-563.0,547.0,397.0,0.0,0.0,0.0
19:36:22.835000,-900.0,-267.0,123.0,-563.0,547.0,397.0,0.0,0.0,0.0
19:36:22.840000,-869.0,-262.0,66.0,-543.0,531.0,395.0,0.0,0.0,0.0
19:36:22.845000,-849.0,-268.0,65.0,-543.0,531.0,395.0,0.0,0.0,0.0
19:36:22.850000,-849.0,-268.0,65.0,-474.0,542.0,398.0,0.0,0.0,0.0
19:36:22.854000,-829.0,-268.0,56.0,-474.0,542.0,398.0,0.0,0.0,0.0
19:36:22.859000,-826.0,-266.0,16.0,-462.0,575.0,407.0,0.0,0.0,0.0
19:36:22.864000,-831.0,-268.0,18.0,-462.0,575.0,407.0,0.0,0.0,0.0
19:36:22.868000,-823.0,-274.0,32.0,-540.0,610.0,405.0,0.0,0.0,0.0
19:36:22.873000,-829.0,-279.0,9.0,-540.0,610.0,405.0,0.0,0.0,0.0
19:36:22.878000,-826.0,-287.0,-26.0,-578.0,631.0,400.0,0.0,0.0,0.0
19:36:22.882000,-812.0,-299.0,-63.0,-578.0,631.0,400.0,0.0,0.0,0.0
19:36:22.887000,-793.0,-315.0,-97.0,-536.0,628.0,404.0,0.0,0.0,0.0
19:36:22.892000,-779.0,-328.0,-108.0,-536.0,628.0,404.0,0.0,0.0,0.0
19:36:22.897000,-757.0,-338.0,-121.0,-503.0,609.0,412.0,0.0,0.0,0.0
19:36:22.901000,-732.0,-349.0,-133.0,-503.0,609.0,412.0,0.0,0.0,0.0
19:36:22.906000,-703.0,-353.0,-154.0,-508.0,593.0,420.0,0.0,0.0,0.0
19:36:22.911000,-669.0,-354.0,-165.0,-508.0,593.0,420.0,0.0,0.0,0.0
19:36:22.915000,-637.0,-354.0,-146.0,-508.0,593.0,420.0,0.0,0.0,0.0
19:36:22.920000,-602.0,-355.0,-135.0,-506.0,558.0,427.0,0.0,0.0,0.0
19:36:22.925000,-567.0,-345.0,-129.0,-506.0,558.0,427.0,0.0,0.0,0.0
19:36:22.929000,-544.0,-329.0,-137.0,-498.0,547.0,426.0,0.0,0.0,0.0
19:36:22.934000,-527.0,-312.0,-154.0,-498.0,547.0,426.0,0.0,0.0,0.0
19:36:22.939000,-549.0,-296.0,-128.0,-514.0,628.0,430.0,0.0,0.0,0.0
19:36:22.944000,-583.0,-275.0,-48.0,-514.0,628.0,430.0,0.0,0.0,0.0
19:36:22.948000,-502.0,-275.0,-198.0,-557.0,841.0,447.0,0.0,0.0,0.0
19:36:22.953000,-517.0,-254.0,-365.0,-557.0,841.0,447.0,0.0,0.0,0.0
19:36:22.958000,-447.0,-245.0,-457.0,-535.0,945.0,470.0,0.0,0.0,0.0
19:36:22.962000,-447.0,-245.0,-457.0,-535.0,945.0,470.0,0.0,0.0,0.0
19:36:22.967000,-423.0,-228.0,-434.0,-393.0,793.0,502.0,0.0,0.0,0.0
19:36:22.972000,-450.0,-220.0,-305.0,-393.0,793.0,502.0,0.0,0.0,0.0
19:36:22.976000,-399.0,-213.0,-144.0,-405.0,627.0,509.0,0.0,0.0,0.0
19:36:22.981000,-376.0,-204.0,-42.0,-405.0,627.0,509.0,0.0,0.0,0.0
19:36:22.986000,-347.0,-210.0,72.0,-516.0,640.0,521.0,0.0,0.0,0.0
19:36:22.991000,-371.0,-226.0,130.0,-516.0,640.0,521.0,0.0,0.0,0.0
19:36:22.995000,-397.0,-231.0,90.0,-455.0,728.0,565.0,0.0,0.0,0.0
19:36:23.000000,-403.0,-233.0,38.0,-455.0,728.0,565.0,0.0,0.0,0.0
19:36:23.005000,-396.0,-226.0,28.0,-344.0,742.0,594.0,0.0,0.0,0.0
19:36:23.009000,-396.0,-223.0,36.0,-344.0,742.0,594.0,0.0,0.0,0.0
19:36:23.013000,-410.0,-219.0,39.0,-340.0,712.0,605.0,0.0,0.0,0.0
19:36:23.019000,-402.0,-212.0,8.0,-340.0,712.0,605.0,0.0,0.0,0.0
19:36:23.023000,-380.0,-205.0,-50.0,-340.0,712.0,605.0,0.0,0.0,0.0
19:36:23.028000,-365.0,-207.0,-105.0,-419.0,704.0,602.0,0.0,0.0,0.0
19:36:23.033000,-347.0,-209.0,-148.0,-419.0,704.0,602.0,0.0,0.0,0.0
19:36:23.038000,-317.0,-211.0,-172.0,-443.0,684.0,597.0,0.0,0.0,0.0
19:36:23.042000,-287.0,-208.0,-187.0,-443.0,684.0,597.0,0.0,0.0,0.0
19:36:23.047000,-265.0,-210.0,-223.0,-403.0,639.0,585.0,0.0,0.0,0.0
19:36:23.052000,-247.0,-215.0,-276.0,-403.0,639.0,585.0,0.0,0.0,0.0
19:36:23.056000,-233.0,-228.0,-331.0,-396.0,698.0,567.0,0.0,0.0,0.0
19:36:23.061000,-216.0,-242.0,-361.0,-396.0,698.0,567.0,0.0,0.0,0.0
19:36:23.066000,-191.0,-255.0,-346.0,-403.0,731.0,559.0,0.0,0.0,0.0
19:36:23.070000,-191.0,-255.0,-346.0,-403.0,731.0,559.0,0.0,0.0,0.0
19:36:23.075000,-155.0,-264.0,-322.0,-397.0,665.0,537.0,0.0,0.0,0.0
19:36:23.080000,-107.0,-267.0,-322.0,-397.0,665.0,537.0,0.0,0.0,0.0
19:36:23.085000,-72.0,-274.0,-324.0,-424.0,669.0,509.0,0.0,0.0,0.0
19:36:23.089000,-50.0,-283.0,-310.0,-424.0,669.0,509.0,0.0,0.0,0.0
19:36:23.094000,-27.0,-292.0,-273.0,-444.0,716.0,488.0,0.0,0.0,0.0
19:36:23.099000,-7.0,-301.0,-241.0,-444.0,716.0,488.0,0.0,0.0,0.0
19:36:23.103000,14.0,-315.0,-212.0,-425.0,733.0,471.0,0.0,0.0,0.0
19:36:23.108000,40.0,-327.0,-189.0,-425.0,733.0,471.0,0.0,0.0,0.0
19:36:23.113000,60.0,-337.0,-173.0,-386.0,745.0,462.0,0.0,0.0,0.0
19:36:23.117000,62.0,-352.0,-147.0,-386.0,745.0,462.0,0.0,0.0,0.0
19:36:23.122000,66.0,-368.0,-107.0,-356.0,771.0,456.0,0.0,0.0,0.0
19:36:23.127000,65.0,-378.0,-91.0,-356.0,771.0,456.0,0.0,0.0,0.0
19:36:23.132000,46.0,-386.0,-111.0,-390.0,840.0,447.0,0.0,0.0,0.0
19:36:23.136000,30.0,-392.0,-138.0,-390.0,840.0,447.0,0.0,0.0,0.0
19:36:23.141000,25.0,-396.0,-154.0,-390.0,840.0,447.0,0.0,0.0,0.0
19:36:23.146000,23.0,-400.0,-171.0,-437.0,882.0,429.0,0.0,0.0,0.0
19:36:23.150000,33.0,-397.0,-198.0,-437.0,882.0,429.0,0.0,0.0,0.0
19:36:23.155000,56.0,-394.0,-219.0,-443.0,840.0,403.0,0.0,0.0,0.0
19:36:23.160000,82.0,-392.0,-236.0,-443.0,840.0,403.0,0.0,0.0,0.0
19:36:23.164000,138.0,-387.0,-266.0,-455.0,783.0,377.0,0.0,0.0,0.0
19:36:23.169000,138.0,-387.0,-266.0,-455.0,783.0,377.0,0.0,0.0,0.0
19:36:23.174000,238.0,-370.0,-308.0,-481.0,748.0,359.0,0.0,0.0,0.0
19:36:23.179000,238.0,-370.0,-308.0,-481.0,748.0,359.0,0.0,0.0,0.0
19:36:23.183000,319.0,-355.0,-310.0,-491.0,692.0,343.0,0.0,0.0,0.0
19:36:23.188000,403.0,-348.0,-299.0,-491.0,692.0,343.0,0.0,0.0,0.0
19:36:23.193000,487.0,-342.0,-289.0,-474.0,640.0,344.0,0.0,0.0,0.0
19:36:23.197000,578.0,-336.0,-263.0,-474.0,640.0,344.0,0.0,0.0,0.0
19:36:23.202000,665.0,-334.0,-214.0,-434.0,657.0,370.0,0.0,0.0,0.0
19:36:23.207000,744.0,-334.0,-178.0,-434.0,657.0,370.0,0.0,0.0,0.0
19:36:23.211000,818.0,-332.0,-156.0,-432.0,723.0,398.0,0.0,0.0,0.0
19:36:23.216000,884.0,-329.0,-132.0,-432.0,723.0,398.0,0.0,0.0,0.0
19:36:23.221000,943.0,-322.0,-102.0,-478.0,792.0,428.0,0.0,0.0,0.0
19:36:23.226000,994.0,-312.0,-77.0,-478.0,792.0,428.0,0.0,0.0,0.0
19:36:23.230000,1048.0,-294.0,-56.0,-522.0,821.0,454.0,0.0,0.0,0.0
19:36:23.235000,1103.0,-270.0,-32.0,-522.0,821.0,454.0,0.0,0.0,0.0
19:36:23.240000,1164.0,-244.0,-14.0,-545.0,806.0,466.0,0.0,0.0,0.0
19:36:23.244000,1228.0,-217.0,-13.0,-545.0,806.0,466.0,0.0,0.0,0.0
19:36:23.249000,1297.0,-194.0,-19.0,-537.0,780.0,471.0,0.0,0.0,0.0
19:36:23.254000,1367.0,-175.0,-37.0,-537.0,780.0,471.0,0.0,0.0,0.0
19:36:23.258000,1442.0,-158.0,-56.0,-537.0,780.0,471.0,0.0,0.0,0.0
19:36:23.263000,1516.0,-144.0,-64.0,-502.0,753.0,481.0,0.0,0.0,0.0
19:36:23.268000,1591.0,-131.0,-66.0,-502.0,753.0,481.0,0.0,0.0,0.0
19:36:23.273000,1665.0,-113.0,-67.0,-457.0,728.0,498.0,0.0,0.0,0.0
19:36:23.277000,1747.0,-93.0,-60.0,-457.0,728.0,498.0,0.0,0.0,0.0
19:36:23.282000,1837.0,-66.0,-41.0,-429.0,684.0,525.0,0.0,0.0,0.0
19:36:23.287000,1927.0,-31.0,3.0,-429.0,684.0,525.0,0.0,0.0,0.0
19:36:23.291000,1927.0,-31.0,3.0,-421.0,594.0,563.0,0.0,0.0,0.0
19:36:23.296000,2011.0,13.0,74.0,-421.0,594.0,563.0,0.0,0.0,0.0
19:36:23.301000,2083.0,68.0,140.0,-466.0,533.0,606.0,0.0,0.0,0.0
19:36:23.305000,2139.0,130.0,186.0,-466.0,533.0,606.0,0.0,0.0,0.0
19:36:23.310000,2188.0,193.0,222.0,-564.0,527.0,643.0,0.0,0.0,0.0
19:36:23.315000,2233.0,262.0,269.0,-564.0,527.0,643.0,0.0,0.0,0.0
19:36:23.320000,2277.0,340.0,315.0,-644.0,466.0,655.0,0.0,0.0,0.0
19:36:23.324000,2324.0,428.0,332.0,-644.0,466.0,655.0,0.0,0.0,0.0
19:36:23.329000,2369.0,525.0,332.0,-691.0,349.0,647.0,0.0,0.0,0.0
19:36:23.334000,2410.0,629.0,330.0,-691.0,349.0,647.0,0.0,0.0,0.0
19:36:23.338000,2448.0,739.0,324.0,-711.0,273.0,638.0,0.0,0.0,0.0
19:36:23.343000,2485.0,849.0,303.0,-711.0,273.0,638.0,0.0,0.0,0.0
19:36:23.348000,2522.0,962.0,263.0,-721.0,226.0,635.0,0.0,0.0,0.0
19:36:23.352000,2559.0,1075.0,217.0,-721.0,226.0,635.0,0.0,0.0,0.0
19:36:23.357000,2610.0,1181.0,182.0,-721.0,226.0,635.0,0.0,0.0,0.0
19:36:23.362000,2680.0,1276.0,147.0,-703.0,138.0,646.0,0.0,0.0,0.0
19:36:23.367000,2755.0,1362.0,105.0,-703.0,138.0,646.0,0.0,0.0,0.0
19:36:23.371000,2819.0,1445.0,77.0,-655.0,34.0,686.0,0.0,0.0,0.0
19:36:23.376000,2880.0,1520.0,61.0,-655.0,34.0,686.0,0.0,0.0,0.0
19:36:23.381000,2940.0,1587.0,44.0,-632.0,2.0,753.0,0.0,0.0,0.0
19:36:23.385000,2994.0,1649.0,35.0,-632.0,2.0,753.0,0.0,0.0,0.0
19:36:23.390000,3042.0,1708.0,44.0,-625.0,7.0,826.0,0.0,0.0,0.0
19:36:23.395000,3086.0,1773.0,67.0,-625.0,7.0,826.0,0.0,0.0,0.0
19:36:23.399000,3086.0,1773.0,67.0,-635.0,25.0,899.0,0.0,0.0,0.0
19:36:23.404000,3110.0,1834.0,89.0,-635.0,25.0,899.0,0.0,0.0,0.0
19:36:23.409000,3110.0,1893.0,118.0,-687.0,81.0,993.0,0.0,0.0,0.0
19:36:23.414000,3091.0,1946.0,144.0,-687.0,81.0,993.0,0.0,0.0,0.0
19:36:23.418000,3063.0,1990.0,172.0,-744.0,135.0,1089.0,0.0,0.0,0.0
19:36:23.423000,3031.0,2025.0,190.0,-744.0,135.0,1089.0,0.0,0.0,0.0
19:36:23.428000,2991.0,2051.0,188.0,-758.0,144.0,1151.0,0.0,0.0,0.0
19:36:23.432000,2950.0,2069.0,176.0,-758.0,144.0,1151.0,0.0,0.0,0.0
19:36:23.437000,2914.0,2086.0,159.0,-747.0,106.0,1178.0,0.0,0.0,0.0
19:36:23.442000,2879.0,2106.0,130.0,-747.0,106.0,1178.0,0.0,0.0,0.0
19:36:23.446000,2837.0,2141.0,83.0,-759.0,106.0,1164.0,0.0,0.0,0.0
19:36:23.451000,2788.0,2173.0,35.0,-759.0,106.0,1164.0,0.0,0.0,0.0
19:36:23.456000,2741.0,2188.0,11.0,-801.0,160.0,1123.0,0.0,0.0,0.0
19:36:23.461000,2708.0,2194.0,23.0,-801.0,160.0,1123.0,0.0,0.0,0.0
19:36:23.465000,2679.0,2191.0,42.0,-801.0,160.0,1123.0,0.0,0.0,0.0
19:36:23.470000,2649.0,2189.0,69.0,-838.0,123.0,1096.0,0.0,0.0,0.0
19:36:23.475000,2621.0,2188.0,110.0,-838.0,123.0,1096.0,0.0,0.0,0.0
19:36:23.479000,2585.0,2179.0,142.0,-800.0,4.0,1088.0,0.0,0.0,0.0
19:36:23.484000,2530.0,2170.0,154.0,-800.0,4.0,1088.0,0.0,0.0,0.0
19:36:23.488000,2464.0,2154.0,165.0,-723.0,-2.0,1085.0,0.0,0.0,0.0
19:36:23.493000,2396.0,2131.0,182.0,-723.0,-2.0,1085.0,0.0,0.0,0.0
19:36:23.498000,2328.0,2103.0,182.0,-663.0,47.0,1062.0,0.0,0.0,0.0
19:36:23.503000,2263.0,2074.0,169.0,-663.0,47.0,1062.0,0.0,0.0,0.0
19:36:23.508000,2263.0,2074.0,169.0,-629.0,59.0,1010.0,0.0,0.0,0.0
19:36:23.512000,2195.0,2039.0,154.0,-629.0,59.0,1010.0,0.0,0.0,0.0
19:36:23.517000,2118.0,2004.0,149.0,-639.0,94.0,955.0,0.0,0.0,0.0
19:36:23.522000,2032.0,1970.0,156.0,-639.0,94.0,955.0,0.0,0.0,0.0
19:36:23.526000,1945.0,1932.0,168.0,-640.0,106.0,905.0,0.0,0.0,0.0
19:36:23.531000,1864.0,1891.0,178.0,-640.0,106.0,905.0,0.0,0.0,0.0
19:36:23.536000,1794.0,1852.0,174.0,-601.0,51.0,845.0,0.0,0.0,0.0
19:36:23.540000,1733.0,1813.0,163.0,-601.0,51.0,845.0,0.0,0.0,0.0
19:36:23.545000,1675.0,1775.0,160.0,-557.0,-16.0,782.0,0.0,0.0,0.0
19:36:23.550000,1617.0,1740.0,147.0,-557.0,-16.0,782.0,0.0,0.0,0.0
19:36:23.555000,1551.0,1704.0,122.0,-571.0,-38.0,721.0,0.0,0.0,0.0
19:36:23.559000,1481.0,1673.0,102.0,-571.0,-38.0,721.0,0.0,0.0,0.0
19:36:23.564000,1413.0,1638.0,93.0,-628.0,-51.0,654.0,0.0,0.0,0.0
19:36:23.569000,1361.0,1607.0,106.0,-628.0,-51.0,654.0,0.0,0.0,0.0
19:36:23.573000,1325.0,1574.0,129.0,-628.0,-51.0,654.0,0.0,0.0,0.0
19:36:23.578000,1295.0,1540.0,151.0,-668.0,-95.0,586.0,0.0,0.0,0.0
19:36:23.583000,1251.0,1505.0,153.0,-668.0,-95.0,586.0,0.0,0.0,0.0
19:36:23.587000,1197.0,1467.0,140.0,-703.0,-93.0,530.0,0.0,0.0,0.0
19:36:23.592000,1140.0,1423.0,132.0,-703.0,-93.0,530.0,0.0,0.0,0.0
19:36:23.597000,1076.0,1374.0,135.0,-716.0,-54.0,491.0,0.0,0.0,0.0
19:36:23.602000,1011.0,1326.0,154.0,-716.0,-54.0,491.0,0.0,0.0,0.0
19:36:23.606000,945.0,1278.0,173.0,-680.0,-48.0,455.0,0.0,0.0,0.0
19:36:23.611000,891.0,1228.0,186.0,-680.0,-48.0,455.0,0.0,0.0,0.0
19:36:23.616000,891.0,1228.0,186.0,-639.0,-69.0,410.0,0.0,0.0,0.0
19:36:23.620000,839.0,1180.0,196.0,-639.0,-69.0,410.0,0.0,0.0,0.0
19:36:23.625000,781.0,1134.0,200.0,-621.0,-97.0,364.0,0.0,0.0,0.0
19:36:23.630000,724.0,1087.0,209.0,-621.0,-97.0,364.0,0.0,0.0,0.0
19:36:23.634000,657.0,1042.0,215.0,-630.0,-111.0,318.0,0.0,0.0,0.0
19:36:23.639000,596.0,994.0,217.0,-630.0,-111.0,318.0,0.0,0.0,0.0
19:36:23.644000,534.0,952.0,221.0,-663.0,-158.0,261.0,0.0,0.0,0.0
19:36:23.649000,482.0,916.0,214.0,-663.0,-158.0,261.0,0.0,0.0,0.0
19:36:23.653000,436.0,879.0,198.0,-711.0,-225.0,202.0,0.0,0.0,0.0
19:36:23.658000,399.0,842.0,184.0,-711.0,-225.0,202.0,0.0,0.0,0.0
19:36:23.663000,367.0,806.0,182.0,-777.0,-312.0,154.0,0.0,0.0,0.0
19:36:23.667000,340.0,767.0,168.0,-777.0,-312.0,154.0,0.0,0.0,0.0
19:36:23.672000,336.0,732.0,112.0,-813.0,-377.0,123.0,0.0,0.0,0.0
19:36:23.677000,339.0,696.0,49.0,-813.0,-377.0,123.0,0.0,0.0,0.0
19:36:23.681000,345.0,658.0,14.0,-813.0,-377.0,123.0,0.0,0.0,0.0
19:36:23.686000,345.0,623.0,11.0,-772.0,-380.0,102.0,0.0,0.0,0.0
19:36:23.691000,357.0,587.0,-2.0,-772.0,-380.0,102.0,0.0,0.0,0.0
19:36:23.696000,361.0,550.0,-8.0,-723.0,-375.0,89.0,0.0,0.0,0.0
19:36:23.700000,352.0,523.0,-14.0,-723.0,-375.0,89.0,0.0,0.0,0.0
19:36:23.705000,348.0,497.0,-18.0,-726.0,-391.0,86.0,0.0,0.0,0.0
19:36:23.710000,348.0,469.0,-25.0,-726.0,-391.0,86.0,0.0,0.0,0.0
19:36:23.714000,350.0,439.0,-30.0,-753.0,-383.0,81.0,0.0,0.0,0.0
19:36:23.719000,345.0,415.0,-39.0,-753.0,-383.0,81.0,0.0,0.0,0.0
19:36:23.724000,343.0,394.0,-55.0,-797.0,-338.0,67.0,0.0,0.0,0.0
19:36:23.728000,343.0,394.0,-55.0,-797.0,-338.0,67.0,0.0,0.0,0.0
19:36:23.733000,345.0,372.0,-70.0,-857.0,-325.0,44.0,0.0,0.0,0.0
19:36:23.738000,345.0,351.0,-80.0,-857.0,-325.0,44.0,0.0,0.0,0.0
19:36:23.743000,343.0,330.0,-81.0,-905.0,-308.0,19.0,0.0,0.0,0.0
19:36:23.747000,343.0,305.0,-78.0,-905.0,-308.0,19.0,0.0,0.0,0.0
19:36:23.752000,347.0,275.0,-91.0,-942.0,-258.0,6.0,0.0,0.0,0.0
19:36:23.757000,347.0,242.0,-104.0,-942.0,-258.0,6.0,0.0,0.0,0.0
19:36:23.761000,336.0,210.0,-98.0,-955.0,-244.0,11.0,0.0,0.0,0.0
19:36:23.766000,329.0,182.0,-75.0,-955.0,-244.0,11.0,0.0,0.0,0.0
19:36:23.771000,329.0,156.0,-53.0,-922.0,-296.0,15.0,0.0,0.0,0.0
19:36:23.775000,326.0,132.0,-39.0,-922.0,-296.0,15.0,0.0,0.0,0.0
19:36:23.780000,313.0,107.0,-31.0,-890.0,-298.0,22.0,0.0,0.0,0.0
19:36:23.785000,289.0,85.0,-26.0,-890.0,-298.0,22.0,0.0,0.0,0.0
19:36:23.790000,266.0,66.0,-23.0,-890.0,-298.0,22.0,0.0,0.0,0.0
19:36:23.794000,245.0,46.0,-17.0,-876.0,-293.0,40.0,0.0,0.0,0.0
19:36:23.799000,251.0,35.0,1.0,-876.0,-293.0,40.0,0.0,0.0,0.0
19:36:23.804000,242.0,23.0,14.0,-863.0,-376.0,52.0,0.0,0.0,0.0
19:36:23.808000,242.0,17.0,14.0,-863.0,-376.0,52.0,0.0,0.0,0.0
19:36:23.813000,243.0,13.0,1.0,-853.0,-452.0,55.0,0.0,0.0,0.0
19:36:23.818000,242.0,4.0,-4.0,-853.0,-452.0,55.0,0.0,0.0,0.0
19:36:23.822000,244.0,1.0,-5.0,-855.0,-465.0,56.0,0.0,0.0,0.0
19:36:23.827000,251.0,-2.0,-27.0,-855.0,-465.0,56.0,0.0,0.0,0.0
19:36:23.832000,261.0,-9.0,-69.0,-868.0,-476.0,59.0,0.0,0.0,0.0
19:36:23.837000,261.0,-9.0,-69.0,-868.0,-476.0,59.0,0.0,0.0,0.0
19:36:23.841000,289.0,-14.0,-105.0,-866.0,-513.0,47.0,0.0,0.0,0.0
19:36:23.846000,317.0,-25.0,-131.0,-866.0,-513.0,47.0,0.0,0.0,0.0
19:36:23.851000,338.0,-39.0,-161.0,-864.0,-487.0,30.0,0.0,0.0,0.0
19:36:23.855000,347.0,-62.0,-202.0,-864.0,-487.0,30.0,0.0,0.0,0.0
19:36:23.860000,354.0,-93.0,-260.0,-885.0,-352.0,17.0,0.0,0.0,0.0
19:36:23.865000,354.0,-132.0,-325.0,-885.0,-352.0,17.0,0.0,0.0,0.0
19:36:23.869000,336.0,-185.0,-368.0,-873.0,-222.0,26.0,0.0,0.0,0.0
19:36:23.873000,328.0,-239.0,-364.0,-873.0,-222.0,26.0,0.0,0.0,0.0
19:36:23.879000,329.0,-289.0,-324.0,-808.0,-246.0,45.0,0.0,0.0,0.0
19:36:23.884000,335.0,-331.0,-271.0,-808.0,-246.0,45.0,0.0,0.0,0.0
19:36:23.888000,338.0,-364.0,-228.0,-777.0,-318.0,63.0,0.0,0.0,0.0
19:36:23.893000,345.0,-391.0,-212.0,-777.0,-318.0,63.0,0.0,0.0,0.0
19:36:23.898000,344.0,-409.0,-207.0,-777.0,-318.0,63.0,0.0,0.0,0.0
19:36:23.902000,338.0,-422.0,-202.0,-830.0,-289.0,92.0,0.0,0.0,0.0
19:36:23.907000,331.0,-432.0,-200.0,-830.0,-289.0,92.0,0.0,0.0,0.0
19:36:23.912000,317.0,-436.0,-211.0,-923.0,-238.0,123.0,0.0,0.0,0.0
19:36:23.916000,308.0,-433.0,-218.0,-923.0,-223.0,123.0,0.0,0.0,0.0
19:36:23.921000,301.0,-420.0,-214.0,-1011.0,-223.0,146.0,0.0,0.0,0.0
19:36:23.926000,296.0,-404.0,-213.0,-1011.0,-223.0,146.0,0.0,0.0,0.0
19:36:23.930000,296.0,-381.0,-214.0,-1074.0,-232.0,152.0,0.0,0.0,0.0
19:36:23.935000,301.0,-354.0,-214.0,-1074.0,-232.0,152.0,0.0,0.0,0.0
19:36:23.940000,308.0,-326.0,-203.0,-1116.0,-235.0,136.0,0.0,0.0,0.0
19:36:23.945000,308.0,-326.0,-203.0,-1116.0,-235.0,136.0,0.0,0.0,0.0
19:36:23.949000,315.0,-298.0,-195.0,-1161.0,-214.0,106.0,0.0,0.0,0.0
19:36:23.954000,320.0,-271.0,-193.0,-1161.0,-214.0,106.0,0.0,0.0,0.0
19:36:23.959000,332.0,-239.0,-189.0,-1204.0,-197.0,68.0,0.0,0.0,0.0
19:36:23.963000,339.0,-212.0,-178.0,-1204.0,-197.0,68.0,0.0,0.0,0.0
19:36:23.968000,343.0,-187.0,-159.0,-1230.0,-202.0,30.0,0.0,0.0,0.0
19:36:23.972000,344.0,-165.0,-149.0,-1230.0,-202.0,30.0,0.0,0.0,0.0
19:36:23.977000,347.0,-149.0,-151.0,-1229.0,-202.0,0.0,0.0,0.0,0.0
19:36:23.982000,345.0,-140.0,-146.0,-1229.0,-202.0,0.0,0.0,0.0,0.0
19:36:23.987000,341.0,-140.0,-154.0,-1176.0,-195.0,-20.0,0.0,0.0,0.0
19:36:23.992000,331.0,-148.0,-168.0,-1176.0,-195.0,-20.0,0.0,0.0,0.0
19:36:23.996000,317.0,-168.0,-164.0,-1084.0,-212.0,-26.0,0.0,0.0,0.0
19:36:24.001000,298.0,-196.0,-149.0,-1084.0,-212.0,-26.0,0.0,0.0,0.0
19:36:24.006000,273.0,-229.0,-132.0,-1010.0,-220.0,-30.0,0.0,0.0,0.0
19:36:24.010000,248.0,-269.0,-127.0,-1010.0,-220.0,-30.0,0.0,0.0,0.0
19:36:24.015000,228.0,-306.0,-172.0,-1010.0,-220.0,-30.0,0.0,0.0,0.0
19:36:24.020000,207.0,-350.0,-207.0,-937.0,-194.0,-40.0,0.0,0.0,0.0
19:36:24.024000,182.0,-397.0,-182.0,-937.0,-194.0,-40.0,0.0,0.0,0.0
19:36:24.029000,153.0,-441.0,-147.0,-882.0,-151.0,-50.0,0.0,0.0,0.0
19:36:24.034000,121.0,-483.0,-147.0,-882.0,-151.0,-50.0,0.0,0.0,0.0
19:36:24.039000,103.0,-519.0,-160.0,-916.0,-114.0,-60.0,0.0,0.0,0.0
19:36:24.043000,88.0,-554.0,-137.0,-916.0,-114.0,-60.0,0.0,0.0,0.0
19:36:24.048000,74.0,-578.0,-79.0,-971.0,-136.0,-73.0,0.0,0.0,0.0
19:36:24.053000,67.0,-598.0,-35.0,-971.0,-136.0,-73.0,0.0,0.0,0.0
19:36:24.057000,67.0,-598.0,-35.0,-1001.0,-178.0,-90.0,0.0,0.0,0.0
19:36:24.062000,64.0,-609.0,-34.0,-1001.0,-178.0,-90.0,0.0,0.0,0.0
19:36:24.067000,53.0,-623.0,-36.0,-1011.0,-146.0,-101.0,0.0,0.0,0.0
19:36:24.071000,33.0,-632.0,-23.0,-1011.0,-146.0,-101.0,0.0,0.0,0.0
19:36:24.076000,6.0,-640.0,0.0,-1009.0,-103.0,-90.0,0.0,0.0,0.0
19:36:24.081000,-23.0,-644.0,13.0,-1009.0,-103.0,-90.0,0.0,0.0,0.0
19:36:24.086000,-56.0,-646.0,15.0,-987.0,-117.0,-65.0,0.0,0.0,0.0
19:36:24.090000,-86.0,-654.0,13.0,-987.0,-117.0,-65.0,0.0,0.0,0.0
19:36:24.095000,-119.0,-667.0,11.0,-955.0,-99.0,-30.0,0.0,0.0,0.0
19:36:24.100000,-151.0,-683.0,-4.0,-955.0,-99.0,-30.0,0.0,0.0,0.0
19:36:24.104000,-179.0,-706.0,-30.0,-929.0,-54.0,15.0,0.0,0.0,0.0
19:36:24.108000,-196.0,-730.0,-44.0,-929.0,-54.0,15.0,0.0,0.0,0.0
19:36:24.114000,-208.0,-749.0,-52.0,-904.0,-52.0,71.0,0.0,0.0,0.0
19:36:24.118000,-215.0,-763.0,-66.0,-904.0,-52.0,71.0,0.0,0.0,0.0
19:36:24.123000,-216.0,-772.0,-56.0,-904.0,-52.0,71.0,0.0,0.0,0.0
19:36:24.128000,-222.0,-779.0,-51.0,-907.0,-54.0,138.0,0.0,0.0,0.0
19:36:24.133000,-205.0,-780.0,-81.0,-907.0,-54.0,138.0,0.0,0.0,0.0
19:36:24.137000,-202.0,-771.0,-123.0,-963.0,-18.0,210.0,0.0,0.0,0.0
19:36:24.142000,-166.0,-771.0,-101.0,-963.0,-18.0,210.0,0.0,0.0,0.0
19:36:24.147000,-111.0,-759.0,-51.0,-1008.0,-10.0,269.0,0.0,0.0,0.0
19:36:24.151000,-106.0,-749.0,8.0,-1008.0,-10.0,269.0,0.0,0.0,0.0
19:36:24.156000,-67.0,-730.0,52.0,-1046.0,-111.0,321.0,0.0,0.0,0.0
19:36:24.161000,-10.0,-695.0,2.0,-1046.0,-111.0,321.0,0.0,0.0,0.0
19:36:24.165000,-10.0,-695.0,2.0,-1050.0,-150.0,341.0,0.0,0.0,0.0
19:36:24.170000,-25.0,-652.0,-53.0,-1050.0,-150.0,341.0,0.0,0.0,0.0
19:36:24.175000,-85.0,-609.0,-56.0,-943.0,-75.0,340.0,0.0,0.0,0.0
19:36:24.180000,-151.0,-569.0,-77.0,-943.0,-75.0,340.0,0.0,0.0,0.0
19:36:24.184000,-220.0,-536.0,-91.0,-844.0,25.0,337.0,0.0,0.0,0.0
19:36:24.189000,-294.0,-513.0,-86.0,-844.0,25.0,337.0,0.0,0.0,0.0
19:36:24.194000,-352.0,-495.0,-78.0,-850.0,99.0,305.0,0.0,0.0,0.0
19:36:24.198000,-410.0,-477.0,-70.0,-850.0,99.0,305.0,0.0,0.0,0.0
19:36:24.203000,-443.0,-462.0,-75.0,-957.0,50.0,245.0,0.0,0.0,0.0
19:36:24.208000,-437.0,-448.0,-114.0,-957.0,50.0,245.0,0.0,0.0,0.0
19:36:24.212000,-403.0,-439.0,-106.0,-1072.0,-75.0,171.0,0.0,0.0,0.0
19:36:24.217000,-353.0,-434.0,-36.0,-1072.0,-75.0,171.0,0.0,0.0,0.0
19:36:24.222000,-304.0,-431.0,30.0,-1112.0,-181.0,119.0,0.0,0.0,0.0
19:36:24.227000,-250.0,-428.0,33.0,-1112.0,-181.0,119.0,0.0,0.0,0.0
19:36:24.231000,-184.0,-422.0,-30.0,-1112.0,-181.0,119.0,0.0,0.0,0.0
19:36:24.236000,-123.0,-431.0,-40.0,-1083.0,-198.0,100.0,0.0,0.0,0.0
19:36:24.241000,-84.0,-444.0,-16.0,-1083.0,-198.0,100.0,0.0,0.0,0.0
19:36:24.245000,-40.0,-457.0,-38.0,-991.0,-192.0,110.0,0.0,0.0,0.0
19:36:24.250000,-20.0,-464.0,-93.0,-991.0,-192.0,110.0,0.0,0.0,0.0
19:36:24.255000,-4.0,-459.0,-121.0,-919.0,-149.0,134.0,0.0,0.0,0.0
19:36:24.259000,7.0,-445.0,-81.0,-919.0,-149.0,134.0,0.0,0.0,0.0
19:36:24.264000,4.0,-425.0,-44.0,-959.0,-99.0,160.0,0.0,0.0,0.0
19:36:24.269000,-4.0,-393.0,-42.0,-959.0,-99.0,160.0,0.0,0.0,0.0
19:36:24.274000,-4.0,-393.0,-42.0,-1056.0,-114.0,194.0,0.0,0.0,0.0
19:36:24.278000,-29.0,-368.0,-32.0,-1056.0,-114.0,194.0,0.0,0.0,0.0
19:36:24.283000,-74.0,-348.0,-16.0,-1065.0,-90.0,234.0,0.0,0.0,0.0
19:36:24.288000,-119.0,-324.0,10.0,-1065.0,-90.0,234.0,0.0,0.0,0.0
19:36:24.292000,-149.0,-302.0,19.0,-1016.0,-22.0,258.0,0.0,0.0,0.0
19:36:24.297000,-178.0,-278.0,-33.0,-1016.0,-22.0,258.0,0.0,0.0,0.0
19:36:24.302000,-189.0,-256.0,-114.0,-975.0,-18.0,259.0,0.0,0.0,0.0
19:36:24.306000,-170.0,-241.0,-189.0,-975.0,-18.0,259.0,0.0,0.0,0.0
19:36:24.311000,-150.0,-228.0,-227.0,-893.0,-139.0,258.0,0.0,0.0,0.0
19:36:24.316000,-126.0,-212.0,-225.0,-893.0,-139.0,258.0,0.0,0.0,0.0
19:36:24.321000,-86.0,-198.0,-233.0,-836.0,-280.0,255.0,0.0,0.0,0.0
19:36:24.325000,-55.0,-177.0,-266.0,-836.0,-280.0,255.0,0.0,0.0,0.0
19:36:24.330000,-39.0,-154.0,-284.0,-824.0,-294.0,254.0,0.0,0.0,0.0
19:36:24.335000,-38.0,-130.0,-263.0,-824.0,-294.0,254.0,0.0,0.0,0.0
19:36:24.339000,-48.0,-96.0,-225.0,-824.0,-294.0,254.0,0.0,0.0,0.0
19:36:24.343000,-66.0,-65.0,-204.0,-832.0,-219.0,254.0,0.0,0.0,0.0
19:36:24.349000,-86.0,-34.0,-198.0,-832.0,-219.0,254.0,0.0,0.0,0.0
19:36:24.353000,-99.0,3.0,-200.0,-891.0,-150.0,247.0,0.0,0.0,0.0
19:36:24.358000,-107.0,44.0,-192.0,-891.0,-150.0,247.0,0.0,0.0,0.0
19:36:24.363000,-93.0,84.0,-187.0,-985.0,-129.0,244.0,0.0,0.0,0.0
19:36:24.368000,-92.0,143.0,-176.0,-985.0,-129.0,244.0,0.0,0.0,0.0
19:36:24.372000,-115.0,191.0,-168.0,-1007.0,-133.0,239.0,0.0,0.0,0.0
19:36:24.377000,-119.0,227.0,-187.0,-1007.0,-133.0,239.0,0.0,0.0,0.0
19:36:24.382000,-119.0,227.0,-187.0,-909.0,-128.0,219.0,0.0,0.0,0.0
19:36:24.386000,-105.0,258.0,-219.0,-909.0,-128.0,219.0,0.0,0.0,0.0
19:36:24.391000,-86.0,268.0,-238.0,-842.0,-135.0,196.0,0.0,0.0,0.0
19:36:24.396000,-74.0,285.0,-242.0,-842.0,-135.0,196.0,0.0,0.0,0.0
19:36:24.400000,-67.0,301.0,-250.0,-854.0,-166.0,185.0,0.0,0.0,0.0
19:36:24.405000,-46.0,321.0,-290.0,-854.0,-166.0,185.0,0.0,0.0,0.0
19:36:24.410000,-37.0,338.0,-332.0,-833.0,-172.0,183.0,0.0,0.0,0.0
19:36:24.415000,-27.0,353.0,-347.0,-833.0,-172.0,183.0,0.0,0.0,0.0
19:36:24.419000,-8.0,361.0,-360.0,-765.0,-165.0,187.0,0.0,0.0,0.0
19:36:24.424000,3.0,379.0,-389.0,-765.0,-165.0,187.0,0.0,0.0,0.0
19:36:24.429000,9.0,389.0,-404.0,-710.0,-164.0,196.0,0.0,0.0,0.0
19:36:24.433000,32.0,382.0,-394.0,-710.0,-164.0,196.0,0.0,0.0,0.0
19:36:24.437000,78.0,373.0,-381.0,-694.0,-192.0,205.0,0.0,0.0,0.0
19:36:24.443000,114.0,350.0,-359.0,-694.0,-192.0,205.0,0.0,0.0,0.0
19:36:24.447000,127.0,326.0,-331.0,-694.0,-192.0,205.0,0.0,0.0,0.0
19:36:24.452000,128.0,301.0,-303.0,-678.0,-172.0,229.0,0.0,0.0,0.0
19:36:24.457000,124.0,270.0,-272.0,-678.0,-172.0,229.0,0.0,0.0,0.0
19:36:24.462000,123.0,236.0,-261.0,-609.0,-69.0,276.0,0.0,0.0,0.0
19:36:24.466000,135.0,195.0,-281.0,-609.0,-69.0,276.0,0.0,0.0,0.0
19:36:24.471000,140.0,164.0,-314.0,-579.0,12.0,320.0,0.0,0.0,0.0
19:36:24.476000,135.0,140.0,-320.0,-579.0,12.0,320.0,0.0,0.0,0.0
19:36:24.480000,126.0,133.0,-301.0,-662.0,12.0,343.0,0.0,0.0,0.0
19:36:24.485000,127.0,143.0,-282.0,-662.0,12.0,343.0,0.0,0.0,0.0
19:36:24.490000,126.0,168.0,-266.0,-795.0,-55.0,342.0,0.0,0.0,0.0
19:36:24.494000,126.0,168.0,-266.0,-795.0,-55.0,342.0,0.0,0.0,0.0
19:36:24.499000,114.0,198.0,-266.0,-931.0,-91.0,336.0,0.0,0.0,0.0
19:36:24.504000,103.0,233.0,-274.0,-931.0,-91.0,336.0,0.0,0.0,0.0
19:36:24.509000,91.0,267.0,-272.0,-1027.0,-56.0,338.0,0.0,0.0,0.0
19:36:24.513000,79.0,296.0,-263.0,-1027.0,-56.0,338.0,0.0,0.0,0.0
19:36:24.518000,60.0,328.0,-269.0,-1075.0,-38.0,344.0,0.0,0.0,0.0
19:36:24.522000,49.0,373.0,-287.0,-1075.0,-38.0,344.0,0.0,0.0,0.0
19:36:24.527000,64.0,417.0,-308.0,-1072.0,-111.0,348.0,0.0,0.0,0.0
19:36:24.532000,102.0,452.0,-338.0,-1072.0,-111.0,348.0,0.0,0.0,0.0
19:36:24.537000,142.0,482.0,-366.0,-1022.0,-200.0,349.0,0.0,0.0,0.0
19:36:24.541000,176.0,508.0,-381.0,-1022.0,-200.0,349.0,0.0,0.0,0.0
19:36:24.546000,201.0,532.0,-380.0,-969.0,-233.0,360.0,0.0,0.0,0.0
19:36:24.551000,224.0,543.0,-367.0,-969.0,-233.0,360.0,0.0,0.0,0.0
19:36:24.556000,261.0,560.0,-366.0,-969.0,-233.0,360.0,0.0,0.0,0.0
19:36:24.560000,280.0,569.0,-367.0,-915.0,-199.0,367.0,0.0,0.0,0.0
19:36:24.565000,303.0,576.0,-352.0,-915.0,-199.0,367.0,0.0,0.0,0.0
19:36:24.570000,317.0,574.0,-330.0,-833.0,-140.0,377.0,0.0,0.0,0.0
19:36:24.574000,323.0,563.0,-323.0,-833.0,-140.0,377.0,0.0,0.0,0.0
19:36:24.578000,326.0,558.0,-338.0,-772.0,-117.0,391.0,0.0,0.0,0.0
19:36:24.584000,338.0,543.0,-336.0,-772.0,-117.0,391.0,0.0,0.0,0.0
19:36:24.588000,343.0,522.0,-329.0,-772.0,-103.0,395.0,0.0,0.0,0.0
19:36:24.593000,333.0,501.0,-343.0,-772.0,-103.0,395.0,0.0,0.0,0.0
19:36:24.598000,325.0,499.0,-361.0,-807.0,-96.0,399.0,0.0,0.0,0.0
19:36:24.603000,325.0,499.0,-361.0,-807.0,-96.0,399.0,0.0,0.0,0.0
19:36:24.607000,308.0,492.0,-362.0,-859.0,-104.0,393.0,0.0,0.0,0.0
19:36:24.612000,301.0,490.0,-350.0,-859.0,-104.0,393.0,0.0,0.0,0.0
19:36:24.617000,287.0,500.0,-333.0,-935.0,-82.0,348.0,0.0,0.0,0.0
19:36:24.621000,252.0,525.0,-328.0,-935.0,-82.0,348.0,0.0,0.0,0.0
19:36:24.626000,243.0,532.0,-333.0,-1042.0,1.0,292.0,0.0,0.0,0.0
19:36:24.631000,184.0,557.0,-330.0,-1042.0,1.0,292.0,0.0,0.0,0.0
19:36:24.635000,154.0,576.0,-322.0,-1135.0,68.0,243.0,0.0,0.0,0.0
19:36:24.640000,114.0,589.0,-291.0,-1135.0,68.0,243.0,0.0,0.0,0.0
19:36:24.645000,57.0,606.0,-233.0,-1141.0,27.0,214.0,0.0,0.0,0.0
19:36:24.650000,30.0,616.0,-181.0,-1141.0,27.0,214.0,0.0,0.0,0.0
19:36:24.654000,16.0,623.0,-153.0,-1058.0,-51.0,213.0,0.0,0.0,0.0
19:36:24.659000,21.0,623.0,-168.0,-1058.0,-51.0,213.0,0.0,0.0,0.0
19:36:24.664000,44.0,610.0,-202.0,-1058.0,-51.0,213.0,0.0,0.0,0.0
19:36:24.668000,82.0,581.0,-228.0,-940.0,-127.0,222.0,0.0,0.0,0.0
19:36:24.673000,131.0,539.0,-249.0,-940.0,-127.0,222.0,0.0,0.0,0.0
19:36:24.678000,178.0,508.0,-263.0,-825.0,-205.0,237.0,0.0,0.0,0.0
19:36:24.682000,237.0,480.0,-263.0,-825.0,-205.0,237.0,0.0,0.0,0.0
19:36:24.687000,301.0,459.0,-256.0,-748.0,-252.0,241.0,0.0,0.0,0.0
19:36:24.692000,374.0,436.0,-273.0,-748.0,-252.0,241.0,0.0,0.0,0.0
19:36:24.697000,444.0,415.0,-284.0,-741.0,-239.0,228.0,0.0,0.0,0.0
19:36:24.701000,506.0,398.0,-287.0,-741.0,-239.0,228.0,0.0,0.0,0.0
19:36:24.706000,557.0,399.0,-275.0,-813.0,-148.0,209.0,0.0,0.0,0.0
19:36:24.711000,557.0,399.0,-275.0,-813.0,-148.0,209.0,0.0,0.0,0.0
19:36:24.715000,588.0,401.0,-228.0,-954.0,-62.0,194.0,0.0,0.0,0.0
19:36:24.720000,614.0,417.0,-185.0,-954.0,-62.0,194.0,0.0,0.0,0.0
19:36:24.725000,627.0,429.0,-151.0,-1125.0,8.0,189.0,0.0,0.0,0.0
19:36:24.729000,627.0,439.0,-106.0,-1125.0,8.0,189.0,0.0,0.0,0.0
19:36:24.734000,619.0,462.0,-56.0,-1241.0,85.0,185.0,0.0,0.0,0.0
19:36:24.739000,612.0,492.0,-6.0,-1241.0,85.0,185.0,0.0,0.0,0.0
19:36:24.744000,614.0,541.0,51.0,-1285.0,71.0,172.0,0.0,0.0,0.0
19:36:24.748000,627.0,592.0,100.0,-1285.0,71.0,172.0,0.0,0.0,0.0
19:36:24.753000,648.0,659.0,158.0,-1289.0,-12.0,161.0,0.0,0.0,0.0
19:36:24.758000,677.0,717.0,217.0,-1289.0,-12.0,161.0,0.0,0.0,0.0
19:36:24.762000,718.0,777.0,263.0,-1289.0,-82.0,159.0,0.0,0.0,0.0
19:36:24.767000,767.0,835.0,298.0,-1289.0,-82.0,159.0,0.0,0.0,0.0
19:36:24.772000,816.0,901.0,322.0,-1295.0,-111.0,165.0,0.0,0.0,0.0
19:36:24.776000,869.0,963.0,348.0,-1295.0,-111.0,165.0,0.0,0.0,0.0
19:36:24.781000,917.0,1023.0,369.0,-1295.0,-111.0,165.0,0.0,0.0,0.0
19:36:24.786000,954.0,1089.0,375.0,-1306.0,-98.0,170.0,0.0,0.0,0.0
19:36:24.791000,989.0,1152.0,373.0,-1306.0,-98.0,170.0,0.0,0.0,0.0
19:36:24.795000,1023.0,1211.0,382.0,-1307.0,-70.0,172.0,0.0,0.0,0.0
19:36:24.800000,1055.0,1266.0,403.0,-1307.0,-70.0,172.0,0.0,0.0,0.0
19:36:24.805000,1088.0,1322.0,416.0,-1278.0,-67.0,164.0,0.0,0.0,0.0
19:36:24.809000,1127.0,1376.0,412.0,-1278.0,-67.0,164.0,0.0,0.0,0.0
19:36:24.813000,1127.0,1376.0,412.0,-1265.0,-68.0,140.0,0.0,0.0,0.0
19:36:24.819000,1223.0,1499.0,387.0,-1265.0,-68.0,140.0,0.0,0.0,0.0
19:36:24.823000,1223.0,1499.0,387.0,-1279.0,-69.0,97.0,0.0,0.0,0.0
19:36:24.828000,1278.0,1566.0,373.0,-1279.0,-69.0,97.0,0.0,0.0,0.0
19:36:24.833000,1330.0,1632.0,353.0,-1299.0,-74.0,43.0,0.0,0.0,0.0
19:36:24.838000,1379.0,1701.0,325.0,-1299.0,-74.0,43.0,0.0,0.0,0.0
19:36:24.842000,1424.0,1768.0,310.0,-1318.0,-55.0,-13.0,0.0,0.0,0.0
19:36:24.847000,1465.0,1835.0,313.0,-1318.0,-55.0,-13.0,0.0,0.0,0.0
19:36:24.852000,1508.0,1897.0,321.0,-1312.0,-41.0,-62.0,0.0,0.0,0.0
19:36:24.856000,1548.0,1956.0,323.0,-1312.0,-41.0,-62.0,0.0,0.0,0.0
19:36:24.861000,1585.0,2012.0,350.0,-1279.0,-33.0,-103.0,0.0,0.0,0.0
19:36:24.866000,1616.0,2066.0,396.0,-1279.0,-33.0,-103.0,0.0,0.0,0.0
19:36:24.870000,1646.0,2107.0,428.0,-1229.0,-4.0,-133.0,0.0,0.0,0.0
19:36:24.875000,1670.0,2145.0,464.0,-1229.0,-4.0,-133.0,0.0,0.0,0.0
19:36:24.880000,1690.0,2181.0,520.0,-1163.0,2.0,-154.0,0.0,0.0,0.0
19:36:24.885000,1706.0,2214.0,587.0,-1163.0,2.0,-154.0,0.0,0.0,0.0
19:36:24.889000,1707.0,2245.0,650.0,-1163.0,2.0,-154.0,0.0,0.0,0.0
19:36:24.894000,1703.0,2271.0,703.0,-1127.0,18.0,-206.0,0.0,0.0,0.0
19:36:24.899000,1700.0,2291.0,742.0,-1127.0,18.0,-206.0,0.0,0.0,0.0
19:36:24.903000,1706.0,2297.0,794.0,-1116.0,32.0,-256.0,0.0,0.0,0.0
19:36:24.908000,1712.0,2311.0,863.0,-1116.0,32.0,-256.0,0.0,0.0,0.0
19:36:24.912000,1722.0,2318.0,910.0,-1048.0,-24.0,-274.0,0.0,0.0,0.0
19:36:24.917000,1736.0,2327.0,936.0,-1048.0,-24.0,-274.0,0.0,0.0,0.0
19:36:24.922000,1756.0,2323.0,954.0,-1006.0,-63.0,-282.0,0.0,0.0,0.0
19:36:24.927000,1774.0,2328.0,973.0,-1006.0,-63.0,-282.0,0.0,0.0,0.0
19:36:24.932000,1774.0,2328.0,973.0,-1003.0,-86.0,-275.0,0.0,0.0,0.0
19:36:24.936000,1791.0,2333.0,989.0,-1003.0,-86.0,-275.0,0.0,0.0,0.0
19:36:24.941000,1799.0,2344.0,1017.0,-1002.0,-106.0,-267.0,0.0,0.0,0.0
19:36:24.946000,1796.0,2347.0,1047.0,-1002.0,-106.0,-267.0,0.0,0.0,0.0
19:36:24.950000,1785.0,2352.0,1069.0,-1031.0,-79.0,-259.0,0.0,0.0,0.0
19:36:24.955000,1768.0,2357.0,1076.0,-1031.0,-79.0,-259.0,0.0,0.0,0.0
19:36:24.960000,1742.0,2365.0,1080.0,-1040.0,-33.0,-249.0,0.0,0.0,0.0
19:36:24.964000,1708.0,2371.0,1080.0,-1040.0,-33.0,-249.0,0.0,0.0,0.0
19:36:24.969000,1667.0,2379.0,1092.0,-1014.0,18.0,-246.0,0.0,0.0,0.0
