hh:mm:ss.ms,gyroX[mdps],gyroY[mdps],gyroZ[mdps],accX[mg],accY[mg],accZ[mg],magX[mG],magY[mG],magZ[mG]
19:36:25.886000,-2440.0,-1837.0,-253.0,-1052.0,-477.0,-461.0,0.0,0.0,0.0
19:36:25.890000,-2515.0,-1759.0,-448.0,-1052.0,-477.0,-461.0,0.0,0.0,0.0
19:36:25.895000,-2469.0,-1746.0,-1514.0,-1192.0,-333.0,-442.0,0.0,0.0,0.0
19:36:25.900000,-2335.0,-1711.0,-1589.0,-1192.0,-333.0,-442.0,0.0,0.0,0.0
19:36:25.904000,-2303.0,-1694.0,-1080.0,-788.0,-376.0,-455.0,0.0,0.0,0.0
19:36:25.909000,-2268.0,-1663.0,-973.0,-788.0,-376.0,-455.0,0.0,0.0,0.0
19:36:25.914000,-2194.0,-1663.0,-1141.0,-706.0,-535.0,-446.0,0.0,0.0,0.0
19:36:25.918000,-2194.0,-1645.0,-1141.0,-706.0,-535.0,-446.0,0.0,0.0,0.0
19:36:25.923000,-2072.0,-1613.0,-1102.0,-962.0,-620.0,-475.0,0.0,0.0,0.0
19:36:25.928000,-1937.0,-1580.0,-996.0,-962.0,-620.0,-475.0,0.0,0.0,0.0
19:36:25.933000,-1807.0,-1554.0,-958.0,-907.0,-762.0,-530.0,0.0,0.0,0.0
19:36:25.937000,-1689.0,-1531.0,-933.0,-907.0,-762.0,-530.0,0.0,0.0,0.0
19:36:25.942000,-1565.0,-1512.0,-907.0,-940.0,-777.0,-564.0,0.0,0.0,0.0
19:36:25.947000,-1422.0,-1509.0,-851.0,-940.0,-777.0,-564.0,0.0,0.0,0.0
19:36:25.951000,-1317.0,-1503.0,-814.0,-891.0,-744.0,-569.0,0.0,0.0,0.0
19:36:25.956000,-1253.0,-1498.0,-767.0,-891.0,-744.0,-569.0,0.0,0.0,0.0
19:36:25.961000,-1163.0,-1522.0,-765.0,-785.0,-638.0,-530.0,0.0,0.0,0.0
19:36:25.965000,-1116.0,-1540.0,-793.0,-785.0,-638.0,-530.0,0.0,0.0,0.0
19:36:25.970000,-1103.0,-1555.0,-772.0,-640.0,-537.0,-470.0,0.0,0.0,0.0
19:36:25.975000,-1088.0,-1577.0,-737.0,-640.0,-537.0,-470.0,0.0,0.0,0.0
19:36:25.980000,-1092.0,-1593.0,-751.0,-640.0,-537.0,-470.0,0.0,0.0,0.0
19:36:25.984000,-1122.0,-1600.0,-797.0,-566.0,-392.0,-400.0,0.0,0.0,0.0
19:36:25.988000,-1138.0,-1597.0,-861.0,-566.0,-392.0,-400.0,0.0,0.0,0.0
19:36:25.994000,-1129.0,-1583.0,-924.0,-571.0,-267.0,-339.0,0.0,0.0,0.0
19:36:25.998000,-1122.0,-1568.0,-943.0,-571.0,-267.0,-339.0,0.0,0.0,0.0
19:36:26.003000,-1097.0,-1549.0,-919.0,-597.0,-252.0,-290.0,0.0,0.0,0.0
19:36:26.008000,-1064.0,-1526.0,-910.0,-597.0,-252.0,-290.0,0.0,0.0,0.0
19:36:26.012000,-1024.0,-1493.0,-880.0,-698.0,-296.0,-248.0,0.0,0.0,0.0
19:36:26.017000,-970.0,-1456.0,-833.0,-698.0,-296.0,-248.0,0.0,0.0,0.0
19:36:26.022000,-917.0,-1414.0,-793.0,-832.0,-339.0,-219.0,0.0,0.0,0.0
19:36:26.027000,-917.0,-1414.0,-793.0,-832.0,-339.0,-219.0,0.0,0.0,0.0
19:36:26.031000,-877.0,-1365.0,-741.0,-921.0,-350.0,-190.0,0.0,0.0,0.0
19:36:26.036000,-823.0,-1324.0,-678.0,-921.0,-350.0,-190.0,0.0,0.0,0.0
19:36:26.041000,-793.0,-1280.0,-599.0,-984.0,-357.0,-150.0,0.0,0.0,0.0
19:36:26.045000,-770.0,-1237.0,-520.0,-984.0,-357.0,-150.0,0.0,0.0,0.0
19:36:26.050000,-725.0,-1197.0,-490.0,-1078.0,-425.0,-98.0,0.0,0.0,0.0
19:36:26.055000,-687.0,-1156.0,-478.0,-1078.0,-425.0,-98.0,0.0,0.0,0.0
19:36:26.059000,-662.0,-1104.0,-417.0,-1075.0,-423.0,-60.0,0.0,0.0,0.0
19:36:26.064000,-648.0,-1058.0,-368.0,-1075.0,-423.0,-60.0,0.0,0.0,0.0
19:36:26.069000,-653.0,-1012.0,-380.0,-984.0,-269.0,-31.0,0.0,0.0,0.0
19:36:26.074000,-662.0,-970.0,-409.0,-984.0,-269.0,-31.0,0.0,0.0,0.0
19:36:26.078000,-649.0,-926.0,-429.0,-964.0,-208.0,-13.0,0.0,0.0,0.0
19:36:26.083000,-612.0,-880.0,-467.0,-964.0,-208.0,-13.0,0.0,0.0,0.0
19:36:26.088000,-588.0,-828.0,-504.0,-964.0,-208.0,-13.0,0.0,0.0,0.0
19:36:26.092000,-561.0,-781.0,-531.0,-1006.0,-226.0,-10.0,0.0,0.0,0.0
19:36:26.097000,-531.0,-743.0,-535.0,-1006.0,-226.0,-10.0,0.0,0.0,0.0
19:36:26.102000,-503.0,-706.0,-527.0,-1061.0,-219.0,-2.0,0.0,0.0,0.0
19:36:26.106000,-473.0,-676.0,-499.0,-1061.0,-219.0,-2.0,0.0,0.0,0.0
19:36:26.111000,-447.0,-648.0,-459.0,-1076.0,-252.0,8.0,0.0,0.0,0.0
19:36:26.116000,-431.0,-617.0,-425.0,-1076.0,-252.0,8.0,0.0,0.0,0.0
19:36:26.121000,-418.0,-591.0,-403.0,-1071.0,-273.0,28.0,0.0,0.0,0.0
19:36:26.125000,-425.0,-562.0,-387.0,-1071.0,-273.0,28.0,0.0,0.0,0.0
19:36:26.130000,-429.0,-542.0,-372.0,-1048.0,-267.0,53.0,0.0,0.0,0.0
19:36:26.135000,-429.0,-542.0,-372.0,-1048.0,-267.0,53.0,0.0,0.0,0.0
19:36:26.139000,-434.0,-527.0,-372.0,-1020.0,-236.0,78.0,0.0,0.0,0.0
19:36:26.144000,-450.0,-509.0,-408.0,-1020.0,-236.0,78.0,0.0,0.0,0.0
19:36:26.149000,-464.0,-494.0,-447.0,-1011.0,-178.0,96.0,0.0,0.0,0.0
19:36:26.153000,-493.0,-480.0,-476.0,-1011.0,-178.0,96.0,0.0,0.0,0.0
19:36:26.158000,-519.0,-462.0,-515.0,-998.0,-157.0,111.0,0.0,0.0,0.0
19:36:26.163000,-525.0,-445.0,-543.0,-998.0,-157.0,111.0,0.0,0.0,0.0
19:36:26.168000,-520.0,-429.0,-528.0,-985.0,-211.0,119.0,0.0,0.0,0.0
19:36:26.172000,-502.0,-406.0,-538.0,-985.0,-211.0,119.0,0.0,0.0,0.0
19:36:26.177000,-481.0,-385.0,-584.0,-1008.0,-262.0,122.0,0.0,0.0,0.0
19:36:26.182000,-451.0,-358.0,-615.0,-1008.0,-262.0,122.0,0.0,0.0,0.0
19:36:26.186000,-433.0,-334.0,-618.0,-1031.0,-273.0,132.0,0.0,0.0,0.0
19:36:26.191000,-391.0,-322.0,-584.0,-1031.0,-273.0,132.0,0.0,0.0,0.0
19:36:26.196000,-364.0,-304.0,-573.0,-1031.0,-242.0,132.0,0.0,0.0,0.0
19:36:26.200000,-349.0,-284.0,-587.0,-1037.0,-249.0,142.0,0.0,0.0,0.0
19:36:26.205000,-329.0,-268.0,-573.0,-1037.0,-249.0,142.0,0.0,0.0,0.0
19:36:26.210000,-333.0,-253.0,-491.0,-1029.0,-223.0,145.0,0.0,0.0,0.0
19:36:26.215000,-340.0,-241.0,-415.0,-1029.0,-223.0,145.0,0.0,0.0,0.0
19:36:26.219000,-329.0,-233.0,-425.0,-1015.0,-191.0,145.0,0.0,0.0,0.0
19:36:26.223000,-348.0,-226.0,-479.0,-1015.0,-191.0,145.0,0.0,0.0,0.0
19:36:26.229000,-376.0,-207.0,-464.0,-993.0,-116.0,148.0,0.0,0.0,0.0
19:36:26.233000,-383.0,-203.0,-423.0,-993.0,-116.0,148.0,0.0,0.0,0.0
19:36:26.238000,-414.0,-189.0,-422.0,-968.0,-39.0,139.0,0.0,0.0,0.0
19:36:26.243000,-414.0,-189.0,-422.0,-968.0,-39.0,139.0,0.0,0.0,0.0
19:36:26.247000,-427.0,-179.0,-411.0,-996.0,-37.0,118.0,0.0,0.0,0.0
19:36:26.252000,-454.0,-173.0,-368.0,-996.0,-37.0,118.0,0.0,0.0,0.0
19:36:26.257000,-467.0,-154.0,-309.0,-989.0,-111.0,96.0,0.0,0.0,0.0
19:36:26.262000,-447.0,-79.0,-364.0,-989.0,-111.0,96.0,0.0,0.0,0.0
19:36:26.266000,-412.0,-175.0,-342.0,-1051.0,-131.0,91.0,0.0,0.0,0.0
19:36:26.271000,-413.0,-180.0,-220.0,-1051.0,-131.0,91.0,0.0,0.0,0.0
19:36:26.276000,-413.0,-161.0,-183.0,-1122.0,-111.0,84.0,0.0,0.0,0.0
19:36:26.280000,-400.0,-174.0,-167.0,-1122.0,-111.0,84.0,0.0,0.0,0.0
19:36:26.284000,-391.0,-169.0,-148.0,-1029.0,-144.0,75.0,0.0,0.0,0.0
19:36:26.290000,-374.0,-181.0,-138.0,-1029.0,-144.0,75.0,0.0,0.0,0.0
19:36:26.294000,-343.0,-200.0,-95.0,-919.0,-165.0,89.0,0.0,0.0,0.0
19:36:26.299000,-317.0,-215.0,-2.0,-919.0,-165.0,89.0,0.0,0.0,0.0
19:36:26.304000,-301.0,-233.0,55.0,-912.0,-158.0,100.0,0.0,0.0,0.0
19:36:26.309000,-270.0,-253.0,48.0,-912.0,-158.0,100.0,0.0,0.0,0.0
19:36:26.313000,-224.0,-275.0,27.0,-912.0,-158.0,100.0,0.0,0.0,0.0
19:36:26.318000,-191.0,-295.0,32.0,-956.0,-147.0,102.0,0.0,0.0,0.0
19:36:26.323000,-170.0,-315.0,68.0,-956.0,-147.0,102.0,0.0,0.0,0.0
19:36:26.327000,-143.0,-330.0,121.0,-944.0,-146.0,110.0,0.0,0.0,0.0
19:36:26.332000,-110.0,-336.0,179.0,-944.0,-146.0,110.0,0.0,0.0,0.0
19:36:26.337000,-49.0,-329.0,229.0,-955.0,-191.0,125.0,0.0,0.0,0.0
19:36:26.341000,-21.0,-312.0,245.0,-955.0,-191.0,125.0,0.0,0.0,0.0
19:36:26.346000,2.0,-274.0,237.0,-1039.0,-195.0,139.0,0.0,0.0,0.0
19:36:26.351000,21.0,-235.0,238.0,-1039.0,-195.0,139.0,0.0,0.0,0.0
19:36:26.356000,21.0,-235.0,238.0,-1133.0,-114.0,162.0,0.0,0.0,0.0
19:36:26.360000,28.0,-186.0,265.0,-1133.0,-114.0,162.0,0.0,0.0,0.0
19:36:26.365000,39.0,-129.0,296.0,-1235.0,-73.0,182.0,0.0,0.0,0.0
19:36:26.370000,61.0,-57.0,321.0,-1235.0,-73.0,182.0,0.0,0.0,0.0
19:36:26.374000,88.0,23.0,344.0,-1335.0,-102.0,188.0,0.0,0.0,0.0
19:36:26.379000,121.0,100.0,364.0,-1335.0,-102.0,188.0,0.0,0.0,0.0
19:36:26.384000,163.0,179.0,389.0,-1371.0,-121.0,179.0,0.0,0.0,0.0
19:36:26.388000,201.0,256.0,416.0,-1371.0,-121.0,179.0,0.0,0.0,0.0
19:36:26.393000,242.0,334.0,436.0,-1385.0,-124.0,166.0,0.0,0.0,0.0
19:36:26.398000,285.0,410.0,458.0,-1385.0,-124.0,166.0,0.0,0.0,0.0
19:36:26.403000,328.0,483.0,493.0,-1373.0,-132.0,153.0,0.0,0.0,0.0
19:36:26.407000,367.0,549.0,539.0,-1373.0,-132.0,153.0,0.0,0.0,0.0
19:36:26.412000,411.0,614.0,593.0,-1282.0,-131.0,142.0,0.0,0.0,0.0
19:36:26.417000,452.0,665.0,636.0,-1282.0,-131.0,142.0,0.0,0.0,0.0
19:36:26.421000,490.0,709.0,675.0,-1282.0,-131.0,142.0,0.0,0.0,0.0
19:36:26.426000,528.0,753.0,716.0,-1161.0,-96.0,139.0,0.0,0.0,0.0
19:36:26.431000,574.0,802.0,753.0,-1161.0,-96.0,139.0,0.0,0.0,0.0
19:36:26.435000,620.0,853.0,798.0,-1063.0,-59.0,136.0,0.0,0.0,0.0
19:36:26.440000,674.0,908.0,862.0,-1063.0,-59.0,136.0,0.0,0.0,0.0
19:36:26.445000,750.0,966.0,911.0,-1029.0,-105.0,122.0,0.0,0.0,0.0
19:36:26.450000,823.0,1031.0,959.0,-1029.0,-105.0,122.0,0.0,0.0,0.0
19:36:26.454000,896.0,1101.0,1019.0,-1085.0,-183.0,113.0,0.0,0.0,0.0
19:36:26.458000,896.0,1101.0,1019.0,-1085.0,-183.0,113.0,0.0,0.0,0.0
19:36:26.464000,969.0,1173.0,1085.0,-1168.0,-219.0,116.0,0.0,0.0,0.0
19:36:26.468000,1038.0,1250.0,1150.0,-1168.0,-219.0,116.0,0.0,0.0,0.0
19:36:26.473000,1103.0,1325.0,1204.0,-1225.0,-231.0,121.0,0.0,0.0,0.0
19:36:26.478000,1164.0,1405.0,1250.0,-1225.0,-231.0,121.0,0.0,0.0,0.0
19:36:26.482000,1214.0,1479.0,1285.0,-1255.0,-202.0,125.0,0.0,0.0,0.0
19:36:26.487000,1253.0,1552.0,1299.0,-1255.0,-202.0,125.0,0.0,0.0,0.0
19:36:26.492000,1278.0,1620.0,1309.0,-1236.0,-153.0,130.0,0.0,0.0,0.0
19:36:26.497000,1297.0,1678.0,1306.0,-1236.0,-153.0,130.0,0.0,0.0,0.0
19:36:26.501000,1304.0,1724.0,1283.0,-1163.0,-103.0,129.0,0.0,0.0,0.0
19:36:26.506000,1285.0,1761.0,1254.0,-1163.0,-103.0,129.0,0.0,0.0,0.0
19:36:26.511000,1249.0,1785.0,1211.0,-1069.0,-14.0,118.0,0.0,0.0,0.0
19:36:26.515000,1195.0,1796.0,1159.0,-1069.0,-14.0,118.0,0.0,0.0,0.0
19:36:26.520000,1134.0,1798.0,1119.0,-955.0,52.0,91.0,0.0,0.0,0.0
19:36:26.525000,1070.0,1793.0,1079.0,-955.0,52.0,91.0,0.0,0.0,0.0
19:36:26.529000,1010.0,1780.0,1031.0,-955.0,52.0,91.0,0.0,0.0,0.0
19:36:26.534000,957.0,1758.0,987.0,-834.0,34.0,43.0,0.0,0.0,0.0
19:36:26.539000,904.0,1725.0,959.0,-834.0,34.0,43.0,0.0,0.0,0.0
19:36:26.544000,865.0,1689.0,940.0,-740.0,-46.0,-20.0,0.0,0.0,0.0
19:36:26.548000,842.0,1650.0,914.0,-740.0,-46.0,-20.0,0.0,0.0,0.0
19:36:26.553000,830.0,1607.0,881.0,-684.0,-178.0,-108.0,0.0,0.0,0.0
19:36:26.558000,824.0,1559.0,844.0,-684.0,-178.0,-108.0,0.0,0.0,0.0
19:36:26.562000,812.0,1502.0,805.0,-680.0,-283.0,-218.0,0.0,0.0,0.0
19:36:26.567000,789.0,1440.0,784.0,-680.0,-283.0,-218.0,0.0,0.0,0.0
19:36:26.572000,789.0,1440.0,784.0,-687.0,-312.0,-324.0,0.0,0.0,0.0
19:36:26.576000,756.0,1369.0,781.0,-687.0,-312.0,-324.0,0.0,0.0,0.0
19:36:26.581000,721.0,1286.0,772.0,-658.0,-319.0,-427.0,0.0,0.0,0.0
19:36:26.586000,678.0,1196.0,748.0,-658.0,-319.0,-427.0,0.0,0.0,0.0
19:36:26.591000,630.0,1101.0,737.0,-594.0,-337.0,-525.0,0.0,0.0,0.0
19:36:26.595000,581.0,1005.0,732.0,-594.0,-337.0,-525.0,0.0,0.0,0.0
19:36:26.600000,531.0,911.0,710.0,-528.0,-338.0,-571.0,0.0,0.0,0.0
19:36:26.605000,473.0,814.0,685.0,-528.0,-338.0,-571.0,0.0,0.0,0.0
19:36:26.609000,418.0,717.0,676.0,-488.0,-339.0,-547.0,0.0,0.0,0.0
19:36:26.614000,375.0,627.0,659.0,-488.0,-339.0,-547.0,0.0,0.0,0.0
19:36:26.619000,346.0,548.0,593.0,-527.0,-330.0,-492.0,0.0,0.0,0.0
19:36:26.623000,308.0,480.0,496.0,-527.0,-330.0,-492.0,0.0,0.0,0.0
19:36:26.628000,254.0,420.0,415.0,-657.0,-280.0,-430.0,0.0,0.0,0.0
19:36:26.633000,205.0,372.0,359.0,-657.0,-280.0,-430.0,0.0,0.0,0.0
19:36:26.638000,147.0,337.0,297.0,-657.0,-280.0,-430.0,0.0,0.0,0.0
19:36:26.642000,88.0,312.0,214.0,-802.0,-231.0,-376.0,0.0,0.0,0.0
19:36:26.647000,31.0,301.0,118.0,-802.0,-231.0,-376.0,0.0,0.0,0.0
19:36:26.652000,-40.0,287.0,20.0,-929.0,-169.0,-348.0,0.0,0.0,0.0
19:36:26.656000,-96.0,288.0,-50.0,-929.0,-169.0,-348.0,0.0,0.0,0.0
19:36:26.661000,-163.0,289.0,-91.0,-989.0,-99.0,-343.0,0.0,0.0,0.0
19:36:26.666000,-232.0,290.0,-120.0,-989.0,-99.0,-343.0,0.0,0.0,0.0
19:36:26.670000,-293.0,294.0,-172.0,-986.0,-60.0,-344.0,0.0,0.0,0.0
19:36:26.675000,-353.0,296.0,-228.0,-986.0,-60.0,-344.0,0.0,0.0,0.0
19:36:26.680000,-411.0,297.0,-256.0,-997.0,-108.0,-344.0,0.0,0.0,0.0
19:36:26.685000,-411.0,297.0,-256.0,-997.0,-108.0,-344.0,0.0,0.0,0.0
19:36:26.689000,-464.0,295.0,-266.0,-975.0,-179.0,-358.0,0.0,0.0,0.0
19:36:26.693000,-510.0,287.0,-273.0,-975.0,-179.0,-358.0,0.0,0.0,0.0
19:36:26.699000,-562.0,274.0,-292.0,-880.0,-171.0,-375.0,0.0,0.0,0.0
19:36:26.703000,-627.0,259.0,-302.0,-880.0,-171.0,-375.0,0.0,0.0,0.0
19:36:26.708000,-691.0,241.0,-286.0,-789.0,-146.0,-385.0,0.0,0.0,0.0
19:36:26.713000,-749.0,214.0,-261.0,-789.0,-146.0,-385.0,0.0,0.0,0.0
19:36:26.717000,-807.0,179.0,-228.0,-742.0,-186.0,-390.0,0.0,0.0,0.0
19:36:26.722000,-851.0,138.0,-205.0,-742.0,-186.0,-390.0,0.0,0.0,0.0
19:36:26.727000,-895.0,92.0,-191.0,-724.0,-262.0,-378.0,0.0,0.0,0.0
19:36:26.732000,-921.0,50.0,-172.0,-724.0,-262.0,-378.0,0.0,0.0,0.0
19:36:26.736000,-938.0,5.0,-149.0,-695.0,-321.0,-351.0,0.0,0.0,0.0
19:36:26.741000,-942.0,-46.0,-140.0,-695.0,-321.0,-351.0,0.0,0.0,0.0
19:36:26.745000,-934.0,-105.0,-139.0,-679.0,-399.0,-315.0,0.0,0.0,0.0
19:36:26.750000,-901.0,-159.0,-133.0,-679.0,-399.0,-315.0,0.0,0.0,0.0
19:36:26.755000,-844.0,-200.0,-113.0,-679.0,-399.0,-315.0,0.0,0.0,0.0
19:36:26.760000,-782.0,-241.0,-108.0,-698.0,-523.0,-284.0,0.0,0.0,0.0
19:36:26.764000,-717.0,-273.0,-132.0,-698.0,-523.0,-284.0,0.0,0.0,0.0
19:36:26.769000,-655.0,-296.0,-182.0,-752.0,-592.0,-250.0,0.0,0.0,0.0
19:36:26.774000,-598.0,-309.0,-233.0,-752.0,-592.0,-250.0,0.0,0.0,0.0
19:36:26.779000,-549.0,-312.0,-286.0,-813.0,-568.0,-207.0,0.0,0.0,0.0
19:36:26.783000,-514.0,-299.0,-333.0,-813.0,-568.0,-207.0,0.0,0.0,0.0
19:36:26.788000,-490.0,-280.0,-376.0,-860.0,-530.0,-174.0,0.0,0.0,0.0
19:36:26.793000,-490.0,-280.0,-376.0,-860.0,-530.0,-174.0,0.0,0.0,0.0
19:36:26.797000,-475.0,-258.0,-421.0,-894.0,-461.0,-141.0,0.0,0.0,0.0
19:36:26.802000,-469.0,-233.0,-469.0,-894.0,-461.0,-141.0,0.0,0.0,0.0
19:36:26.807000,-469.0,-207.0,-518.0,-900.0,-404.0,-109.0,0.0,0.0,0.0
19:36:26.811000,-465.0,-175.0,-578.0,-900.0,-404.0,-109.0,0.0,0.0,0.0
19:36:26.816000,-457.0,-144.0,-637.0,-885.0,-413.0,-89.0,0.0,0.0,0.0
19:36:26.821000,-448.0,-113.0,-684.0,-885.0,-413.0,-89.0,0.0,0.0,0.0
19:36:26.826000,-436.0,-86.0,-735.0,-842.0,-438.0,-87.0,0.0,0.0,0.0
19:36:26.830000,-420.0,-64.0,-773.0,-842.0,-438.0,-87.0,0.0,0.0,0.0
19:36:26.835000,-403.0,-46.0,-778.0,-753.0,-472.0,-106.0,0.0,0.0,0.0
19:36:26.840000,-385.0,-36.0,-771.0,-753.0,-472.0,-106.0,0.0,0.0,0.0
19:36:26.844000,-364.0,-32.0,-778.0,-677.0,-462.0,-140.0,0.0,0.0,0.0
19:36:26.849000,-347.0,-35.0,-816.0,-677.0,-462.0,-140.0,0.0,0.0,0.0
19:36:26.854000,-339.0,-43.0,-854.0,-677.0,-462.0,-140.0,0.0,0.0,0.0
19:36:26.858000,-331.0,-54.0,-877.0,-626.0,-375.0,-185.0,0.0,0.0,0.0
19:36:26.863000,-326.0,-65.0,-870.0,-626.0,-375.0,-185.0,0.0,0.0,0.0
19:36:26.868000,-319.0,-70.0,-840.0,-562.0,-327.0,-233.0,0.0,0.0,0.0
19:36:26.873000,-310.0,-82.0,-798.0,-562.0,-327.0,-233.0,0.0,0.0,0.0
19:36:26.877000,-298.0,-101.0,-755.0,-517.0,-360.0,-279.0,0.0,0.0,0.0
19:36:26.882000,-287.0,-121.0,-711.0,-517.0,-360.0,-279.0,0.0,0.0,0.0
19:36:26.887000,-276.0,-142.0,-650.0,-495.0,-373.0,-317.0,0.0,0.0,0.0
19:36:26.891000,-273.0,-166.0,-578.0,-495.0,-373.0,-317.0,0.0,0.0,0.0
19:36:26.896000,-275.0,-193.0,-521.0,-507.0,-337.0,-346.0,0.0,0.0,0.0
19:36:26.901000,-275.0,-193.0,-521.0,-507.0,-337.0,-346.0,0.0,0.0,0.0
19:36:26.905000,-283.0,-220.0,-483.0,-556.0,-292.0,-350.0,0.0,0.0,0.0
19:36:26.910000,-293.0,-247.0,-457.0,-556.0,-292.0,-350.0,0.0,0.0,0.0
19:36:26.915000,-308.0,-273.0,-437.0,-579.0,-273.0,-333.0,0.0,0.0,0.0
19:36:26.920000,-322.0,-294.0,-413.0,-579.0,-273.0,-333.0,0.0,0.0,0.0
19:36:26.924000,-329.0,-313.0,-393.0,-595.0,-305.0,-321.0,0.0,0.0,0.0
19:36:26.928000,-322.0,-333.0,-382.0,-595.0,-305.0,-321.0,0.0,0.0,0.0
19:36:26.934000,-315.0,-351.0,-371.0,-628.0,-328.0,-321.0,0.0,0.0,0.0
19:36:26.938000,-303.0,-365.0,-371.0,-628.0,-328.0,-321.0,0.0,0.0,0.0
19:36:26.943000,-291.0,-375.0,-391.0,-662.0,-318.0,-321.0,0.0,0.0,0.0
19:36:26.948000,-285.0,-380.0,-436.0,-662.0,-318.0,-321.0,0.0,0.0,0.0
19:36:26.952000,-259.0,-386.0,-506.0,-686.0,-337.0,-310.0,0.0,0.0,0.0
19:36:26.957000,-235.0,-383.0,-497.0,-686.0,-337.0,-310.0,0.0,0.0,0.0
19:36:26.962000,-208.0,-380.0,-456.0,-686.0,-400.0,-310.0,0.0,0.0,0.0
19:36:26.967000,-189.0,-378.0,-457.0,-711.0,-375.0,-295.0,0.0,0.0,0.0
19:36:26.971000,-186.0,-372.0,-441.0,-711.0,-375.0,-295.0,0.0,0.0,0.0
19:36:26.976000,-186.0,-372.0,-389.0,-769.0,-383.0,-280.0,0.0,0.0,0.0
19:36:26.981000,-189.0,-375.0,-412.0,-769.0,-383.0,-280.0,0.0,0.0,0.0
19:36:26.985000,-197.0,-375.0,-452.0,-808.0,-330.0,-265.0,0.0,0.0,0.0
19:36:26.990000,-214.0,-377.0,-449.0,-808.0,-330.0,-265.0,0.0,0.0,0.0
19:36:26.995000,-225.0,-380.0,-449.0,-798.0,-300.0,-254.0,0.0,0.0,0.0
19:36:26.999000,-240.0,-385.0,-446.0,-798.0,-300.0,-254.0,0.0,0.0,0.0
19:36:27.004000,-250.0,-394.0,-455.0,-803.0,-336.0,-245.0,0.0,0.0,0.0
19:36:27.009000,-250.0,-394.0,-455.0,-803.0,-336.0,-245.0,0.0,0.0,0.0
19:36:27.014000,-261.0,-410.0,-450.0,-817.0,-370.0,-233.0,0.0,0.0,0.0
19:36:27.018000,-259.0,-423.0,-445.0,-817.0,-370.0,-233.0,0.0,0.0,0.0
19:36:27.023000,-259.0,-438.0,-480.0,-820.0,-401.0,-216.0,0.0,0.0,0.0
19:36:27.028000,-254.0,-455.0,-513.0,-820.0,-401.0,-216.0,0.0,0.0,0.0
19:36:27.032000,-242.0,-475.0,-515.0,-800.0,-456.0,-205.0,0.0,0.0,0.0
19:36:27.037000,-234.0,-488.0,-499.0,-800.0,-456.0,-205.0,0.0,0.0,0.0
19:36:27.042000,-200.0,-518.0,-515.0,-765.0,-494.0,-200.0,0.0,0.0,0.0
19:36:27.046000,-178.0,-544.0,-504.0,-765.0,-494.0,-200.0,0.0,0.0,0.0
19:36:27.051000,-158.0,-567.0,-508.0,-818.0,-492.0,-197.0,0.0,0.0,0.0
19:36:27.056000,-140.0,-576.0,-549.0,-818.0,-492.0,-197.0,0.0,0.0,0.0
19:36:27.061000,-126.0,-581.0,-609.0,-906.0,-430.0,-201.0,0.0,0.0,0.0
19:36:27.065000,-132.0,-604.0,-657.0,-906.0,-430.0,-201.0,0.0,0.0,0.0
19:36:27.070000,-142.0,-637.0,-671.0,-902.0,-320.0,-186.0,0.0,0.0,0.0
19:36:27.075000,-140.0,-665.0,-679.0,-902.0,-320.0,-186.0,0.0,0.0,0.0
19:36:27.079000,-145.0,-695.0,-689.0,-902.0,-320.0,-186.0,0.0,0.0,0.0
19:36:27.084000,-156.0,-726.0,-702.0,-871.0,-267.0,-164.0,0.0,0.0,0.0
19:36:27.089000,-165.0,-756.0,-698.0,-871.0,-267.0,-164.0,0.0,0.0,0.0
19:36:27.093000,-197.0,-798.0,-671.0,-862.0,-219.0,-150.0,0.0,0.0,0.0
19:36:27.098000,-216.0,-833.0,-651.0,-862.0,-219.0,-150.0,0.0,0.0,0.0
19:36:27.103000,-227.0,-852.0,-673.0,-864.0,-173.0,-140.0,0.0,0.0,0.0
19:36:27.108000,-250.0,-884.0,-684.0,-864.0,-173.0,-140.0,0.0,0.0,0.0
19:36:27.112000,-281.0,-921.0,-650.0,-872.0,-154.0,-124.0,0.0,0.0,0.0
19:36:27.117000,-300.0,-936.0,-602.0,-872.0,-154.0,-124.0,0.0,0.0,0.0
19:36:27.122000,-300.0,-936.0,-602.0,-869.0,-146.0,-110.0,0.0,0.0,0.0
19:36:27.126000,-327.0,-962.0,-563.0,-869.0,-146.0,-110.0,0.0,0.0,0.0
19:36:27.131000,-359.0,-992.0,-529.0,-900.0,-122.0,-108.0,0.0,0.0,0.0
19:36:27.136000,-385.0,-993.0,-501.0,-900.0,-122.0,-108.0,0.0,0.0,0.0
19:36:27.140000,-417.0,-983.0,-473.0,-966.0,-65.0,-110.0,0.0,0.0,0.0
19:36:27.145000,-457.0,-979.0,-438.0,-966.0,-65.0,-110.0,0.0,0.0,0.0
19:36:27.150000,-502.0,-954.0,-402.0,-1048.0,-66.0,-136.0,0.0,0.0,0.0
19:36:27.154000,-537.0,-921.0,-367.0,-1048.0,-66.0,-136.0,0.0,0.0,0.0
19:36:27.159000,-564.0,-893.0,-315.0,-1206.0,-108.0,-148.0,0.0,0.0,0.0
19:36:27.163000,-579.0,-890.0,-224.0,-1206.0,-108.0,-148.0,0.0,0.0,0.0
19:36:27.169000,-585.0,-872.0,-144.0,-1297.0,-150.0,-169.0,0.0,0.0,0.0
19:36:27.173000,-609.0,-837.0,-158.0,-1297.0,-150.0,-169.0,0.0,0.0,0.0
19:36:27.178000,-641.0,-830.0,-166.0,-1258.0,-134.0,-189.0,0.0,0.0,0.0
19:36:27.182000,-646.0,-823.0,-133.0,-1258.0,-134.0,-189.0,0.0,0.0,0.0
19:36:27.187000,-650.0,-817.0,-116.0,-1258.0,-134.0,-189.0,0.0,0.0,0.0
19:36:27.192000,-631.0,-817.0,-147.0,-1202.0,-169.0,-190.0,0.0,0.0,0.0
19:36:27.197000,-599.0,-831.0,-136.0,-1202.0,-169.0,-190.0,0.0,0.0,0.0
19:36:27.201000,-549.0,-845.0,-120.0,-1169.0,-316.0,-203.0,0.0,0.0,0.0
19:36:27.206000,-494.0,-865.0,-151.0,-1169.0,-316.0,-203.0,0.0,0.0,0.0
19:36:27.211000,-455.0,-897.0,-177.0,-1154.0,-401.0,-199.0,0.0,0.0,0.0
19:36:27.216000,-407.0,-940.0,-188.0,-1154.0,-401.0,-199.0,0.0,0.0,0.0
19:36:27.220000,-373.0,-969.0,-333.0,-1156.0,-400.0,-183.0,0.0,0.0,0.0
19:36:27.225000,-361.0,-1005.0,-392.0,-1156.0,-400.0,-183.0,0.0,0.0,0.0
19:36:27.230000,-361.0,-1005.0,-392.0,-1072.0,-327.0,-147.0,0.0,0.0,0.0
19:36:27.234000,-364.0,-1043.0,-406.0,-1072.0,-327.0,-147.0,0.0,0.0,0.0
19:36:27.239000,-376.0,-1080.0,-427.0,-923.0,-225.0,-95.0,0.0,0.0,0.0
19:36:27.244000,-405.0,-1113.0,-425.0,-923.0,-225.0,-95.0,0.0,0.0,0.0
19:36:27.248000,-447.0,-1138.0,-411.0,-877.0,-123.0,-51.0,0.0,0.0,0.0
19:36:27.253000,-511.0,-1147.0,-489.0,-877.0,-123.0,-51.0,0.0,0.0,0.0
19:36:27.258000,-576.0,-1158.0,-526.0,-872.0,20.0,-17.0,0.0,0.0,0.0
19:36:27.263000,-636.0,-1183.0,-497.0,-872.0,20.0,-17.0,0.0,0.0,0.0
19:36:27.267000,-744.0,-1217.0,-480.0,-866.0,158.0,53.0,0.0,0.0,0.0
19:36:27.272000,-819.0,-1235.0,-469.0,-866.0,158.0,53.0,0.0,0.0,0.0
19:36:27.277000,-856.0,-1299.0,-464.0,-927.0,209.0,174.0,0.0,0.0,0.0
19:36:27.281000,-932.0,-1338.0,-425.0,-927.0,209.0,174.0,0.0,0.0,0.0
19:36:27.286000,-950.0,-1407.0,-363.0,-1101.0,189.0,294.0,0.0,0.0,0.0
19:36:27.291000,-963.0,-1448.0,-322.0,-1101.0,189.0,294.0,0.0,0.0,0.0
19:36:27.295000,-1020.0,-1454.0,-368.0,-1279.0,259.0,355.0,0.0,0.0,0.0
19:36:27.300000,-1047.0,-1443.0,-503.0,-1279.0,259.0,355.0,0.0,0.0,0.0
19:36:27.305000,-1179.0,-1417.0,-599.0,-1279.0,259.0,355.0,0.0,0.0,0.0
19:36:27.310000,-1301.0,-1408.0,-486.0,-1289.0,108.0,361.0,0.0,0.0,0.0
19:36:27.314000,-1231.0,-1423.0,-377.0,-1289.0,108.0,361.0,0.0,0.0,0.0
19:36:27.319000,-1180.0,-1450.0,-301.0,-1262.0,-188.0,340.0,0.0,0.0,0.0
19:36:27.324000,-1189.0,-1509.0,-274.0,-1262.0,-188.0,340.0,0.0,0.0,0.0
19:36:27.328000,-1186.0,-1545.0,-333.0,-1431.0,-23.0,440.0,0.0,0.0,0.0
19:36:27.333000,-1157.0,-1499.0,-377.0,-1431.0,-23.0,440.0,0.0,0.0,0.0
19:36:27.338000,-1157.0,-1499.0,-377.0,-1362.0,-47.0,511.0,0.0,0.0,0.0
19:36:27.342000,-1174.0,-1395.0,-764.0,-1362.0,-47.0,511.0,0.0,0.0,0.0
19:36:27.347000,-1257.0,-1360.0,-1211.0,-876.0,-150.0,450.0,0.0,0.0,0.0
19:36:27.352000,-1365.0,-1380.0,-1129.0,-876.0,-150.0,450.0,0.0,0.0,0.0
19:36:27.357000,-1514.0,-1415.0,-916.0,-637.0,250.0,458.0,0.0,0.0,0.0
19:36:27.361000,-1675.0,-1449.0,-879.0,-637.0,250.0,458.0,0.0,0.0,0.0
19:36:27.366000,-1793.0,-1483.0,-939.0,-831.0,502.0,465.0,0.0,0.0,0.0
19:36:27.371000,-1871.0,-1526.0,-1015.0,-831.0,502.0,465.0,0.0,0.0,0.0
19:36:27.375000,-1930.0,-1584.0,-1074.0,-1028.0,443.0,435.0,0.0,0.0,0.0
19:36:27.380000,-1975.0,-1649.0,-1083.0,-1028.0,443.0,435.0,0.0,0.0,0.0
19:36:27.385000,-2019.0,-1717.0,-1019.0,-986.0,354.0,419.0,0.0,0.0,0.0
19:36:27.389000,-2046.0,-1779.0,-908.0,-986.0,354.0,419.0,0.0,0.0,0.0
19:36:27.394000,-2051.0,-1844.0,-779.0,-843.0,305.0,429.0,0.0,0.0,0.0
19:36:27.399000,-2062.0,-1909.0,-688.0,-843.0,305.0,429.0,0.0,0.0,0.0
19:36:27.404000,-2071.0,-1974.0,-653.0,-843.0,305.0,429.0,0.0,0.0,0.0
19:36:27.408000,-2073.0,-2032.0,-643.0,-722.0,327.0,471.0,0.0,0.0,0.0
19:36:27.413000,-2078.0,-2092.0,-627.0,-722.0,327.0,471.0,0.0,0.0,0.0
19:36:27.418000,-2081.0,-2153.0,-613.0,-641.0,355.0,535.0,0.0,0.0,0.0
19:36:27.422000,-2080.0,-2216.0,-612.0,-641.0,355.0,535.0,0.0,0.0,0.0
19:36:27.427000,-2088.0,-2269.0,-604.0,-652.0,366.0,608.0,0.0,0.0,0.0
19:36:27.432000,-2103.0,-2330.0,-571.0,-652.0,366.0,608.0,0.0,0.0,0.0
19:36:27.436000,-2130.0,-2375.0,-540.0,-702.0,374.0,701.0,0.0,0.0,0.0
19:36:27.441000,-2158.0,-2399.0,-522.0,-702.0,374.0,701.0,0.0,0.0,0.0
19:36:27.446000,-2179.0,-2415.0,-485.0,-715.0,342.0,763.0,0.0,0.0,0.0
19:36:27.451000,-2179.0,-2415.0,-485.0,-715.0,342.0,763.0,0.0,0.0,0.0
19:36:27.455000,-2195.0,-2415.0,-429.0,-719.0,295.0,767.0,0.0,0.0,0.0
19:36:27.460000,-2217.0,-2407.0,-360.0,-719.0,295.0,767.0,0.0,0.0,0.0
19:36:27.465000,-2251.0,-2392.0,-273.0,-746.0,302.0,771.0,0.0,0.0,0.0
19:36:27.469000,-2289.0,-2371.0,-189.0,-746.0,302.0,771.0,0.0,0.0,0.0
19:36:27.474000,-2313.0,-2336.0,-110.0,-793.0,312.0,780.0,0.0,0.0,0.0
19:36:27.479000,-2333.0,-2292.0,-49.0,-793.0,312.0,780.0,0.0,0.0,0.0
19:36:27.483000,-2340.0,-2237.0,-2.0,-801.0,254.0,786.0,0.0,0.0,0.0
19:36:27.488000,-2335.0,-2164.0,52.0,-801.0,254.0,786.0,0.0,0.0,0.0
19:36:27.493000,-2326.0,-2081.0,114.0,-787.0,151.0,788.0,0.0,0.0,0.0
19:36:27.498000,-2319.0,-1999.0,158.0,-787.0,151.0,788.0,0.0,0.0,0.0
19:36:27.502000,-2299.0,-1911.0,168.0,-771.0,97.0,767.0,0.0,0.0,0.0
19:36:27.507000,-2274.0,-1813.0,165.0,-771.0,97.0,767.0,0.0,0.0,0.0
19:36:27.512000,-2246.0,-1715.0,174.0,-744.0,125.0,726.0,0.0,0.0,0.0
19:36:27.516000,-2207.0,-1625.0,176.0,-744.0,125.0,726.0,0.0,0.0,0.0
19:36:27.521000,-2165.0,-1538.0,170.0,-744.0,125.0,726.0,0.0,0.0,0.0
19:36:27.526000,-2109.0,-1458.0,171.0,-739.0,180.0,679.0,0.0,0.0,0.0
19:36:27.530000,-2037.0,-1381.0,177.0,-739.0,180.0,679.0,0.0,0.0,0.0
19:36:27.535000,-1960.0,-1306.0,171.0,-753.0,226.0,625.0,0.0,0.0,0.0
19:36:27.540000,-1890.0,-1243.0,156.0,-753.0,226.0,625.0,0.0,0.0,0.0
19:36:27.545000,-1813.0,-1189.0,148.0,-745.0,277.0,577.0,0.0,0.0,0.0
19:36:27.549000,-1721.0,-1124.0,167.0,-745.0,277.0,577.0,0.0,0.0,0.0
19:36:27.554000,-1638.0,-1050.0,214.0,-671.0,304.0,543.0,0.0,0.0,0.0
19:36:27.559000,-1638.0,-1050.0,214.0,-671.0,304.0,543.0,0.0,0.0,0.0
19:36:27.563000,-1575.0,-994.0,242.0,-652.0,316.0,529.0,0.0,0.0,0.0
19:36:27.568000,-1520.0,-947.0,191.0,-652.0,316.0,529.0,0.0,0.0,0.0
19:36:27.573000,-1473.0,-884.0,115.0,-648.0,398.0,521.0,0.0,0.0,0.0
19:36:27.577000,-1432.0,-828.0,133.0,-648.0,398.0,521.0,0.0,0.0,0.0
19:36:27.582000,-1418.0,-770.0,268.0,-576.0,466.0,510.0,0.0,0.0,0.0
19:36:27.587000,-1414.0,-714.0,331.0,-576.0,466.0,510.0,0.0,0.0,0.0
19:36:27.592000,-1435.0,-668.0,255.0,-620.0,552.0,504.0,0.0,0.0,0.0
19:36:27.596000,-1450.0,-627.0,200.0,-620.0,552.0,504.0,0.0,0.0,0.0
19:36:27.601000,-1445.0,-583.0,210.0,-689.0,632.0,492.0,0.0,0.0,0.0
19:36:27.606000,-1446.0,-551.0,196.0,-689.0,632.0,492.0,0.0,0.0,0.0
19:36:27.610000,-1423.0,-520.0,170.0,-669.0,601.0,477.0,0.0,0.0,0.0
19:36:27.615000,-1391.0,-478.0,168.0,-669.0,601.0,477.0,0.0,0.0,0.0
19:36:27.620000,-1351.0,-430.0,177.0,-669.0,601.0,477.0,0.0,0.0,0.0
19:36:27.624000,-1309.0,-396.0,185.0,-630.0,554.0,474.0,0.0,0.0,0.0
19:36:27.629000,-1253.0,-350.0,155.0,-630.0,554.0,474.0,0.0,0.0,0.0
19:36:27.633000,-1159.0,-296.0,49.0,-607.0,520.0,465.0,0.0,0.0,0.0
19:36:27.639000,-1085.0,-266.0,21.0,-607.0,520.0,465.0,0.0,0.0,0.0
19:36:27.643000,-1018.0,-236.0,116.0,-562.0,481.0,447.0,0.0,0.0,0.0
19:36:27.648000,-988.0,-211.0,170.0,-562.0,481.0,447.0,0.0,0.0,0.0
19:36:27.653000,-936.0,-172.0,158.0,-550.0,451.0,435.0,0.0,0.0,0.0
19:36:27.657000,-884.0,-148.0,180.0,-550.0,451.0,435.0,0.0,0.0,0.0
19:36:27.662000,-830.0,-136.0,216.0,-601.0,467.0,412.0,0.0,0.0,0.0
19:36:27.667000,-830.0,-136.0,216.0,-601.0,467.0,412.0,0.0,0.0,0.0
19:36:27.671000,-816.0,-121.0,219.0,-596.0,575.0,387.0,0.0,0.0,0.0
19:36:27.676000,-784.0,-105.0,196.0,-596.0,575.0,387.0,0.0,0.0,0.0
19:36:27.681000,-785.0,-107.0,186.0,-503.0,695.0,381.0,0.0,0.0,0.0
19:36:27.686000,-774.0,-114.0,137.0,-503.0,695.0,381.0,0.0,0.0,0.0
19:36:27.690000,-753.0,-114.0,70.0,-405.0,787.0,375.0,0.0,0.0,0.0
19:36:27.695000,-788.0,-119.0,58.0,-405.0,787.0,375.0,0.0,0.0,0.0
19:36:27.700000,-782.0,-121.0,97.0,-406.0,729.0,363.0,0.0,0.0,0.0
19:36:27.704000,-771.0,-128.0,92.0,-406.0,729.0,363.0,0.0,0.0,0.0
19:36:27.709000,-759.0,-142.0,59.0,-465.0,671.0,360.0,0.0,0.0,0.0
19:36:27.714000,-753.0,-158.0,18.0,-465.0,671.0,360.0,0.0,0.0,0.0
19:36:27.718000,-760.0,-177.0,29.0,-474.0,712.0,365.0,0.0,0.0,0.0
19:36:27.723000,-763.0,-200.0,72.0,-474.0,712.0,365.0,0.0,0.0,0.0
19:36:27.728000,-756.0,-218.0,53.0,-474.0,712.0,365.0,0.0,0.0,0.0
19:36:27.733000,-745.0,-231.0,-6.0,-459.0,716.0,361.0,0.0,0.0,0.0
19:36:27.737000,-743.0,-247.0,-32.0,-459.0,716.0,361.0,0.0,0.0,0.0
19:36:27.742000,-742.0,-259.0,-21.0,-466.0,723.0,356.0,0.0,0.0,0.0
19:36:27.747000,-740.0,-278.0,7.0,-466.0,723.0,356.0,0.0,0.0,0.0
19:36:27.751000,-739.0,-305.0,64.0,-482.0,714.0,368.0,0.0,0.0,0.0
19:36:27.756000,-727.0,-327.0,106.0,-482.0,714.0,368.0,0.0,0.0,0.0
19:36:27.761000,-696.0,-354.0,119.0,-500.0,705.0,399.0,0.0,0.0,0.0
19:36:27.765000,-665.0,-373.0,163.0,-500.0,705.0,399.0,0.0,0.0,0.0
19:36:27.770000,-607.0,-386.0,140.0,-486.0,692.0,446.0,0.0,0.0,0.0
19:36:27.775000,-607.0,-386.0,140.0,-486.0,692.0,446.0,0.0,0.0,0.0
19:36:27.780000,-517.0,-413.0,26.0,-514.0,1036.0,468.0,0.0,0.0,0.0
19:36:27.784000,-306.0,-455.0,-145.0,-514.0,1036.0,468.0,0.0,0.0,0.0
19:36:27.789000,-683.0,-410.0,-197.0,-370.0,836.0,562.0,0.0,0.0,0.0
19:36:27.794000,-721.0,-381.0,147.0,-370.0,836.0,562.0,0.0,0.0,0.0
19:36:27.798000,-641.0,-359.0,574.0,-323.0,217.0,576.0,0.0,0.0,0.0
19:36:27.803000,-633.0,-338.0,525.0,-323.0,217.0,576.0,0.0,0.0,0.0
19:36:27.808000,-641.0,-315.0,245.0,-595.0,536.0,480.0,0.0,0.0,0.0
19:36:27.812000,-666.0,-328.0,52.0,-595.0,536.0,480.0,0.0,0.0,0.0
19:36:27.817000,-674.0,-317.0,-14.0,-635.0,865.0,447.0,0.0,0.0,0.0
19:36:27.822000,-645.0,-301.0,-84.0,-635.0,865.0,447.0,0.0,0.0,0.0
19:36:27.827000,-606.0,-284.0,-162.0,-510.0,707.0,419.0,0.0,0.0,0.0
19:36:27.831000,-562.0,-279.0,-224.0,-510.0,707.0,419.0,0.0,0.0,0.0
19:36:27.836000,-533.0,-268.0,-299.0,-459.0,632.0,410.0,0.0,0.0,0.0
19:36:27.841000,-506.0,-270.0,-371.0,-459.0,632.0,410.0,0.0,0.0,0.0
19:36:27.845000,-490.0,-273.0,-382.0,-459.0,632.0,410.0,0.0,0.0,0.0
19:36:27.850000,-443.0,-288.0,-373.0,-452.0,656.0,411.0,0.0,0.0,0.0
19:36:27.855000,-394.0,-298.0,-372.0,-452.0,656.0,411.0,0.0,0.0,0.0
19:36:27.859000,-379.0,-326.0,-345.0,-418.0,639.0,418.0,0.0,0.0,0.0
19:36:27.864000,-338.0,-350.0,-310.0,-418.0,639.0,418.0,0.0,0.0,0.0
19:36:27.868000,-290.0,-368.0,-297.0,-374.0,622.0,423.0,0.0,0.0,0.0
19:36:27.874000,-257.0,-397.0,-287.0,-374.0,622.0,423.0,0.0,0.0,0.0
19:36:27.878000,-252.0,-439.0,-271.0,-364.0,657.0,447.0,0.0,0.0,0.0
19:36:27.883000,-241.0,-463.0,-281.0,-364.0,657.0,447.0,0.0,0.0,0.0
19:36:27.888000,-241.0,-463.0,-281.0,-325.0,691.0,477.0,0.0,0.0,0.0
19:36:27.892000,-216.0,-483.0,-285.0,-325.0,691.0,477.0,0.0,0.0,0.0
19:36:27.897000,-219.0,-497.0,-266.0,-299.0,712.0,494.0,0.0,0.0,0.0
19:36:27.902000,-236.0,-504.0,-256.0,-299.0,712.0,494.0,0.0,0.0,0.0
19:36:27.906000,-233.0,-497.0,-274.0,-332.0,759.0,498.0,0.0,0.0,0.0
19:36:27.911000,-241.0,-491.0,-317.0,-332.0,759.0,498.0,0.0,0.0,0.0
19:36:27.916000,-244.0,-479.0,-361.0,-349.0,798.0,492.0,0.0,0.0,0.0
19:36:27.921000,-245.0,-463.0,-392.0,-349.0,798.0,492.0,0.0,0.0,0.0
19:36:27.925000,-219.0,-452.0,-420.0,-350.0,805.0,486.0,0.0,0.0,0.0
19:36:27.930000,-225.0,-437.0,-447.0,-350.0,805.0,486.0,0.0,0.0,0.0
19:36:27.935000,-218.0,-431.0,-452.0,-376.0,776.0,477.0,0.0,0.0,0.0
19:36:27.939000,-193.0,-413.0,-434.0,-376.0,776.0,477.0,0.0,0.0,0.0
19:36:27.944000,-186.0,-403.0,-431.0,-419.0,746.0,466.0,0.0,0.0,0.0
19:36:27.949000,-142.0,-392.0,-445.0,-419.0,746.0,466.0,0.0,0.0,0.0
19:36:27.953000,-100.0,-387.0,-453.0,-419.0,746.0,466.0,0.0,0.0,0.0
19:36:27.958000,-58.0,-382.0,-450.0,-432.0,734.0,452.0,0.0,0.0,0.0
19:36:27.963000,-19.0,-380.0,-441.0,-432.0,734.0,452.0,0.0,0.0,0.0
19:36:27.968000,8.0,-382.0,-420.0,-394.0,740.0,449.0,0.0,0.0,0.0
19:36:27.972000,37.0,-385.0,-378.0,-394.0,740.0,449.0,0.0,0.0,0.0
19:36:27.977000,51.0,-389.0,-363.0,-363.0,785.0,450.0,0.0,0.0,0.0
19:36:27.982000,55.0,-392.0,-365.0,-363.0,785.0,450.0,0.0,0.0,0.0
19:36:27.986000,65.0,-393.0,-368.0,-381.0,861.0,454.0,0.0,0.0,0.0
19:36:27.991000,74.0,-383.0,-366.0,-381.0,861.0,454.0,0.0,0.0,0.0
19:36:27.996000,74.0,-383.0,-366.0,-417.0,904.0,449.0,0.0,0.0,0.0
19:36:28.000000,74.0,-372.0,-351.0,-417.0,904.0,449.0,0.0,0.0,0.0
19:36:28.005000,93.0,-357.0,-339.0,-437.0,896.0,426.0,0.0,0.0,0.0
19:36:28.010000,118.0,-335.0,-346.0,-437.0,896.0,426.0,0.0,0.0,0.0
19:36:28.015000,145.0,-318.0,-376.0,-459.0,885.0,402.0,0.0,0.0,0.0
19:36:28.019000,181.0,-298.0,-410.0,-459.0,885.0,402.0,0.0,0.0,0.0
19:36:28.024000,224.0,-282.0,-431.0,-462.0,879.0,382.0,0.0,0.0,0.0
19:36:28.029000,276.0,-273.0,-438.0,-462.0,879.0,382.0,0.0,0.0,0.0
19:36:28.033000,343.0,-267.0,-449.0,-431.0,855.0,364.0,0.0,0.0,0.0
19:36:28.038000,415.0,-264.0,-456.0,-431.0,855.0,364.0,0.0,0.0,0.0
19:36:28.043000,490.0,-263.0,-469.0,-381.0,864.0,349.0,0.0,0.0,0.0
19:36:28.047000,555.0,-268.0,-451.0,-381.0,864.0,349.0,0.0,0.0,0.0
19:36:28.052000,608.0,-273.0,-437.0,-341.0,946.0,349.0,0.0,0.0,0.0
19:36:28.057000,653.0,-272.0,-423.0,-341.0,946.0,349.0,0.0,0.0,0.0
19:36:28.062000,693.0,-261.0,-399.0,-341.0,946.0,349.0,0.0,0.0,0.0
19:36:28.066000,725.0,-245.0,-368.0,-342.0,1036.0,358.0,0.0,0.0,0.0
19:36:28.071000,770.0,-223.0,-333.0,-342.0,1036.0,358.0,0.0,0.0,0.0
19:36:28.076000,826.0,-196.0,-303.0,-400.0,1057.0,357.0,0.0,0.0,0.0
19:36:28.080000,889.0,-170.0,-287.0,-400.0,1057.0,357.0,0.0,0.0,0.0
19:36:28.085000,963.0,-150.0,-228.0,-434.0,995.0,353.0,0.0,0.0,0.0
19:36:28.090000,1060.0,-119.0,-186.0,-434.0,995.0,353.0,0.0,0.0,0.0
19:36:28.094000,1060.0,-119.0,-186.0,-423.0,879.0,358.0,0.0,0.0,0.0
19:36:28.099000,1292.0,-63.0,-117.0,-423.0,879.0,358.0,0.0,0.0,0.0
19:36:28.103000,1292.0,-63.0,-117.0,-428.0,765.0,382.0,0.0,0.0,0.0
19:36:28.109000,1399.0,-22.0,-68.0,-428.0,765.0,382.0,0.0,0.0,0.0
19:36:28.113000,1497.0,20.0,-32.0,-422.0,749.0,422.0,0.0,0.0,0.0
19:36:28.118000,1579.0,56.0,-12.0,-422.0,749.0,422.0,0.0,0.0,0.0
19:36:28.123000,1656.0,83.0,-2.0,-384.0,807.0,470.0,0.0,0.0,0.0
19:36:28.127000,1733.0,116.0,16.0,-384.0,807.0,470.0,0.0,0.0,0.0
19:36:28.132000,1799.0,158.0,44.0,-355.0,799.0,511.0,0.0,0.0,0.0
19:36:28.137000,1854.0,206.0,65.0,-355.0,799.0,511.0,0.0,0.0,0.0
19:36:28.141000,1899.0,260.0,79.0,-375.0,768.0,536.0,0.0,0.0,0.0
19:36:28.146000,1939.0,320.0,107.0,-375.0,768.0,536.0,0.0,0.0,0.0
19:36:28.151000,1953.0,364.0,123.0,-439.0,751.0,561.0,0.0,0.0,0.0
19:36:28.156000,1982.0,423.0,119.0,-439.0,751.0,561.0,0.0,0.0,0.0
19:36:28.160000,2015.0,493.0,129.0,-516.0,683.0,556.0,0.0,0.0,0.0
19:36:28.165000,2041.0,555.0,149.0,-516.0,683.0,556.0,0.0,0.0,0.0
19:36:28.170000,2069.0,618.0,154.0,-516.0,683.0,556.0,0.0,0.0,0.0
19:36:28.174000,2100.0,680.0,145.0,-549.0,583.0,533.0,0.0,0.0,0.0
19:36:28.179000,2138.0,739.0,139.0,-549.0,583.0,533.0,0.0,0.0,0.0
19:36:28.184000,2181.0,806.0,139.0,-534.0,473.0,514.0,0.0,0.0,0.0
19:36:28.188000,2223.0,870.0,153.0,-534.0,473.0,514.0,0.0,0.0,0.0
19:36:28.193000,2263.0,929.0,160.0,-506.0,362.0,489.0,0.0,0.0,0.0
19:36:28.198000,2313.0,991.0,148.0,-506.0,362.0,489.0,0.0,0.0,0.0
19:36:28.203000,2373.0,1054.0,123.0,-486.0,286.0,467.0,0.0,0.0,0.0
19:36:28.207000,2436.0,1113.0,94.0,-486.0,286.0,467.0,0.0,0.0,0.0
19:36:28.212000,2501.0,1176.0,60.0,-478.0,241.0,462.0,0.0,0.0,0.0
19:36:28.217000,2501.0,1176.0,60.0,-478.0,241.0,462.0,0.0,0.0,0.0
19:36:28.221000,2569.0,1236.0,49.0,-468.0,189.0,486.0,0.0,0.0,0.0
19:36:28.226000,2640.0,1297.0,69.0,-468.0,189.0,486.0,0.0,0.0,0.0
19:36:28.231000,2713.0,1359.0,86.0,-467.0,137.0,543.0,0.0,0.0,0.0
19:36:28.235000,2788.0,1426.0,109.0,-467.0,137.0,543.0,0.0,0.0,0.0
19:36:28.240000,2858.0,1498.0,130.0,-498.0,131.0,630.0,0.0,0.0,0.0
19:36:28.245000,2922.0,1572.0,140.0,-498.0,131.0,630.0,0.0,0.0,0.0
19:36:28.250000,2979.0,1649.0,151.0,-572.0,162.0,726.0,0.0,0.0,0.0
19:36:28.254000,3021.0,1728.0,173.0,-572.0,162.0,726.0,0.0,0.0,0.0
19:36:28.259000,3060.0,1806.0,216.0,-633.0,186.0,814.0,0.0,0.0,0.0
19:36:28.264000,3101.0,1883.0,257.0,-633.0,186.0,814.0,0.0,0.0,0.0
19:36:28.268000,3138.0,1955.0,291.0,-640.0,184.0,881.0,0.0,0.0,0.0
19:36:28.273000,3169.0,2019.0,305.0,-640.0,184.0,881.0,0.0,0.0,0.0
19:36:28.278000,3194.0,2073.0,312.0,-640.0,184.0,881.0,0.0,0.0,0.0
19:36:28.282000,3213.0,2124.0,317.0,-621.0,172.0,931.0,0.0,0.0,0.0
19:36:28.287000,3222.0,2166.0,304.0,-621.0,172.0,931.0,0.0,0.0,0.0
19:36:28.292000,3217.0,2208.0,294.0,-586.0,199.0,965.0,0.0,0.0,0.0
19:36:28.297000,3203.0,2247.0,297.0,-586.0,199.0,965.0,0.0,0.0,0.0
19:36:28.301000,3183.0,2280.0,307.0,-541.0,251.0,980.0,0.0,0.0,0.0
19:36:28.306000,3156.0,2309.0,324.0,-541.0,251.0,980.0,0.0,0.0,0.0
