hh:mm:ss.ms,gyroX[mdps],gyroY[mdps],gyroZ[mdps],accX[mg],accY[mg],accZ[mg],magX[mG],magY[mG],magZ[mG]
19:37:01.998000,-2643.0,-2362.0,-962.0,-843.0,-608.0,-576.0,0.0,0.0,0.0
19:37:02.003000,-2552.0,-2419.0,-1061.0,-843.0,-608.0,-576.0,0.0,0.0,0.0
19:37:02.008000,-2479.0,-2447.0,-1208.0,-719.0,-715.0,-434.0,0.0,0.0,0.0
19:37:02.012000,-2478.0,-2331.0,-1236.0,-719.0,-715.0,-434.0,0.0,0.0,0.0
19:37:02.017000,-2368.0,-2307.0,-991.0,-1202.0,-811.0,-300.0,0.0,0.0,0.0
19:37:02.022000,-2249.0,-2318.0,-903.0,-1202.0,-811.0,-300.0,0.0,0.0,0.0
19:37:02.026000,-2114.0,-2279.0,-1165.0,-1235.0,-859.0,-266.0,0.0,0.0,0.0
19:37:02.031000,-2114.0,-2279.0,-1165.0,-1235.0,-859.0,-266.0,0.0,0.0,0.0
19:37:02.036000,-2006.0,-2244.0,-1369.0,-738.0,-954.0,-286.0,0.0,0.0,0.0
19:37:02.040000,-1919.0,-2243.0,-1414.0,-738.0,-954.0,-286.0,0.0,0.0,0.0
19:37:02.045000,-1861.0,-2230.0,-1336.0,-710.0,-935.0,-303.0,0.0,0.0,0.0
19:37:02.050000,-1804.0,-2207.0,-1236.0,-710.0,-935.0,-303.0,0.0,0.0,0.0
19:37:02.055000,-1757.0,-2175.0,-1357.0,-884.0,-789.0,-299.0,0.0,0.0,0.0
19:37:02.059000,-1691.0,-2143.0,-1349.0,-884.0,-789.0,-299.0,0.0,0.0,0.0
19:37:02.064000,-1626.0,-2118.0,-1284.0,-879.0,-772.0,-282.0,0.0,0.0,0.0
19:37:02.069000,-1557.0,-2085.0,-1298.0,-879.0,-772.0,-282.0,0.0,0.0,0.0
19:37:02.073000,-1501.0,-2053.0,-1376.0,-890.0,-707.0,-255.0,0.0,0.0,0.0
19:37:02.078000,-1461.0,-2026.0,-1437.0,-890.0,-707.0,-255.0,0.0,0.0,0.0
19:37:02.083000,-1423.0,-2000.0,-1430.0,-892.0,-575.0,-232.0,0.0,0.0,0.0
19:37:02.087000,-1384.0,-1978.0,-1374.0,-892.0,-575.0,-232.0,0.0,0.0,0.0
19:37:02.092000,-1345.0,-1961.0,-1318.0,-892.0,-575.0,-232.0,0.0,0.0,0.0
19:37:02.097000,-1299.0,-1943.0,-1279.0,-873.0,-533.0,-210.0,0.0,0.0,0.0
19:37:02.102000,-1253.0,-1916.0,-1241.0,-893.0,-515.0,-192.0,0.0,0.0,0.0
19:37:02.106000,-1218.0,-1882.0,-1186.0,-893.0,-515.0,-192.0,0.0,0.0,0.0
19:37:02.111000,-1190.0,-1842.0,-1120.0,-893.0,-515.0,-192.0,0.0,0.0,0.0
19:37:02.116000,-1166.0,-1797.0,-1061.0,-907.0,-472.0,-179.0,0.0,0.0,0.0
19:37:02.120000,-1142.0,-1755.0,-1004.0,-907.0,-472.0,-179.0,0.0,0.0,0.0
19:37:02.125000,-1112.0,-1719.0,-950.0,-925.0,-427.0,-165.0,0.0,0.0,0.0
19:37:02.130000,-1071.0,-1684.0,-910.0,-925.0,-427.0,-165.0,0.0,0.0,0.0
19:37:02.134000,-1024.0,-1649.0,-886.0,-966.0,-443.0,-157.0,0.0,0.0,0.0
19:37:02.139000,-1024.0,-1649.0,-886.0,-966.0,-443.0,-157.0,0.0,0.0,0.0
19:37:02.144000,-975.0,-1610.0,-851.0,-1016.0,-490.0,-147.0,0.0,0.0,0.0
19:37:02.149000,-927.0,-1565.0,-802.0,-1016.0,-490.0,-147.0,0.0,0.0,0.0
19:37:02.153000,-890.0,-1522.0,-760.0,-1045.0,-441.0,-123.0,0.0,0.0,0.0
19:37:02.158000,-859.0,-1474.0,-743.0,-1045.0,-441.0,-123.0,0.0,0.0,0.0
19:37:02.163000,-831.0,-1439.0,-728.0,-1023.0,-318.0,-93.0,0.0,0.0,0.0
19:37:02.167000,-800.0,-1412.0,-700.0,-1023.0,-318.0,-93.0,0.0,0.0,0.0
19:37:02.172000,-767.0,-1393.0,-653.0,-1010.0,-285.0,-81.0,0.0,0.0,0.0
19:37:02.177000,-648.0,-1330.0,-616.0,-1010.0,-285.0,-81.0,0.0,0.0,0.0
19:37:02.181000,-699.0,-1321.0,-583.0,-1041.0,-279.0,-30.0,0.0,0.0,0.0
19:37:02.186000,-684.0,-1293.0,-531.0,-1041.0,-279.0,-30.0,0.0,0.0,0.0
19:37:02.191000,-651.0,-1264.0,-491.0,-1059.0,-258.0,13.0,0.0,0.0,0.0
19:37:02.196000,-616.0,-1234.0,-460.0,-1059.0,-258.0,13.0,0.0,0.0,0.0
19:37:02.200000,-602.0,-1204.0,-444.0,-1059.0,-258.0,13.0,0.0,0.0,0.0
19:37:02.205000,-557.0,-1183.0,-448.0,-1046.0,-227.0,17.0,0.0,0.0,0.0
19:37:02.210000,-555.0,-1157.0,-424.0,-1017.0,-153.0,49.0,0.0,0.0,0.0
19:37:02.214000,-555.0,-1130.0,-422.0,-1017.0,-153.0,49.0,0.0,0.0,0.0
19:37:02.219000,-555.0,-1111.0,-400.0,-1017.0,-153.0,49.0,0.0,0.0,0.0
19:37:02.224000,-550.0,-1082.0,-325.0,-1046.0,-95.0,87.0,0.0,0.0,0.0
19:37:02.228000,-606.0,-1043.0,-288.0,-1046.0,-95.0,87.0,0.0,0.0,0.0
19:37:02.233000,-625.0,-989.0,-307.0,-1116.0,-157.0,126.0,0.0,0.0,0.0
19:37:02.238000,-611.0,-938.0,-467.0,-1116.0,-157.0,126.0,0.0,0.0,0.0
19:37:02.243000,-606.0,-897.0,-591.0,-1136.0,-242.0,131.0,0.0,0.0,0.0
19:37:02.247000,-606.0,-897.0,-591.0,-1136.0,-242.0,131.0,0.0,0.0,0.0
19:37:02.252000,-601.0,-861.0,-564.0,-1080.0,-194.0,127.0,0.0,0.0,0.0
19:37:02.257000,-618.0,-825.0,-451.0,-1080.0,-194.0,127.0,0.0,0.0,0.0
19:37:02.261000,-639.0,-778.0,-380.0,-1088.0,-160.0,137.0,0.0,0.0,0.0
19:37:02.266000,-641.0,-728.0,-450.0,-1088.0,-160.0,137.0,0.0,0.0,0.0
19:37:02.271000,-637.0,-679.0,-585.0,-1162.0,-144.0,135.0,0.0,0.0,0.0
19:37:02.275000,-647.0,-641.0,-632.0,-1162.0,-144.0,135.0,0.0,0.0,0.0
19:37:02.280000,-687.0,-612.0,-619.0,-1124.0,-91.0,145.0,0.0,0.0,0.0
19:37:02.285000,-730.0,-588.0,-585.0,-1124.0,-91.0,145.0,0.0,0.0,0.0
19:37:02.290000,-772.0,-578.0,-557.0,-1040.0,-46.0,164.0,0.0,0.0,0.0
19:37:02.294000,-821.0,-558.0,-589.0,-1040.0,-46.0,164.0,0.0,0.0,0.0
19:37:02.299000,-857.0,-537.0,-639.0,-1026.0,-38.0,175.0,0.0,0.0,0.0
19:37:02.304000,-908.0,-534.0,-627.0,-1026.0,-38.0,175.0,0.0,0.0,0.0
19:37:02.308000,-958.0,-536.0,-595.0,-1026.0,-5.0,175.0,0.0,0.0,0.0
19:37:02.313000,-994.0,-544.0,-624.0,-1030.0,-5.0,195.0,0.0,0.0,0.0
19:37:02.318000,-1075.0,-560.0,-640.0,-944.0,56.0,237.0,0.0,0.0,0.0
19:37:02.322000,-1152.0,-565.0,-599.0,-944.0,56.0,237.0,0.0,0.0,0.0
19:37:02.327000,-1218.0,-581.0,-570.0,-944.0,56.0,237.0,0.0,0.0,0.0
19:37:02.332000,-1285.0,-578.0,-581.0,-816.0,38.0,280.0,0.0,0.0,0.0
19:37:02.337000,-1299.0,-590.0,-618.0,-816.0,38.0,280.0,0.0,0.0,0.0
19:37:02.341000,-1311.0,-608.0,-624.0,-788.0,23.0,310.0,0.0,0.0,0.0
19:37:02.346000,-1335.0,-603.0,-543.0,-788.0,23.0,310.0,0.0,0.0,0.0
19:37:02.351000,-1390.0,-612.0,-416.0,-894.0,20.0,347.0,0.0,0.0,0.0
19:37:02.355000,-1390.0,-612.0,-416.0,-894.0,20.0,347.0,0.0,0.0,0.0
19:37:02.360000,-1395.0,-599.0,-374.0,-1011.0,-27.0,378.0,0.0,0.0,0.0
19:37:02.365000,-1347.0,-589.0,-435.0,-1011.0,-27.0,378.0,0.0,0.0,0.0
19:37:02.369000,-1372.0,-564.0,-491.0,-995.0,-62.0,401.0,0.0,0.0,0.0
19:37:02.373000,-1346.0,-553.0,-466.0,-995.0,-62.0,401.0,0.0,0.0,0.0
19:37:02.379000,-1331.0,-539.0,-404.0,-915.0,-116.0,427.0,0.0,0.0,0.0
19:37:02.384000,-1285.0,-521.0,-389.0,-915.0,-116.0,427.0,0.0,0.0,0.0
19:37:02.388000,-1242.0,-494.0,-371.0,-925.0,-199.0,441.0,0.0,0.0,0.0
19:37:02.393000,-1204.0,-465.0,-356.0,-925.0,-199.0,441.0,0.0,0.0,0.0
19:37:02.398000,-1157.0,-430.0,-397.0,-992.0,-249.0,438.0,0.0,0.0,0.0
19:37:02.402000,-1080.0,-403.0,-439.0,-992.0,-249.0,438.0,0.0,0.0,0.0
19:37:02.407000,-1019.0,-373.0,-396.0,-1017.0,-268.0,422.0,0.0,0.0,0.0
19:37:02.412000,-961.0,-340.0,-356.0,-1017.0,-268.0,422.0,0.0,0.0,0.0
19:37:02.416000,-890.0,-301.0,-366.0,-1007.0,-248.0,391.0,0.0,0.0,0.0
19:37:02.421000,-815.0,-256.0,-392.0,-1007.0,-248.0,391.0,0.0,0.0,0.0
19:37:02.426000,-722.0,-219.0,-410.0,-1007.0,-248.0,391.0,0.0,0.0,0.0
19:37:02.430000,-689.0,-189.0,-434.0,-1009.0,-146.0,365.0,0.0,0.0,0.0
19:37:02.435000,-641.0,-158.0,-427.0,-1009.0,-146.0,365.0,0.0,0.0,0.0
19:37:02.440000,-606.0,-135.0,-396.0,-1004.0,-77.0,354.0,0.0,0.0,0.0
19:37:02.445000,-566.0,-117.0,-345.0,-1004.0,-77.0,354.0,0.0,0.0,0.0
19:37:02.449000,-534.0,-105.0,-289.0,-990.0,-69.0,347.0,0.0,0.0,0.0
19:37:02.454000,-487.0,-91.0,-257.0,-990.0,-69.0,347.0,0.0,0.0,0.0
19:37:02.459000,-431.0,-79.0,-212.0,-969.0,-54.0,336.0,0.0,0.0,0.0
19:37:02.463000,-366.0,-64.0,-153.0,-969.0,-54.0,336.0,0.0,0.0,0.0
19:37:02.468000,-366.0,-64.0,-153.0,-912.0,-49.0,315.0,0.0,0.0,0.0
19:37:02.473000,-302.0,-52.0,-117.0,-912.0,-49.0,315.0,0.0,0.0,0.0
19:37:02.477000,-247.0,-35.0,-82.0,-866.0,-11.0,298.0,0.0,0.0,0.0
19:37:02.482000,-208.0,-18.0,-16.0,-866.0,-11.0,298.0,0.0,0.0,0.0
19:37:02.487000,-172.0,-4.0,39.0,-883.0,66.0,293.0,0.0,0.0,0.0
19:37:02.492000,-137.0,14.0,82.0,-883.0,66.0,293.0,0.0,0.0,0.0
19:37:02.496000,-103.0,33.0,154.0,-926.0,106.0,295.0,0.0,0.0,0.0
19:37:02.501000,-74.0,52.0,226.0,-926.0,106.0,295.0,0.0,0.0,0.0
19:37:02.506000,-40.0,73.0,253.0,-956.0,93.0,305.0,0.0,0.0,0.0
19:37:02.510000,-22.0,96.0,285.0,-956.0,93.0,305.0,0.0,0.0,0.0
19:37:02.515000,21.0,121.0,350.0,-964.0,66.0,325.0,0.0,0.0,0.0
19:37:02.520000,67.0,151.0,399.0,-964.0,66.0,325.0,0.0,0.0,0.0
19:37:02.524000,112.0,182.0,415.0,-964.0,39.0,342.0,0.0,0.0,0.0
19:37:02.529000,154.0,226.0,443.0,-964.0,39.0,342.0,0.0,0.0,0.0
19:37:02.534000,197.0,268.0,484.0,-964.0,39.0,342.0,0.0,0.0,0.0
19:37:02.539000,238.0,314.0,517.0,-970.0,1.0,355.0,0.0,0.0,0.0
19:37:02.543000,289.0,352.0,571.0,-970.0,1.0,355.0,0.0,0.0,0.0
19:37:02.548000,347.0,400.0,620.0,-992.0,-2.0,364.0,0.0,0.0,0.0
19:37:02.553000,389.0,445.0,640.0,-992.0,-2.0,364.0,0.0,0.0,0.0
19:37:02.557000,422.0,500.0,619.0,-1025.0,9.0,375.0,0.0,0.0,0.0
19:37:02.562000,475.0,553.0,595.0,-1025.0,9.0,375.0,0.0,0.0,0.0
19:37:02.567000,538.0,597.0,630.0,-1050.0,-6.0,378.0,0.0,0.0,0.0
19:37:02.571000,584.0,638.0,714.0,-1050.0,-6.0,378.0,0.0,0.0,0.0
19:37:02.576000,584.0,638.0,714.0,-1049.0,-41.0,372.0,0.0,0.0,0.0
19:37:02.581000,652.0,676.0,785.0,-1049.0,-41.0,372.0,0.0,0.0,0.0
19:37:02.586000,724.0,716.0,782.0,-1047.0,-60.0,368.0,0.0,0.0,0.0
19:37:02.590000,787.0,763.0,759.0,-1047.0,-60.0,368.0,0.0,0.0,0.0
19:37:02.595000,856.0,810.0,759.0,-1014.0,-43.0,365.0,0.0,0.0,0.0
19:37:02.600000,912.0,861.0,821.0,-1014.0,-43.0,365.0,0.0,0.0,0.0
19:37:02.604000,970.0,907.0,875.0,-948.0,-30.0,370.0,0.0,0.0,0.0
19:37:02.608000,1023.0,956.0,904.0,-948.0,-30.0,370.0,0.0,0.0,0.0
19:37:02.614000,1092.0,1003.0,903.0,-965.0,-19.0,366.0,0.0,0.0,0.0
19:37:02.618000,1156.0,1063.0,907.0,-965.0,-19.0,366.0,0.0,0.0,0.0
19:37:02.623000,1218.0,1125.0,931.0,-1020.0,-2.0,351.0,0.0,0.0,0.0
19:37:02.628000,1276.0,1187.0,973.0,-1020.0,-2.0,351.0,0.0,0.0,0.0
19:37:02.633000,1325.0,1258.0,994.0,-1042.0,3.0,341.0,0.0,0.0,0.0
19:37:02.637000,1367.0,1318.0,1036.0,-1042.0,3.0,341.0,0.0,0.0,0.0
19:37:02.642000,1407.0,1391.0,1106.0,-1042.0,3.0,341.0,0.0,0.0,0.0
19:37:02.647000,1435.0,1429.0,1169.0,-1082.0,0.0,345.0,0.0,0.0,0.0
19:37:02.651000,1525.0,1551.0,1220.0,-1082.0,0.0,345.0,0.0,0.0,0.0
19:37:02.656000,1507.0,1589.0,1251.0,-1136.0,23.0,327.0,0.0,0.0,0.0
19:37:02.661000,1548.0,1665.0,1265.0,-1136.0,23.0,327.0,0.0,0.0,0.0
19:37:02.665000,1560.0,1723.0,1299.0,-1146.0,68.0,302.0,0.0,0.0,0.0
19:37:02.670000,1587.0,1775.0,1346.0,-1146.0,68.0,302.0,0.0,0.0,0.0
19:37:02.675000,1608.0,1829.0,1381.0,-1102.0,79.0,300.0,0.0,0.0,0.0
19:37:02.680000,1615.0,1876.0,1426.0,-1102.0,79.0,300.0,0.0,0.0,0.0
19:37:02.684000,1615.0,1876.0,1426.0,-1063.0,32.0,283.0,0.0,0.0,0.0
19:37:02.689000,1643.0,1926.0,1471.0,-1063.0,32.0,283.0,0.0,0.0,0.0
19:37:02.694000,1661.0,1961.0,1500.0,-1050.0,-29.0,248.0,0.0,0.0,0.0
19:37:02.698000,1687.0,1983.0,1531.0,-1050.0,-29.0,248.0,0.0,0.0,0.0
19:37:02.703000,1711.0,2009.0,1546.0,-1040.0,-66.0,202.0,0.0,0.0,0.0
19:37:02.708000,1725.0,2033.0,1544.0,-1040.0,-66.0,202.0,0.0,0.0,0.0
19:37:02.712000,1739.0,2058.0,1544.0,-1033.0,-76.0,142.0,0.0,0.0,0.0
19:37:02.717000,1722.0,2078.0,1544.0,-1033.0,-76.0,142.0,0.0,0.0,0.0
19:37:02.722000,1689.0,2086.0,1561.0,-1025.0,-75.0,84.0,0.0,0.0,0.0
19:37:02.727000,1650.0,2089.0,1565.0,-1025.0,-75.0,84.0,0.0,0.0,0.0
19:37:02.731000,1586.0,2079.0,1530.0,-992.0,-79.0,10.0,0.0,0.0,0.0
19:37:02.736000,1535.0,2074.0,1512.0,-992.0,-79.0,10.0,0.0,0.0,0.0
19:37:02.741000,1494.0,2043.0,1465.0,-884.0,-93.0,-96.0,0.0,0.0,0.0
19:37:02.745000,1452.0,2002.0,1409.0,-884.0,-93.0,-96.0,0.0,0.0,0.0
19:37:02.750000,1406.0,1957.0,1367.0,-884.0,-93.0,-96.0,0.0,0.0,0.0
19:37:02.755000,1358.0,1897.0,1309.0,-745.0,-130.0,-241.0,0.0,0.0,0.0
19:37:02.759000,1302.0,1822.0,1239.0,-745.0,-130.0,-241.0,0.0,0.0,0.0
19:37:02.764000,1249.0,1747.0,1174.0,-692.0,-183.0,-392.0,0.0,0.0,0.0
19:37:02.769000,1196.0,1661.0,1132.0,-692.0,-183.0,-392.0,0.0,0.0,0.0
19:37:02.774000,1139.0,1568.0,1081.0,-656.0,-222.0,-494.0,0.0,0.0,0.0
19:37:02.778000,1075.0,1472.0,998.0,-656.0,-222.0,-494.0,0.0,0.0,0.0
19:37:02.783000,1012.0,1383.0,903.0,-562.0,-215.0,-530.0,0.0,0.0,0.0
19:37:02.788000,960.0,1309.0,821.0,-562.0,-215.0,-530.0,0.0,0.0,0.0
19:37:02.792000,912.0,1233.0,801.0,-477.0,-208.0,-532.0,0.0,0.0,0.0
19:37:02.797000,912.0,1233.0,801.0,-477.0,-208.0,-532.0,0.0,0.0,0.0
19:37:02.802000,861.0,1155.0,862.0,-449.0,-248.0,-510.0,0.0,0.0,0.0
19:37:02.806000,809.0,1086.0,917.0,-449.0,-248.0,-510.0,0.0,0.0,0.0
19:37:02.811000,751.0,1049.0,864.0,-573.0,-232.0,-476.0,0.0,0.0,0.0
19:37:02.816000,686.0,1026.0,763.0,-573.0,-232.0,-476.0,0.0,0.0,0.0
19:37:02.821000,601.0,1003.0,694.0,-772.0,-175.0,-451.0,0.0,0.0,0.0
19:37:02.825000,508.0,982.0,659.0,-772.0,-175.0,-451.0,0.0,0.0,0.0
19:37:02.830000,414.0,956.0,625.0,-903.0,-124.0,-428.0,0.0,0.0,0.0
19:37:02.835000,318.0,927.0,587.0,-903.0,-124.0,-428.0,0.0,0.0,0.0
19:37:02.839000,219.0,898.0,562.0,-960.0,-65.0,-411.0,0.0,0.0,0.0
19:37:02.843000,122.0,875.0,538.0,-960.0,-65.0,-411.0,0.0,0.0,0.0
19:37:02.849000,21.0,849.0,517.0,-942.0,-41.0,-405.0,0.0,0.0,0.0
19:37:02.853000,-88.0,819.0,499.0,-942.0,-41.0,-405.0,0.0,0.0,0.0
19:37:02.858000,-210.0,786.0,490.0,-942.0,-41.0,-405.0,0.0,0.0,0.0
19:37:02.863000,-343.0,745.0,477.0,-903.0,-38.0,-404.0,0.0,0.0,0.0
19:37:02.868000,-477.0,702.0,452.0,-903.0,-38.0,-404.0,0.0,0.0,0.0
19:37:02.872000,-610.0,660.0,442.0,-845.0,-28.0,-404.0,0.0,0.0,0.0
19:37:02.877000,-720.0,620.0,435.0,-845.0,-28.0,-404.0,0.0,0.0,0.0
19:37:02.882000,-818.0,581.0,400.0,-778.0,-77.0,-411.0,0.0,0.0,0.0
19:37:02.886000,-904.0,539.0,366.0,-778.0,-77.0,-411.0,0.0,0.0,0.0
19:37:02.891000,-977.0,499.0,327.0,-753.0,-205.0,-409.0,0.0,0.0,0.0
19:37:02.896000,-1034.0,456.0,288.0,-753.0,-205.0,-409.0,0.0,0.0,0.0
19:37:02.900000,-1078.0,412.0,247.0,-757.0,-334.0,-395.0,0.0,0.0,0.0
19:37:02.905000,-1078.0,412.0,247.0,-757.0,-334.0,-395.0,0.0,0.0,0.0
19:37:02.910000,-1110.0,361.0,206.0,-741.0,-458.0,-379.0,0.0,0.0,0.0
19:37:02.915000,-1126.0,301.0,172.0,-741.0,-458.0,-379.0,0.0,0.0,0.0
19:37:02.919000,-1123.0,237.0,136.0,-697.0,-564.0,-361.0,0.0,0.0,0.0
19:37:02.924000,-1117.0,171.0,94.0,-697.0,-564.0,-361.0,0.0,0.0,0.0
19:37:02.929000,-1103.0,126.0,57.0,-634.0,-623.0,-352.0,0.0,0.0,0.0
19:37:02.933000,-1089.0,82.0,25.0,-634.0,-623.0,-352.0,0.0,0.0,0.0
19:37:02.938000,-1077.0,32.0,-7.0,-627.0,-599.0,-338.0,0.0,0.0,0.0
19:37:02.943000,-1064.0,-23.0,-48.0,-627.0,-599.0,-338.0,0.0,0.0,0.0
19:37:02.947000,-1035.0,-68.0,-93.0,-661.0,-603.0,-317.0,0.0,0.0,0.0
19:37:02.952000,-985.0,-107.0,-120.0,-661.0,-603.0,-317.0,0.0,0.0,0.0
19:37:02.957000,-931.0,-146.0,-130.0,-677.0,-689.0,-301.0,0.0,0.0,0.0
19:37:02.962000,-884.0,-177.0,-143.0,-677.0,-689.0,-301.0,0.0,0.0,0.0
19:37:02.966000,-846.0,-204.0,-182.0,-677.0,-689.0,-301.0,0.0,0.0,0.0
19:37:02.971000,-819.0,-228.0,-231.0,-706.0,-691.0,-283.0,0.0,0.0,0.0
19:37:02.976000,-796.0,-247.0,-280.0,-706.0,-691.0,-283.0,0.0,0.0,0.0
19:37:02.980000,-777.0,-261.0,-319.0,-726.0,-612.0,-261.0,0.0,0.0,0.0
19:37:02.985000,-769.0,-274.0,-346.0,-726.0,-612.0,-261.0,0.0,0.0,0.0
19:37:02.990000,-774.0,-287.0,-378.0,-710.0,-529.0,-238.0,0.0,0.0,0.0
19:37:02.994000,-792.0,-297.0,-429.0,-710.0,-529.0,-238.0,0.0,0.0,0.0
19:37:02.999000,-811.0,-303.0,-474.0,-695.0,-429.0,-223.0,0.0,0.0,0.0
19:37:03.004000,-829.0,-305.0,-504.0,-695.0,-429.0,-223.0,0.0,0.0,0.0
19:37:03.009000,-844.0,-313.0,-520.0,-686.0,-358.0,-220.0,0.0,0.0,0.0
19:37:03.013000,-844.0,-313.0,-520.0,-686.0,-358.0,-220.0,0.0,0.0,0.0
19:37:03.018000,-844.0,-325.0,-531.0,-641.0,-380.0,-233.0,0.0,0.0,0.0
19:37:03.023000,-827.0,-342.0,-535.0,-641.0,-380.0,-233.0,0.0,0.0,0.0
19:37:03.027000,-794.0,-361.0,-522.0,-599.0,-489.0,-258.0,0.0,0.0,0.0
19:37:03.032000,-749.0,-376.0,-503.0,-599.0,-489.0,-258.0,0.0,0.0,0.0
19:37:03.037000,-686.0,-386.0,-492.0,-628.0,-601.0,-281.0,0.0,0.0,0.0
19:37:03.041000,-616.0,-399.0,-486.0,-628.0,-601.0,-281.0,0.0,0.0,0.0
19:37:03.046000,-559.0,-424.0,-489.0,-633.0,-642.0,-296.0,0.0,0.0,0.0
19:37:03.051000,-508.0,-456.0,-513.0,-633.0,-642.0,-296.0,0.0,0.0,0.0
19:37:03.056000,-454.0,-483.0,-558.0,-580.0,-636.0,-301.0,0.0,0.0,0.0
19:37:03.060000,-400.0,-510.0,-592.0,-580.0,-636.0,-301.0,0.0,0.0,0.0
19:37:03.065000,-351.0,-532.0,-597.0,-516.0,-639.0,-301.0,0.0,0.0,0.0
19:37:03.070000,-312.0,-552.0,-560.0,-516.0,-639.0,-301.0,0.0,0.0,0.0
19:37:03.074000,-276.0,-571.0,-523.0,-516.0,-639.0,-301.0,0.0,0.0,0.0
19:37:03.078000,-249.0,-581.0,-537.0,-513.0,-650.0,-292.0,0.0,0.0,0.0
19:37:03.084000,-231.0,-580.0,-570.0,-513.0,-650.0,-292.0,0.0,0.0,0.0
19:37:03.088000,-222.0,-571.0,-589.0,-563.0,-626.0,-283.0,0.0,0.0,0.0
19:37:03.093000,-220.0,-562.0,-602.0,-563.0,-626.0,-283.0,0.0,0.0,0.0
19:37:03.098000,-214.0,-559.0,-607.0,-581.0,-565.0,-278.0,0.0,0.0,0.0
19:37:03.103000,-207.0,-552.0,-630.0,-581.0,-565.0,-278.0,0.0,0.0,0.0
19:37:03.107000,-205.0,-540.0,-697.0,-573.0,-518.0,-281.0,0.0,0.0,0.0
19:37:03.112000,-182.0,-530.0,-804.0,-573.0,-518.0,-281.0,0.0,0.0,0.0
19:37:03.117000,-149.0,-527.0,-785.0,-524.0,-549.0,-302.0,0.0,0.0,0.0
19:37:03.121000,-149.0,-527.0,-785.0,-524.0,-549.0,-302.0,0.0,0.0,0.0
19:37:03.126000,-150.0,-528.0,-704.0,-571.0,-603.0,-314.0,0.0,0.0,0.0
19:37:03.131000,-137.0,-520.0,-732.0,-571.0,-603.0,-314.0,0.0,0.0,0.0
19:37:03.135000,-116.0,-497.0,-751.0,-707.0,-612.0,-318.0,0.0,0.0,0.0
19:37:03.140000,-101.0,-485.0,-737.0,-707.0,-612.0,-318.0,0.0,0.0,0.0
19:37:03.145000,-89.0,-486.0,-700.0,-704.0,-566.0,-310.0,0.0,0.0,0.0
19:37:03.150000,-89.0,-501.0,-683.0,-704.0,-566.0,-310.0,0.0,0.0,0.0
19:37:03.154000,-86.0,-524.0,-672.0,-624.0,-494.0,-273.0,0.0,0.0,0.0
19:37:03.159000,-70.0,-544.0,-640.0,-624.0,-494.0,-273.0,0.0,0.0,0.0
19:37:03.164000,-44.0,-553.0,-592.0,-628.0,-520.0,-233.0,0.0,0.0,0.0
19:37:03.168000,-21.0,-554.0,-546.0,-628.0,-520.0,-233.0,0.0,0.0,0.0
19:37:03.173000,4.0,-555.0,-499.0,-695.0,-582.0,-196.0,0.0,0.0,0.0
19:37:03.178000,19.0,-550.0,-460.0,-695.0,-582.0,-196.0,0.0,0.0,0.0
19:37:03.182000,23.0,-544.0,-434.0,-738.0,-540.0,-154.0,0.0,0.0,0.0
19:37:03.187000,16.0,-538.0,-453.0,-738.0,-540.0,-154.0,0.0,0.0,0.0
19:37:03.192000,1.0,-528.0,-490.0,-738.0,-540.0,-154.0,0.0,0.0,0.0
19:37:03.197000,-30.0,-511.0,-517.0,-714.0,-457.0,-127.0,0.0,0.0,0.0
19:37:03.201000,-62.0,-495.0,-539.0,-714.0,-457.0,-127.0,0.0,0.0,0.0
19:37:03.206000,-95.0,-481.0,-569.0,-677.0,-423.0,-129.0,0.0,0.0,0.0
19:37:03.211000,-133.0,-464.0,-596.0,-677.0,-423.0,-129.0,0.0,0.0,0.0
19:37:03.215000,-151.0,-445.0,-592.0,-741.0,-433.0,-131.0,0.0,0.0,0.0
19:37:03.220000,-156.0,-416.0,-558.0,-741.0,-433.0,-131.0,0.0,0.0,0.0
19:37:03.225000,-163.0,-389.0,-536.0,-844.0,-496.0,-135.0,0.0,0.0,0.0
19:37:03.229000,-156.0,-368.0,-529.0,-844.0,-496.0,-135.0,0.0,0.0,0.0
19:37:03.234000,-156.0,-368.0,-529.0,-855.0,-530.0,-150.0,0.0,0.0,0.0
19:37:03.239000,-151.0,-365.0,-526.0,-855.0,-530.0,-150.0,0.0,0.0,0.0
19:37:03.244000,-139.0,-378.0,-521.0,-887.0,-499.0,-151.0,0.0,0.0,0.0
19:37:03.248000,-115.0,-387.0,-496.0,-887.0,-499.0,-151.0,0.0,0.0,0.0
19:37:03.253000,-68.0,-385.0,-444.0,-899.0,-518.0,-142.0,0.0,0.0,0.0
19:37:03.258000,-33.0,-398.0,-447.0,-899.0,-518.0,-142.0,0.0,0.0,0.0
19:37:03.262000,14.0,-403.0,-449.0,-852.0,-575.0,-127.0,0.0,0.0,0.0
19:37:03.267000,58.0,-406.0,-450.0,-852.0,-575.0,-127.0,0.0,0.0,0.0
19:37:03.272000,94.0,-410.0,-474.0,-833.0,-596.0,-124.0,0.0,0.0,0.0
19:37:03.276000,111.0,-415.0,-506.0,-833.0,-596.0,-124.0,0.0,0.0,0.0
19:37:03.281000,109.0,-422.0,-537.0,-835.0,-525.0,-123.0,0.0,0.0,0.0
19:37:03.286000,93.0,-428.0,-577.0,-835.0,-525.0,-123.0,0.0,0.0,0.0
19:37:03.290000,74.0,-429.0,-625.0,-851.0,-441.0,-132.0,0.0,0.0,0.0
19:37:03.295000,49.0,-424.0,-643.0,-851.0,-441.0,-132.0,0.0,0.0,0.0
19:37:03.300000,29.0,-426.0,-641.0,-851.0,-441.0,-132.0,0.0,0.0,0.0
19:37:03.305000,6.0,-425.0,-649.0,-880.0,-427.0,-138.0,0.0,0.0,0.0
19:37:03.309000,-13.0,-420.0,-674.0,-880.0,-427.0,-138.0,0.0,0.0,0.0
19:37:03.313000,-28.0,-421.0,-690.0,-889.0,-412.0,-141.0,0.0,0.0,0.0
19:37:03.319000,-35.0,-423.0,-696.0,-889.0,-412.0,-141.0,0.0,0.0,0.0
19:37:03.323000,-30.0,-419.0,-693.0,-874.0,-406.0,-171.0,0.0,0.0,0.0
19:37:03.328000,-32.0,-431.0,-700.0,-874.0,-406.0,-171.0,0.0,0.0,0.0
19:37:03.333000,-29.0,-426.0,-680.0,-878.0,-414.0,-189.0,0.0,0.0,0.0
19:37:03.338000,-41.0,-434.0,-658.0,-878.0,-414.0,-189.0,0.0,0.0,0.0
19:37:03.342000,-41.0,-434.0,-658.0,-912.0,-388.0,-189.0,0.0,0.0,0.0
19:37:03.347000,-44.0,-434.0,-632.0,-912.0,-388.0,-189.0,0.0,0.0,0.0
19:37:03.352000,-56.0,-439.0,-611.0,-980.0,-347.0,-187.0,0.0,0.0,0.0
19:37:03.356000,-64.0,-452.0,-597.0,-980.0,-347.0,-187.0,0.0,0.0,0.0
19:37:03.361000,-61.0,-451.0,-562.0,-1047.0,-334.0,-189.0,0.0,0.0,0.0
19:37:03.366000,-67.0,-473.0,-547.0,-1047.0,-334.0,-189.0,0.0,0.0,0.0
19:37:03.370000,-56.0,-475.0,-527.0,-1065.0,-342.0,-195.0,0.0,0.0,0.0
19:37:03.375000,-61.0,-501.0,-519.0,-1065.0,-342.0,-195.0,0.0,0.0,0.0
19:37:03.380000,-55.0,-513.0,-513.0,-1039.0,-348.0,-196.0,0.0,0.0,0.0
19:37:03.385000,-53.0,-530.0,-496.0,-1039.0,-348.0,-196.0,0.0,0.0,0.0
19:37:03.389000,-49.0,-554.0,-494.0,-1001.0,-350.0,-189.0,0.0,0.0,0.0
19:37:03.394000,-44.0,-562.0,-496.0,-1001.0,-350.0,-189.0,0.0,0.0,0.0
19:37:03.399000,-55.0,-592.0,-499.0,-977.0,-324.0,-174.0,0.0,0.0,0.0
19:37:03.403000,-50.0,-592.0,-493.0,-977.0,-324.0,-174.0,0.0,0.0,0.0
19:37:03.408000,-66.0,-617.0,-496.0,-977.0,-324.0,-174.0,0.0,0.0,0.0
19:37:03.413000,-70.0,-623.0,-489.0,-994.0,-290.0,-161.0,0.0,0.0,0.0
19:37:03.417000,-84.0,-643.0,-488.0,-994.0,-290.0,-161.0,0.0,0.0,0.0
19:37:03.422000,-98.0,-654.0,-492.0,-1030.0,-261.0,-149.0,0.0,0.0,0.0
19:37:03.427000,-116.0,-670.0,-487.0,-1030.0,-261.0,-149.0,0.0,0.0,0.0
19:37:03.432000,-135.0,-688.0,-475.0,-1040.0,-222.0,-131.0,0.0,0.0,0.0
19:37:03.436000,-161.0,-700.0,-435.0,-1040.0,-222.0,-131.0,0.0,0.0,0.0
19:37:03.441000,-192.0,-721.0,-391.0,-1011.0,-207.0,-109.0,0.0,0.0,0.0
19:37:03.446000,-222.0,-725.0,-390.0,-1011.0,-207.0,-109.0,0.0,0.0,0.0
19:37:03.450000,-222.0,-725.0,-390.0,-984.0,-199.0,-84.0,0.0,0.0,0.0
19:37:03.455000,-269.0,-736.0,-413.0,-984.0,-199.0,-84.0,0.0,0.0,0.0
19:37:03.460000,-305.0,-741.0,-401.0,-1004.0,-165.0,-59.0,0.0,0.0,0.0
19:37:03.464000,-359.0,-763.0,-352.0,-1004.0,-165.0,-59.0,0.0,0.0,0.0
19:37:03.469000,-403.0,-772.0,-311.0,-1020.0,-141.0,-44.0,0.0,0.0,0.0
19:37:03.474000,-445.0,-784.0,-340.0,-1020.0,-141.0,-44.0,0.0,0.0,0.0
19:37:03.479000,-485.0,-797.0,-389.0,-1026.0,-117.0,-38.0,0.0,0.0,0.0
19:37:03.483000,-536.0,-813.0,-357.0,-1026.0,-117.0,-38.0,0.0,0.0,0.0
19:37:03.488000,-552.0,-835.0,-289.0,-1064.0,-58.0,-31.0,0.0,0.0,0.0
19:37:03.493000,-575.0,-854.0,-300.0,-1064.0,-58.0,-31.0,0.0,0.0,0.0
19:37:03.497000,-635.0,-876.0,-314.0,-1094.0,-35.0,-1.0,0.0,0.0,0.0
19:37:03.502000,-671.0,-882.0,-358.0,-1094.0,-35.0,-1.0,0.0,0.0,0.0
19:37:03.507000,-757.0,-912.0,-330.0,-1028.0,-129.0,46.0,0.0,0.0,0.0
19:37:03.511000,-768.0,-926.0,-302.0,-1028.0,-129.0,46.0,0.0,0.0,0.0
19:37:03.516000,-815.0,-942.0,-325.0,-1028.0,-129.0,46.0,0.0,0.0,0.0
19:37:03.521000,-868.0,-956.0,-350.0,-1006.0,-101.0,78.0,0.0,0.0,0.0
19:37:03.526000,-929.0,-970.0,-405.0,-1006.0,-101.0,78.0,0.0,0.0,0.0
19:37:03.530000,-992.0,-1001.0,-394.0,-1098.0,41.0,131.0,0.0,0.0,0.0
19:37:03.535000,-1033.0,-1008.0,-333.0,-1098.0,41.0,131.0,0.0,0.0,0.0
19:37:03.540000,-1087.0,-1025.0,-392.0,-1123.0,96.0,211.0,0.0,0.0,0.0
19:37:03.544000,-1173.0,-1049.0,-483.0,-1123.0,96.0,211.0,0.0,0.0,0.0
19:37:03.548000,-1173.0,-1049.0,-483.0,-1029.0,108.0,302.0,0.0,0.0,0.0
19:37:03.554000,-1359.0,-1108.0,-382.0,-1029.0,108.0,302.0,0.0,0.0,0.0
19:37:03.558000,-1463.0,-1108.0,-331.0,-955.0,95.0,380.0,0.0,0.0,0.0
19:37:03.563000,-1463.0,-1144.0,-331.0,-955.0,95.0,380.0,0.0,0.0,0.0
19:37:03.568000,-1547.0,-1173.0,-319.0,-992.0,79.0,414.0,0.0,0.0,0.0
19:37:03.573000,-1624.0,-1205.0,-365.0,-992.0,79.0,414.0,0.0,0.0,0.0
19:37:03.577000,-1705.0,-1236.0,-423.0,-1039.0,78.0,434.0,0.0,0.0,0.0
19:37:03.582000,-1803.0,-1281.0,-375.0,-1039.0,78.0,434.0,0.0,0.0,0.0
19:37:03.587000,-1847.0,-1309.0,-289.0,-1026.0,61.0,435.0,0.0,0.0,0.0
19:37:03.591000,-1917.0,-1338.0,-336.0,-1026.0,61.0,435.0,0.0,0.0,0.0
19:37:03.596000,-1973.0,-1372.0,-487.0,-1024.0,131.0,428.0,0.0,0.0,0.0
19:37:03.601000,-2048.0,-1411.0,-667.0,-1024.0,131.0,428.0,0.0,0.0,0.0
19:37:03.605000,-2127.0,-1460.0,-756.0,-1004.0,212.0,440.0,0.0,0.0,0.0
19:37:03.610000,-2214.0,-1507.0,-707.0,-1004.0,212.0,440.0,0.0,0.0,0.0
19:37:03.615000,-2263.0,-1563.0,-665.0,-994.0,163.0,444.0,0.0,0.0,0.0
19:37:03.620000,-2307.0,-1616.0,-710.0,-994.0,163.0,444.0,0.0,0.0,0.0
19:37:03.624000,-2339.0,-1679.0,-805.0,-994.0,163.0,444.0,0.0,0.0,0.0
19:37:03.629000,-2364.0,-1741.0,-890.0,-1031.0,134.0,449.0,0.0,0.0,0.0
19:37:03.634000,-2381.0,-1814.0,-940.0,-1031.0,134.0,449.0,0.0,0.0,0.0
19:37:03.638000,-2391.0,-1880.0,-945.0,-970.0,140.0,480.0,0.0,0.0,0.0
19:37:03.643000,-2416.0,-1957.0,-921.0,-970.0,140.0,480.0,0.0,0.0,0.0
19:37:03.648000,-2438.0,-2024.0,-896.0,-894.0,184.0,539.0,0.0,0.0,0.0
19:37:03.652000,-2489.0,-2102.0,-880.0,-894.0,184.0,539.0,0.0,0.0,0.0
19:37:03.657000,-2529.0,-2163.0,-874.0,-924.0,297.0,630.0,0.0,0.0,0.0
19:37:03.662000,-2588.0,-2223.0,-855.0,-924.0,297.0,630.0,0.0,0.0,0.0
19:37:03.667000,-2622.0,-2268.0,-826.0,-976.0,342.0,716.0,0.0,0.0,0.0
19:37:03.671000,-2622.0,-2268.0,-826.0,-976.0,342.0,716.0,0.0,0.0,0.0
19:37:03.676000,-2662.0,-2317.0,-769.0,-958.0,251.0,773.0,0.0,0.0,0.0
19:37:03.681000,-2692.0,-2338.0,-702.0,-958.0,251.0,773.0,0.0,0.0,0.0
19:37:03.685000,-2725.0,-2342.0,-643.0,-903.0,148.0,790.0,0.0,0.0,0.0
19:37:03.690000,-2737.0,-2332.0,-592.0,-903.0,148.0,790.0,0.0,0.0,0.0
19:37:03.695000,-2770.0,-2331.0,-570.0,-877.0,121.0,787.0,0.0,0.0,0.0
19:37:03.699000,-2794.0,-2303.0,-563.0,-877.0,121.0,787.0,0.0,0.0,0.0
19:37:03.704000,-2820.0,-2289.0,-535.0,-878.0,120.0,799.0,0.0,0.0,0.0
19:37:03.709000,-2832.0,-2266.0,-529.0,-878.0,120.0,799.0,0.0,0.0,0.0
19:37:03.714000,-2840.0,-2223.0,-550.0,-841.0,85.0,792.0,0.0,0.0,0.0
19:37:03.718000,-2809.0,-2178.0,-557.0,-841.0,85.0,792.0,0.0,0.0,0.0
19:37:03.723000,-2779.0,-2157.0,-557.0,-831.0,42.0,788.0,0.0,0.0,0.0
19:37:03.728000,-2750.0,-2135.0,-577.0,-831.0,42.0,788.0,0.0,0.0,0.0
19:37:03.732000,-2714.0,-2121.0,-628.0,-831.0,42.0,788.0,0.0,0.0,0.0
19:37:03.737000,-2666.0,-2120.0,-667.0,-789.0,88.0,796.0,0.0,0.0,0.0
19:37:03.742000,-2606.0,-2129.0,-672.0,-789.0,88.0,796.0,0.0,0.0,0.0
19:37:03.746000,-2534.0,-2145.0,-648.0,-673.0,127.0,819.0,0.0,0.0,0.0
19:37:03.751000,-2459.0,-2156.0,-644.0,-673.0,127.0,819.0,0.0,0.0,0.0
19:37:03.756000,-2395.0,-2170.0,-668.0,-555.0,130.0,844.0,0.0,0.0,0.0
19:37:03.761000,-2349.0,-2178.0,-690.0,-555.0,130.0,844.0,0.0,0.0,0.0
19:37:03.765000,-2309.0,-2182.0,-668.0,-446.0,225.0,835.0,0.0,0.0,0.0
19:37:03.770000,-2272.0,-2187.0,-604.0,-446.0,225.0,835.0,0.0,0.0,0.0
19:37:03.775000,-2244.0,-2178.0,-557.0,-358.0,358.0,821.0,0.0,0.0,0.0
19:37:03.779000,-2244.0,-2178.0,-557.0,-358.0,358.0,821.0,0.0,0.0,0.0
19:37:03.784000,-2228.0,-2168.0,-535.0,-352.0,521.0,809.0,0.0,0.0,0.0
19:37:03.789000,-2221.0,-2149.0,-492.0,-352.0,521.0,809.0,0.0,0.0,0.0
19:37:03.793000,-2211.0,-2116.0,-419.0,-427.0,638.0,785.0,0.0,0.0,0.0
19:37:03.798000,-2200.0,-2065.0,-319.0,-427.0,638.0,785.0,0.0,0.0,0.0
19:37:03.803000,-2188.0,-2006.0,-213.0,-508.0,626.0,759.0,0.0,0.0,0.0
19:37:03.808000,-2174.0,-1931.0,-81.0,-508.0,626.0,759.0,0.0,0.0,0.0
19:37:03.812000,-2135.0,-1834.0,51.0,-610.0,586.0,720.0,0.0,0.0,0.0
19:37:03.817000,-2097.0,-1725.0,141.0,-610.0,586.0,720.0,0.0,0.0,0.0
19:37:03.822000,-2076.0,-1612.0,229.0,-725.0,565.0,671.0,0.0,0.0,0.0
19:37:03.826000,-2071.0,-1507.0,311.0,-725.0,565.0,671.0,0.0,0.0,0.0
19:37:03.831000,-2055.0,-1402.0,348.0,-795.0,549.0,628.0,0.0,0.0,0.0
19:37:03.836000,-2013.0,-1297.0,338.0,-795.0,549.0,628.0,0.0,0.0,0.0
19:37:03.840000,-1960.0,-1193.0,315.0,-826.0,549.0,560.0,0.0,0.0,0.0
19:37:03.845000,-1918.0,-1106.0,312.0,-826.0,549.0,560.0,0.0,0.0,0.0
19:37:03.850000,-1862.0,-1037.0,300.0,-826.0,549.0,560.0,0.0,0.0,0.0
19:37:03.855000,-1783.0,-973.0,245.0,-833.0,516.0,494.0,0.0,0.0,0.0
19:37:03.859000,-1696.0,-933.0,175.0,-833.0,516.0,494.0,0.0,0.0,0.0
19:37:03.864000,-1608.0,-889.0,190.0,-750.0,433.0,445.0,0.0,0.0,0.0
19:37:03.869000,-1537.0,-837.0,261.0,-750.0,433.0,445.0,0.0,0.0,0.0
19:37:03.873000,-1477.0,-776.0,224.0,-530.0,409.0,383.0,0.0,0.0,0.0
19:37:03.878000,-1404.0,-742.0,126.0,-530.0,409.0,383.0,0.0,0.0,0.0
19:37:03.883000,-1345.0,-728.0,45.0,-342.0,497.0,334.0,0.0,0.0,0.0
19:37:03.887000,-1345.0,-728.0,45.0,-342.0,497.0,334.0,0.0,0.0,0.0
19:37:03.892000,-1340.0,-754.0,11.0,-310.0,542.0,340.0,0.0,0.0,0.0
19:37:03.897000,-1334.0,-779.0,28.0,-310.0,542.0,340.0,0.0,0.0,0.0
19:37:03.902000,-1268.0,-753.0,49.0,-428.0,526.0,315.0,0.0,0.0,0.0
19:37:03.906000,-1211.0,-737.0,43.0,-428.0,526.0,315.0,0.0,0.0,0.0
19:37:03.911000,-1148.0,-707.0,44.0,-564.0,566.0,255.0,0.0,0.0,0.0
19:37:03.916000,-1066.0,-669.0,30.0,-564.0,566.0,255.0,0.0,0.0,0.0
19:37:03.920000,-1019.0,-663.0,59.0,-511.0,607.0,264.0,0.0,0.0,0.0
19:37:03.925000,-989.0,-659.0,102.0,-511.0,607.0,264.0,0.0,0.0,0.0
19:37:03.930000,-952.0,-641.0,131.0,-477.0,629.0,291.0,0.0,0.0,0.0
19:37:03.934000,-941.0,-620.0,150.0,-477.0,629.0,291.0,0.0,0.0,0.0
19:37:03.939000,-931.0,-599.0,165.0,-535.0,674.0,302.0,0.0,0.0,0.0
19:37:03.944000,-924.0,-571.0,161.0,-535.0,674.0,302.0,0.0,0.0,0.0
19:37:03.949000,-918.0,-545.0,136.0,-563.0,755.0,319.0,0.0,0.0,0.0
19:37:03.953000,-926.0,-521.0,119.0,-563.0,755.0,319.0,0.0,0.0,0.0
19:37:03.958000,-934.0,-494.0,121.0,-569.0,797.0,332.0,0.0,0.0,0.0
19:37:03.962000,-927.0,-457.0,92.0,-569.0,797.0,332.0,0.0,0.0,0.0
19:37:03.967000,-916.0,-424.0,60.0,-569.0,797.0,332.0,0.0,0.0,0.0
19:37:03.972000,-896.0,-393.0,43.0,-591.0,751.0,328.0,0.0,0.0,0.0
19:37:03.977000,-864.0,-362.0,7.0,-591.0,751.0,328.0,0.0,0.0,0.0
19:37:03.981000,-844.0,-333.0,-12.0,-630.0,715.0,308.0,0.0,0.0,0.0
19:37:03.986000,-814.0,-306.0,-24.0,-630.0,715.0,308.0,0.0,0.0,0.0
19:37:03.991000,-792.0,-285.0,-36.0,-627.0,704.0,280.0,0.0,0.0,0.0
19:37:03.996000,-767.0,-269.0,-44.0,-627.0,704.0,280.0,0.0,0.0,0.0
19:37:04.000000,-767.0,-269.0,-44.0,-563.0,701.0,257.0,0.0,0.0,0.0
19:37:04.005000,-756.0,-263.0,-9.0,-563.0,701.0,257.0,0.0,0.0,0.0
19:37:04.010000,-737.0,-261.0,3.0,-514.0,704.0,249.0,0.0,0.0,0.0
19:37:04.014000,-722.0,-268.0,26.0,-514.0,704.0,249.0,0.0,0.0,0.0
19:37:04.018000,-711.0,-279.0,75.0,-484.0,699.0,262.0,0.0,0.0,0.0
19:37:04.024000,-698.0,-291.0,91.0,-484.0,699.0,262.0,0.0,0.0,0.0
19:37:04.028000,-695.0,-308.0,113.0,-435.0,700.0,293.0,0.0,0.0,0.0
19:37:04.033000,-688.0,-319.0,150.0,-435.0,700.0,293.0,0.0,0.0,0.0
19:37:04.038000,-683.0,-324.0,193.0,-420.0,694.0,324.0,0.0,0.0,0.0
19:37:04.042000,-674.0,-323.0,237.0,-420.0,694.0,324.0,0.0,0.0,0.0
19:37:04.047000,-674.0,-316.0,262.0,-481.0,701.0,350.0,0.0,0.0,0.0
19:37:04.052000,-662.0,-303.0,235.0,-481.0,701.0,350.0,0.0,0.0,0.0
19:37:04.057000,-650.0,-283.0,153.0,-540.0,730.0,365.0,0.0,0.0,0.0
19:37:04.061000,-661.0,-259.0,53.0,-540.0,730.0,365.0,0.0,0.0,0.0
19:37:04.066000,-658.0,-242.0,8.0,-540.0,730.0,365.0,0.0,0.0,0.0
19:37:04.071000,-663.0,-234.0,23.0,-507.0,770.0,373.0,0.0,0.0,0.0
19:37:04.075000,-655.0,-228.0,16.0,-473.0,733.0,391.0,0.0,0.0,0.0
19:37:04.079000,-629.0,-215.0,-72.0,-473.0,733.0,391.0,0.0,0.0,0.0
19:37:04.085000,-590.0,-198.0,-173.0,-473.0,733.0,391.0,0.0,0.0,0.0
19:37:04.089000,-539.0,-184.0,-252.0,-445.0,673.0,392.0,0.0,0.0,0.0
19:37:04.094000,-530.0,-171.0,-313.0,-445.0,673.0,392.0,0.0,0.0,0.0
19:37:04.099000,-495.0,-163.0,-331.0,-374.0,646.0,383.0,0.0,0.0,0.0
19:37:04.104000,-452.0,-150.0,-404.0,-374.0,646.0,383.0,0.0,0.0,0.0
19:37:04.108000,-452.0,-150.0,-404.0,-341.0,638.0,365.0,0.0,0.0,0.0
19:37:04.113000,-416.0,-138.0,-511.0,-341.0,638.0,365.0,0.0,0.0,0.0
19:37:04.118000,-386.0,-134.0,-578.0,-310.0,689.0,340.0,0.0,0.0,0.0
19:37:04.122000,-365.0,-137.0,-611.0,-310.0,689.0,340.0,0.0,0.0,0.0
19:37:04.127000,-358.0,-143.0,-618.0,-261.0,736.0,327.0,0.0,0.0,0.0
19:37:04.132000,-347.0,-154.0,-634.0,-261.0,736.0,327.0,0.0,0.0,0.0
19:37:04.136000,-336.0,-166.0,-641.0,-240.0,773.0,310.0,0.0,0.0,0.0
19:37:04.141000,-331.0,-180.0,-609.0,-240.0,773.0,310.0,0.0,0.0,0.0
19:37:04.146000,-339.0,-193.0,-574.0,-234.0,823.0,291.0,0.0,0.0,0.0
19:37:04.151000,-349.0,-206.0,-547.0,-234.0,823.0,291.0,0.0,0.0,0.0
19:37:04.155000,-350.0,-215.0,-506.0,-252.0,908.0,270.0,0.0,0.0,0.0
19:37:04.160000,-350.0,-221.0,-479.0,-252.0,908.0,270.0,0.0,0.0,0.0
19:37:04.165000,-345.0,-226.0,-443.0,-271.0,961.0,252.0,0.0,0.0,0.0
19:37:04.169000,-339.0,-230.0,-382.0,-271.0,961.0,252.0,0.0,0.0,0.0
19:37:04.174000,-321.0,-231.0,-320.0,-271.0,961.0,252.0,0.0,0.0,0.0
19:37:04.179000,-301.0,-235.0,-254.0,-276.0,956.0,248.0,0.0,0.0,0.0
19:37:04.183000,-271.0,-235.0,-181.0,-276.0,956.0,248.0,0.0,0.0,0.0
19:37:04.188000,-238.0,-234.0,-126.0,-250.0,896.0,255.0,0.0,0.0,0.0
19:37:04.193000,-215.0,-231.0,-66.0,-250.0,896.0,255.0,0.0,0.0,0.0
19:37:04.198000,-202.0,-234.0,-30.0,-211.0,839.0,270.0,0.0,0.0,0.0
19:37:04.202000,-200.0,-239.0,-19.0,-211.0,839.0,270.0,0.0,0.0,0.0
19:37:04.207000,-193.0,-251.0,-30.0,-178.0,855.0,290.0,0.0,0.0,0.0
19:37:04.212000,-193.0,-259.0,-58.0,-178.0,855.0,290.0,0.0,0.0,0.0
19:37:04.216000,-193.0,-259.0,-58.0,-136.0,884.0,307.0,0.0,0.0,0.0
19:37:04.221000,-193.0,-268.0,-61.0,-136.0,884.0,307.0,0.0,0.0,0.0
19:37:04.226000,-179.0,-275.0,-40.0,-99.0,861.0,311.0,0.0,0.0,0.0
19:37:04.230000,-156.0,-275.0,-42.0,-99.0,861.0,311.0,0.0,0.0,0.0
19:37:04.235000,-134.0,-274.0,-79.0,-101.0,834.0,308.0,0.0,0.0,0.0
19:37:04.240000,-109.0,-275.0,-119.0,-101.0,834.0,308.0,0.0,0.0,0.0
19:37:04.245000,-87.0,-271.0,-147.0,-132.0,811.0,306.0,0.0,0.0,0.0
19:37:04.249000,-64.0,-267.0,-182.0,-132.0,811.0,306.0,0.0,0.0,0.0
19:37:04.253000,-40.0,-263.0,-216.0,-173.0,803.0,299.0,0.0,0.0,0.0
19:37:04.259000,-7.0,-262.0,-254.0,-173.0,803.0,299.0,0.0,0.0,0.0
19:37:04.263000,24.0,-256.0,-310.0,-202.0,839.0,288.0,0.0,0.0,0.0
19:37:04.268000,56.0,-256.0,-363.0,-202.0,839.0,288.0,0.0,0.0,0.0
19:37:04.273000,87.0,-256.0,-396.0,-191.0,879.0,277.0,0.0,0.0,0.0
19:37:04.277000,121.0,-256.0,-420.0,-191.0,879.0,277.0,0.0,0.0,0.0
19:37:04.282000,155.0,-256.0,-431.0,-191.0,879.0,277.0,0.0,0.0,0.0
19:37:04.287000,185.0,-256.0,-434.0,-165.0,906.0,273.0,0.0,0.0,0.0
19:37:04.292000,207.0,-256.0,-436.0,-165.0,906.0,273.0,0.0,0.0,0.0
19:37:04.296000,224.0,-259.0,-464.0,-173.0,915.0,272.0,0.0,0.0,0.0
19:37:04.301000,244.0,-266.0,-513.0,-173.0,915.0,272.0,0.0,0.0,0.0
19:37:04.306000,265.0,-275.0,-541.0,-219.0,948.0,276.0,0.0,0.0,0.0
19:37:04.310000,291.0,-284.0,-536.0,-219.0,948.0,276.0,0.0,0.0,0.0
19:37:04.315000,329.0,-291.0,-518.0,-209.0,983.0,283.0,0.0,0.0,0.0
19:37:04.320000,373.0,-296.0,-518.0,-209.0,983.0,283.0,0.0,0.0,0.0
19:37:04.324000,373.0,-296.0,-518.0,-153.0,987.0,289.0,0.0,0.0,0.0
19:37:04.329000,420.0,-298.0,-534.0,-153.0,987.0,289.0,0.0,0.0,0.0
19:37:04.334000,466.0,-299.0,-539.0,-158.0,997.0,298.0,0.0,0.0,0.0
19:37:04.339000,518.0,-296.0,-525.0,-158.0,997.0,298.0,0.0,0.0,0.0
19:37:04.343000,585.0,-289.0,-489.0,-200.0,967.0,305.0,0.0,0.0,0.0
19:37:04.348000,667.0,-277.0,-445.0,-200.0,967.0,305.0,0.0,0.0,0.0
19:37:04.353000,756.0,-259.0,-429.0,-239.0,901.0,305.0,0.0,0.0,0.0
19:37:04.357000,844.0,-236.0,-443.0,-239.0,901.0,305.0,0.0,0.0,0.0
19:37:04.362000,932.0,-217.0,-452.0,-256.0,861.0,311.0,0.0,0.0,0.0
19:37:04.367000,1029.0,-197.0,-438.0,-256.0,861.0,311.0,0.0,0.0,0.0
19:37:04.371000,1134.0,-177.0,-412.0,-259.0,840.0,319.0,0.0,0.0,0.0
19:37:04.376000,1236.0,-154.0,-387.0,-259.0,840.0,319.0,0.0,0.0,0.0
19:37:04.381000,1333.0,-129.0,-353.0,-256.0,832.0,326.0,0.0,0.0,0.0
19:37:04.386000,1431.0,-104.0,-315.0,-256.0,832.0,326.0,0.0,0.0,0.0
19:37:04.390000,1535.0,-74.0,-299.0,-256.0,832.0,326.0,0.0,0.0,0.0
19:37:04.395000,1642.0,-44.0,-295.0,-226.0,844.0,345.0,0.0,0.0,0.0
19:37:04.400000,1739.0,-9.0,-268.0,-226.0,844.0,345.0,0.0,0.0,0.0
19:37:04.404000,1836.0,31.0,-224.0,-201.0,827.0,371.0,0.0,0.0,0.0
19:37:04.409000,1934.0,79.0,-184.0,-201.0,827.0,371.0,0.0,0.0,0.0
19:37:04.414000,2030.0,135.0,-157.0,-206.0,775.0,400.0,0.0,0.0,0.0
19:37:04.418000,2124.0,192.0,-128.0,-206.0,775.0,400.0,0.0,0.0,0.0
