hh:mm:ss.ms,gyroX[mdps],gyroY[mdps],gyroZ[mdps],accX[mg],accY[mg],accZ[mg],magX[mG],magY[mG],magZ[mG]
19:36:21.087000,-2317.0,-2006.0,-1325.0,-866.0,-380.0,-361.0,0.0,0.0,0.0
19:36:21.092000,-2394.0,-2067.0,-922.0,-1382.0,-330.0,-237.0,0.0,0.0,0.0
19:36:21.097000,-2422.0,-1973.0,-621.0,-1382.0,-330.0,-237.0,0.0,0.0,0.0
19:36:21.101000,-2422.0,-1973.0,-621.0,-1182.0,-455.0,-282.0,0.0,0.0,0.0
19:36:21.106000,-2392.0,-1789.0,-1043.0,-1182.0,-455.0,-282.0,0.0,0.0,0.0
19:36:21.111000,-2333.0,-1727.0,-1311.0,-481.0,-444.0,-362.0,0.0,0.0,0.0
19:36:21.115000,-2273.0,-1665.0,-1252.0,-481.0,-444.0,-362.0,0.0,0.0,0.0
19:36:21.120000,-2214.0,-1619.0,-1050.0,-515.0,-582.0,-362.0,0.0,0.0,0.0
19:36:21.125000,-2127.0,-1596.0,-866.0,-515.0,-582.0,-362.0,0.0,0.0,0.0
19:36:21.129000,-1983.0,-1593.0,-848.0,-809.0,-897.0,-403.0,0.0,0.0,0.0
19:36:21.134000,-1786.0,-1605.0,-951.0,-809.0,-897.0,-403.0,0.0,0.0,0.0
19:36:21.139000,-1643.0,-1610.0,-1054.0,-796.0,-1009.0,-450.0,0.0,0.0,0.0
19:36:21.144000,-1519.0,-1628.0,-987.0,-796.0,-1009.0,-450.0,0.0,0.0,0.0
19:36:21.148000,-1416.0,-1631.0,-946.0,-617.0,-832.0,-447.0,0.0,0.0,0.0
19:36:21.153000,-1365.0,-1666.0,-947.0,-617.0,-832.0,-447.0,0.0,0.0,0.0
19:36:21.158000,-1339.0,-1675.0,-921.0,-519.0,-606.0,-388.0,0.0,0.0,0.0
19:36:21.162000,-1291.0,-1691.0,-955.0,-519.0,-606.0,-388.0,0.0,0.0,0.0
19:36:21.167000,-1239.0,-1724.0,-1008.0,-519.0,-606.0,-388.0,0.0,0.0,0.0
19:36:21.172000,-1209.0,-1731.0,-1082.0,-606.0,-460.0,-299.0,0.0,0.0,0.0
19:36:21.176000,-1180.0,-1716.0,-1113.0,-606.0,-460.0,-299.0,0.0,0.0,0.0
19:36:21.181000,-1173.0,-1681.0,-1108.0,-696.0,-376.0,-223.0,0.0,0.0,0.0
19:36:21.186000,-1185.0,-1647.0,-1073.0,-696.0,-376.0,-223.0,0.0,0.0,0.0
19:36:21.191000,-1185.0,-1619.0,-1008.0,-742.0,-335.0,-153.0,0.0,0.0,0.0
19:36:21.195000,-1185.0,-1619.0,-1008.0,-742.0,-335.0,-153.0,0.0,0.0,0.0
19:36:21.200000,-1175.0,-1514.0,-883.0,-832.0,-319.0,-92.0,0.0,0.0,0.0
19:36:21.205000,-1164.0,-1442.0,-833.0,-832.0,-319.0,-92.0,0.0,0.0,0.0
19:36:21.209000,-1164.0,-1442.0,-833.0,-917.0,-373.0,-67.0,0.0,0.0,0.0
19:36:21.214000,-1120.0,-1384.0,-770.0,-917.0,-373.0,-67.0,0.0,0.0,0.0
19:36:21.219000,-1054.0,-1323.0,-759.0,-998.0,-430.0,-70.0,0.0,0.0,0.0
19:36:21.223000,-996.0,-1262.0,-763.0,-998.0,-430.0,-70.0,0.0,0.0,0.0
19:36:21.228000,-959.0,-1201.0,-708.0,-1030.0,-458.0,-78.0,0.0,0.0,0.0
19:36:21.233000,-912.0,-1142.0,-607.0,-1030.0,-458.0,-78.0,0.0,0.0,0.0
19:36:21.238000,-844.0,-1074.0,-556.0,-1120.0,-490.0,-63.0,0.0,0.0,0.0
19:36:21.242000,-780.0,-1045.0,-562.0,-1120.0,-490.0,-63.0,0.0,0.0,0.0
19:36:21.247000,-728.0,-1002.0,-515.0,-1204.0,-518.0,-25.0,0.0,0.0,0.0
19:36:21.252000,-683.0,-961.0,-483.0,-1204.0,-518.0,-25.0,0.0,0.0,0.0
19:36:21.256000,-648.0,-925.0,-439.0,-1163.0,-466.0,15.0,0.0,0.0,0.0
19:36:21.261000,-627.0,-893.0,-389.0,-1163.0,-466.0,15.0,0.0,0.0,0.0
19:36:21.266000,-637.0,-862.0,-366.0,-1134.0,-318.0,52.0,0.0,0.0,0.0
19:36:21.270000,-644.0,-844.0,-361.0,-1134.0,-318.0,52.0,0.0,0.0,0.0
19:36:21.275000,-645.0,-809.0,-399.0,-1134.0,-318.0,52.0,0.0,0.0,0.0
19:36:21.280000,-629.0,-790.0,-464.0,-1083.0,-213.0,73.0,0.0,0.0,0.0
19:36:21.285000,-602.0,-774.0,-497.0,-1083.0,-213.0,73.0,0.0,0.0,0.0
19:36:21.289000,-497.0,-730.0,-480.0,-1005.0,-262.0,55.0,0.0,0.0,0.0
19:36:21.294000,-656.0,-721.0,-429.0,-1005.0,-262.0,55.0,0.0,0.0,0.0
19:36:21.299000,-628.0,-668.0,-421.0,-1008.0,-325.0,95.0,0.0,0.0,0.0
19:36:21.303000,-627.0,-673.0,-457.0,-1008.0,-325.0,95.0,0.0,0.0,0.0
19:36:21.308000,-588.0,-649.0,-511.0,-1108.0,-272.0,151.0,0.0,0.0,0.0
19:36:21.313000,-563.0,-655.0,-531.0,-1108.0,-272.0,151.0,0.0,0.0,0.0
19:36:21.317000,-563.0,-655.0,-531.0,-1155.0,-277.0,177.0,0.0,0.0,0.0
19:36:21.322000,-513.0,-634.0,-534.0,-1155.0,-277.0,177.0,0.0,0.0,0.0
19:36:21.327000,-483.0,-597.0,-647.0,-1115.0,-404.0,208.0,0.0,0.0,0.0
19:36:21.332000,-461.0,-563.0,-707.0,-1115.0,-404.0,208.0,0.0,0.0,0.0
19:36:21.336000,-445.0,-536.0,-624.0,-1102.0,-449.0,222.0,0.0,0.0,0.0
19:36:21.341000,-441.0,-499.0,-563.0,-1102.0,-449.0,222.0,0.0,0.0,0.0
19:36:21.346000,-415.0,-466.0,-583.0,-1156.0,-320.0,233.0,0.0,0.0,0.0
19:36:21.350000,-411.0,-424.0,-639.0,-1156.0,-320.0,233.0,0.0,0.0,0.0
19:36:21.355000,-424.0,-392.0,-619.0,-1198.0,-221.0,245.0,0.0,0.0,0.0
19:36:21.360000,-426.0,-355.0,-574.0,-1198.0,-221.0,245.0,0.0,0.0,0.0
19:36:21.364000,-421.0,-326.0,-580.0,-1208.0,-243.0,257.0,0.0,0.0,0.0
19:36:21.369000,-416.0,-290.0,-606.0,-1208.0,-243.0,257.0,0.0,0.0,0.0
19:36:21.374000,-429.0,-258.0,-579.0,-1181.0,-272.0,250.0,0.0,0.0,0.0
19:36:21.379000,-431.0,-241.0,-491.0,-1181.0,-272.0,250.0,0.0,0.0,0.0
19:36:21.383000,-443.0,-235.0,-432.0,-1181.0,-272.0,250.0,0.0,0.0,0.0
19:36:21.388000,-486.0,-214.0,-415.0,-1130.0,-248.0,242.0,0.0,0.0,0.0
19:36:21.393000,-527.0,-200.0,-389.0,-1130.0,-248.0,242.0,0.0,0.0,0.0
19:36:21.397000,-539.0,-186.0,-328.0,-1093.0,-222.0,234.0,0.0,0.0,0.0
19:36:21.402000,-534.0,-172.0,-297.0,-1093.0,-222.0,234.0,0.0,0.0,0.0
19:36:21.407000,-531.0,-155.0,-314.0,-1060.0,-211.0,211.0,0.0,0.0,0.0
19:36:21.411000,-530.0,-143.0,-316.0,-1060.0,-211.0,211.0,0.0,0.0,0.0
19:36:21.416000,-515.0,-128.0,-308.0,-1056.0,-199.0,189.0,0.0,0.0,0.0
19:36:21.421000,-504.0,-121.0,-313.0,-1056.0,-199.0,189.0,0.0,0.0,0.0
19:36:21.426000,-500.0,-113.0,-307.0,-1054.0,-193.0,182.0,0.0,0.0,0.0
19:36:21.430000,-500.0,-113.0,-307.0,-1054.0,-193.0,182.0,0.0,0.0,0.0
19:36:21.435000,-498.0,-107.0,-318.0,-1048.0,-143.0,184.0,0.0,0.0,0.0
19:36:21.440000,-485.0,-105.0,-338.0,-1048.0,-143.0,184.0,0.0,0.0,0.0
19:36:21.444000,-478.0,-100.0,-322.0,-1042.0,-127.0,193.0,0.0,0.0,0.0
19:36:21.449000,-444.0,-101.0,-294.0,-1042.0,-127.0,193.0,0.0,0.0,0.0
19:36:21.454000,-396.0,-96.0,-296.0,-1036.0,-198.0,203.0,0.0,0.0,0.0
19:36:21.458000,-361.0,-91.0,-266.0,-1036.0,-198.0,203.0,0.0,0.0,0.0
19:36:21.463000,-323.0,-87.0,-191.0,-1043.0,-270.0,210.0,0.0,0.0,0.0
19:36:21.468000,-277.0,-86.0,-97.0,-1043.0,-270.0,210.0,0.0,0.0,0.0
19:36:21.473000,-239.0,-88.0,-40.0,-1091.0,-301.0,208.0,0.0,0.0,0.0
19:36:21.477000,-188.0,-88.0,-30.0,-1091.0,-301.0,208.0,0.0,0.0,0.0
19:36:21.482000,-155.0,-94.0,-37.0,-1132.0,-249.0,201.0,0.0,0.0,0.0
19:36:21.487000,-153.0,-94.0,-25.0,-1132.0,-249.0,201.0,0.0,0.0,0.0
19:36:21.491000,-166.0,-98.0,-26.0,-1132.0,-249.0,201.0,0.0,0.0,0.0
19:36:21.496000,-155.0,-106.0,-43.0,-1111.0,-121.0,203.0,0.0,0.0,0.0
19:36:21.501000,-163.0,-114.0,-41.0,-1111.0,-121.0,203.0,0.0,0.0,0.0
19:36:21.505000,-164.0,-118.0,-11.0,-1054.0,-60.0,213.0,0.0,0.0,0.0
19:36:21.510000,-152.0,-119.0,32.0,-1054.0,-60.0,213.0,0.0,0.0,0.0
19:36:21.515000,-121.0,-117.0,47.0,-1001.0,-122.0,216.0,0.0,0.0,0.0
19:36:21.520000,-72.0,-110.0,23.0,-1001.0,-122.0,216.0,0.0,0.0,0.0
19:36:21.524000,-23.0,-102.0,-4.0,-1003.0,-165.0,212.0,0.0,0.0,0.0
19:36:21.529000,23.0,-83.0,-18.0,-1003.0,-165.0,212.0,0.0,0.0,0.0
19:36:21.534000,77.0,-56.0,-22.0,-1048.0,-137.0,221.0,0.0,0.0,0.0
19:36:21.538000,77.0,-56.0,-22.0,-1048.0,-137.0,221.0,0.0,0.0,0.0
19:36:21.543000,132.0,-24.0,-32.0,-1100.0,-100.0,233.0,0.0,0.0,0.0
19:36:21.548000,175.0,21.0,-33.0,-1100.0,-100.0,233.0,0.0,0.0,0.0
19:36:21.552000,210.0,72.0,-2.0,-1138.0,-71.0,241.0,0.0,0.0,0.0
19:36:21.557000,244.0,126.0,40.0,-1138.0,-71.0,241.0,0.0,0.0,0.0
19:36:21.562000,269.0,184.0,105.0,-1165.0,-51.0,249.0,0.0,0.0,0.0
19:36:21.567000,294.0,238.0,184.0,-1165.0,-51.0,249.0,0.0,0.0,0.0
19:36:21.571000,321.0,297.0,254.0,-1188.0,-38.0,253.0,0.0,0.0,0.0
19:36:21.576000,340.0,355.0,323.0,-1188.0,-38.0,253.0,0.0,0.0,0.0
19:36:21.581000,349.0,413.0,412.0,-1176.0,-49.0,254.0,0.0,0.0,0.0
19:36:21.585000,368.0,468.0,487.0,-1176.0,-49.0,254.0,0.0,0.0,0.0
19:36:21.590000,387.0,521.0,543.0,-1152.0,-52.0,247.0,0.0,0.0,0.0
19:36:21.595000,415.0,572.0,585.0,-1152.0,-52.0,247.0,0.0,0.0,0.0
19:36:21.599000,435.0,623.0,620.0,-1152.0,-52.0,247.0,0.0,0.0,0.0
19:36:21.604000,464.0,672.0,648.0,-1128.0,-48.0,234.0,0.0,0.0,0.0
19:36:21.609000,497.0,718.0,673.0,-1128.0,-48.0,234.0,0.0,0.0,0.0
19:36:21.614000,530.0,761.0,707.0,-1092.0,-68.0,217.0,0.0,0.0,0.0
19:36:21.618000,560.0,805.0,750.0,-1092.0,-68.0,217.0,0.0,0.0,0.0
19:36:21.623000,595.0,842.0,781.0,-1060.0,-102.0,190.0,0.0,0.0,0.0
19:36:21.628000,630.0,877.0,791.0,-1060.0,-102.0,190.0,0.0,0.0,0.0
19:36:21.632000,656.0,914.0,802.0,-1048.0,-100.0,157.0,0.0,0.0,0.0
19:36:21.637000,684.0,949.0,807.0,-1048.0,-100.0,157.0,0.0,0.0,0.0
19:36:21.642000,709.0,982.0,801.0,-1051.0,-76.0,124.0,0.0,0.0,0.0
19:36:21.646000,709.0,982.0,801.0,-1051.0,-76.0,124.0,0.0,0.0,0.0
19:36:21.651000,725.0,1010.0,802.0,-1034.0,-68.0,100.0,0.0,0.0,0.0
19:36:21.656000,739.0,1033.0,788.0,-1034.0,-68.0,100.0,0.0,0.0,0.0
19:36:21.661000,750.0,1052.0,753.0,-987.0,-42.0,85.0,0.0,0.0,0.0
19:36:21.665000,763.0,1072.0,714.0,-987.0,-42.0,85.0,0.0,0.0,0.0
19:36:21.670000,786.0,1087.0,682.0,-919.0,-57.0,77.0,0.0,0.0,0.0
19:36:21.675000,817.0,1101.0,667.0,-919.0,-57.0,77.0,0.0,0.0,0.0
19:36:21.679000,868.0,1110.0,646.0,-882.0,-121.0,63.0,0.0,0.0,0.0
19:36:21.684000,932.0,1113.0,627.0,-882.0,-121.0,63.0,0.0,0.0,0.0
19:36:21.689000,976.0,1118.0,608.0,-913.0,-132.0,43.0,0.0,0.0,0.0
19:36:21.693000,1005.0,1129.0,577.0,-913.0,-132.0,43.0,0.0,0.0,0.0
19:36:21.698000,1026.0,1133.0,553.0,-972.0,-82.0,24.0,0.0,0.0,0.0
19:36:21.703000,1031.0,1130.0,541.0,-972.0,-82.0,24.0,0.0,0.0,0.0
19:36:21.708000,1016.0,1122.0,543.0,-986.0,-7.0,-4.0,0.0,0.0,0.0
19:36:21.712000,993.0,1122.0,583.0,-986.0,-7.0,-4.0,0.0,0.0,0.0
19:36:21.717000,963.0,1098.0,623.0,-986.0,-7.0,-4.0,0.0,0.0,0.0
19:36:21.722000,910.0,1080.0,629.0,-960.0,33.0,-59.0,0.0,0.0,0.0
19:36:21.726000,858.0,1042.0,641.0,-960.0,33.0,-59.0,0.0,0.0,0.0
19:36:21.731000,791.0,1003.0,686.0,-912.0,10.0,-127.0,0.0,0.0,0.0
19:36:21.736000,732.0,948.0,747.0,-912.0,10.0,-127.0,0.0,0.0,0.0
19:36:21.740000,662.0,900.0,792.0,-834.0,-31.0,-188.0,0.0,0.0,0.0
19:36:21.745000,604.0,856.0,811.0,-834.0,-31.0,-188.0,0.0,0.0,0.0
19:36:21.750000,560.0,812.0,763.0,-791.0,-83.0,-228.0,0.0,0.0,0.0
19:36:21.755000,543.0,761.0,679.0,-791.0,-83.0,-228.0,0.0,0.0,0.0
19:36:21.759000,543.0,761.0,679.0,-804.0,-194.0,-238.0,0.0,0.0,0.0
19:36:21.764000,545.0,721.0,621.0,-804.0,-194.0,-238.0,0.0,0.0,0.0
19:36:21.769000,555.0,691.0,571.0,-832.0,-330.0,-228.0,0.0,0.0,0.0
19:36:21.773000,564.0,660.0,523.0,-832.0,-330.0,-228.0,0.0,0.0,0.0
19:36:21.778000,562.0,636.0,473.0,-900.0,-357.0,-204.0,0.0,0.0,0.0
19:36:21.783000,548.0,621.0,422.0,-900.0,-357.0,-204.0,0.0,0.0,0.0
19:36:21.787000,525.0,608.0,354.0,-1007.0,-271.0,-175.0,0.0,0.0,0.0
19:36:21.792000,495.0,609.0,301.0,-1007.0,-271.0,-175.0,0.0,0.0,0.0
19:36:21.797000,461.0,609.0,259.0,-1083.0,-171.0,-154.0,0.0,0.0,0.0
19:36:21.802000,408.0,613.0,213.0,-1083.0,-171.0,-154.0,0.0,0.0,0.0
19:36:21.806000,346.0,608.0,174.0,-1091.0,-63.0,-135.0,0.0,0.0,0.0
19:36:21.811000,273.0,600.0,177.0,-1091.0,-63.0,-135.0,0.0,0.0,0.0
19:36:21.816000,186.0,581.0,187.0,-1030.0,20.0,-105.0,0.0,0.0,0.0
19:36:21.820000,105.0,569.0,215.0,-1030.0,20.0,-105.0,0.0,0.0,0.0
19:36:21.825000,21.0,548.0,217.0,-934.0,28.0,-82.0,0.0,0.0,0.0
19:36:21.830000,-57.0,530.0,188.0,-934.0,28.0,-82.0,0.0,0.0,0.0
19:36:21.834000,-132.0,522.0,178.0,-934.0,28.0,-82.0,0.0,0.0,0.0
19:36:21.839000,-190.0,507.0,170.0,-859.0,-10.0,-91.0,0.0,0.0,0.0
19:36:21.844000,-242.0,499.0,144.0,-859.0,-10.0,-91.0,0.0,0.0,0.0
19:36:21.849000,-280.0,495.0,107.0,-825.0,-65.0,-130.0,0.0,0.0,0.0
19:36:21.853000,-310.0,484.0,75.0,-825.0,-65.0,-130.0,0.0,0.0,0.0
19:36:21.858000,-343.0,476.0,49.0,-833.0,-93.0,-180.0,0.0,0.0,0.0
19:36:21.863000,-385.0,451.0,24.0,-833.0,-93.0,-180.0,0.0,0.0,0.0
19:36:21.867000,-385.0,451.0,24.0,-863.0,-66.0,-211.0,0.0,0.0,0.0
19:36:21.872000,-424.0,434.0,0.0,-863.0,-66.0,-211.0,0.0,0.0,0.0
19:36:21.877000,-472.0,402.0,-14.0,-849.0,-58.0,-219.0,0.0,0.0,0.0
19:36:21.881000,-515.0,365.0,-4.0,-849.0,-58.0,-219.0,0.0,0.0,0.0
19:36:21.886000,-567.0,322.0,22.0,-786.0,-84.0,-204.0,0.0,0.0,0.0
19:36:21.891000,-605.0,293.0,19.0,-786.0,-84.0,-204.0,0.0,0.0,0.0
19:36:21.896000,-644.0,249.0,1.0,-712.0,-95.0,-171.0,0.0,0.0,0.0
19:36:21.900000,-687.0,207.0,-3.0,-712.0,-95.0,-171.0,0.0,0.0,0.0
19:36:21.905000,-706.0,173.0,20.0,-687.0,-148.0,-147.0,0.0,0.0,0.0
19:36:21.910000,-731.0,140.0,36.0,-687.0,-148.0,-147.0,0.0,0.0,0.0
19:36:21.914000,-719.0,113.0,49.0,-728.0,-254.0,-134.0,0.0,0.0,0.0
19:36:21.919000,-718.0,91.0,57.0,-728.0,-254.0,-134.0,0.0,0.0,0.0
19:36:21.924000,-703.0,67.0,56.0,-761.0,-352.0,-120.0,0.0,0.0,0.0
19:36:21.928000,-693.0,33.0,54.0,-761.0,-352.0,-120.0,0.0,0.0,0.0
19:36:21.933000,-670.0,4.0,52.0,-761.0,-352.0,-120.0,0.0,0.0,0.0
19:36:21.938000,-659.0,-21.0,43.0,-732.0,-407.0,-109.0,0.0,0.0,0.0
19:36:21.943000,-638.0,-39.0,-1.0,-732.0,-407.0,-109.0,0.0,0.0,0.0
19:36:21.947000,-646.0,-67.0,-65.0,-684.0,-386.0,-103.0,0.0,0.0,0.0
19:36:21.952000,-643.0,-77.0,-121.0,-684.0,-386.0,-103.0,0.0,0.0,0.0
19:36:21.957000,-625.0,-85.0,-140.0,-680.0,-344.0,-109.0,0.0,0.0,0.0
19:36:21.961000,-602.0,-95.0,-145.0,-680.0,-344.0,-109.0,0.0,0.0,0.0
19:36:21.966000,-581.0,-109.0,-158.0,-732.0,-390.0,-117.0,0.0,0.0,0.0
19:36:21.971000,-514.0,-113.0,-170.0,-732.0,-390.0,-117.0,0.0,0.0,0.0
19:36:21.975000,-514.0,-113.0,-170.0,-778.0,-438.0,-140.0,0.0,0.0,0.0
19:36:21.980000,-499.0,-88.0,-178.0,-778.0,-438.0,-140.0,0.0,0.0,0.0
19:36:21.985000,-492.0,-122.0,-172.0,-751.0,-447.0,-143.0,0.0,0.0,0.0
19:36:21.990000,-443.0,-135.0,-191.0,-751.0,-447.0,-143.0,0.0,0.0,0.0
19:36:21.994000,-394.0,-133.0,-222.0,-721.0,-428.0,-148.0,0.0,0.0,0.0
19:36:21.999000,-357.0,-131.0,-236.0,-721.0,-428.0,-148.0,0.0,0.0,0.0
19:36:22.004000,-366.0,-150.0,-243.0,-757.0,-367.0,-175.0,0.0,0.0,0.0
19:36:22.008000,-330.0,-149.0,-260.0,-757.0,-367.0,-175.0,0.0,0.0,0.0
19:36:22.013000,-329.0,-151.0,-284.0,-779.0,-313.0,-184.0,0.0,0.0,0.0
19:36:22.018000,-327.0,-151.0,-305.0,-779.0,-313.0,-184.0,0.0,0.0,0.0
19:36:22.022000,-315.0,-144.0,-294.0,-748.0,-299.0,-227.0,0.0,0.0,0.0
19:36:22.027000,-289.0,-126.0,-268.0,-748.0,-299.0,-227.0,0.0,0.0,0.0
19:36:22.032000,-289.0,-126.0,-275.0,-775.0,-324.0,-263.0,0.0,0.0,0.0
19:36:22.037000,-278.0,-114.0,-287.0,-775.0,-324.0,-263.0,0.0,0.0,0.0
19:36:22.041000,-259.0,-121.0,-262.0,-775.0,-324.0,-263.0,0.0,0.0,0.0
19:36:22.046000,-275.0,-142.0,-218.0,-791.0,-352.0,-258.0,0.0,0.0,0.0
19:36:22.051000,-270.0,-152.0,-196.0,-791.0,-352.0,-258.0,0.0,0.0,0.0
19:36:22.055000,-239.0,-163.0,-203.0,-718.0,-391.0,-257.0,0.0,0.0,0.0
19:36:22.060000,-215.0,-182.0,-207.0,-718.0,-391.0,-257.0,0.0,0.0,0.0
19:36:22.065000,-210.0,-209.0,-230.0,-675.0,-421.0,-269.0,0.0,0.0,0.0
19:36:22.069000,-200.0,-247.0,-289.0,-675.0,-421.0,-269.0,0.0,0.0,0.0
19:36:22.074000,-205.0,-288.0,-319.0,-704.0,-398.0,-268.0,0.0,0.0,0.0
19:36:22.079000,-217.0,-312.0,-322.0,-704.0,-398.0,-268.0,0.0,0.0,0.0
19:36:22.084000,-217.0,-312.0,-322.0,-745.0,-368.0,-258.0,0.0,0.0,0.0
19:36:22.088000,-199.0,-321.0,-367.0,-745.0,-368.0,-258.0,0.0,0.0,0.0
19:36:22.093000,-183.0,-338.0,-435.0,-752.0,-359.0,-248.0,0.0,0.0,0.0
19:36:22.098000,-179.0,-364.0,-474.0,-752.0,-359.0,-248.0,0.0,0.0,0.0
19:36:22.102000,-170.0,-386.0,-464.0,-754.0,-340.0,-245.0,0.0,0.0,0.0
19:36:22.107000,-170.0,-415.0,-426.0,-754.0,-340.0,-245.0,0.0,0.0,0.0
19:36:22.112000,-161.0,-429.0,-412.0,-801.0,-359.0,-245.0,0.0,0.0,0.0
19:36:22.116000,-140.0,-438.0,-406.0,-801.0,-359.0,-245.0,0.0,0.0,0.0
19:36:22.121000,-109.0,-446.0,-375.0,-840.0,-443.0,-224.0,0.0,0.0,0.0
19:36:22.126000,-77.0,-448.0,-371.0,-840.0,-443.0,-224.0,0.0,0.0,0.0
19:36:22.131000,-65.0,-449.0,-356.0,-795.0,-522.0,-188.0,0.0,0.0,0.0
19:36:22.135000,-57.0,-438.0,-258.0,-795.0,-522.0,-188.0,0.0,0.0,0.0
19:36:22.140000,-49.0,-434.0,-226.0,-762.0,-506.0,-169.0,0.0,0.0,0.0
19:36:22.145000,-51.0,-436.0,-286.0,-762.0,-506.0,-169.0,0.0,0.0,0.0
19:36:22.149000,-63.0,-466.0,-345.0,-762.0,-506.0,-169.0,0.0,0.0,0.0
19:36:22.154000,-18.0,-472.0,-392.0,-851.0,-435.0,-153.0,0.0,0.0,0.0
19:36:22.159000,-15.0,-490.0,-421.0,-851.0,-435.0,-153.0,0.0,0.0,0.0
19:36:22.163000,-3.0,-490.0,-354.0,-912.0,-433.0,-118.0,0.0,0.0,0.0
19:36:22.168000,13.0,-506.0,-277.0,-912.0,-433.0,-118.0,0.0,0.0,0.0
19:36:22.172000,50.0,-511.0,-278.0,-933.0,-560.0,-81.0,0.0,0.0,0.0
19:36:22.178000,88.0,-524.0,-316.0,-933.0,-560.0,-81.0,0.0,0.0,0.0
19:36:22.182000,130.0,-541.0,-364.0,-959.0,-602.0,-48.0,0.0,0.0,0.0
19:36:22.187000,127.0,-544.0,-375.0,-959.0,-602.0,-48.0,0.0,0.0,0.0
19:36:22.192000,125.0,-549.0,-370.0,-879.0,-504.0,-23.0,0.0,0.0,0.0
19:36:22.196000,125.0,-549.0,-370.0,-879.0,-504.0,-23.0,0.0,0.0,0.0
19:36:22.201000,119.0,-540.0,-387.0,-818.0,-423.0,-27.0,0.0,0.0,0.0
19:36:22.206000,98.0,-524.0,-461.0,-818.0,-423.0,-27.0,0.0,0.0,0.0
19:36:22.210000,58.0,-519.0,-558.0,-844.0,-305.0,-39.0,0.0,0.0,0.0
19:36:22.215000,5.0,-531.0,-597.0,-844.0,-305.0,-39.0,0.0,0.0,0.0
19:36:22.220000,-39.0,-546.0,-593.0,-914.0,-257.0,-34.0,0.0,0.0,0.0
19:36:22.225000,-58.0,-553.0,-539.0,-914.0,-257.0,-34.0,0.0,0.0,0.0
19:36:22.229000,-70.0,-543.0,-522.0,-990.0,-366.0,-52.0,0.0,0.0,0.0
19:36:22.234000,-63.0,-525.0,-521.0,-990.0,-366.0,-52.0,0.0,0.0,0.0
19:36:22.239000,-60.0,-516.0,-515.0,-987.0,-412.0,-82.0,0.0,0.0,0.0
19:36:22.243000,-57.0,-513.0,-528.0,-987.0,-412.0,-82.0,0.0,0.0,0.0
19:36:22.248000,-65.0,-529.0,-543.0,-970.0,-298.0,-87.0,0.0,0.0,0.0
19:36:22.253000,-66.0,-544.0,-550.0,-970.0,-298.0,-87.0,0.0,0.0,0.0
19:36:22.257000,-79.0,-557.0,-563.0,-970.0,-298.0,-87.0,0.0,0.0,0.0
19:36:22.262000,-80.0,-566.0,-526.0,-1009.0,-249.0,-78.0,0.0,0.0,0.0
19:36:22.267000,-79.0,-571.0,-501.0,-1009.0,-249.0,-78.0,0.0,0.0,0.0
19:36:22.272000,-73.0,-572.0,-493.0,-1024.0,-303.0,-80.0,0.0,0.0,0.0
19:36:22.276000,-72.0,-582.0,-489.0,-1024.0,-303.0,-80.0,0.0,0.0,0.0
19:36:22.281000,-88.0,-586.0,-473.0,-1028.0,-299.0,-78.0,0.0,0.0,0.0
19:36:22.286000,-114.0,-588.0,-430.0,-1028.0,-299.0,-78.0,0.0,0.0,0.0
19:36:22.290000,-147.0,-591.0,-417.0,-1044.0,-212.0,-75.0,0.0,0.0,0.0
19:36:22.295000,-178.0,-596.0,-435.0,-1044.0,-212.0,-75.0,0.0,0.0,0.0
19:36:22.300000,-211.0,-599.0,-463.0,-1067.0,-137.0,-81.0,0.0,0.0,0.0
19:36:22.304000,-211.0,-599.0,-463.0,-1067.0,-137.0,-81.0,0.0,0.0,0.0
19:36:22.309000,-233.0,-610.0,-473.0,-1075.0,-160.0,-88.0,0.0,0.0,0.0
19:36:22.314000,-240.0,-613.0,-435.0,-1075.0,-160.0,-88.0,0.0,0.0,0.0
19:36:22.319000,-242.0,-604.0,-404.0,-1049.0,-231.0,-114.0,0.0,0.0,0.0
19:36:22.323000,-254.0,-589.0,-408.0,-1049.0,-231.0,-114.0,0.0,0.0,0.0
19:36:22.328000,-274.0,-571.0,-431.0,-1080.0,-217.0,-137.0,0.0,0.0,0.0
19:36:22.333000,-296.0,-577.0,-443.0,-1080.0,-217.0,-137.0,0.0,0.0,0.0
19:36:22.337000,-326.0,-576.0,-432.0,-1105.0,-149.0,-147.0,0.0,0.0,0.0
19:36:22.342000,-352.0,-590.0,-452.0,-1105.0,-149.0,-147.0,0.0,0.0,0.0
19:36:22.347000,-378.0,-599.0,-421.0,-1089.0,-164.0,-158.0,0.0,0.0,0.0
19:36:22.351000,-385.0,-629.0,-363.0,-1089.0,-164.0,-158.0,0.0,0.0,0.0
19:36:22.356000,-392.0,-647.0,-314.0,-1063.0,-200.0,-162.0,0.0,0.0,0.0
19:36:22.361000,-394.0,-670.0,-339.0,-1063.0,-200.0,-162.0,0.0,0.0,0.0
19:36:22.365000,-406.0,-684.0,-415.0,-1063.0,-200.0,-162.0,0.0,0.0,0.0
19:36:22.370000,-408.0,-715.0,-502.0,-1055.0,-156.0,-161.0,0.0,0.0,0.0
19:36:22.375000,-422.0,-744.0,-453.0,-1055.0,-156.0,-161.0,0.0,0.0,0.0
19:36:22.380000,-432.0,-786.0,-375.0,-995.0,-123.0,-141.0,0.0,0.0,0.0
19:36:22.384000,-457.0,-819.0,-411.0,-995.0,-123.0,-141.0,0.0,0.0,0.0
19:36:22.389000,-499.0,-860.0,-465.0,-947.0,-72.0,-98.0,0.0,0.0,0.0
19:36:22.394000,-525.0,-891.0,-456.0,-947.0,-72.0,-98.0,0.0,0.0,0.0
19:36:22.398000,-561.0,-931.0,-413.0,-948.0,-34.0,-62.0,0.0,0.0,0.0
19:36:22.403000,-623.0,-965.0,-367.0,-948.0,-34.0,-62.0,0.0,0.0,0.0
19:36:22.408000,-688.0,-996.0,-316.0,-939.0,-10.0,-28.0,0.0,0.0,0.0
19:36:22.412000,-688.0,-996.0,-316.0,-939.0,-10.0,-28.0,0.0,0.0,0.0
19:36:22.417000,-753.0,-1025.0,-261.0,-983.0,62.0,7.0,0.0,0.0,0.0
19:36:22.422000,-837.0,-1053.0,-219.0,-983.0,62.0,7.0,0.0,0.0,0.0
19:36:22.427000,-910.0,-1087.0,-189.0,-1013.0,114.0,42.0,0.0,0.0,0.0
19:36:22.431000,-983.0,-1120.0,-137.0,-1013.0,114.0,42.0,0.0,0.0,0.0
19:36:22.436000,-1061.0,-1153.0,-81.0,-1033.0,129.0,84.0,0.0,0.0,0.0
19:36:22.441000,-1141.0,-1195.0,-40.0,-1033.0,129.0,84.0,0.0,0.0,0.0
19:36:22.445000,-1215.0,-1234.0,-44.0,-1064.0,120.0,128.0,0.0,0.0,0.0
19:36:22.450000,-1288.0,-1274.0,-83.0,-1064.0,120.0,128.0,0.0,0.0,0.0
19:36:22.455000,-1335.0,-1322.0,-134.0,-1058.0,127.0,159.0,0.0,0.0,0.0
19:36:22.459000,-1369.0,-1377.0,-217.0,-1058.0,127.0,159.0,0.0,0.0,0.0
19:36:22.464000,-1406.0,-1433.0,-305.0,-1037.0,148.0,191.0,0.0,0.0,0.0
19:36:22.469000,-1428.0,-1493.0,-393.0,-1037.0,148.0,191.0,0.0,0.0,0.0
19:36:22.474000,-1458.0,-1542.0,-492.0,-1027.0,149.0,241.0,0.0,0.0,0.0
19:36:22.478000,-1469.0,-1610.0,-553.0,-1027.0,149.0,241.0,0.0,0.0,0.0
19:36:22.483000,-1459.0,-1666.0,-597.0,-1027.0,149.0,241.0,0.0,0.0,0.0
19:36:22.488000,-1478.0,-1726.0,-647.0,-1000.0,167.0,307.0,0.0,0.0,0.0
19:36:22.492000,-1497.0,-1766.0,-679.0,-1000.0,167.0,307.0,0.0,0.0,0.0
19:36:22.497000,-1572.0,-1799.0,-651.0,-938.0,233.0,385.0,0.0,0.0,0.0
19:36:22.502000,-1654.0,-1806.0,-622.0,-938.0,233.0,385.0,0.0,0.0,0.0
19:36:22.506000,-1749.0,-1810.0,-591.0,-867.0,258.0,455.0,0.0,0.0,0.0
19:36:22.511000,-1879.0,-1808.0,-548.0,-867.0,258.0,455.0,0.0,0.0,0.0
19:36:22.516000,-2013.0,-1801.0,-553.0,-856.0,323.0,523.0,0.0,0.0,0.0
19:36:22.521000,-2121.0,-1786.0,-572.0,-856.0,323.0,523.0,0.0,0.0,0.0
19:36:22.525000,-2121.0,-1786.0,-572.0,-921.0,459.0,571.0,0.0,0.0,0.0
19:36:22.530000,-2243.0,-1784.0,-613.0,-921.0,459.0,571.0,0.0,0.0,0.0
19:36:22.535000,-2349.0,-1779.0,-631.0,-974.0,457.0,613.0,0.0,0.0,0.0
19:36:22.539000,-2417.0,-1781.0,-623.0,-974.0,457.0,613.0,0.0,0.0,0.0
19:36:22.544000,-2423.0,-1765.0,-588.0,-965.0,324.0,620.0,0.0,0.0,0.0
19:36:22.549000,-2429.0,-1763.0,-544.0,-965.0,324.0,620.0,0.0,0.0,0.0
19:36:22.553000,-2431.0,-1756.0,-473.0,-952.0,181.0,616.0,0.0,0.0,0.0
19:36:22.558000,-2411.0,-1755.0,-447.0,-952.0,181.0,616.0,0.0,0.0,0.0
19:36:22.563000,-2362.0,-1721.0,-439.0,-926.0,60.0,622.0,0.0,0.0,0.0
19:36:22.568000,-2258.0,-1713.0,-430.0,-926.0,60.0,622.0,0.0,0.0,0.0
19:36:22.572000,-2217.0,-1715.0,-431.0,-855.0,9.0,609.0,0.0,0.0,0.0
19:36:22.577000,-2154.0,-1707.0,-461.0,-855.0,9.0,609.0,0.0,0.0,0.0
19:36:22.582000,-2062.0,-1715.0,-476.0,-794.0,-11.0,603.0,0.0,0.0,0.0
19:36:22.586000,-2027.0,-1722.0,-473.0,-794.0,-11.0,603.0,0.0,0.0,0.0
19:36:22.591000,-1981.0,-1711.0,-520.0,-794.0,-11.0,603.0,0.0,0.0,0.0
19:36:22.596000,-1961.0,-1719.0,-543.0,-772.0,41.0,587.0,0.0,0.0,0.0
19:36:22.600000,-1953.0,-1728.0,-527.0,-772.0,41.0,587.0,0.0,0.0,0.0
19:36:22.605000,-1940.0,-1729.0,-520.0,-721.0,128.0,592.0,0.0,0.0,0.0
19:36:22.610000,-1914.0,-1719.0,-515.0,-721.0,128.0,592.0,0.0,0.0,0.0
19:36:22.615000,-1886.0,-1707.0,-501.0,-678.0,134.0,602.0,0.0,0.0,0.0
19:36:22.619000,-1855.0,-1687.0,-485.0,-678.0,134.0,602.0,0.0,0.0,0.0
19:36:22.624000,-1843.0,-1653.0,-467.0,-692.0,149.0,595.0,0.0,0.0,0.0
19:36:22.629000,-1829.0,-1612.0,-428.0,-692.0,149.0,595.0,0.0,0.0,0.0
19:36:22.633000,-1829.0,-1612.0,-428.0,-709.0,182.0,587.0,0.0,0.0,0.0
19:36:22.638000,-1817.0,-1561.0,-364.0,-709.0,182.0,587.0,0.0,0.0,0.0
19:36:22.643000,-1800.0,-1500.0,-291.0,-704.0,172.0,578.0,0.0,0.0,0.0
19:36:22.647000,-1775.0,-1438.0,-218.0,-704.0,172.0,578.0,0.0,0.0,0.0
19:36:22.652000,-1757.0,-1367.0,-144.0,-698.0,152.0,568.0,0.0,0.0,0.0
19:36:22.657000,-1730.0,-1304.0,-107.0,-698.0,152.0,568.0,0.0,0.0,0.0
19:36:22.662000,-1713.0,-1241.0,-118.0,-696.0,181.0,564.0,0.0,0.0,0.0
19:36:22.666000,-1678.0,-1186.0,-113.0,-696.0,181.0,564.0,0.0,0.0,0.0
19:36:22.671000,-1649.0,-1138.0,-58.0,-673.0,242.0,568.0,0.0,0.0,0.0
19:36:22.676000,-1626.0,-1091.0,-38.0,-673.0,242.0,568.0,0.0,0.0,0.0
19:36:22.680000,-1584.0,-1040.0,-75.0,-633.0,291.0,562.0,0.0,0.0,0.0
19:36:22.685000,-1505.0,-991.0,-122.0,-633.0,291.0,562.0,0.0,0.0,0.0
19:36:22.690000,-1339.0,-963.0,-191.0,-572.0,373.0,561.0,0.0,0.0,0.0
19:36:22.694000,-1425.0,-921.0,-258.0,-572.0,373.0,561.0,0.0,0.0,0.0
19:36:22.699000,-1365.0,-900.0,-154.0,-572.0,373.0,561.0,0.0,0.0,0.0
19:36:22.704000,-1307.0,-854.0,-157.0,-519.0,325.0,554.0,0.0,0.0,0.0
19:36:22.709000,-1332.0,-875.0,-121.0,-519.0,325.0,554.0,0.0,0.0,0.0
19:36:22.713000,-1313.0,-855.0,13.0,-534.0,330.0,559.0,0.0,0.0,0.0
19:36:22.718000,-1269.0,-833.0,74.0,-534.0,330.0,559.0,0.0,0.0,0.0
19:36:22.723000,-1224.0,-793.0,75.0,-669.0,492.0,556.0,0.0,0.0,0.0
19:36:22.727000,-1229.0,-745.0,42.0,-669.0,492.0,556.0,0.0,0.0,0.0
19:36:22.732000,-1219.0,-706.0,68.0,-743.0,509.0,535.0,0.0,0.0,0.0
19:36:22.737000,-1187.0,-655.0,140.0,-743.0,509.0,535.0,0.0,0.0,0.0
19:36:22.741000,-1187.0,-655.0,140.0,-674.0,499.0,533.0,0.0,0.0,0.0
19:36:22.746000,-1190.0,-609.0,173.0,-674.0,499.0,533.0,0.0,0.0,0.0
19:36:22.751000,-1164.0,-559.0,191.0,-684.0,576.0,523.0,0.0,0.0,0.0
19:36:22.756000,-1173.0,-529.0,160.0,-684.0,576.0,523.0,0.0,0.0,0.0
19:36:22.760000,-1178.0,-486.0,93.0,-763.0,653.0,510.0,0.0,0.0,0.0
19:36:22.765000,-1158.0,-463.0,70.0,-763.0,653.0,510.0,0.0,0.0,0.0
19:36:22.770000,-1138.0,-434.0,58.0,-736.0,595.0,501.0,0.0,0.0,0.0
19:36:22.774000,-1114.0,-417.0,32.0,-736.0,595.0,501.0,0.0,0.0,0.0
19:36:22.779000,-1087.0,-396.0,35.0,-593.0,482.0,485.0,0.0,0.0,0.0
19:36:22.784000,-1061.0,-385.0,69.0,-593.0,482.0,485.0,0.0,0.0,0.0
19:36:22.788000,-1012.0,-368.0,88.0,-535.0,501.0,447.0,0.0,0.0,0.0
19:36:22.793000,-985.0,-346.0,73.0,-535.0,501.0,447.0,0.0,0.0,0.0
19:36:22.798000,-988.0,-338.0,51.0,-586.0,609.0,424.0,0.0,0.0,0.0
19:36:22.803000,-983.0,-330.0,56.0,-586.0,609.0,424.0,0.0,0.0,0.0
19:36:22.807000,-986.0,-315.0,67.0,-586.0,609.0,424.0,0.0,0.0,0.0
19:36:22.812000,-983.0,-298.0,54.0,-616.0,640.0,418.0,0.0,0.0,0.0
19:36:22.817000,-969.0,-279.0,61.0,-616.0,640.0,418.0,0.0,0.0,0.0
19:36:22.821000,-970.0,-277.0,100.0,-586.0,592.0,401.0,0.0,0.0,0.0
19:36:22.826000,-973.0,-279.0,151.0,-586.0,592.0,401.0,0.0,0.0,0.0
19:36:22.831000,-945.0,-279.0,172.0,-563.0,547.0,397.0,0.0,0.0,0.0
19:36:22.835000,-900.0,-267.0,123.0,-563.0,547.0,397.0,0.0,0.0,0.0
19:36:22.840000,-869.0,-262.0,66.0,-543.0,531.0,395.0,0.0,0.0,0.0
19:36:22.845000,-849.0,-268.0,65.0,-543.0,531.0,395.0,0.0,0.0,0.0
19:36:22.850000,-849.0,-268.0,65.0,-474.0,542.0,398.0,0.0,0.0,0.0
19:36:22.854000,-829.0,-268.0,56.0,-474.0,542.0,398.0,0.0,0.0,0.0
19:36:22.859000,-826.0,-266.0,16.0,-462.0,575.0,407.0,0.0,0.0,0.0
19:36:22.864000,-831.0,-268.0,18.0,-462.0,575.0,407.0,0.0,0.0,0.0
19:36:22.868000,-823.0,-274.0,32.0,-540.0,610.0,405.0,0.0,0.0,0.0
19:36:22.873000,-829.0,-279.0,9.0,-540.0,610.0,405.0,0.0,0.0,0.0
19:36:22.878000,-826.0,-287.0,-26.0,-578.0,631.0,400.0,0.0,0.0,0.0
19:36:22.882000,-812.0,-299.0,-63.0,-578.0,631.0,400.0,0.0,0.0,0.0
19:36:22.887000,-793.0,-315.0,-97.0,-536.0,628.0,404.0,0.0,0.0,0.0
19:36:22.892000,-779.0,-328.0,-108.0,-536.0,628.0,404.0,0.0,0.0,0.0
19:36:22.897000,-757.0,-338.0,-121.0,-503.0,609.0,412.0,0.0,0.0,0.0
19:36:22.901000,-732.0,-349.0,-133.0,-503.0,609.0,412.0,0.0,0.0,0.0
19:36:22.906000,-703.0,-353.0,-154.0,-508.0,593.0,420.0,0.0,0.0,0.0
19:36:22.911000,-669.0,-354.0,-165.0,-508.0,593.0,420.0,0.0,0.0,0.0
19:36:22.915000,-637.0,-354.0,-146.0,-508.0,593.0,420.0,0.0,0.0,0.0
19:36:22.920000,-602.0,-355.0,-135.0,-506.0,558.0,427.0,0.0,0.0,0.0
19:36:22.925000,-567.0,-345.0,-129.0,-506.0,558.0,427.0,0.0,0.0,0.0
19:36:22.929000,-544.0,-329.0,-137.0,-498.0,547.0,426.0,0.0,0.0,0.0
19:36:22.934000,-527.0,-312.0,-154.0,-498.0,547.0,426.0,0.0,0.0,0.0
19:36:22.939000,-549.0,-296.0,-128.0,-514.0,628.0,430.0,0.0,0.0,0.0
19:36:22.944000,-583.0,-275.0,-48.0,-514.0,628.0,430.0,0.0,0.0,0.0
19:36:22.948000,-502.0,-275.0,-198.0,-557.0,841.0,447.0,0.0,0.0,0.0
19:36:22.953000,-517.0,-254.0,-365.0,-557.0,841.0,447.0,0.0,0.0,0.0
19:36:22.958000,-447.0,-245.0,-457.0,-535.0,945.0,470.0,0.0,0.0,0.0
19:36:22.962000,-447.0,-245.0,-457.0,-535.0,945.0,470.0,0.0,0.0,0.0
19:36:22.967000,-423.0,-228.0,-434.0,-393.0,793.0,502.0,0.0,0.0,0.0
19:36:22.972000,-450.0,-220.0,-305.0,-393.0,793.0,502.0,0.0,0.0,0.0
19:36:22.976000,-399.0,-213.0,-144.0,-405.0,627.0,509.0,0.0,0.0,0.0
19:36:22.981000,-376.0,-204.0,-42.0,-405.0,627.0,509.0,0.0,0.0,0.0
19:36:22.986000,-347.0,-210.0,72.0,-516.0,640.0,521.0,0.0,0.0,0.0
19:36:22.991000,-371.0,-226.0,130.0,-516.0,640.0,521.0,0.0,0.0,0.0
19:36:22.995000,-397.0,-231.0,90.0,-455.0,728.0,565.0,0.0,0.0,0.0
19:36:23.000000,-403.0,-233.0,38.0,-455.0,728.0,565.0,0.0,0.0,0.0
19:36:23.005000,-396.0,-226.0,28.0,-344.0,742.0,594.0,0.0,0.0,0.0
19:36:23.009000,-396.0,-223.0,36.0,-344.0,742.0,594.0,0.0,0.0,0.0
19:36:23.013000,-410.0,-219.0,39.0,-340.0,712.0,605.0,0.0,0.0,0.0
19:36:23.019000,-402.0,-212.0,8.0,-340.0,712.0,605.0,0.0,0.0,0.0
19:36:23.023000,-380.0,-205.0,-50.0,-340.0,712.0,605.0,0.0,0.0,0.0
19:36:23.028000,-365.0,-207.0,-105.0,-419.0,704.0,602.0,0.0,0.0,0.0
19:36:23.033000,-347.0,-209.0,-148.0,-419.0,704.0,602.0,0.0,0.0,0.0
19:36:23.038000,-317.0,-211.0,-172.0,-443.0,684.0,597.0,0.0,0.0,0.0
19:36:23.042000,-287.0,-208.0,-187.0,-443.0,684.0,597.0,0.0,0.0,0.0
19:36:23.047000,-265.0,-210.0,-223.0,-403.0,639.0,585.0,0.0,0.0,0.0
19:36:23.052000,-247.0,-215.0,-276.0,-403.0,639.0,585.0,0.0,0.0,0.0
19:36:23.056000,-233.0,-228.0,-331.0,-396.0,698.0,567.0,0.0,0.0,0.0
19:36:23.061000,-216.0,-242.0,-361.0,-396.0,698.0,567.0,0.0,0.0,0.0
19:36:23.066000,-191.0,-255.0,-346.0,-403.0,731.0,559.0,0.0,0.0,0.0
19:36:23.070000,-191.0,-255.0,-346.0,-403.0,731.0,559.0,0.0,0.0,0.0
19:36:23.075000,-155.0,-264.0,-322.0,-397.0,665.0,537.0,0.0,0.0,0.0
19:36:23.080000,-107.0,-267.0,-322.0,-397.0,665.0,537.0,0.0,0.0,0.0
19:36:23.085000,-72.0,-274.0,-324.0,-424.0,669.0,509.0,0.0,0.0,0.0
19:36:23.089000,-50.0,-283.0,-310.0,-424.0,669.0,509.0,0.0,0.0,0.0
19:36:23.094000,-27.0,-292.0,-273.0,-444.0,716.0,488.0,0.0,0.0,0.0
19:36:23.099000,-7.0,-301.0,-241.0,-444.0,716.0,488.0,0.0,0.0,0.0
19:36:23.103000,14.0,-315.0,-212.0,-425.0,733.0,471.0,0.0,0.0,0.0
19:36:23.108000,40.0,-327.0,-189.0,-425.0,733.0,471.0,0.0,0.0,0.0
19:36:23.113000,60.0,-337.0,-173.0,-386.0,745.0,462.0,0.0,0.0,0.0
19:36:23.117000,62.0,-352.0,-147.0,-386.0,745.0,462.0,0.0,0.0,0.0
19:36:23.122000,66.0,-368.0,-107.0,-356.0,771.0,456.0,0.0,0.0,0.0
19:36:23.127000,65.0,-378.0,-91.0,-356.0,771.0,456.0,0.0,0.0,0.0
19:36:23.132000,46.0,-386.0,-111.0,-390.0,840.0,447.0,0.0,0.0,0.0
19:36:23.136000,30.0,-392.0,-138.0,-390.0,840.0,447.0,0.0,0.0,0.0
19:36:23.141000,25.0,-396.0,-154.0,-390.0,840.0,447.0,0.0,0.0,0.0
19:36:23.146000,23.0,-400.0,-171.0,-437.0,882.0,429.0,0.0,0.0,0.0
19:36:23.150000,33.0,-397.0,-198.0,-437.0,882.0,429.0,0.0,0.0,0.0
19:36:23.155000,56.0,-394.0,-219.0,-443.0,840.0,403.0,0.0,0.0,0.0
19:36:23.160000,82.0,-392.0,-236.0,-443.0,840.0,403.0,0.0,0.0,0.0
19:36:23.164000,138.0,-387.0,-266.0,-455.0,783.0,377.0,0.0,0.0,0.0
19:36:23.169000,138.0,-387.0,-266.0,-455.0,783.0,377.0,0.0,0.0,0.0
19:36:23.174000,238.0,-370.0,-308.0,-481.0,748.0,359.0,0.0,0.0,0.0
19:36:23.179000,238.0,-370.0,-308.0,-481.0,748.0,359.0,0.0,0.0,0.0
19:36:23.183000,319.0,-355.0,-310.0,-491.0,692.0,343.0,0.0,0.0,0.0
19:36:23.188000,403.0,-348.0,-299.0,-491.0,692.0,343.0,0.0,0.0,0.0
19:36:23.193000,487.0,-342.0,-289.0,-474.0,640.0,344.0,0.0,0.0,0.0
19:36:23.197000,578.0,-336.0,-263.0,-474.0,640.0,344.0,0.0,0.0,0.0
19:36:23.202000,665.0,-334.0,-214.0,-434.0,657.0,370.0,0.0,0.0,0.0
19:36:23.207000,744.0,-334.0,-178.0,-434.0,657.0,370.0,0.0,0.0,0.0
19:36:23.211000,818.0,-332.0,-156.0,-432.0,723.0,398.0,0.0,0.0,0.0
19:36:23.216000,884.0,-329.0,-132.0,-432.0,723.0,398.0,0.0,0.0,0.0
19:36:23.221000,943.0,-322.0,-102.0,-478.0,792.0,428.0,0.0,0.0,0.0
19:36:23.226000,994.0,-312.0,-77.0,-478.0,792.0,428.0,0.0,0.0,0.0
19:36:23.230000,1048.0,-294.0,-56.0,-522.0,821.0,454.0,0.0,0.0,0.0
19:36:23.235000,1103.0,-270.0,-32.0,-522.0,821.0,454.0,0.0,0.0,0.0
19:36:23.240000,1164.0,-244.0,-14.0,-545.0,806.0,466.0,0.0,0.0,0.0
19:36:23.244000,1228.0,-217.0,-13.0,-545.0,806.0,466.0,0.0,0.0,0.0
19:36:23.249000,1297.0,-194.0,-19.0,-537.0,780.0,471.0,0.0,0.0,0.0
19:36:23.254000,1367.0,-175.0,-37.0,-537.0,780.0,471.0,0.0,0.0,0.0
19:36:23.258000,1442.0,-158.0,-56.0,-537.0,780.0,471.0,0.0,0.0,0.0
19:36:23.263000,1516.0,-144.0,-64.0,-502.0,753.0,481.0,0.0,0.0,0.0
19:36:23.268000,1591.0,-131.0,-66.0,-502.0,753.0,481.0,0.0,0.0,0.0
19:36:23.273000,1665.0,-113.0,-67.0,-457.0,728.0,498.0,0.0,0.0,0.0
19:36:23.277000,1747.0,-93.0,-60.0,-457.0,728.0,498.0,0.0,0.0,0.0
19:36:23.282000,1837.0,-66.0,-41.0,-429.0,684.0,525.0,0.0,0.0,0.0
19:36:23.287000,1927.0,-31.0,3.0,-429.0,684.0,525.0,0.0,0.0,0.0
19:36:23.291000,1927.0,-31.0,3.0,-421.0,594.0,563.0,0.0,0.0,0.0
19:36:23.296000,2011.0,13.0,74.0,-421.0,594.0,563.0,0.0,0.0,0.0
19:36:23.301000,2083.0,68.0,140.0,-466.0,533.0,606.0,0.0,0.0,0.0
19:36:23.305000,2139.0,130.0,186.0,-466.0,533.0,606.0,0.0,0.0,0.0
19:36:23.310000,2188.0,193.0,222.0,-564.0,527.0,643.0,0.0,0.0,0.0
19:36:23.315000,2233.0,262.0,269.0,-564.0,527.0,643.0,0.0,0.0,0.0
19:36:23.320000,2277.0,340.0,315.0,-644.0,466.0,655.0,0.0,0.0,0.0
19:36:23.324000,2324.0,428.0,332.0,-644.0,466.0,655.0,0.0,0.0,0.0
19:36:23.329000,2369.0,525.0,332.0,-691.0,349.0,647.0,0.0,0.0,0.0
19:36:23.334000,2410.0,629.0,330.0,-691.0,349.0,647.0,0.0,0.0,0.0
19:36:23.338000,2448.0,739.0,324.0,-711.0,273.0,638.0,0.0,0.0,0.0
19:36:23.343000,2485.0,849.0,303.0,-711.0,273.0,638.0,0.0,0.0,0.0
19:36:23.348000,2522.0,962.0,263.0,-721.0,226.0,635.0,0.0,0.0,0.0
19:36:23.352000,2559.0,1075.0,217.0,-721.0,226.0,635.0,0.0,0.0,0.0
19:36:23.357000,2610.0,1181.0,182.0,-721.0,226.0,635.0,0.0,0.0,0.0
19:36:23.362000,2680.0,1276.0,147.0,-703.0,138.0,646.0,0.0,0.0,0.0
19:36:23.367000,2755.0,1362.0,105.0,-703.0,138.0,646.0,0.0,0.0,0.0
19:36:23.371000,2819.0,1445.0,77.0,-655.0,34.0,686.0,0.0,0.0,0.0
19:36:23.376000,2880.0,1520.0,61.0,-655.0,34.0,686.0,0.0,0.0,0.0
19:36:23.381000,2940.0,1587.0,44.0,-632.0,2.0,753.0,0.0,0.0,0.0
19:36:23.385000,2994.0,1649.0,35.0,-632.0,2.0,753.0,0.0,0.0,0.0
19:36:23.390000,3042.0,1708.0,44.0,-625.0,7.0,826.0,0.0,0.0,0.0
19:36:23.395000,3086.0,1773.0,67.0,-625.0,7.0,826.0,0.0,0.0,0.0
19:36:23.399000,3086.0,1773.0,67.0,-635.0,25.0,899.0,0.0,0.0,0.0
19:36:23.404000,3110.0,1834.0,89.0,-635.0,25.0,899.0,0.0,0.0,0.0
19:36:23.409000,3110.0,1893.0,118.0,-687.0,81.0,993.0,0.0,0.0,0.0
19:36:23.414000,3091.0,1946.0,144.0,-687.0,81.0,993.0,0.0,0.0,0.0
19:36:23.418000,3063.0,1990.0,172.0,-744.0,135.0,1089.0,0.0,0.0,0.0
19:36:23.423000,3031.0,2025.0,190.0,-744.0,135.0,1089.0,0.0,0.0,0.0
19:36:23.428000,2991.0,2051.0,188.0,-758.0,144.0,1151.0,0.0,0.0,0.0
19:36:23.432000,2950.0,2069.0,176.0,-758.0,144.0,1151.0,0.0,0.0,0.0
19:36:23.437000,2914.0,2086.0,159.0,-747.0,106.0,1178.0,0.0,0.0,0.0
19:36:23.442000,2879.0,2106.0,130.0,-747.0,106.0,1178.0,0.0,0.0,0.0
19:36:23.446000,2837.0,2141.0,83.0,-759.0,106.0,1164.0,0.0,0.0,0.0
19:36:23.451000,2788.0,2173.0,35.0,-759.0,106.0,1164.0,0.0,0.0,0.0
19:36:23.456000,2741.0,2188.0,11.0,-801.0,160.0,1123.0,0.0,0.0,0.0
19:36:23.461000,2708.0,2194.0,23.0,-801.0,160.0,1123.0,0.0,0.0,0.0
19:36:23.465000,2679.0,2191.0,42.0,-801.0,160.0,1123.0,0.0,0.0,0.0
19:36:23.470000,2649.0,2189.0,69.0,-838.0,123.0,1096.0,0.0,0.0,0.0
19:36:23.475000,2621.0,2188.0,110.0,-838.0,123.0,1096.0,0.0,0.0,0.0
19:36:23.479000,2585.0,2179.0,142.0,-800.0,4.0,1088.0,0.0,0.0,0.0
19:36:23.484000,2530.0,2170.0,154.0,-800.0,4.0,1088.0,0.0,0.0,0.0
19:36:23.488000,2464.0,2154.0,165.0,-723.0,-2.0,1085.0,0.0,0.0,0.0
19:36:23.493000,2396.0,2131.0,182.0,-723.0,-2.0,1085.0,0.0,0.0,0.0
19:36:23.498000,2328.0,2103.0,182.0,-663.0,47.0,1062.0,0.0,0.0,0.0
19:36:23.503000,2263.0,2074.0,169.0,-663.0,47.0,1062.0,0.0,0.0,0.0
19:36:23.508000,2263.0,2074.0,169.0,-629.0,59.0,1010.0,0.0,0.0,0.0
