hh:mm:ss.ms,gyroX[mdps],gyroY[mdps],gyroZ[mdps],accX[mg],accY[mg],accZ[mg],magX[mG],magY[mG],magZ[mG]
19:36:19.532000,-210.0,-564.0,11.0,-914.0,11.0,2.0,0.0,0.0,0.0
19:36:19.536000,-251.0,-546.0,-43.0,-914.0,11.0,2.0,0.0,0.0,0.0
19:36:19.541000,-275.0,-521.0,-108.0,-998.0,-44.0,36.0,0.0,0.0,0.0
19:36:19.546000,-288.0,-501.0,-142.0,-998.0,-44.0,36.0,0.0,0.0,0.0
19:36:19.550000,-287.0,-482.0,-199.0,-1028.0,-105.0,67.0,0.0,0.0,0.0
19:36:19.555000,-272.0,-471.0,-301.0,-1028.0,-105.0,67.0,0.0,0.0,0.0
19:36:19.560000,-251.0,-468.0,-420.0,-942.0,-82.0,108.0,0.0,0.0,0.0
19:36:19.564000,-226.0,-465.0,-492.0,-942.0,-82.0,108.0,0.0,0.0,0.0
19:36:19.569000,-226.0,-465.0,-492.0,-790.0,-60.0,154.0,0.0,0.0,0.0
19:36:19.574000,-207.0,-455.0,-527.0,-790.0,-60.0,154.0,0.0,0.0,0.0
19:36:19.579000,-194.0,-425.0,-540.0,-668.0,-161.0,187.0,0.0,0.0,0.0
19:36:19.583000,-171.0,-399.0,-534.0,-668.0,-161.0,187.0,0.0,0.0,0.0
19:36:19.588000,-110.0,-385.0,-562.0,-682.0,-198.0,208.0,0.0,0.0,0.0
19:36:19.593000,-52.0,-362.0,-569.0,-682.0,-198.0,208.0,0.0,0.0,0.0
19:36:19.597000,-36.0,-319.0,-542.0,-754.0,-143.0,224.0,0.0,0.0,0.0
19:36:19.602000,-28.0,-268.0,-497.0,-754.0,-143.0,224.0,0.0,0.0,0.0
19:36:19.607000,-25.0,-214.0,-442.0,-832.0,-108.0,231.0,0.0,0.0,0.0
19:36:19.611000,-19.0,-163.0,-401.0,-832.0,-108.0,231.0,0.0,0.0,0.0
19:36:19.616000,-25.0,-113.0,-361.0,-923.0,-95.0,226.0,0.0,0.0,0.0
19:36:19.621000,-28.0,-72.0,-331.0,-923.0,-95.0,226.0,0.0,0.0,0.0
19:36:19.626000,-22.0,-48.0,-297.0,-943.0,-112.0,210.0,0.0,0.0,0.0
19:36:19.630000,-9.0,-28.0,-259.0,-943.0,-112.0,210.0,0.0,0.0,0.0
19:36:19.635000,4.0,-8.0,-217.0,-943.0,-112.0,210.0,0.0,0.0,0.0
19:36:19.640000,7.0,9.0,-186.0,-864.0,-116.0,197.0,0.0,0.0,0.0
19:36:19.644000,6.0,23.0,-183.0,-864.0,-116.0,197.0,0.0,0.0,0.0
19:36:19.648000,4.0,29.0,-214.0,-805.0,-51.0,203.0,0.0,0.0,0.0
19:36:19.654000,-34.0,69.0,-222.0,-805.0,-51.0,203.0,0.0,0.0,0.0
19:36:19.658000,-65.0,91.0,-157.0,-790.0,-4.0,231.0,0.0,0.0,0.0
19:36:19.663000,-79.0,105.0,-76.0,-790.0,-4.0,231.0,0.0,0.0,0.0
19:36:19.668000,-105.0,126.0,-3.0,-783.0,-41.0,267.0,0.0,0.0,0.0
19:36:19.673000,-149.0,159.0,25.0,-783.0,-41.0,267.0,0.0,0.0,0.0
19:36:19.677000,-149.0,159.0,25.0,-809.0,-4.0,297.0,0.0,0.0,0.0
19:36:19.682000,-164.0,179.0,0.0,-809.0,-4.0,297.0,0.0,0.0,0.0
19:36:19.687000,-186.0,189.0,-49.0,-824.0,38.0,325.0,0.0,0.0,0.0
19:36:19.691000,-202.0,200.0,-76.0,-824.0,38.0,325.0,0.0,0.0,0.0
19:36:19.696000,-191.0,196.0,-84.0,-784.0,-11.0,351.0,0.0,0.0,0.0
19:36:19.701000,-207.0,200.0,-74.0,-784.0,-11.0,351.0,0.0,0.0,0.0
19:36:19.705000,-247.0,205.0,-38.0,-802.0,-62.0,364.0,0.0,0.0,0.0
19:36:19.710000,-269.0,200.0,0.0,-802.0,-62.0,364.0,0.0,0.0,0.0
19:36:19.715000,-270.0,184.0,5.0,-879.0,-97.0,367.0,0.0,0.0,0.0
19:36:19.720000,-277.0,179.0,-7.0,-879.0,-97.0,367.0,0.0,0.0,0.0
19:36:19.724000,-275.0,170.0,-14.0,-898.0,-126.0,371.0,0.0,0.0,0.0
19:36:19.729000,-262.0,168.0,-21.0,-898.0,-126.0,371.0,0.0,0.0,0.0
19:36:19.734000,-249.0,161.0,-58.0,-890.0,-144.0,384.0,0.0,0.0,0.0
19:36:19.738000,-217.0,172.0,-128.0,-890.0,-144.0,384.0,0.0,0.0,0.0
19:36:19.743000,-167.0,186.0,-208.0,-890.0,-144.0,384.0,0.0,0.0,0.0
19:36:19.748000,-134.0,202.0,-235.0,-928.0,-171.0,391.0,0.0,0.0,0.0
19:36:19.752000,-111.0,201.0,-213.0,-928.0,-171.0,391.0,0.0,0.0,0.0
19:36:19.757000,-67.0,193.0,-193.0,-972.0,-220.0,398.0,0.0,0.0,0.0
19:36:19.762000,-31.0,192.0,-186.0,-972.0,-220.0,398.0,0.0,0.0,0.0
19:36:19.767000,2.0,194.0,-196.0,-947.0,-244.0,398.0,0.0,0.0,0.0
19:36:19.771000,11.0,204.0,-202.0,-947.0,-244.0,398.0,0.0,0.0,0.0
19:36:19.776000,4.0,208.0,-198.0,-917.0,-160.0,388.0,0.0,0.0,0.0
19:36:19.781000,-16.0,207.0,-183.0,-917.0,-160.0,388.0,0.0,0.0,0.0
19:36:19.785000,-16.0,207.0,-183.0,-945.0,-24.0,393.0,0.0,0.0,0.0
19:36:19.790000,-63.0,217.0,-166.0,-945.0,-24.0,393.0,0.0,0.0,0.0
19:36:19.795000,-112.0,233.0,-196.0,-983.0,20.0,402.0,0.0,0.0,0.0
19:36:19.799000,-151.0,245.0,-262.0,-983.0,20.0,402.0,0.0,0.0,0.0
19:36:19.804000,-168.0,252.0,-307.0,-965.0,-9.0,402.0,0.0,0.0,0.0
19:36:19.809000,-187.0,264.0,-297.0,-965.0,-9.0,402.0,0.0,0.0,0.0
19:36:19.814000,-203.0,279.0,-287.0,-907.0,-68.0,396.0,0.0,0.0,0.0
19:36:19.818000,-191.0,296.0,-348.0,-907.0,-68.0,396.0,0.0,0.0,0.0
19:36:19.823000,-158.0,316.0,-424.0,-921.0,-115.0,380.0,0.0,0.0,0.0
19:36:19.828000,-132.0,328.0,-413.0,-921.0,-115.0,380.0,0.0,0.0,0.0
19:36:19.832000,-104.0,331.0,-339.0,-987.0,-163.0,366.0,0.0,0.0,0.0
19:36:19.837000,-75.0,329.0,-304.0,-987.0,-163.0,366.0,0.0,0.0,0.0
19:36:19.842000,-52.0,347.0,-324.0,-1021.0,-172.0,354.0,0.0,0.0,0.0
19:36:19.846000,-20.0,364.0,-346.0,-1021.0,-172.0,354.0,0.0,0.0,0.0
19:36:19.851000,6.0,365.0,-310.0,-1021.0,-172.0,354.0,0.0,0.0,0.0
19:36:19.856000,9.0,369.0,-277.0,-1023.0,-120.0,336.0,0.0,0.0,0.0
19:36:19.861000,-1.0,375.0,-228.0,-1023.0,-120.0,336.0,0.0,0.0,0.0
19:36:19.865000,-23.0,375.0,-204.0,-1018.0,-77.0,327.0,0.0,0.0,0.0
19:36:19.870000,-37.0,383.0,-179.0,-1018.0,-77.0,327.0,0.0,0.0,0.0
19:36:19.875000,-77.0,382.0,-133.0,-1007.0,-53.0,320.0,0.0,0.0,0.0
19:36:19.879000,-79.0,384.0,-126.0,-1007.0,-53.0,320.0,0.0,0.0,0.0
19:36:19.883000,-79.0,384.0,-126.0,-973.0,-45.0,310.0,0.0,0.0,0.0
19:36:19.889000,-102.0,378.0,-84.0,-973.0,-45.0,310.0,0.0,0.0,0.0
19:36:19.893000,-104.0,380.0,-74.0,-929.0,-72.0,317.0,0.0,0.0,0.0
19:36:19.898000,-104.0,380.0,-74.0,-929.0,-72.0,317.0,0.0,0.0,0.0
19:36:19.903000,-30.0,385.0,-61.0,-837.0,-219.0,338.0,0.0,0.0,0.0
19:36:19.908000,-42.0,323.0,95.0,-837.0,-219.0,338.0,0.0,0.0,0.0
19:36:19.912000,10.0,287.0,-182.0,-948.0,-102.0,354.0,0.0,0.0,0.0
19:36:19.917000,19.0,240.0,-484.0,-948.0,-102.0,354.0,0.0,0.0,0.0
19:36:19.922000,65.0,350.0,-493.0,-1049.0,-41.0,309.0,0.0,0.0,0.0
19:36:19.926000,166.0,332.0,-387.0,-1049.0,-41.0,309.0,0.0,0.0,0.0
19:36:19.931000,213.0,317.0,-240.0,-869.0,-233.0,270.0,0.0,0.0,0.0
19:36:19.936000,301.0,299.0,-200.0,-869.0,-233.0,270.0,0.0,0.0,0.0
19:36:19.940000,359.0,277.0,-224.0,-889.0,-177.0,287.0,0.0,0.0,0.0
19:36:19.945000,421.0,270.0,-219.0,-889.0,-177.0,287.0,0.0,0.0,0.0
19:36:19.950000,473.0,272.0,-212.0,-1067.0,-66.0,285.0,0.0,0.0,0.0
19:36:19.955000,519.0,279.0,-158.0,-1067.0,-66.0,285.0,0.0,0.0,0.0
19:36:19.959000,546.0,294.0,-74.0,-1067.0,-66.0,285.0,0.0,0.0,0.0
19:36:19.964000,549.0,310.0,1.0,-1102.0,12.0,282.0,0.0,0.0,0.0
19:36:19.969000,547.0,312.0,73.0,-1102.0,12.0,282.0,0.0,0.0,0.0
19:36:19.973000,554.0,330.0,149.0,-1093.0,54.0,291.0,0.0,0.0,0.0
19:36:19.978000,550.0,341.0,261.0,-1093.0,54.0,291.0,0.0,0.0,0.0
19:36:19.983000,529.0,352.0,366.0,-1095.0,47.0,305.0,0.0,0.0,0.0
19:36:19.987000,508.0,371.0,338.0,-1095.0,47.0,305.0,0.0,0.0,0.0
19:36:19.992000,508.0,389.0,297.0,-1147.0,82.0,302.0,0.0,0.0,0.0
19:36:19.997000,504.0,414.0,392.0,-1147.0,82.0,302.0,0.0,0.0,0.0
19:36:20.002000,536.0,443.0,515.0,-1187.0,3.0,292.0,0.0,0.0,0.0
19:36:20.006000,536.0,443.0,515.0,-1187.0,3.0,292.0,0.0,0.0,0.0
19:36:20.011000,585.0,424.0,550.0,-1207.0,-153.0,291.0,0.0,0.0,0.0
19:36:20.016000,599.0,529.0,466.0,-1207.0,-153.0,291.0,0.0,0.0,0.0
19:36:20.020000,622.0,607.0,410.0,-1232.0,-163.0,274.0,0.0,0.0,0.0
19:36:20.025000,690.0,660.0,383.0,-1232.0,-163.0,274.0,0.0,0.0,0.0
19:36:20.030000,754.0,707.0,319.0,-1244.0,-137.0,242.0,0.0,0.0,0.0
19:36:20.034000,838.0,786.0,243.0,-1244.0,-137.0,242.0,0.0,0.0,0.0
19:36:20.039000,889.0,854.0,183.0,-1280.0,-161.0,220.0,0.0,0.0,0.0
19:36:20.044000,961.0,946.0,160.0,-1280.0,-161.0,220.0,0.0,0.0,0.0
19:36:20.049000,1021.0,1022.0,171.0,-1287.0,-201.0,199.0,0.0,0.0,0.0
19:36:20.053000,1095.0,1113.0,193.0,-1287.0,-201.0,199.0,0.0,0.0,0.0
19:36:20.058000,1167.0,1201.0,209.0,-1298.0,-209.0,146.0,0.0,0.0,0.0
19:36:20.063000,1246.0,1301.0,221.0,-1298.0,-209.0,146.0,0.0,0.0,0.0
19:36:20.067000,1317.0,1394.0,242.0,-1298.0,-209.0,146.0,0.0,0.0,0.0
19:36:20.072000,1376.0,1501.0,271.0,-1341.0,-163.0,71.0,0.0,0.0,0.0
19:36:20.077000,1438.0,1613.0,296.0,-1341.0,-163.0,71.0,0.0,0.0,0.0
19:36:20.081000,1502.0,1709.0,338.0,-1400.0,-94.0,-11.0,0.0,0.0,0.0
19:36:20.086000,1562.0,1815.0,401.0,-1400.0,-94.0,-11.0,0.0,0.0,0.0
19:36:20.091000,1596.0,1913.0,490.0,-1439.0,-74.0,-95.0,0.0,0.0,0.0
19:36:20.096000,1638.0,2013.0,596.0,-1439.0,-74.0,-95.0,0.0,0.0,0.0
19:36:20.100000,1659.0,2097.0,688.0,-1463.0,-99.0,-150.0,0.0,0.0,0.0
19:36:20.105000,1700.0,2181.0,765.0,-1463.0,-99.0,-150.0,0.0,0.0,0.0
19:36:20.110000,1739.0,2234.0,824.0,-1436.0,-138.0,-172.0,0.0,0.0,0.0
19:36:20.114000,1739.0,2234.0,824.0,-1436.0,-138.0,-172.0,0.0,0.0,0.0
19:36:20.118000,1799.0,2287.0,880.0,-1321.0,-226.0,-185.0,0.0,0.0,0.0
19:36:20.124000,1869.0,2327.0,921.0,-1321.0,-226.0,-185.0,0.0,0.0,0.0
19:36:20.128000,1949.0,2355.0,924.0,-1189.0,-296.0,-187.0,0.0,0.0,0.0
19:36:20.133000,2029.0,2362.0,903.0,-1189.0,-296.0,-187.0,0.0,0.0,0.0
19:36:20.138000,2087.0,2376.0,855.0,-1103.0,-238.0,-164.0,0.0,0.0,0.0
19:36:20.143000,2125.0,2378.0,802.0,-1103.0,-238.0,-164.0,0.0,0.0,0.0
19:36:20.147000,2142.0,2360.0,800.0,-1026.0,-127.0,-113.0,0.0,0.0,0.0
19:36:20.152000,2142.0,2353.0,835.0,-1026.0,-127.0,-113.0,0.0,0.0,0.0
19:36:20.157000,2132.0,2346.0,868.0,-937.0,-71.0,-17.0,0.0,0.0,0.0
19:36:20.161000,2123.0,2335.0,945.0,-937.0,-71.0,-17.0,0.0,0.0,0.0
19:36:20.166000,2125.0,2324.0,1033.0,-884.0,-102.0,60.0,0.0,0.0,0.0
19:36:20.171000,2134.0,2336.0,1096.0,-884.0,-102.0,60.0,0.0,0.0,0.0
19:36:20.175000,2127.0,2374.0,1131.0,-884.0,-127.0,20.0,0.0,0.0,0.0
19:36:20.180000,2093.0,2450.0,1179.0,-1063.0,-127.0,20.0,0.0,0.0,0.0
19:36:20.185000,2038.0,2539.0,1243.0,-1063.0,-127.0,20.0,0.0,0.0,0.0
19:36:20.190000,1965.0,2631.0,1288.0,-1465.0,-79.0,-79.0,0.0,0.0,0.0
19:36:20.194000,1879.0,2710.0,1302.0,-1465.0,-79.0,-79.0,0.0,0.0,0.0
19:36:20.199000,1801.0,2783.0,1292.0,-1724.0,-31.0,-123.0,0.0,0.0,0.0
19:36:20.204000,1737.0,2838.0,1261.0,-1724.0,-31.0,-123.0,0.0,0.0,0.0
19:36:20.208000,1686.0,2867.0,1228.0,-1555.0,36.0,-115.0,0.0,0.0,0.0
19:36:20.213000,1642.0,2884.0,1194.0,-1555.0,36.0,-115.0,0.0,0.0,0.0
19:36:20.218000,1599.0,2885.0,1166.0,-1130.0,82.0,-96.0,0.0,0.0,0.0
19:36:20.222000,1570.0,2867.0,1127.0,-1130.0,82.0,-96.0,0.0,0.0,0.0
19:36:20.227000,1570.0,2867.0,1127.0,-842.0,35.0,-90.0,0.0,0.0,0.0
19:36:20.232000,1554.0,2830.0,1089.0,-842.0,35.0,-90.0,0.0,0.0,0.0
19:36:20.237000,1542.0,2775.0,1088.0,-697.0,-50.0,-109.0,0.0,0.0,0.0
19:36:20.241000,1537.0,2717.0,1130.0,-697.0,-50.0,-109.0,0.0,0.0,0.0
19:36:20.246000,1538.0,2645.0,1177.0,-542.0,-110.0,-155.0,0.0,0.0,0.0
19:36:20.251000,1547.0,2572.0,1214.0,-542.0,-110.0,-155.0,0.0,0.0,0.0
19:36:20.255000,1556.0,2506.0,1231.0,-420.0,-90.0,-228.0,0.0,0.0,0.0
19:36:20.260000,1563.0,2440.0,1220.0,-420.0,-90.0,-228.0,0.0,0.0,0.0
19:36:20.265000,1561.0,2377.0,1193.0,-412.0,5.0,-307.0,0.0,0.0,0.0
19:36:20.269000,1542.0,2314.0,1167.0,-412.0,5.0,-307.0,0.0,0.0,0.0
19:36:20.274000,1509.0,2246.0,1134.0,-457.0,110.0,-361.0,0.0,0.0,0.0
19:36:20.279000,1455.0,2180.0,1085.0,-457.0,110.0,-361.0,0.0,0.0,0.0
19:36:20.284000,1388.0,2110.0,1022.0,-431.0,200.0,-396.0,0.0,0.0,0.0
19:36:20.288000,1313.0,2041.0,946.0,-431.0,200.0,-396.0,0.0,0.0,0.0
19:36:20.293000,1227.0,1971.0,865.0,-431.0,200.0,-396.0,0.0,0.0,0.0
19:36:20.298000,1129.0,1899.0,781.0,-304.0,296.0,-440.0,0.0,0.0,0.0
19:36:20.302000,1023.0,1824.0,709.0,-304.0,296.0,-440.0,0.0,0.0,0.0
19:36:20.307000,919.0,1740.0,673.0,-185.0,367.0,-496.0,0.0,0.0,0.0
19:36:20.312000,829.0,1650.0,669.0,-185.0,367.0,-496.0,0.0,0.0,0.0
19:36:20.316000,761.0,1560.0,681.0,-112.0,315.0,-549.0,0.0,0.0,0.0
19:36:20.321000,715.0,1472.0,721.0,-112.0,315.0,-549.0,0.0,0.0,0.0
19:36:20.326000,697.0,1383.0,772.0,-60.0,144.0,-611.0,0.0,0.0,0.0
19:36:20.331000,689.0,1299.0,808.0,-60.0,144.0,-611.0,0.0,0.0,0.0
19:36:20.335000,689.0,1299.0,808.0,-53.0,0.0,-673.0,0.0,0.0,0.0
19:36:20.340000,693.0,1220.0,809.0,-53.0,0.0,-673.0,0.0,0.0,0.0
19:36:20.345000,697.0,1143.0,792.0,-116.0,-28.0,-715.0,0.0,0.0,0.0
19:36:20.349000,698.0,1069.0,789.0,-116.0,-28.0,-715.0,0.0,0.0,0.0
19:36:20.353000,700.0,1009.0,788.0,-196.0,-10.0,-739.0,0.0,0.0,0.0
19:36:20.359000,691.0,959.0,788.0,-196.0,-10.0,-739.0,0.0,0.0,0.0
19:36:20.363000,674.0,904.0,770.0,-268.0,25.0,-742.0,0.0,0.0,0.0
19:36:20.368000,646.0,856.0,718.0,-268.0,25.0,-742.0,0.0,0.0,0.0
19:36:20.373000,635.0,810.0,672.0,-276.0,59.0,-735.0,0.0,0.0,0.0
19:36:20.378000,603.0,770.0,663.0,-276.0,59.0,-735.0,0.0,0.0,0.0
19:36:20.382000,562.0,731.0,660.0,-239.0,58.0,-738.0,0.0,0.0,0.0
19:36:20.387000,529.0,693.0,617.0,-239.0,58.0,-738.0,0.0,0.0,0.0
19:36:20.392000,495.0,646.0,520.0,-236.0,114.0,-744.0,0.0,0.0,0.0
19:36:20.396000,483.0,600.0,418.0,-236.0,114.0,-744.0,0.0,0.0,0.0
19:36:20.401000,454.0,548.0,396.0,-236.0,114.0,-744.0,0.0,0.0,0.0
19:36:20.406000,413.0,506.0,414.0,-193.0,121.0,-747.0,0.0,0.0,0.0
19:36:20.410000,415.0,466.0,301.0,-193.0,121.0,-747.0,0.0,0.0,0.0
19:36:20.415000,381.0,406.0,234.0,-189.0,101.0,-752.0,0.0,0.0,0.0
19:36:20.420000,329.0,370.0,392.0,-189.0,101.0,-752.0,0.0,0.0,0.0
19:36:20.425000,352.0,333.0,417.0,-225.0,-10.0,-767.0,0.0,0.0,0.0
19:36:20.429000,390.0,293.0,325.0,-225.0,-10.0,-767.0,0.0,0.0,0.0
19:36:20.434000,406.0,261.0,210.0,-223.0,-94.0,-784.0,0.0,0.0,0.0
19:36:20.439000,426.0,235.0,147.0,-223.0,-94.0,-784.0,0.0,0.0,0.0
19:36:20.443000,426.0,235.0,147.0,-134.0,-49.0,-799.0,0.0,0.0,0.0
19:36:20.448000,427.0,207.0,212.0,-134.0,-49.0,-799.0,0.0,0.0,0.0
19:36:20.453000,441.0,182.0,268.0,-61.0,-88.0,-819.0,0.0,0.0,0.0
19:36:20.457000,480.0,171.0,239.0,-61.0,-88.0,-819.0,0.0,0.0,0.0
19:36:20.462000,501.0,159.0,204.0,-166.0,-57.0,-847.0,0.0,0.0,0.0
19:36:20.467000,498.0,147.0,196.0,-166.0,-57.0,-847.0,0.0,0.0,0.0
19:36:20.472000,496.0,140.0,189.0,-251.0,8.0,-872.0,0.0,0.0,0.0
19:36:20.476000,484.0,136.0,203.0,-251.0,8.0,-872.0,0.0,0.0,0.0
19:36:20.481000,492.0,134.0,203.0,-241.0,16.0,-895.0,0.0,0.0,0.0
19:36:20.486000,515.0,130.0,206.0,-241.0,16.0,-895.0,0.0,0.0,0.0
19:36:20.490000,521.0,125.0,252.0,-221.0,4.0,-906.0,0.0,0.0,0.0
19:36:20.495000,506.0,119.0,280.0,-221.0,4.0,-906.0,0.0,0.0,0.0
19:36:20.500000,489.0,109.0,263.0,-205.0,51.0,-904.0,0.0,0.0,0.0
19:36:20.504000,478.0,92.0,225.0,-205.0,51.0,-904.0,0.0,0.0,0.0
19:36:20.509000,464.0,74.0,224.0,-205.0,51.0,-904.0,0.0,0.0,0.0
19:36:20.514000,443.0,60.0,263.0,-166.0,72.0,-898.0,0.0,0.0,0.0
19:36:20.519000,426.0,55.0,276.0,-166.0,72.0,-898.0,0.0,0.0,0.0
19:36:20.523000,407.0,50.0,254.0,-132.0,40.0,-897.0,0.0,0.0,0.0
19:36:20.528000,390.0,44.0,226.0,-132.0,40.0,-897.0,0.0,0.0,0.0
19:36:20.533000,373.0,43.0,217.0,-145.0,39.0,-905.0,0.0,0.0,0.0
19:36:20.537000,360.0,37.0,226.0,-145.0,39.0,-905.0,0.0,0.0,0.0
19:36:20.542000,351.0,32.0,225.0,-127.0,33.0,-914.0,0.0,0.0,0.0
19:36:20.547000,342.0,28.0,203.0,-127.0,33.0,-914.0,0.0,0.0,0.0
19:36:20.551000,342.0,28.0,203.0,-118.0,48.0,-920.0,0.0,0.0,0.0
19:36:20.556000,331.0,23.0,177.0,-118.0,48.0,-920.0,0.0,0.0,0.0
19:36:20.561000,319.0,18.0,163.0,-155.0,70.0,-917.0,0.0,0.0,0.0
19:36:20.566000,305.0,14.0,168.0,-155.0,70.0,-917.0,0.0,0.0,0.0
19:36:20.570000,292.0,9.0,184.0,-181.0,63.0,-912.0,0.0,0.0,0.0
19:36:20.575000,277.0,5.0,212.0,-181.0,63.0,-912.0,0.0,0.0,0.0
19:36:20.580000,262.0,1.0,237.0,-192.0,62.0,-909.0,0.0,0.0,0.0
19:36:20.584000,246.0,-2.0,246.0,-192.0,62.0,-909.0,0.0,0.0,0.0
19:36:20.588000,229.0,-4.0,241.0,-204.0,87.0,-909.0,0.0,0.0,0.0
19:36:20.594000,217.0,-2.0,235.0,-204.0,87.0,-909.0,0.0,0.0,0.0
19:36:20.598000,212.0,0.0,239.0,-219.0,55.0,-920.0,0.0,0.0,0.0
19:36:20.603000,217.0,4.0,246.0,-219.0,55.0,-920.0,0.0,0.0,0.0
19:36:20.608000,233.0,10.0,239.0,-224.0,-35.0,-933.0,0.0,0.0,0.0
19:36:20.613000,252.0,19.0,221.0,-224.0,-35.0,-933.0,0.0,0.0,0.0
19:36:20.617000,273.0,32.0,193.0,-224.0,-35.0,-933.0,0.0,0.0,0.0
19:36:20.622000,290.0,45.0,161.0,-236.0,-79.0,-944.0,0.0,0.0,0.0
19:36:20.627000,305.0,59.0,129.0,-270.0,-76.0,-951.0,0.0,0.0,0.0
19:36:20.631000,321.0,73.0,96.0,-270.0,-76.0,-951.0,0.0,0.0,0.0
19:36:20.636000,340.0,87.0,75.0,-270.0,-76.0,-951.0,0.0,0.0,0.0
19:36:20.641000,353.0,100.0,65.0,-284.0,-93.0,-953.0,0.0,0.0,0.0
19:36:20.645000,359.0,114.0,49.0,-284.0,-93.0,-953.0,0.0,0.0,0.0
19:36:20.650000,355.0,123.0,19.0,-255.0,-75.0,-962.0,0.0,0.0,0.0
19:36:20.655000,343.0,127.0,-7.0,-255.0,-75.0,-962.0,0.0,0.0,0.0
19:36:20.660000,333.0,131.0,-2.0,-224.0,-24.0,-965.0,0.0,0.0,0.0
19:36:20.664000,333.0,131.0,-2.0,-224.0,-24.0,-965.0,0.0,0.0,0.0
19:36:20.669000,334.0,133.0,19.0,-193.0,-30.0,-976.0,0.0,0.0,0.0
19:36:20.674000,336.0,133.0,19.0,-193.0,-30.0,-976.0,0.0,0.0,0.0
19:36:20.678000,322.0,126.0,-9.0,-188.0,27.0,-985.0,0.0,0.0,0.0
19:36:20.683000,296.0,111.0,-39.0,-188.0,27.0,-985.0,0.0,0.0,0.0
19:36:20.688000,276.0,95.0,-39.0,-163.0,75.0,-976.0,0.0,0.0,0.0
19:36:20.692000,268.0,83.0,-17.0,-163.0,75.0,-976.0,0.0,0.0,0.0
19:36:20.697000,261.0,72.0,2.0,-122.0,41.0,-974.0,0.0,0.0,0.0
19:36:20.702000,247.0,63.0,7.0,-122.0,41.0,-974.0,0.0,0.0,0.0
19:36:20.707000,225.0,56.0,-2.0,-173.0,106.0,-979.0,0.0,0.0,0.0
19:36:20.711000,203.0,48.0,-14.0,-173.0,106.0,-979.0,0.0,0.0,0.0
19:36:20.716000,189.0,47.0,-20.0,-246.0,157.0,-982.0,0.0,0.0,0.0
19:36:20.721000,184.0,47.0,-14.0,-246.0,157.0,-982.0,0.0,0.0,0.0
19:36:20.725000,186.0,49.0,0.0,-246.0,157.0,-982.0,0.0,0.0,0.0
19:36:20.730000,193.0,54.0,21.0,-272.0,101.0,-980.0,0.0,0.0,0.0
19:36:20.735000,198.0,60.0,32.0,-272.0,101.0,-980.0,0.0,0.0,0.0
19:36:20.739000,200.0,67.0,32.0,-279.0,62.0,-972.0,0.0,0.0,0.0
19:36:20.744000,195.0,78.0,25.0,-279.0,62.0,-972.0,0.0,0.0,0.0
19:36:20.749000,182.0,86.0,18.0,-287.0,101.0,-959.0,0.0,0.0,0.0
19:36:20.763000,125.0,105.0,-27.0,-287.0,158.0,-938.0,0.0,0.0,0.0
19:36:20.768000,102.0,107.0,-30.0,-276.0,174.0,-920.0,0.0,0.0,0.0
19:36:20.772000,102.0,107.0,-30.0,-276.0,174.0,-920.0,0.0,0.0,0.0
19:36:20.777000,78.0,107.0,-44.0,-268.0,186.0,-914.0,0.0,0.0,0.0
19:36:20.782000,51.0,105.0,-59.0,-268.0,186.0,-914.0,0.0,0.0,0.0
19:36:20.786000,23.0,99.0,-63.0,-265.0,209.0,-918.0,0.0,0.0,0.0
19:36:20.791000,-4.0,92.0,-58.0,-265.0,209.0,-918.0,0.0,0.0,0.0
19:36:20.796000,-28.0,86.0,-48.0,-261.0,206.0,-932.0,0.0,0.0,0.0
19:36:20.800000,-53.0,76.0,-30.0,-261.0,206.0,-932.0,0.0,0.0,0.0
19:36:20.805000,-77.0,67.0,-18.0,-241.0,195.0,-946.0,0.0,0.0,0.0
19:36:20.810000,-101.0,57.0,-14.0,-241.0,195.0,-946.0,0.0,0.0,0.0
19:36:20.815000,-123.0,42.0,-11.0,-214.0,198.0,-958.0,0.0,0.0,0.0
19:36:20.819000,-144.0,27.0,-16.0,-214.0,198.0,-958.0,0.0,0.0,0.0
19:36:20.824000,-171.0,10.0,-22.0,-205.0,203.0,-970.0,0.0,0.0,0.0
19:36:20.829000,-198.0,-14.0,-23.0,-205.0,203.0,-970.0,0.0,0.0,0.0
19:36:20.833000,-225.0,-40.0,-26.0,-205.0,203.0,-970.0,0.0,0.0,0.0
19:36:20.838000,-254.0,-73.0,-35.0,-190.0,213.0,-979.0,0.0,0.0,0.0
19:36:20.843000,-284.0,-109.0,-47.0,-190.0,213.0,-979.0,0.0,0.0,0.0
19:36:20.847000,-318.0,-151.0,-61.0,-161.0,234.0,-984.0,0.0,0.0,0.0
19:36:20.852000,-360.0,-195.0,-79.0,-161.0,234.0,-984.0,0.0,0.0,0.0
19:36:20.857000,-414.0,-242.0,-101.0,-143.0,281.0,-985.0,0.0,0.0,0.0
19:36:20.862000,-478.0,-292.0,-121.0,-143.0,281.0,-985.0,0.0,0.0,0.0
19:36:20.866000,-555.0,-342.0,-134.0,-135.0,356.0,-979.0,0.0,0.0,0.0
19:36:20.871000,-644.0,-388.0,-144.0,-135.0,356.0,-979.0,0.0,0.0,0.0
19:36:20.876000,-746.0,-431.0,-157.0,-134.0,439.0,-967.0,0.0,0.0,0.0
19:36:20.880000,-746.0,-431.0,-157.0,-134.0,439.0,-967.0,0.0,0.0,0.0
19:36:20.885000,-850.0,-473.0,-174.0,-157.0,509.0,-952.0,0.0,0.0,0.0
19:36:20.890000,-953.0,-517.0,-190.0,-157.0,509.0,-952.0,0.0,0.0,0.0
19:36:20.894000,-1050.0,-555.0,-215.0,-194.0,526.0,-937.0,0.0,0.0,0.0
19:36:20.899000,-1141.0,-590.0,-262.0,-194.0,526.0,-937.0,0.0,0.0,0.0
19:36:20.904000,-1220.0,-627.0,-319.0,-235.0,507.0,-916.0,0.0,0.0,0.0
19:36:20.909000,-1294.0,-665.0,-385.0,-235.0,507.0,-916.0,0.0,0.0,0.0
19:36:20.913000,-1359.0,-702.0,-451.0,-287.0,475.0,-893.0,0.0,0.0,0.0
19:36:20.918000,-1425.0,-737.0,-509.0,-287.0,475.0,-893.0,0.0,0.0,0.0
19:36:20.923000,-1496.0,-774.0,-557.0,-327.0,431.0,-864.0,0.0,0.0,0.0
19:36:20.927000,-1567.0,-820.0,-590.0,-327.0,431.0,-864.0,0.0,0.0,0.0
19:36:20.932000,-1638.0,-872.0,-627.0,-290.0,412.0,-829.0,0.0,0.0,0.0
19:36:20.937000,-1714.0,-929.0,-683.0,-290.0,412.0,-829.0,0.0,0.0,0.0
19:36:20.941000,-1796.0,-991.0,-754.0,-228.0,435.0,-785.0,0.0,0.0,0.0
19:36:20.946000,-1888.0,-1056.0,-818.0,-221.0,435.0,-785.0,0.0,0.0,0.0
19:36:20.951000,-1985.0,-1122.0,-863.0,-221.0,435.0,-785.0,0.0,0.0,0.0
19:36:20.956000,-2087.0,-1190.0,-894.0,-182.0,452.0,-723.0,0.0,0.0,0.0
19:36:20.960000,-2195.0,-1257.0,-914.0,-182.0,452.0,-723.0,0.0,0.0,0.0
19:36:20.965000,-2303.0,-1318.0,-939.0,-157.0,444.0,-650.0,0.0,0.0,0.0
19:36:20.970000,-2408.0,-1374.0,-975.0,-157.0,444.0,-650.0,0.0,0.0,0.0
19:36:20.974000,-2508.0,-1433.0,-1019.0,-184.0,446.0,-584.0,0.0,0.0,0.0
19:36:20.979000,-2597.0,-1489.0,-1058.0,-184.0,446.0,-584.0,0.0,0.0,0.0
19:36:20.984000,-2675.0,-1539.0,-1092.0,-270.0,438.0,-538.0,0.0,0.0,0.0
19:36:20.988000,-2741.0,-1583.0,-1117.0,-270.0,438.0,-538.0,0.0,0.0,0.0
19:36:20.993000,-2741.0,-1583.0,-1117.0,-356.0,371.0,-507.0,0.0,0.0,0.0
19:36:20.998000,-2786.0,-1618.0,-1141.0,-356.0,371.0,-507.0,0.0,0.0,0.0
19:36:21.003000,-2809.0,-1646.0,-1176.0,-412.0,266.0,-499.0,0.0,0.0,0.0
19:36:21.007000,-2821.0,-1671.0,-1222.0,-412.0,266.0,-499.0,0.0,0.0,0.0
19:36:21.012000,-2823.0,-1689.0,-1257.0,-468.0,183.0,-500.0,0.0,0.0,0.0
19:36:21.017000,-2807.0,-1707.0,-1281.0,-468.0,183.0,-500.0,0.0,0.0,0.0
19:36:21.021000,-2780.0,-1729.0,-1299.0,-517.0,122.0,-506.0,0.0,0.0,0.0
19:36:21.026000,-2745.0,-1756.0,-1300.0,-517.0,122.0,-506.0,0.0,0.0,0.0
19:36:21.031000,-2704.0,-1784.0,-1297.0,-528.0,59.0,-515.0,0.0,0.0,0.0
19:36:21.035000,-2659.0,-1810.0,-1288.0,-528.0,59.0,-515.0,0.0,0.0,0.0
19:36:21.040000,-2606.0,-1839.0,-1252.0,-498.0,-66.0,-516.0,0.0,0.0,0.0
19:36:21.045000,-2540.0,-1871.0,-1190.0,-498.0,-66.0,-516.0,0.0,0.0,0.0
19:36:21.050000,-2465.0,-1908.0,-1129.0,-453.0,-277.0,-525.0,0.0,0.0,0.0
19:36:21.054000,-2392.0,-1940.0,-1081.0,-453.0,-277.0,-525.0,0.0,0.0,0.0
19:36:21.059000,-2322.0,-1956.0,-1042.0,-453.0,-277.0,-525.0,0.0,0.0,0.0
19:36:21.064000,-2250.0,-1971.0,-1013.0,-453.0,-462.0,-536.0,0.0,0.0,0.0
19:36:21.068000,-2202.0,-2027.0,-987.0,-453.0,-462.0,-536.0,0.0,0.0,0.0
19:36:21.073000,-2169.0,-2060.0,-1044.0,-564.0,-528.0,-490.0,0.0,0.0,0.0
19:36:21.078000,-2143.0,-2034.0,-1194.0,-564.0,-528.0,-490.0,0.0,0.0,0.0
19:36:21.082000,-2248.0,-1993.0,-1259.0,-866.0,-380.0,-361.0,0.0,0.0,0.0
19:36:21.087000,-2317.0,-2006.0,-1325.0,-866.0,-380.0,-361.0,0.0,0.0,0.0
19:36:21.092000,-2394.0,-2067.0,-922.0,-1382.0,-330.0,-237.0,0.0,0.0,0.0
19:36:21.097000,-2422.0,-1973.0,-621.0,-1382.0,-330.0,-237.0,0.0,0.0,0.0
19:36:21.101000,-2422.0,-1973.0,-621.0,-1182.0,-455.0,-282.0,0.0,0.0,0.0
19:36:21.106000,-2392.0,-1789.0,-1043.0,-1182.0,-455.0,-282.0,0.0,0.0,0.0
19:36:21.111000,-2333.0,-1727.0,-1311.0,-481.0,-444.0,-362.0,0.0,0.0,0.0
19:36:21.115000,-2273.0,-1665.0,-1252.0,-481.0,-444.0,-362.0,0.0,0.0,0.0
19:36:21.120000,-2214.0,-1619.0,-1050.0,-515.0,-582.0,-362.0,0.0,0.0,0.0
19:36:21.125000,-2127.0,-1596.0,-866.0,-515.0,-582.0,-362.0,0.0,0.0,0.0
19:36:21.129000,-1983.0,-1593.0,-848.0,-809.0,-897.0,-403.0,0.0,0.0,0.0
19:36:21.134000,-1786.0,-1605.0,-951.0,-809.0,-897.0,-403.0,0.0,0.0,0.0
19:36:21.139000,-1643.0,-1610.0,-1054.0,-796.0,-1009.0,-450.0,0.0,0.0,0.0
19:36:21.144000,-1519.0,-1628.0,-987.0,-796.0,-1009.0,-450.0,0.0,0.0,0.0
19:36:21.148000,-1416.0,-1631.0,-946.0,-617.0,-832.0,-447.0,0.0,0.0,0.0
19:36:21.153000,-1365.0,-1666.0,-947.0,-617.0,-832.0,-447.0,0.0,0.0,0.0
19:36:21.158000,-1339.0,-1675.0,-921.0,-519.0,-606.0,-388.0,0.0,0.0,0.0
19:36:21.162000,-1291.0,-1691.0,-955.0,-519.0,-606.0,-388.0,0.0,0.0,0.0
19:36:21.167000,-1239.0,-1724.0,-1008.0,-519.0,-606.0,-388.0,0.0,0.0,0.0
19:36:21.172000,-1209.0,-1731.0,-1082.0,-606.0,-460.0,-299.0,0.0,0.0,0.0
19:36:21.176000,-1180.0,-1716.0,-1113.0,-606.0,-460.0,-299.0,0.0,0.0,0.0
19:36:21.181000,-1173.0,-1681.0,-1108.0,-696.0,-376.0,-223.0,0.0,0.0,0.0
19:36:21.186000,-1185.0,-1647.0,-1073.0,-696.0,-376.0,-223.0,0.0,0.0,0.0
19:36:21.191000,-1185.0,-1619.0,-1008.0,-742.0,-335.0,-153.0,0.0,0.0,0.0
19:36:21.195000,-1185.0,-1619.0,-1008.0,-742.0,-335.0,-153.0,0.0,0.0,0.0
19:36:21.200000,-1175.0,-1514.0,-883.0,-832.0,-319.0,-92.0,0.0,0.0,0.0
19:36:21.205000,-1164.0,-1442.0,-833.0,-832.0,-319.0,-92.0,0.0,0.0,0.0
19:36:21.209000,-1164.0,-1442.0,-833.0,-917.0,-373.0,-67.0,0.0,0.0,0.0
19:36:21.214000,-1120.0,-1384.0,-770.0,-917.0,-373.0,-67.0,0.0,0.0,0.0
19:36:21.219000,-1054.0,-1323.0,-759.0,-998.0,-430.0,-70.0,0.0,0.0,0.0
19:36:21.223000,-996.0,-1262.0,-763.0,-998.0,-430.0,-70.0,0.0,0.0,0.0
19:36:21.228000,-959.0,-1201.0,-708.0,-1030.0,-458.0,-78.0,0.0,0.0,0.0
19:36:21.233000,-912.0,-1142.0,-607.0,-1030.0,-458.0,-78.0,0.0,0.0,0.0
19:36:21.238000,-844.0,-1074.0,-556.0,-1120.0,-490.0,-63.0,0.0,0.0,0.0
19:36:21.242000,-780.0,-1045.0,-562.0,-1120.0,-490.0,-63.0,0.0,0.0,0.0
19:36:21.247000,-728.0,-1002.0,-515.0,-1204.0,-518.0,-25.0,0.0,0.0,0.0
19:36:21.252000,-683.0,-961.0,-483.0,-1204.0,-518.0,-25.0,0.0,0.0,0.0
19:36:21.256000,-648.0,-925.0,-439.0,-1163.0,-466.0,15.0,0.0,0.0,0.0
19:36:21.261000,-627.0,-893.0,-389.0,-1163.0,-466.0,15.0,0.0,0.0,0.0
19:36:21.266000,-637.0,-862.0,-366.0,-1134.0,-318.0,52.0,0.0,0.0,0.0
19:36:21.270000,-644.0,-844.0,-361.0,-1134.0,-318.0,52.0,0.0,0.0,0.0
19:36:21.275000,-645.0,-809.0,-399.0,-1134.0,-318.0,52.0,0.0,0.0,0.0
19:36:21.280000,-629.0,-790.0,-464.0,-1083.0,-213.0,73.0,0.0,0.0,0.0
19:36:21.285000,-602.0,-774.0,-497.0,-1083.0,-213.0,73.0,0.0,0.0,0.0
19:36:21.289000,-497.0,-730.0,-480.0,-1005.0,-262.0,55.0,0.0,0.0,0.0
19:36:21.294000,-656.0,-721.0,-429.0,-1005.0,-262.0,55.0,0.0,0.0,0.0
19:36:21.299000,-628.0,-668.0,-421.0,-1008.0,-325.0,95.0,0.0,0.0,0.0
19:36:21.303000,-627.0,-673.0,-457.0,-1008.0,-325.0,95.0,0.0,0.0,0.0
19:36:21.308000,-588.0,-649.0,-511.0,-1108.0,-272.0,151.0,0.0,0.0,0.0
19:36:21.313000,-563.0,-655.0,-531.0,-1108.0,-272.0,151.0,0.0,0.0,0.0
19:36:21.317000,-563.0,-655.0,-531.0,-1155.0,-277.0,177.0,0.0,0.0,0.0
19:36:21.322000,-513.0,-634.0,-534.0,-1155.0,-277.0,177.0,0.0,0.0,0.0
19:36:21.327000,-483.0,-597.0,-647.0,-1115.0,-404.0,208.0,0.0,0.0,0.0
19:36:21.332000,-461.0,-563.0,-707.0,-1115.0,-404.0,208.0,0.0,0.0,0.0
19:36:21.336000,-445.0,-536.0,-624.0,-1102.0,-449.0,222.0,0.0,0.0,0.0
19:36:21.341000,-441.0,-499.0,-563.0,-1102.0,-449.0,222.0,0.0,0.0,0.0
19:36:21.346000,-415.0,-466.0,-583.0,-1156.0,-320.0,233.0,0.0,0.0,0.0
19:36:21.350000,-411.0,-424.0,-639.0,-1156.0,-320.0,233.0,0.0,0.0,0.0
19:36:21.355000,-424.0,-392.0,-619.0,-1198.0,-221.0,245.0,0.0,0.0,0.0
19:36:21.360000,-426.0,-355.0,-574.0,-1198.0,-221.0,245.0,0.0,0.0,0.0
19:36:21.364000,-421.0,-326.0,-580.0,-1208.0,-243.0,257.0,0.0,0.0,0.0
19:36:21.369000,-416.0,-290.0,-606.0,-1208.0,-243.0,257.0,0.0,0.0,0.0
19:36:21.374000,-429.0,-258.0,-579.0,-1181.0,-272.0,250.0,0.0,0.0,0.0
19:36:21.379000,-431.0,-241.0,-491.0,-1181.0,-272.0,250.0,0.0,0.0,0.0
19:36:21.383000,-443.0,-235.0,-432.0,-1181.0,-272.0,250.0,0.0,0.0,0.0
19:36:21.388000,-486.0,-214.0,-415.0,-1130.0,-248.0,242.0,0.0,0.0,0.0
19:36:21.393000,-527.0,-200.0,-389.0,-1130.0,-248.0,242.0,0.0,0.0,0.0
19:36:21.397000,-539.0,-186.0,-328.0,-1093.0,-222.0,234.0,0.0,0.0,0.0
19:36:21.402000,-534.0,-172.0,-297.0,-1093.0,-222.0,234.0,0.0,0.0,0.0
19:36:21.407000,-531.0,-155.0,-314.0,-1060.0,-211.0,211.0,0.0,0.0,0.0
19:36:21.411000,-530.0,-143.0,-316.0,-1060.0,-211.0,211.0,0.0,0.0,0.0
19:36:21.416000,-515.0,-128.0,-308.0,-1056.0,-199.0,189.0,0.0,0.0,0.0
19:36:21.421000,-504.0,-121.0,-313.0,-1056.0,-199.0,189.0,0.0,0.0,0.0
19:36:21.426000,-500.0,-113.0,-307.0,-1054.0,-193.0,182.0,0.0,0.0,0.0
19:36:21.430000,-500.0,-113.0,-307.0,-1054.0,-193.0,182.0,0.0,0.0,0.0
19:36:21.435000,-498.0,-107.0,-318.0,-1048.0,-143.0,184.0,0.0,0.0,0.0
19:36:21.440000,-485.0,-105.0,-338.0,-1048.0,-143.0,184.0,0.0,0.0,0.0
19:36:21.444000,-478.0,-100.0,-322.0,-1042.0,-127.0,193.0,0.0,0.0,0.0
19:36:21.449000,-444.0,-101.0,-294.0,-1042.0,-127.0,193.0,0.0,0.0,0.0
19:36:21.454000,-396.0,-96.0,-296.0,-1036.0,-198.0,203.0,0.0,0.0,0.0
19:36:21.458000,-361.0,-91.0,-266.0,-1036.0,-198.0,203.0,0.0,0.0,0.0
19:36:21.463000,-323.0,-87.0,-191.0,-1043.0,-270.0,210.0,0.0,0.0,0.0
19:36:21.468000,-277.0,-86.0,-97.0,-1043.0,-270.0,210.0,0.0,0.0,0.0
19:36:21.473000,-239.0,-88.0,-40.0,-1091.0,-301.0,208.0,0.0,0.0,0.0
19:36:21.477000,-188.0,-88.0,-30.0,-1091.0,-301.0,208.0,0.0,0.0,0.0
19:36:21.482000,-155.0,-94.0,-37.0,-1132.0,-249.0,201.0,0.0,0.0,0.0
19:36:21.487000,-153.0,-94.0,-25.0,-1132.0,-249.0,201.0,0.0,0.0,0.0
19:36:21.491000,-166.0,-98.0,-26.0,-1132.0,-249.0,201.0,0.0,0.0,0.0
19:36:21.496000,-155.0,-106.0,-43.0,-1111.0,-121.0,203.0,0.0,0.0,0.0
19:36:21.501000,-163.0,-114.0,-41.0,-1111.0,-121.0,203.0,0.0,0.0,0.0
19:36:21.505000,-164.0,-118.0,-11.0,-1054.0,-60.0,213.0,0.0,0.0,0.0
19:36:21.510000,-152.0,-119.0,32.0,-1054.0,-60.0,213.0,0.0,0.0,0.0
19:36:21.515000,-121.0,-117.0,47.0,-1001.0,-122.0,216.0,0.0,0.0,0.0
19:36:21.520000,-72.0,-110.0,23.0,-1001.0,-122.0,216.0,0.0,0.0,0.0
19:36:21.524000,-23.0,-102.0,-4.0,-1003.0,-165.0,212.0,0.0,0.0,0.0
19:36:21.529000,23.0,-83.0,-18.0,-1003.0,-165.0,212.0,0.0,0.0,0.0
19:36:21.534000,77.0,-56.0,-22.0,-1048.0,-137.0,221.0,0.0,0.0,0.0
19:36:21.538000,77.0,-56.0,-22.0,-1048.0,-137.0,221.0,0.0,0.0,0.0
19:36:21.543000,132.0,-24.0,-32.0,-1100.0,-100.0,233.0,0.0,0.0,0.0
19:36:21.548000,175.0,21.0,-33.0,-1100.0,-100.0,233.0,0.0,0.0,0.0
19:36:21.552000,210.0,72.0,-2.0,-1138.0,-71.0,241.0,0.0,0.0,0.0
19:36:21.557000,244.0,126.0,40.0,-1138.0,-71.0,241.0,0.0,0.0,0.0
19:36:21.562000,269.0,184.0,105.0,-1165.0,-51.0,249.0,0.0,0.0,0.0
19:36:21.567000,294.0,238.0,184.0,-1165.0,-51.0,249.0,0.0,0.0,0.0
19:36:21.571000,321.0,297.0,254.0,-1188.0,-38.0,253.0,0.0,0.0,0.0
19:36:21.576000,340.0,355.0,323.0,-1188.0,-38.0,253.0,0.0,0.0,0.0
19:36:21.581000,349.0,413.0,412.0,-1176.0,-49.0,254.0,0.0,0.0,0.0
19:36:21.585000,368.0,468.0,487.0,-1176.0,-49.0,254.0,0.0,0.0,0.0
19:36:21.590000,387.0,521.0,543.0,-1152.0,-52.0,247.0,0.0,0.0,0.0
19:36:21.595000,415.0,572.0,585.0,-1152.0,-52.0,247.0,0.0,0.0,0.0
19:36:21.599000,435.0,623.0,620.0,-1152.0,-52.0,247.0,0.0,0.0,0.0
19:36:21.604000,464.0,672.0,648.0,-1128.0,-48.0,234.0,0.0,0.0,0.0
19:36:21.609000,497.0,718.0,673.0,-1128.0,-48.0,234.0,0.0,0.0,0.0
19:36:21.614000,530.0,761.0,707.0,-1092.0,-68.0,217.0,0.0,0.0,0.0
19:36:21.618000,560.0,805.0,750.0,-1092.0,-68.0,217.0,0.0,0.0,0.0
19:36:21.623000,595.0,842.0,781.0,-1060.0,-102.0,190.0,0.0,0.0,0.0
19:36:21.628000,630.0,877.0,791.0,-1060.0,-102.0,190.0,0.0,0.0,0.0
19:36:21.632000,656.0,914.0,802.0,-1048.0,-100.0,157.0,0.0,0.0,0.0
19:36:21.637000,684.0,949.0,807.0,-1048.0,-100.0,157.0,0.0,0.0,0.0
19:36:21.642000,709.0,982.0,801.0,-1051.0,-76.0,124.0,0.0,0.0,0.0
19:36:21.646000,709.0,982.0,801.0,-1051.0,-76.0,124.0,0.0,0.0,0.0
19:36:21.651000,725.0,1010.0,802.0,-1034.0,-68.0,100.0,0.0,0.0,0.0
19:36:21.656000,739.0,1033.0,788.0,-1034.0,-68.0,100.0,0.0,0.0,0.0
19:36:21.661000,750.0,1052.0,753.0,-987.0,-42.0,85.0,0.0,0.0,0.0
19:36:21.665000,763.0,1072.0,714.0,-987.0,-42.0,85.0,0.0,0.0,0.0
19:36:21.670000,786.0,1087.0,682.0,-919.0,-57.0,77.0,0.0,0.0,0.0
19:36:21.675000,817.0,1101.0,667.0,-919.0,-57.0,77.0,0.0,0.0,0.0
19:36:21.679000,868.0,1110.0,646.0,-882.0,-121.0,63.0,0.0,0.0,0.0
19:36:21.684000,932.0,1113.0,627.0,-882.0,-121.0,63.0,0.0,0.0,0.0
19:36:21.689000,976.0,1118.0,608.0,-913.0,-132.0,43.0,0.0,0.0,0.0
19:36:21.693000,1005.0,1129.0,577.0,-913.0,-132.0,43.0,0.0,0.0,0.0
19:36:21.698000,1026.0,1133.0,553.0,-972.0,-82.0,24.0,0.0,0.0,0.0
19:36:21.703000,1031.0,1130.0,541.0,-972.0,-82.0,24.0,0.0,0.0,0.0
19:36:21.708000,1016.0,1122.0,543.0,-986.0,-7.0,-4.0,0.0,0.0,0.0
19:36:21.712000,993.0,1122.0,583.0,-986.0,-7.0,-4.0,0.0,0.0,0.0
19:36:21.717000,963.0,1098.0,623.0,-986.0,-7.0,-4.0,0.0,0.0,0.0
19:36:21.722000,910.0,1080.0,629.0,-960.0,33.0,-59.0,0.0,0.0,0.0
19:36:21.726000,858.0,1042.0,641.0,-960.0,33.0,-59.0,0.0,0.0,0.0
19:36:21.731000,791.0,1003.0,686.0,-912.0,10.0,-127.0,0.0,0.0,0.0
19:36:21.736000,732.0,948.0,747.0,-912.0,10.0,-127.0,0.0,0.0,0.0
19:36:21.740000,662.0,900.0,792.0,-834.0,-31.0,-188.0,0.0,0.0,0.0
19:36:21.745000,604.0,856.0,811.0,-834.0,-31.0,-188.0,0.0,0.0,0.0
19:36:21.750000,560.0,812.0,763.0,-791.0,-83.0,-228.0,0.0,0.0,0.0
19:36:21.755000,543.0,761.0,679.0,-791.0,-83.0,-228.0,0.0,0.0,0.0
19:36:21.759000,543.0,761.0,679.0,-804.0,-194.0,-238.0,0.0,0.0,0.0
19:36:21.764000,545.0,721.0,621.0,-804.0,-194.0,-238.0,0.0,0.0,0.0
19:36:21.769000,555.0,691.0,571.0,-832.0,-330.0,-228.0,0.0,0.0,0.0
19:36:21.773000,564.0,660.0,523.0,-832.0,-330.0,-228.0,0.0,0.0,0.0
19:36:21.778000,562.0,636.0,473.0,-900.0,-357.0,-204.0,0.0,0.0,0.0
19:36:21.783000,548.0,621.0,422.0,-900.0,-357.0,-204.0,0.0,0.0,0.0
19:36:21.787000,525.0,608.0,354.0,-1007.0,-271.0,-175.0,0.0,0.0,0.0
19:36:21.792000,495.0,609.0,301.0,-1007.0,-271.0,-175.0,0.0,0.0,0.0
19:36:21.797000,461.0,609.0,259.0,-1083.0,-171.0,-154.0,0.0,0.0,0.0
19:36:21.802000,408.0,613.0,213.0,-1083.0,-171.0,-154.0,0.0,0.0,0.0
19:36:21.806000,346.0,608.0,174.0,-1091.0,-63.0,-135.0,0.0,0.0,0.0
19:36:21.811000,273.0,600.0,177.0,-1091.0,-63.0,-135.0,0.0,0.0,0.0
19:36:21.816000,186.0,581.0,187.0,-1030.0,20.0,-105.0,0.0,0.0,0.0
19:36:21.820000,105.0,569.0,215.0,-1030.0,20.0,-105.0,0.0,0.0,0.0
19:36:21.825000,21.0,548.0,217.0,-934.0,28.0,-82.0,0.0,0.0,0.0
19:36:21.830000,-57.0,530.0,188.0,-934.0,28.0,-82.0,0.0,0.0,0.0
19:36:21.834000,-132.0,522.0,178.0,-934.0,28.0,-82.0,0.0,0.0,0.0
19:36:21.839000,-190.0,507.0,170.0,-859.0,-10.0,-91.0,0.0,0.0,0.0
19:36:21.844000,-242.0,499.0,144.0,-859.0,-10.0,-91.0,0.0,0.0,0.0
19:36:21.849000,-280.0,495.0,107.0,-825.0,-65.0,-130.0,0.0,0.0,0.0
19:36:21.853000,-310.0,484.0,75.0,-825.0,-65.0,-130.0,0.0,0.0,0.0
19:36:21.858000,-343.0,476.0,49.0,-833.0,-93.0,-180.0,0.0,0.0,0.0
19:36:21.863000,-385.0,451.0,24.0,-833.0,-93.0,-180.0,0.0,0.0,0.0
19:36:21.867000,-385.0,451.0,24.0,-863.0,-66.0,-211.0,0.0,0.0,0.0
19:36:21.872000,-424.0,434.0,0.0,-863.0,-66.0,-211.0,0.0,0.0,0.0
19:36:21.877000,-472.0,402.0,-14.0,-849.0,-58.0,-219.0,0.0,0.0,0.0
19:36:21.881000,-515.0,365.0,-4.0,-849.0,-58.0,-219.0,0.0,0.0,0.0
19:36:21.886000,-567.0,322.0,22.0,-786.0,-84.0,-204.0,0.0,0.0,0.0
19:36:21.891000,-605.0,293.0,19.0,-786.0,-84.0,-204.0,0.0,0.0,0.0
19:36:21.896000,-644.0,249.0,1.0,-712.0,-95.0,-171.0,0.0,0.0,0.0
19:36:21.900000,-687.0,207.0,-3.0,-712.0,-95.0,-171.0,0.0,0.0,0.0
19:36:21.905000,-706.0,173.0,20.0,-687.0,-148.0,-147.0,0.0,0.0,0.0
19:36:21.910000,-731.0,140.0,36.0,-687.0,-148.0,-147.0,0.0,0.0,0.0
19:36:21.914000,-719.0,113.0,49.0,-728.0,-254.0,-134.0,0.0,0.0,0.0
19:36:21.919000,-718.0,91.0,57.0,-728.0,-254.0,-134.0,0.0,0.0,0.0
19:36:21.924000,-703.0,67.0,56.0,-761.0,-352.0,-120.0,0.0,0.0,0.0
19:36:21.928000,-693.0,33.0,54.0,-761.0,-352.0,-120.0,0.0,0.0,0.0
19:36:21.933000,-670.0,4.0,52.0,-761.0,-352.0,-120.0,0.0,0.0,0.0
19:36:21.938000,-659.0,-21.0,43.0,-732.0,-407.0,-109.0,0.0,0.0,0.0
19:36:21.943000,-638.0,-39.0,-1.0,-732.0,-407.0,-109.0,0.0,0.0,0.0
19:36:21.947000,-646.0,-67.0,-65.0,-684.0,-386.0,-103.0,0.0,0.0,0.0
19:36:21.952000,-643.0,-77.0,-121.0,-684.0,-386.0,-103.0,0.0,0.0,0.0
19:36:21.957000,-625.0,-85.0,-140.0,-680.0,-344.0,-109.0,0.0,0.0,0.0
19:36:21.961000,-602.0,-95.0,-145.0,-680.0,-344.0,-109.0,0.0,0.0,0.0
