hh:mm:ss.ms,gyroX[mdps],gyroY[mdps],gyroZ[mdps],accX[mg],accY[mg],accZ[mg],magX[mG],magY[mG],magZ[mG]
19:37:13.978000,-2483.0,-1548.0,-1103.0,-1005.0,167.0,424.0,0.0,0.0,0.0
19:37:13.982000,-2566.0,-1610.0,-1116.0,-1005.0,167.0,424.0,0.0,0.0,0.0
19:37:13.987000,-2632.0,-1661.0,-1105.0,-1024.0,160.0,454.0,0.0,0.0,0.0
19:37:13.992000,-2670.0,-1719.0,-1054.0,-1024.0,160.0,454.0,0.0,0.0,0.0
19:37:13.996000,-2693.0,-1765.0,-1015.0,-1034.0,91.0,483.0,0.0,0.0,0.0
19:37:14.001000,-2695.0,-1810.0,-1006.0,-1034.0,91.0,483.0,0.0,0.0,0.0
19:37:14.006000,-2671.0,-1846.0,-995.0,-990.0,-73.0,503.0,0.0,0.0,0.0
19:37:14.011000,-2650.0,-1897.0,-974.0,-990.0,-73.0,503.0,0.0,0.0,0.0
19:37:14.015000,-2641.0,-1925.0,-991.0,-853.0,-103.0,523.0,0.0,0.0,0.0
19:37:14.020000,-2633.0,-1951.0,-1039.0,-853.0,-103.0,523.0,0.0,0.0,0.0
19:37:14.025000,-2627.0,-1983.0,-1045.0,-853.0,-103.0,523.0,0.0,0.0,0.0
19:37:14.029000,-2625.0,-2013.0,-1023.0,-777.0,-41.0,536.0,0.0,0.0,0.0
19:37:14.034000,-2628.0,-2046.0,-976.0,-777.0,-41.0,536.0,0.0,0.0,0.0
19:37:14.039000,-2632.0,-2071.0,-915.0,-772.0,28.0,553.0,0.0,0.0,0.0
19:37:14.043000,-2636.0,-2094.0,-871.0,-772.0,28.0,553.0,0.0,0.0,0.0
19:37:14.048000,-2615.0,-2111.0,-836.0,-737.0,77.0,569.0,0.0,0.0,0.0
19:37:14.053000,-2585.0,-2144.0,-806.0,-737.0,77.0,569.0,0.0,0.0,0.0
19:37:14.058000,-2572.0,-2165.0,-802.0,-721.0,93.0,584.0,0.0,0.0,0.0
19:37:14.062000,-2569.0,-2182.0,-819.0,-721.0,93.0,584.0,0.0,0.0,0.0
19:37:14.067000,-2569.0,-2182.0,-819.0,-708.0,197.0,610.0,0.0,0.0,0.0
19:37:14.072000,-2562.0,-2202.0,-803.0,-708.0,197.0,610.0,0.0,0.0,0.0
19:37:14.076000,-2559.0,-2223.0,-762.0,-691.0,287.0,640.0,0.0,0.0,0.0
19:37:14.081000,-2550.0,-2251.0,-723.0,-691.0,287.0,640.0,0.0,0.0,0.0
19:37:14.086000,-2546.0,-2272.0,-679.0,-684.0,360.0,690.0,0.0,0.0,0.0
19:37:14.090000,-2552.0,-2279.0,-640.0,-684.0,360.0,690.0,0.0,0.0,0.0
19:37:14.095000,-2559.0,-2290.0,-574.0,-639.0,444.0,751.0,0.0,0.0,0.0
19:37:14.100000,-2569.0,-2306.0,-486.0,-639.0,444.0,751.0,0.0,0.0,0.0
19:37:14.105000,-2577.0,-2321.0,-413.0,-563.0,501.0,814.0,0.0,0.0,0.0
19:37:14.109000,-2581.0,-2307.0,-394.0,-563.0,501.0,814.0,0.0,0.0,0.0
19:37:14.114000,-2580.0,-2287.0,-408.0,-541.0,554.0,849.0,0.0,0.0,0.0
19:37:14.118000,-2575.0,-2252.0,-393.0,-541.0,554.0,849.0,0.0,0.0,0.0
19:37:14.123000,-2575.0,-2214.0,-356.0,-603.0,580.0,847.0,0.0,0.0,0.0
19:37:14.128000,-2566.0,-2177.0,-313.0,-603.0,580.0,847.0,0.0,0.0,0.0
19:37:14.133000,-2562.0,-2130.0,-294.0,-603.0,580.0,847.0,0.0,0.0,0.0
19:37:14.137000,-2549.0,-2076.0,-302.0,-664.0,644.0,842.0,0.0,0.0,0.0
19:37:14.142000,-2526.0,-2009.0,-314.0,-664.0,644.0,842.0,0.0,0.0,0.0
19:37:14.147000,-2501.0,-1947.0,-336.0,-694.0,674.0,825.0,0.0,0.0,0.0
19:37:14.152000,-2451.0,-1887.0,-337.0,-694.0,674.0,825.0,0.0,0.0,0.0
19:37:14.156000,-2396.0,-1821.0,-314.0,-665.0,612.0,798.0,0.0,0.0,0.0
19:37:14.161000,-2345.0,-1757.0,-301.0,-665.0,612.0,798.0,0.0,0.0,0.0
19:37:14.166000,-2289.0,-1694.0,-302.0,-613.0,526.0,781.0,0.0,0.0,0.0
19:37:14.170000,-2237.0,-1626.0,-305.0,-613.0,526.0,781.0,0.0,0.0,0.0
19:37:14.175000,-2237.0,-1626.0,-305.0,-591.0,470.0,758.0,0.0,0.0,0.0
19:37:14.180000,-2191.0,-1570.0,-301.0,-591.0,470.0,758.0,0.0,0.0,0.0
19:37:14.184000,-2139.0,-1515.0,-278.0,-605.0,465.0,704.0,0.0,0.0,0.0
19:37:14.189000,-2088.0,-1460.0,-247.0,-605.0,465.0,704.0,0.0,0.0,0.0
19:37:14.194000,-2061.0,-1427.0,-235.0,-622.0,541.0,639.0,0.0,0.0,0.0
19:37:14.199000,-2038.0,-1399.0,-273.0,-622.0,541.0,639.0,0.0,0.0,0.0
19:37:14.203000,-2007.0,-1370.0,-338.0,-609.0,660.0,588.0,0.0,0.0,0.0
19:37:14.208000,-1969.0,-1344.0,-361.0,-609.0,660.0,588.0,0.0,0.0,0.0
19:37:14.213000,-1920.0,-1314.0,-321.0,-561.0,676.0,542.0,0.0,0.0,0.0
19:37:14.217000,-1871.0,-1292.0,-247.0,-561.0,676.0,542.0,0.0,0.0,0.0
19:37:14.222000,-1821.0,-1269.0,-186.0,-573.0,622.0,498.0,0.0,0.0,0.0
19:37:14.227000,-1768.0,-1234.0,-158.0,-573.0,622.0,498.0,0.0,0.0,0.0
19:37:14.231000,-1729.0,-1197.0,-189.0,-642.0,620.0,442.0,0.0,0.0,0.0
19:37:14.236000,-1687.0,-1148.0,-225.0,-642.0,620.0,442.0,0.0,0.0,0.0
19:37:14.241000,-1656.0,-1092.0,-242.0,-642.0,620.0,442.0,0.0,0.0,0.0
19:37:14.246000,-1639.0,-1053.0,-301.0,-592.0,652.0,386.0,0.0,0.0,0.0
19:37:14.250000,-1608.0,-1036.0,-342.0,-592.0,652.0,386.0,0.0,0.0,0.0
19:37:14.255000,-1567.0,-1011.0,-319.0,-482.0,634.0,347.0,0.0,0.0,0.0
19:37:14.260000,-1485.0,-959.0,-261.0,-482.0,634.0,347.0,0.0,0.0,0.0
19:37:14.264000,-1393.0,-907.0,-251.0,-528.0,600.0,297.0,0.0,0.0,0.0
19:37:14.269000,-1332.0,-861.0,-272.0,-528.0,600.0,297.0,0.0,0.0,0.0
19:37:14.274000,-1267.0,-826.0,-242.0,-614.0,613.0,259.0,0.0,0.0,0.0
19:37:14.278000,-1218.0,-792.0,-152.0,-614.0,613.0,259.0,0.0,0.0,0.0
19:37:14.283000,-1218.0,-792.0,-152.0,-560.0,600.0,254.0,0.0,0.0,0.0
19:37:14.288000,-1164.0,-756.0,-86.0,-560.0,600.0,254.0,0.0,0.0,0.0
19:37:14.293000,-1109.0,-720.0,-83.0,-530.0,610.0,236.0,0.0,0.0,0.0
19:37:14.297000,-1064.0,-685.0,-100.0,-530.0,610.0,236.0,0.0,0.0,0.0
19:37:14.302000,-1032.0,-650.0,-93.0,-548.0,662.0,212.0,0.0,0.0,0.0
19:37:14.307000,-1003.0,-614.0,-88.0,-548.0,662.0,212.0,0.0,0.0,0.0
19:37:14.311000,-982.0,-589.0,-74.0,-521.0,681.0,197.0,0.0,0.0,0.0
19:37:14.316000,-962.0,-565.0,-77.0,-521.0,681.0,197.0,0.0,0.0,0.0
19:37:14.321000,-941.0,-544.0,-110.0,-498.0,681.0,192.0,0.0,0.0,0.0
19:37:14.325000,-915.0,-528.0,-156.0,-498.0,681.0,192.0,0.0,0.0,0.0
19:37:14.330000,-893.0,-515.0,-186.0,-454.0,676.0,195.0,0.0,0.0,0.0
19:37:14.335000,-879.0,-508.0,-198.0,-454.0,676.0,195.0,0.0,0.0,0.0
19:37:14.340000,-870.0,-499.0,-230.0,-387.0,696.0,199.0,0.0,0.0,0.0
19:37:14.344000,-863.0,-497.0,-268.0,-387.0,696.0,199.0,0.0,0.0,0.0
19:37:14.349000,-861.0,-497.0,-283.0,-387.0,696.0,199.0,0.0,0.0,0.0
19:37:14.353000,-863.0,-498.0,-296.0,-358.0,739.0,202.0,0.0,0.0,0.0
19:37:14.358000,-868.0,-499.0,-319.0,-358.0,739.0,202.0,0.0,0.0,0.0
19:37:14.363000,-865.0,-496.0,-318.0,-357.0,750.0,203.0,0.0,0.0,0.0
19:37:14.368000,-862.0,-489.0,-304.0,-357.0,750.0,203.0,0.0,0.0,0.0
19:37:14.372000,-851.0,-478.0,-292.0,-344.0,722.0,194.0,0.0,0.0,0.0
19:37:14.377000,-837.0,-468.0,-264.0,-344.0,722.0,194.0,0.0,0.0,0.0
19:37:14.382000,-837.0,-465.0,-194.0,-327.0,700.0,200.0,0.0,0.0,0.0
19:37:14.387000,-846.0,-456.0,-240.0,-327.0,700.0,200.0,0.0,0.0,0.0
19:37:14.391000,-774.0,-456.0,-240.0,-327.0,815.0,257.0,0.0,0.0,0.0
19:37:14.396000,-774.0,-455.0,-282.0,-327.0,815.0,257.0,0.0,0.0,0.0
19:37:14.401000,-765.0,-448.0,-210.0,-238.0,834.0,312.0,0.0,0.0,0.0
19:37:14.405000,-709.0,-426.0,-166.0,-238.0,834.0,312.0,0.0,0.0,0.0
19:37:14.410000,-670.0,-410.0,-153.0,-174.0,695.0,330.0,0.0,0.0,0.0
19:37:14.415000,-641.0,-393.0,-158.0,-174.0,695.0,330.0,0.0,0.0,0.0
19:37:14.419000,-625.0,-372.0,-104.0,-285.0,752.0,335.0,0.0,0.0,0.0
19:37:14.424000,-627.0,-352.0,16.0,-285.0,752.0,335.0,0.0,0.0,0.0
19:37:14.429000,-639.0,-339.0,56.0,-401.0,856.0,335.0,0.0,0.0,0.0
19:37:14.434000,-625.0,-319.0,-42.0,-401.0,856.0,335.0,0.0,0.0,0.0
19:37:14.438000,-606.0,-296.0,-147.0,-370.0,841.0,329.0,0.0,0.0,0.0
19:37:14.443000,-579.0,-276.0,-178.0,-370.0,841.0,329.0,0.0,0.0,0.0
19:37:14.448000,-537.0,-252.0,-156.0,-288.0,763.0,310.0,0.0,0.0,0.0
19:37:14.452000,-492.0,-229.0,-140.0,-288.0,763.0,310.0,0.0,0.0,0.0
19:37:14.457000,-459.0,-210.0,-143.0,-288.0,763.0,310.0,0.0,0.0,0.0
19:37:14.462000,-433.0,-196.0,-158.0,-305.0,730.0,294.0,0.0,0.0,0.0
19:37:14.466000,-404.0,-186.0,-187.0,-305.0,730.0,294.0,0.0,0.0,0.0
19:37:14.471000,-382.0,-181.0,-212.0,-314.0,780.0,288.0,0.0,0.0,0.0
19:37:14.476000,-368.0,-177.0,-242.0,-314.0,780.0,288.0,0.0,0.0,0.0
19:37:14.481000,-356.0,-165.0,-293.0,-258.0,833.0,283.0,0.0,0.0,0.0
19:37:14.485000,-364.0,-162.0,-308.0,-258.0,833.0,283.0,0.0,0.0,0.0
19:37:14.490000,-375.0,-157.0,-286.0,-228.0,884.0,276.0,0.0,0.0,0.0
19:37:14.495000,-382.0,-149.0,-269.0,-228.0,884.0,276.0,0.0,0.0,0.0
19:37:14.499000,-396.0,-146.0,-285.0,-250.0,916.0,261.0,0.0,0.0,0.0
19:37:14.504000,-396.0,-146.0,-285.0,-250.0,916.0,261.0,0.0,0.0,0.0
19:37:14.509000,-396.0,-143.0,-324.0,-260.0,961.0,238.0,0.0,0.0,0.0
19:37:14.513000,-406.0,-136.0,-349.0,-260.0,961.0,238.0,0.0,0.0,0.0
19:37:14.518000,-420.0,-134.0,-343.0,-219.0,974.0,224.0,0.0,0.0,0.0
19:37:14.523000,-433.0,-140.0,-317.0,-219.0,974.0,224.0,0.0,0.0,0.0
19:37:14.528000,-430.0,-140.0,-325.0,-191.0,931.0,208.0,0.0,0.0,0.0
19:37:14.532000,-420.0,-143.0,-366.0,-191.0,931.0,208.0,0.0,0.0,0.0
19:37:14.537000,-396.0,-146.0,-392.0,-170.0,882.0,184.0,0.0,0.0,0.0
19:37:14.542000,-356.0,-147.0,-392.0,-170.0,882.0,184.0,0.0,0.0,0.0
19:37:14.546000,-318.0,-148.0,-371.0,-111.0,836.0,170.0,0.0,0.0,0.0
19:37:14.551000,-282.0,-151.0,-344.0,-111.0,836.0,170.0,0.0,0.0,0.0
19:37:14.556000,-238.0,-151.0,-319.0,-91.0,808.0,161.0,0.0,0.0,0.0
19:37:14.560000,-193.0,-149.0,-305.0,-91.0,808.0,161.0,0.0,0.0,0.0
19:37:14.565000,-150.0,-150.0,-305.0,-91.0,808.0,161.0,0.0,0.0,0.0
19:37:14.570000,-111.0,-149.0,-284.0,-118.0,815.0,152.0,0.0,0.0,0.0
19:37:14.575000,-71.0,-143.0,-231.0,-118.0,815.0,152.0,0.0,0.0,0.0
19:37:14.579000,-36.0,-142.0,-181.0,-108.0,827.0,144.0,0.0,0.0,0.0
19:37:14.584000,-7.0,-140.0,-176.0,-108.0,827.0,144.0,0.0,0.0,0.0
19:37:14.588000,14.0,-136.0,-190.0,-110.0,839.0,141.0,0.0,0.0,0.0
19:37:14.593000,33.0,-133.0,-179.0,-110.0,839.0,141.0,0.0,0.0,0.0
19:37:14.598000,50.0,-129.0,-157.0,-127.0,873.0,139.0,0.0,0.0,0.0
19:37:14.603000,69.0,-126.0,-147.0,-127.0,873.0,139.0,0.0,0.0,0.0
19:37:14.607000,87.0,-126.0,-149.0,-105.0,893.0,130.0,0.0,0.0,0.0
19:37:14.612000,87.0,-126.0,-149.0,-105.0,893.0,130.0,0.0,0.0,0.0
19:37:14.617000,110.0,-123.0,-163.0,-88.0,908.0,113.0,0.0,0.0,0.0
19:37:14.622000,136.0,-119.0,-188.0,-88.0,908.0,113.0,0.0,0.0,0.0
19:37:14.626000,163.0,-116.0,-217.0,-105.0,942.0,88.0,0.0,0.0,0.0
19:37:14.631000,195.0,-112.0,-260.0,-105.0,942.0,88.0,0.0,0.0,0.0
19:37:14.636000,231.0,-109.0,-304.0,-131.0,959.0,68.0,0.0,0.0,0.0
19:37:14.640000,278.0,-103.0,-341.0,-131.0,959.0,68.0,0.0,0.0,0.0
19:37:14.645000,336.0,-96.0,-357.0,-126.0,908.0,52.0,0.0,0.0,0.0
19:37:14.650000,399.0,-90.0,-364.0,-126.0,908.0,52.0,0.0,0.0,0.0
19:37:14.654000,463.0,-83.0,-401.0,-117.0,862.0,38.0,0.0,0.0,0.0
19:37:14.659000,515.0,-82.0,-422.0,-117.0,862.0,38.0,0.0,0.0,0.0
19:37:14.664000,560.0,-86.0,-400.0,-133.0,874.0,31.0,0.0,0.0,0.0
19:37:14.669000,593.0,-86.0,-380.0,-133.0,874.0,31.0,0.0,0.0,0.0
19:37:14.673000,630.0,-81.0,-386.0,-133.0,874.0,31.0,0.0,0.0,0.0
19:37:14.678000,673.0,-73.0,-379.0,-164.0,916.0,26.0,0.0,0.0,0.0
19:37:14.683000,711.0,-67.0,-352.0,-164.0,916.0,26.0,0.0,0.0,0.0
19:37:14.687000,753.0,-66.0,-308.0,-168.0,956.0,28.0,0.0,0.0,0.0
19:37:14.692000,801.0,-68.0,-275.0,-168.0,956.0,28.0,0.0,0.0,0.0
19:37:14.697000,865.0,-70.0,-253.0,-146.0,946.0,55.0,0.0,0.0,0.0
19:37:14.701000,937.0,-61.0,-216.0,-146.0,946.0,55.0,0.0,0.0,0.0
19:37:14.706000,1021.0,-52.0,-199.0,-134.0,899.0,87.0,0.0,0.0,0.0
19:37:14.711000,1110.0,-38.0,-227.0,-134.0,899.0,87.0,0.0,0.0,0.0
19:37:14.716000,1192.0,-24.0,-259.0,-172.0,896.0,118.0,0.0,0.0,0.0
19:37:14.720000,1192.0,-24.0,-259.0,-172.0,896.0,118.0,0.0,0.0,0.0
19:37:14.725000,1275.0,-7.0,-266.0,-220.0,902.0,162.0,0.0,0.0,0.0
19:37:14.730000,1358.0,14.0,-277.0,-220.0,902.0,162.0,0.0,0.0,0.0
19:37:14.734000,1455.0,42.0,-282.0,-213.0,871.0,205.0,0.0,0.0,0.0
19:37:14.739000,1544.0,77.0,-281.0,-213.0,871.0,205.0,0.0,0.0,0.0
19:37:14.744000,1651.0,119.0,-297.0,-226.0,869.0,241.0,0.0,0.0,0.0
19:37:14.748000,1745.0,161.0,-327.0,-226.0,869.0,241.0,0.0,0.0,0.0
19:37:14.753000,1838.0,207.0,-349.0,-267.0,849.0,291.0,0.0,0.0,0.0
19:37:14.758000,1929.0,257.0,-338.0,-267.0,849.0,291.0,0.0,0.0,0.0
19:37:14.763000,2033.0,315.0,-305.0,-289.0,803.0,345.0,0.0,0.0,0.0
19:37:14.767000,2100.0,378.0,-274.0,-289.0,803.0,345.0,0.0,0.0,0.0
19:37:14.772000,2159.0,438.0,-252.0,-313.0,817.0,393.0,0.0,0.0,0.0
19:37:14.777000,2223.0,505.0,-222.0,-313.0,817.0,393.0,0.0,0.0,0.0
19:37:14.781000,2279.0,580.0,-200.0,-327.0,827.0,429.0,0.0,0.0,0.0
19:37:14.786000,2338.0,651.0,-190.0,-327.0,827.0,429.0,0.0,0.0,0.0
19:37:14.791000,2396.0,723.0,-161.0,-327.0,827.0,429.0,0.0,0.0,0.0
19:37:14.795000,2468.0,792.0,-132.0,-313.0,758.0,449.0,0.0,0.0,0.0
19:37:14.800000,2543.0,855.0,-113.0,-287.0,662.0,468.0,0.0,0.0,0.0
19:37:14.805000,2629.0,915.0,-116.0,-287.0,662.0,468.0,0.0,0.0,0.0
19:37:14.810000,2718.0,970.0,-122.0,-287.0,662.0,468.0,0.0,0.0,0.0
19:37:14.814000,2813.0,1020.0,-86.0,-234.0,554.0,497.0,0.0,0.0,0.0
19:37:14.819000,2891.0,1072.0,-9.0,-234.0,554.0,497.0,0.0,0.0,0.0
19:37:14.823000,2891.0,1072.0,-9.0,-164.0,433.0,541.0,0.0,0.0,0.0
19:37:14.828000,2994.0,1163.0,105.0,-164.0,433.0,541.0,0.0,0.0,0.0
19:37:14.833000,2994.0,1163.0,105.0,-186.0,438.0,591.0,0.0,0.0,0.0
19:37:14.838000,3014.0,1204.0,96.0,-186.0,438.0,591.0,0.0,0.0,0.0
19:37:14.842000,3017.0,1237.0,98.0,-244.0,515.0,640.0,0.0,0.0,0.0
19:37:14.847000,3009.0,1270.0,141.0,-244.0,515.0,640.0,0.0,0.0,0.0
19:37:14.852000,2998.0,1300.0,176.0,-272.0,549.0,684.0,0.0,0.0,0.0
19:37:14.857000,2987.0,1325.0,200.0,-272.0,549.0,684.0,0.0,0.0,0.0
19:37:14.861000,2970.0,1360.0,197.0,-301.0,559.0,722.0,0.0,0.0,0.0
19:37:14.866000,2944.0,1394.0,189.0,-301.0,559.0,722.0,0.0,0.0,0.0
19:37:14.871000,2935.0,1427.0,201.0,-317.0,526.0,761.0,0.0,0.0,0.0
19:37:14.875000,2931.0,1470.0,197.0,-317.0,526.0,761.0,0.0,0.0,0.0
19:37:14.880000,2923.0,1514.0,175.0,-416.0,483.0,817.0,0.0,0.0,0.0
19:37:14.885000,2918.0,1579.0,14.0,-416.0,483.0,817.0,0.0,0.0,0.0
19:37:14.889000,2879.0,1622.0,-317.0,-749.0,344.0,924.0,0.0,0.0,0.0
19:37:14.894000,2961.0,1768.0,60.0,-749.0,344.0,924.0,0.0,0.0,0.0
19:37:14.899000,2937.0,1799.0,335.0,-749.0,344.0,924.0,0.0,0.0,0.0
19:37:14.904000,2949.0,1869.0,345.0,-627.0,292.0,1044.0,0.0,0.0,0.0
19:37:14.908000,2982.0,1936.0,224.0,-627.0,292.0,1044.0,0.0,0.0,0.0
19:37:14.913000,3003.0,1998.0,186.0,-386.0,382.0,1100.0,0.0,0.0,0.0
19:37:14.918000,3057.0,2084.0,265.0,-386.0,382.0,1100.0,0.0,0.0,0.0
19:37:14.922000,3113.0,2153.0,293.0,-529.0,294.0,1131.0,0.0,0.0,0.0
19:37:14.927000,3173.0,2234.0,286.0,-529.0,294.0,1131.0,0.0,0.0,0.0
19:37:14.932000,3219.0,2314.0,333.0,-645.0,187.0,1192.0,0.0,0.0,0.0
19:37:14.936000,3270.0,2400.0,385.0,-645.0,187.0,1192.0,0.0,0.0,0.0
19:37:14.941000,3270.0,2400.0,385.0,-771.0,221.0,1263.0,0.0,0.0,0.0
19:37:14.946000,3308.0,2497.0,363.0,-771.0,221.0,1263.0,0.0,0.0,0.0
19:37:14.951000,3318.0,2586.0,361.0,-820.0,279.0,1338.0,0.0,0.0,0.0
19:37:14.955000,3300.0,2669.0,431.0,-820.0,279.0,1338.0,0.0,0.0,0.0
19:37:14.960000,3263.0,2746.0,513.0,-910.0,280.0,1444.0,0.0,0.0,0.0
19:37:14.965000,3209.0,2818.0,586.0,-910.0,280.0,1444.0,0.0,0.0,0.0
19:37:14.969000,3126.0,2888.0,605.0,-947.0,345.0,1479.0,0.0,0.0,0.0
19:37:14.974000,3020.0,2960.0,606.0,-947.0,345.0,1479.0,0.0,0.0,0.0
19:37:14.979000,2915.0,3040.0,632.0,-962.0,490.0,1399.0,0.0,0.0,0.0
19:37:14.983000,2830.0,3114.0,619.0,-962.0,490.0,1399.0,0.0,0.0,0.0
19:37:14.988000,2783.0,3159.0,556.0,-1029.0,395.0,1282.0,0.0,0.0,0.0
19:37:14.993000,2766.0,3184.0,525.0,-1029.0,395.0,1282.0,0.0,0.0,0.0
19:37:14.998000,2793.0,3185.0,535.0,-953.0,37.0,1197.0,0.0,0.0,0.0
19:37:15.002000,2835.0,3152.0,521.0,-953.0,37.0,1197.0,0.0,0.0,0.0
19:37:15.007000,2869.0,3109.0,493.0,-953.0,37.0,1197.0,0.0,0.0,0.0
19:37:15.012000,2876.0,3066.0,490.0,-769.0,-184.0,1191.0,0.0,0.0,0.0
19:37:15.016000,2860.0,3018.0,496.0,-769.0,-184.0,1191.0,0.0,0.0,0.0
19:37:15.021000,2818.0,2965.0,478.0,-596.0,-119.0,1203.0,0.0,0.0,0.0
19:37:15.026000,2752.0,2907.0,458.0,-596.0,-119.0,1203.0,0.0,0.0,0.0
19:37:15.030000,2668.0,2843.0,456.0,-460.0,22.0,1174.0,0.0,0.0,0.0
19:37:15.035000,2569.0,2777.0,445.0,-460.0,22.0,1174.0,0.0,0.0,0.0
19:37:15.040000,2454.0,2705.0,398.0,-429.0,121.0,1114.0,0.0,0.0,0.0
19:37:15.045000,2326.0,2633.0,359.0,-429.0,121.0,1114.0,0.0,0.0,0.0
19:37:15.049000,2326.0,2633.0,359.0,-480.0,170.0,1043.0,0.0,0.0,0.0
19:37:15.054000,2198.0,2555.0,332.0,-480.0,170.0,1043.0,0.0,0.0,0.0
19:37:15.058000,2065.0,2482.0,299.0,-504.0,162.0,970.0,0.0,0.0,0.0
19:37:15.063000,1928.0,2407.0,289.0,-504.0,162.0,970.0,0.0,0.0,0.0
19:37:15.068000,1795.0,2336.0,291.0,-500.0,120.0,894.0,0.0,0.0,0.0
19:37:15.073000,1667.0,2264.0,259.0,-500.0,120.0,894.0,0.0,0.0,0.0
19:37:15.077000,1537.0,2193.0,219.0,-500.0,84.0,813.0,0.0,0.0,0.0
19:37:15.082000,1437.0,2123.0,190.0,-500.0,84.0,813.0,0.0,0.0,0.0
19:37:15.087000,1322.0,2058.0,171.0,-487.0,50.0,732.0,0.0,0.0,0.0
19:37:15.092000,1222.0,1992.0,163.0,-487.0,50.0,732.0,0.0,0.0,0.0
19:37:15.096000,1124.0,1929.0,148.0,-502.0,18.0,650.0,0.0,0.0,0.0
19:37:15.101000,1037.0,1865.0,128.0,-502.0,18.0,650.0,0.0,0.0,0.0
19:37:15.106000,945.0,1806.0,94.0,-564.0,-17.0,572.0,0.0,0.0,0.0
19:37:15.110000,872.0,1750.0,54.0,-564.0,-17.0,572.0,0.0,0.0,0.0
19:37:15.115000,797.0,1694.0,19.0,-564.0,-17.0,572.0,0.0,0.0,0.0
19:37:15.120000,718.0,1634.0,2.0,-637.0,-57.0,516.0,0.0,0.0,0.0
19:37:15.124000,651.0,1576.0,5.0,-637.0,-57.0,516.0,0.0,0.0,0.0
19:37:15.129000,588.0,1518.0,11.0,-683.0,-79.0,475.0,0.0,0.0,0.0
19:37:15.134000,526.0,1463.0,11.0,-683.0,-79.0,475.0,0.0,0.0,0.0
19:37:15.139000,466.0,1416.0,13.0,-715.0,-96.0,425.0,0.0,0.0,0.0
19:37:15.143000,415.0,1375.0,10.0,-715.0,-96.0,425.0,0.0,0.0,0.0
19:37:15.148000,373.0,1334.0,9.0,-750.0,-136.0,345.0,0.0,0.0,0.0
19:37:15.153000,333.0,1288.0,14.0,-750.0,-136.0,345.0,0.0,0.0,0.0
19:37:15.157000,333.0,1288.0,14.0,-771.0,-184.0,275.0,0.0,0.0,0.0
19:37:15.162000,290.0,1235.0,23.0,-771.0,-184.0,275.0,0.0,0.0,0.0
19:37:15.167000,242.0,1180.0,51.0,-769.0,-213.0,247.0,0.0,0.0,0.0
19:37:15.171000,203.0,1124.0,77.0,-769.0,-213.0,247.0,0.0,0.0,0.0
19:37:15.176000,178.0,1071.0,95.0,-741.0,-234.0,225.0,0.0,0.0,0.0
19:37:15.181000,159.0,1022.0,118.0,-741.0,-234.0,225.0,0.0,0.0,0.0
19:37:15.186000,145.0,977.0,132.0,-715.0,-253.0,200.0,0.0,0.0,0.0
19:37:15.190000,144.0,939.0,133.0,-715.0,-253.0,200.0,0.0,0.0,0.0
19:37:15.195000,153.0,903.0,134.0,-726.0,-263.0,172.0,0.0,0.0,0.0
19:37:15.200000,164.0,863.0,151.0,-726.0,-263.0,172.0,0.0,0.0,0.0
19:37:15.204000,166.0,826.0,174.0,-765.0,-262.0,149.0,0.0,0.0,0.0
19:37:15.209000,160.0,791.0,186.0,-765.0,-262.0,149.0,0.0,0.0,0.0
19:37:15.214000,149.0,760.0,183.0,-793.0,-243.0,133.0,0.0,0.0,0.0
19:37:15.218000,137.0,732.0,193.0,-793.0,-243.0,133.0,0.0,0.0,0.0
19:37:15.223000,130.0,705.0,217.0,-793.0,-243.0,133.0,0.0,0.0,0.0
19:37:15.228000,124.0,683.0,230.0,-808.0,-235.0,113.0,0.0,0.0,0.0
19:37:15.233000,114.0,660.0,230.0,-808.0,-235.0,113.0,0.0,0.0,0.0
19:37:15.237000,109.0,647.0,232.0,-847.0,-233.0,91.0,0.0,0.0,0.0
19:37:15.242000,102.0,637.0,239.0,-847.0,-233.0,91.0,0.0,0.0,0.0
19:37:15.247000,83.0,624.0,226.0,-906.0,-209.0,74.0,0.0,0.0,0.0
19:37:15.251000,59.0,606.0,220.0,-906.0,-209.0,74.0,0.0,0.0,0.0
19:37:15.256000,45.0,588.0,222.0,-952.0,-185.0,60.0,0.0,0.0,0.0
19:37:15.261000,31.0,567.0,214.0,-952.0,-185.0,60.0,0.0,0.0,0.0
19:37:15.265000,19.0,546.0,184.0,-980.0,-193.0,55.0,0.0,0.0,0.0
19:37:15.270000,19.0,546.0,184.0,-980.0,-193.0,55.0,0.0,0.0,0.0
19:37:15.274000,15.0,535.0,130.0,-988.0,-225.0,44.0,0.0,0.0,0.0
19:37:15.279000,7.0,529.0,77.0,-988.0,-225.0,44.0,0.0,0.0,0.0
19:37:15.284000,-9.0,518.0,33.0,-966.0,-240.0,22.0,0.0,0.0,0.0
19:37:15.289000,-18.0,501.0,-7.0,-966.0,-240.0,22.0,0.0,0.0,0.0
19:37:15.293000,-29.0,483.0,-64.0,-928.0,-262.0,4.0,0.0,0.0,0.0
19:37:15.298000,-37.0,462.0,-118.0,-928.0,-262.0,4.0,0.0,0.0,0.0
19:37:15.303000,-32.0,441.0,-148.0,-899.0,-331.0,-16.0,0.0,0.0,0.0
19:37:15.308000,-22.0,418.0,-133.0,-899.0,-331.0,-16.0,0.0,0.0,0.0
19:37:15.312000,-7.0,397.0,-117.0,-884.0,-409.0,-37.0,0.0,0.0,0.0
19:37:15.317000,16.0,371.0,-158.0,-884.0,-409.0,-37.0,0.0,0.0,0.0
19:37:15.322000,39.0,338.0,-204.0,-860.0,-468.0,-48.0,0.0,0.0,0.0
19:37:15.326000,70.0,302.0,-211.0,-860.0,-468.0,-48.0,0.0,0.0,0.0
19:37:15.331000,110.0,272.0,-179.0,-860.0,-468.0,-48.0,0.0,0.0,0.0
19:37:15.336000,167.0,244.0,-130.0,-779.0,-573.0,-49.0,0.0,0.0,0.0
19:37:15.341000,224.0,224.0,-100.0,-779.0,-573.0,-49.0,0.0,0.0,0.0
19:37:15.345000,262.0,204.0,-119.0,-730.0,-630.0,-56.0,0.0,0.0,0.0
19:37:15.350000,285.0,181.0,-150.0,-730.0,-630.0,-56.0,0.0,0.0,0.0
19:37:15.355000,291.0,156.0,-166.0,-771.0,-540.0,-60.0,0.0,0.0,0.0
19:37:15.359000,295.0,133.0,-154.0,-771.0,-540.0,-60.0,0.0,0.0,0.0
19:37:15.364000,295.0,112.0,-112.0,-816.0,-464.0,-52.0,0.0,0.0,0.0
19:37:15.369000,294.0,98.0,-72.0,-816.0,-464.0,-52.0,0.0,0.0,0.0
19:37:15.373000,274.0,80.0,-109.0,-874.0,-439.0,-50.0,0.0,0.0,0.0
19:37:15.378000,274.0,80.0,-109.0,-874.0,-439.0,-50.0,0.0,0.0,0.0
19:37:15.383000,249.0,58.0,-216.0,-934.0,-365.0,-38.0,0.0,0.0,0.0
19:37:15.388000,239.0,39.0,-291.0,-934.0,-365.0,-38.0,0.0,0.0,0.0
19:37:15.392000,258.0,25.0,-259.0,-872.0,-387.0,-25.0,0.0,0.0,0.0
19:37:15.397000,287.0,21.0,-166.0,-872.0,-387.0,-25.0,0.0,0.0,0.0
19:37:15.402000,310.0,18.0,-109.0,-852.0,-445.0,-43.0,0.0,0.0,0.0
19:37:15.406000,335.0,7.0,-84.0,-852.0,-445.0,-43.0,0.0,0.0,0.0
19:37:15.411000,357.0,-7.0,-71.0,-952.0,-382.0,-72.0,0.0,0.0,0.0
19:37:15.416000,377.0,-21.0,-79.0,-952.0,-382.0,-72.0,0.0,0.0,0.0
19:37:15.420000,382.0,-42.0,-56.0,-1011.0,-345.0,-94.0,0.0,0.0,0.0
19:37:15.425000,366.0,-70.0,7.0,-1011.0,-345.0,-94.0,0.0,0.0,0.0
19:37:15.430000,353.0,-97.0,56.0,-1010.0,-356.0,-113.0,0.0,0.0,0.0
19:37:15.435000,360.0,-114.0,56.0,-1010.0,-356.0,-113.0,0.0,0.0,0.0
19:37:15.439000,370.0,-128.0,56.0,-1010.0,-356.0,-113.0,0.0,0.0,0.0
19:37:15.444000,359.0,-148.0,95.0,-966.0,-335.0,-135.0,0.0,0.0,0.0
19:37:15.449000,340.0,-168.0,105.0,-966.0,-335.0,-135.0,0.0,0.0,0.0
19:37:15.453000,306.0,-180.0,88.0,-935.0,-284.0,-160.0,0.0,0.0,0.0
19:37:15.458000,289.0,-191.0,86.0,-935.0,-284.0,-160.0,0.0,0.0,0.0
19:37:15.463000,286.0,-207.0,100.0,-965.0,-246.0,-199.0,0.0,0.0,0.0
19:37:15.467000,296.0,-232.0,114.0,-965.0,-246.0,-199.0,0.0,0.0,0.0
19:37:15.472000,311.0,-261.0,115.0,-1021.0,-250.0,-226.0,0.0,0.0,0.0
19:37:15.477000,316.0,-285.0,111.0,-1021.0,-250.0,-226.0,0.0,0.0,0.0
19:37:15.482000,339.0,-312.0,92.0,-1020.0,-292.0,-229.0,0.0,0.0,0.0
19:37:15.486000,339.0,-312.0,92.0,-1020.0,-292.0,-229.0,0.0,0.0,0.0
19:37:15.491000,367.0,-340.0,123.0,-968.0,-308.0,-219.0,0.0,0.0,0.0
19:37:15.496000,373.0,-362.0,178.0,-968.0,-308.0,-219.0,0.0,0.0,0.0
19:37:15.500000,373.0,-377.0,206.0,-959.0,-274.0,-188.0,0.0,0.0,0.0
19:37:15.505000,377.0,-387.0,221.0,-959.0,-274.0,-188.0,0.0,0.0,0.0
19:37:15.510000,381.0,-392.0,252.0,-986.0,-280.0,-146.0,0.0,0.0,0.0
19:37:15.514000,389.0,-395.0,297.0,-986.0,-280.0,-146.0,0.0,0.0,0.0
19:37:15.519000,402.0,-400.0,329.0,-1007.0,-333.0,-106.0,0.0,0.0,0.0
19:37:15.524000,419.0,-406.0,348.0,-1007.0,-333.0,-106.0,0.0,0.0,0.0
19:37:15.528000,436.0,-417.0,359.0,-1004.0,-366.0,-67.0,0.0,0.0,0.0
19:37:15.533000,443.0,-425.0,371.0,-1004.0,-366.0,-67.0,0.0,0.0,0.0
19:37:15.538000,441.0,-432.0,371.0,-981.0,-359.0,-32.0,0.0,0.0,0.0
19:37:15.543000,441.0,-436.0,350.0,-981.0,-359.0,-32.0,0.0,0.0,0.0
19:37:15.547000,441.0,-434.0,324.0,-975.0,-345.0,-9.0,0.0,0.0,0.0
19:37:15.552000,434.0,-428.0,302.0,-975.0,-345.0,-9.0,0.0,0.0,0.0
19:37:15.557000,427.0,-419.0,279.0,-975.0,-345.0,-9.0,0.0,0.0,0.0
19:37:15.561000,433.0,-412.0,252.0,-998.0,-360.0,-1.0,0.0,0.0,0.0
19:37:15.566000,440.0,-401.0,198.0,-998.0,-360.0,-1.0,0.0,0.0,0.0
19:37:15.571000,435.0,-398.0,136.0,-1023.0,-353.0,-2.0,0.0,0.0,0.0
19:37:15.576000,427.0,-399.0,102.0,-1023.0,-353.0,-2.0,0.0,0.0,0.0
19:37:15.580000,424.0,-398.0,89.0,-993.0,-331.0,-1.0,0.0,0.0,0.0
19:37:15.585000,420.0,-397.0,58.0,-993.0,-331.0,-1.0,0.0,0.0,0.0
19:37:15.590000,423.0,-387.0,24.0,-937.0,-339.0,-4.0,0.0,0.0,0.0
19:37:15.594000,421.0,-386.0,-7.0,-937.0,-339.0,-4.0,0.0,0.0,0.0
19:37:15.599000,421.0,-386.0,-7.0,-929.0,-319.0,-19.0,0.0,0.0,0.0
19:37:15.604000,408.0,-383.0,-4.0,-929.0,-319.0,-19.0,0.0,0.0,0.0
19:37:15.608000,397.0,-385.0,-6.0,-937.0,-283.0,-35.0,0.0,0.0,0.0
19:37:15.613000,401.0,-384.0,-14.0,-937.0,-283.0,-35.0,0.0,0.0,0.0
19:37:15.618000,404.0,-382.0,-11.0,-927.0,-279.0,-45.0,0.0,0.0,0.0
19:37:15.623000,401.0,-388.0,-9.0,-927.0,-279.0,-45.0,0.0,0.0,0.0
19:37:15.627000,398.0,-393.0,9.0,-917.0,-277.0,-57.0,0.0,0.0,0.0
19:37:15.632000,376.0,-412.0,38.0,-917.0,-277.0,-57.0,0.0,0.0,0.0
19:37:15.637000,349.0,-432.0,65.0,-909.0,-245.0,-74.0,0.0,0.0,0.0
19:37:15.641000,301.0,-457.0,70.0,-909.0,-245.0,-74.0,0.0,0.0,0.0
19:37:15.646000,250.0,-490.0,49.0,-897.0,-183.0,-93.0,0.0,0.0,0.0
19:37:15.651000,193.0,-532.0,10.0,-897.0,-183.0,-93.0,0.0,0.0,0.0
19:37:15.655000,136.0,-574.0,-21.0,-842.0,-134.0,-115.0,0.0,0.0,0.0
19:37:15.660000,94.0,-625.0,-60.0,-842.0,-134.0,-115.0,0.0,0.0,0.0
19:37:15.665000,50.0,-682.0,-106.0,-842.0,-134.0,-115.0,0.0,0.0,0.0
19:37:15.670000,18.0,-737.0,-147.0,-787.0,-142.0,-141.0,0.0,0.0,0.0
19:37:15.674000,-8.0,-802.0,-185.0,-787.0,-142.0,-141.0,0.0,0.0,0.0
19:37:15.679000,-30.0,-865.0,-230.0,-762.0,-181.0,-161.0,0.0,0.0,0.0
19:37:15.684000,-39.0,-914.0,-263.0,-762.0,-181.0,-161.0,0.0,0.0,0.0
19:37:15.688000,-49.0,-980.0,-275.0,-732.0,-203.0,-177.0,0.0,0.0,0.0
19:37:15.693000,-66.0,-1029.0,-289.0,-732.0,-203.0,-177.0,0.0,0.0,0.0
19:37:15.698000,-70.0,-1080.0,-315.0,-708.0,-185.0,-175.0,0.0,0.0,0.0
19:37:15.702000,-81.0,-1120.0,-347.0,-708.0,-185.0,-175.0,0.0,0.0,0.0
19:37:15.707000,-81.0,-1120.0,-347.0,-726.0,-131.0,-153.0,0.0,0.0,0.0
19:37:15.712000,-98.0,-1152.0,-373.0,-726.0,-131.0,-153.0,0.0,0.0,0.0
19:37:15.717000,-131.0,-1185.0,-384.0,-770.0,-52.0,-108.0,0.0,0.0,0.0
19:37:15.721000,-177.0,-1213.0,-386.0,-770.0,-52.0,-108.0,0.0,0.0,0.0
19:37:15.726000,-228.0,-1242.0,-386.0,-787.0,53.0,-42.0,0.0,0.0,0.0
19:37:15.731000,-282.0,-1263.0,-395.0,-787.0,53.0,-42.0,0.0,0.0,0.0
19:37:15.735000,-347.0,-1281.0,-426.0,-794.0,165.0,32.0,0.0,0.0,0.0
19:37:15.740000,-415.0,-1304.0,-448.0,-794.0,165.0,32.0,0.0,0.0,0.0
19:37:15.744000,-481.0,-1327.0,-454.0,-803.0,225.0,106.0,0.0,0.0,0.0
19:37:15.749000,-555.0,-1356.0,-455.0,-803.0,225.0,106.0,0.0,0.0,0.0
19:37:15.754000,-641.0,-1388.0,-446.0,-826.0,245.0,177.0,0.0,0.0,0.0
19:37:15.759000,-716.0,-1426.0,-401.0,-826.0,245.0,177.0,0.0,0.0,0.0
19:37:15.763000,-778.0,-1459.0,-341.0,-893.0,262.0,242.0,0.0,0.0,0.0
19:37:15.768000,-847.0,-1495.0,-268.0,-893.0,262.0,242.0,0.0,0.0,0.0
19:37:15.773000,-927.0,-1525.0,-212.0,-893.0,262.0,242.0,0.0,0.0,0.0
19:37:15.778000,-1129.0,-1531.0,-149.0,-1045.0,315.0,324.0,0.0,0.0,0.0
19:37:15.782000,-1255.0,-1614.0,63.0,-1045.0,315.0,324.0,0.0,0.0,0.0
19:37:15.787000,-936.0,-1638.0,270.0,-1453.0,698.0,465.0,0.0,0.0,0.0
19:37:15.792000,-970.0,-1641.0,39.0,-1453.0,698.0,465.0,0.0,0.0,0.0
19:37:15.796000,-1213.0,-1416.0,-407.0,-1513.0,528.0,645.0,0.0,0.0,0.0
19:37:15.801000,-959.0,-1347.0,-851.0,-1513.0,528.0,645.0,0.0,0.0,0.0
19:37:15.806000,-1022.0,-1342.0,-971.0,-789.0,-56.0,693.0,0.0,0.0,0.0
19:37:15.811000,-1108.0,-1320.0,-772.0,-789.0,-56.0,693.0,0.0,0.0,0.0
19:37:15.815000,-1108.0,-1320.0,-772.0,-336.0,-61.0,654.0,0.0,0.0,0.0
19:37:15.820000,-1138.0,-1300.0,-592.0,-336.0,-61.0,654.0,0.0,0.0,0.0
19:37:15.825000,-1178.0,-1255.0,-693.0,-686.0,-14.0,587.0,0.0,0.0,0.0
19:37:15.829000,-1089.0,-1208.0,-848.0,-686.0,-14.0,587.0,0.0,0.0,0.0
19:37:15.834000,-996.0,-1165.0,-766.0,-1132.0,-129.0,442.0,0.0,0.0,0.0
19:37:15.839000,-925.0,-1137.0,-622.0,-1132.0,-129.0,442.0,0.0,0.0,0.0
19:37:15.843000,-863.0,-1124.0,-543.0,-1223.0,-259.0,345.0,0.0,0.0,0.0
19:37:15.848000,-829.0,-1084.0,-560.0,-1223.0,-259.0,345.0,0.0,0.0,0.0
19:37:15.853000,-780.0,-1050.0,-726.0,-1069.0,-267.0,298.0,0.0,0.0,0.0
19:37:15.858000,-651.0,-1033.0,-826.0,-1069.0,-267.0,298.0,0.0,0.0,0.0
19:37:15.862000,-518.0,-1030.0,-702.0,-846.0,-260.0,276.0,0.0,0.0,0.0
19:37:15.867000,-427.0,-1029.0,-469.0,-846.0,-260.0,276.0,0.0,0.0,0.0
19:37:15.872000,-388.0,-1018.0,-243.0,-862.0,-294.0,300.0,0.0,0.0,0.0
19:37:15.876000,-344.0,-996.0,-168.0,-862.0,-294.0,300.0,0.0,0.0,0.0
19:37:15.881000,-278.0,-966.0,-235.0,-862.0,-294.0,300.0,0.0,0.0,0.0
19:37:15.886000,-251.0,-924.0,-256.0,-1036.0,-277.0,329.0,0.0,0.0,0.0
19:37:15.890000,-210.0,-898.0,-219.0,-1036.0,-277.0,329.0,0.0,0.0,0.0
19:37:15.895000,-168.0,-863.0,-185.0,-1065.0,-254.0,363.0,0.0,0.0,0.0
19:37:15.900000,-153.0,-805.0,-200.0,-1065.0,-254.0,363.0,0.0,0.0,0.0
19:37:15.905000,-159.0,-753.0,-270.0,-1042.0,-148.0,404.0,0.0,0.0,0.0
19:37:15.909000,-170.0,-696.0,-341.0,-1042.0,-148.0,404.0,0.0,0.0,0.0
19:37:15.914000,-176.0,-640.0,-379.0,-1019.0,-11.0,432.0,0.0,0.0,0.0
19:37:15.919000,-171.0,-578.0,-368.0,-1019.0,-11.0,432.0,0.0,0.0,0.0
19:37:15.923000,-171.0,-578.0,-368.0,-986.0,-36.0,439.0,0.0,0.0,0.0
19:37:15.928000,-160.0,-505.0,-357.0,-986.0,-36.0,439.0,0.0,0.0,0.0
19:37:15.933000,-137.0,-438.0,-352.0,-1035.0,-92.0,416.0,0.0,0.0,0.0
19:37:15.937000,-112.0,-373.0,-331.0,-1035.0,-92.0,416.0,0.0,0.0,0.0
19:37:15.942000,-102.0,-313.0,-317.0,-1101.0,-64.0,387.0,0.0,0.0,0.0
19:37:15.947000,-86.0,-254.0,-308.0,-1101.0,-64.0,387.0,0.0,0.0,0.0
19:37:15.952000,-79.0,-205.0,-310.0,-1108.0,-64.0,358.0,0.0,0.0,0.0
19:37:15.956000,-70.0,-168.0,-324.0,-1108.0,-64.0,358.0,0.0,0.0,0.0
19:37:15.961000,-37.0,-135.0,-340.0,-1073.0,-109.0,332.0,0.0,0.0,0.0
19:37:15.966000,-2.0,-98.0,-340.0,-1073.0,-109.0,332.0,0.0,0.0,0.0
19:37:15.970000,31.0,-70.0,-317.0,-1001.0,-121.0,334.0,0.0,0.0,0.0
19:37:15.975000,46.0,-40.0,-261.0,-1001.0,-121.0,334.0,0.0,0.0,0.0
19:37:15.980000,80.0,-24.0,-207.0,-959.0,-73.0,368.0,0.0,0.0,0.0
19:37:15.984000,127.0,-7.0,-228.0,-959.0,-73.0,368.0,0.0,0.0,0.0
19:37:15.989000,178.0,-5.0,-272.0,-959.0,-73.0,368.0,0.0,0.0,0.0
19:37:15.994000,229.0,-4.0,-303.0,-893.0,-21.0,407.0,0.0,0.0,0.0
19:37:15.998000,291.0,5.0,-281.0,-893.0,-21.0,407.0,0.0,0.0,0.0
19:37:16.003000,333.0,14.0,-267.0,-756.0,-7.0,440.0,0.0,0.0,0.0
19:37:16.008000,357.0,16.0,-279.0,-756.0,-7.0,440.0,0.0,0.0,0.0
19:37:16.013000,324.0,25.0,-303.0,-720.0,58.0,473.0,0.0,0.0,0.0
19:37:16.017000,302.0,35.0,-312.0,-720.0,58.0,473.0,0.0,0.0,0.0
19:37:16.022000,293.0,44.0,-277.0,-782.0,101.0,492.0,0.0,0.0,0.0
19:37:16.027000,281.0,49.0,-212.0,-782.0,101.0,492.0,0.0,0.0,0.0
19:37:16.031000,273.0,53.0,-146.0,-815.0,25.0,487.0,0.0,0.0,0.0
19:37:16.036000,273.0,53.0,-146.0,-815.0,25.0,487.0,0.0,0.0,0.0
19:37:16.041000,258.0,73.0,-76.0,-838.0,7.0,484.0,0.0,0.0,0.0
19:37:16.046000,225.0,86.0,-51.0,-838.0,7.0,484.0,0.0,0.0,0.0
19:37:16.050000,202.0,112.0,-51.0,-842.0,63.0,485.0,0.0,0.0,0.0
19:37:16.055000,198.0,139.0,-49.0,-842.0,63.0,485.0,0.0,0.0,0.0
19:37:16.060000,190.0,159.0,-59.0,-834.0,55.0,481.0,0.0,0.0,0.0
19:37:16.064000,164.0,180.0,-118.0,-834.0,55.0,481.0,0.0,0.0,0.0
19:37:16.069000,144.0,211.0,-179.0,-845.0,29.0,477.0,0.0,0.0,0.0
19:37:16.074000,134.0,240.0,-193.0,-845.0,29.0,477.0,0.0,0.0,0.0
19:37:16.078000,118.0,277.0,-186.0,-891.0,-3.0,474.0,0.0,0.0,0.0
19:37:16.083000,87.0,319.0,-226.0,-891.0,-3.0,474.0,0.0,0.0,0.0
19:37:16.088000,68.0,368.0,-305.0,-943.0,-60.0,468.0,0.0,0.0,0.0
19:37:16.093000,59.0,408.0,-363.0,-943.0,-60.0,468.0,0.0,0.0,0.0
19:37:16.097000,47.0,434.0,-363.0,-943.0,-60.0,468.0,0.0,0.0,0.0
19:37:16.102000,26.0,470.0,-340.0,-936.0,-73.0,463.0,0.0,0.0,0.0
19:37:16.107000,10.0,518.0,-295.0,-936.0,-73.0,463.0,0.0,0.0,0.0
19:37:16.111000,18.0,557.0,-242.0,-920.0,-51.0,455.0,0.0,0.0,0.0
19:37:16.116000,39.0,584.0,-205.0,-920.0,-51.0,455.0,0.0,0.0,0.0
19:37:16.121000,63.0,604.0,-183.0,-907.0,-76.0,453.0,0.0,0.0,0.0
19:37:16.125000,81.0,624.0,-180.0,-907.0,-76.0,453.0,0.0,0.0,0.0
19:37:16.130000,114.0,638.0,-204.0,-851.0,-133.0,475.0,0.0,0.0,0.0
19:37:16.135000,139.0,641.0,-217.0,-851.0,-133.0,475.0,0.0,0.0,0.0
19:37:16.140000,156.0,641.0,-215.0,-784.0,-157.0,506.0,0.0,0.0,0.0
19:37:16.144000,156.0,641.0,-215.0,-784.0,-157.0,506.0,0.0,0.0,0.0
19:37:16.149000,166.0,646.0,-240.0,-753.0,-143.0,530.0,0.0,0.0,0.0
19:37:16.154000,175.0,646.0,-288.0,-753.0,-143.0,530.0,0.0,0.0,0.0
19:37:16.158000,193.0,650.0,-318.0,-761.0,-161.0,541.0,0.0,0.0,0.0
19:37:16.163000,219.0,663.0,-312.0,-761.0,-161.0,541.0,0.0,0.0,0.0
19:37:16.168000,242.0,683.0,-311.0,-810.0,-183.0,538.0,0.0,0.0,0.0
19:37:16.172000,233.0,697.0,-326.0,-810.0,-183.0,538.0,0.0,0.0,0.0
19:37:16.177000,220.0,693.0,-331.0,-903.0,-129.0,541.0,0.0,0.0,0.0
19:37:16.182000,219.0,697.0,-308.0,-903.0,-129.0,541.0,0.0,0.0,0.0
19:37:16.187000,217.0,722.0,-314.0,-981.0,-91.0,542.0,0.0,0.0,0.0
19:37:16.191000,212.0,750.0,-393.0,-981.0,-91.0,542.0,0.0,0.0,0.0
19:37:16.196000,189.0,773.0,-438.0,-1015.0,-65.0,543.0,0.0,0.0,0.0
19:37:16.201000,163.0,785.0,-405.0,-1015.0,-65.0,543.0,0.0,0.0,0.0
19:37:16.205000,136.0,796.0,-364.0,-1015.0,-65.0,543.0,0.0,0.0,0.0
19:37:16.209000,129.0,804.0,-380.0,-1014.0,-33.0,551.0,0.0,0.0,0.0
19:37:16.215000,141.0,807.0,-424.0,-1014.0,-33.0,551.0,0.0,0.0,0.0
19:37:16.219000,144.0,802.0,-392.0,-947.0,1.0,550.0,0.0,0.0,0.0
19:37:16.224000,105.0,790.0,-305.0,-947.0,1.0,550.0,0.0,0.0,0.0
19:37:16.229000,73.0,781.0,-278.0,-913.0,-51.0,554.0,0.0,0.0,0.0
19:37:16.233000,61.0,780.0,-323.0,-913.0,-51.0,554.0,0.0,0.0,0.0
19:37:16.238000,53.0,770.0,-403.0,-971.0,-81.0,532.0,0.0,0.0,0.0
19:37:16.243000,44.0,752.0,-439.0,-971.0,-81.0,532.0,0.0,0.0,0.0
19:37:16.248000,45.0,735.0,-413.0,-941.0,-43.0,503.0,0.0,0.0,0.0
19:37:16.252000,45.0,735.0,-413.0,-941.0,-43.0,503.0,0.0,0.0,0.0
19:37:16.257000,59.0,711.0,-383.0,-835.0,-54.0,487.0,0.0,0.0,0.0
19:37:16.262000,74.0,686.0,-387.0,-835.0,-54.0,487.0,0.0,0.0,0.0
19:37:16.266000,79.0,657.0,-398.0,-805.0,-14.0,472.0,0.0,0.0,0.0
19:37:16.271000,51.0,634.0,-390.0,-805.0,-14.0,472.0,0.0,0.0,0.0
19:37:16.276000,18.0,613.0,-364.0,-837.0,25.0,462.0,0.0,0.0,0.0
19:37:16.281000,10.0,591.0,-336.0,-837.0,25.0,462.0,0.0,0.0,0.0
19:37:16.285000,1.0,563.0,-331.0,-861.0,36.0,458.0,0.0,0.0,0.0
19:37:16.290000,-20.0,548.0,-341.0,-861.0,36.0,458.0,0.0,0.0,0.0
19:37:16.294000,-40.0,529.0,-344.0,-857.0,37.0,456.0,0.0,0.0,0.0
19:37:16.299000,-49.0,515.0,-317.0,-857.0,37.0,456.0,0.0,0.0,0.0
19:37:16.304000,-45.0,500.0,-279.0,-838.0,62.0,448.0,0.0,0.0,0.0
19:37:16.309000,-40.0,483.0,-243.0,-838.0,62.0,448.0,0.0,0.0,0.0
19:37:16.313000,-15.0,469.0,-216.0,-838.0,90.0,431.0,0.0,0.0,0.0
19:37:16.318000,-4.0,460.0,-156.0,-825.0,90.0,431.0,0.0,0.0,0.0
19:37:16.323000,0.0,456.0,-103.0,-825.0,90.0,431.0,0.0,0.0,0.0
19:37:16.328000,15.0,459.0,-91.0,-844.0,104.0,415.0,0.0,0.0,0.0
19:37:16.332000,37.0,466.0,-58.0,-883.0,136.0,406.0,0.0,0.0,0.0
19:37:16.337000,60.0,481.0,-38.0,-883.0,136.0,406.0,0.0,0.0,0.0
19:37:16.342000,95.0,498.0,-35.0,-883.0,136.0,406.0,0.0,0.0,0.0
19:37:16.346000,133.0,518.0,10.0,-917.0,141.0,395.0,0.0,0.0,0.0
19:37:16.351000,175.0,541.0,101.0,-917.0,141.0,395.0,0.0,0.0,0.0
19:37:16.356000,219.0,567.0,187.0,-945.0,98.0,382.0,0.0,0.0,0.0
19:37:16.360000,257.0,602.0,234.0,-945.0,98.0,382.0,0.0,0.0,0.0
19:37:16.365000,257.0,602.0,234.0,-993.0,51.0,375.0,0.0,0.0,0.0
19:37:16.370000,304.0,639.0,252.0,-993.0,51.0,375.0,0.0,0.0,0.0
19:37:16.375000,362.0,669.0,261.0,-1012.0,20.0,375.0,0.0,0.0,0.0
19:37:16.379000,421.0,697.0,292.0,-1012.0,20.0,375.0,0.0,0.0,0.0
19:37:16.384000,473.0,726.0,352.0,-966.0,-25.0,379.0,0.0,0.0,0.0
19:37:16.389000,534.0,756.0,392.0,-966.0,-25.0,379.0,0.0,0.0,0.0
19:37:16.393000,598.0,795.0,396.0,-921.0,-60.0,382.0,0.0,0.0,0.0
19:37:16.398000,650.0,833.0,385.0,-921.0,-60.0,382.0,0.0,0.0,0.0
