hh:mm:ss.ms,gyroX[mdps],gyroY[mdps],gyroZ[mdps],accX[mg],accY[mg],accZ[mg],magX[mG],magY[mG],magZ[mG]
19:49:14.063000,-61.0,0.0,245.0,-1002.0,98.0,-176.0,697.0,-558.0,372.0
19:49:14.068000,-30.0,-12.0,244.0,-976.0,71.0,-154.0,708.0,-561.0,370.0
19:49:14.073000,1.0,-31.0,237.0,-946.0,73.0,-124.0,708.0,-561.0,370.0
19:49:14.077000,26.0,-58.0,228.0,-917.0,100.0,-86.0,702.0,-567.0,373.0
19:49:14.082000,39.0,-93.0,219.0,-898.0,145.0,-47.0,702.0,-567.0,373.0
19:49:14.086000,44.0,-137.0,203.0,-892.0,208.0,-8.0,702.0,-567.0,373.0
19:49:14.091000,37.0,-189.0,182.0,-901.0,290.0,25.0,703.0,-564.0,369.0
19:49:14.096000,16.0,-243.0,169.0,-936.0,371.0,50.0,703.0,-564.0,369.0
19:49:14.101000,-25.0,-289.0,172.0,-936.0,371.0,50.0,696.0,-564.0,376.0
19:49:14.106000,-77.0,-317.0,190.0,-1000.0,434.0,59.0,696.0,-564.0,376.0
19:49:14.110000,-123.0,-328.0,217.0,-1098.0,468.0,49.0,696.0,-564.0,376.0
19:49:14.115000,-159.0,-320.0,242.0,-1239.0,479.0,24.0,699.0,-564.0,372.0
19:49:14.120000,-175.0,-303.0,263.0,-1589.0,424.0,-17.0,699.0,-564.0,372.0
19:49:14.124000,-158.0,-280.0,284.0,-1589.0,424.0,-17.0,693.0,-567.0,366.0
19:49:14.129000,-109.0,-254.0,315.0,-1711.0,334.0,-28.0,693.0,-567.0,366.0
19:49:14.133000,-33.0,-228.0,361.0,-1765.0,226.0,-37.0,693.0,-567.0,366.0
19:49:14.138000,44.0,-206.0,407.0,-1771.0,164.0,-41.0,696.0,-564.0,363.0
19:49:14.143000,98.0,-181.0,438.0,-1749.0,194.0,-41.0,696.0,-564.0,363.0
19:49:14.148000,98.0,-181.0,438.0,-1708.0,298.0,-39.0,699.0,-561.0,360.0
19:49:14.153000,108.0,-154.0,450.0,-1648.0,412.0,-31.0,699.0,-561.0,360.0
19:49:14.157000,74.0,-126.0,441.0,-1556.0,479.0,-21.0,699.0,-561.0,360.0
19:49:14.162000,16.0,-98.0,406.0,-1429.0,482.0,-20.0,693.0,-568.0,367.0
19:49:14.167000,-44.0,-74.0,345.0,-1285.0,435.0,-30.0,693.0,-568.0,367.0
19:49:14.171000,-93.0,-51.0,272.0,-1161.0,373.0,-44.0,694.0,-574.0,354.0
19:49:14.176000,-126.0,-35.0,202.0,-1081.0,313.0,-59.0,694.0,-574.0,354.0
19:49:14.180000,-144.0,-23.0,144.0,-1043.0,261.0,-74.0,694.0,-574.0,354.0
19:49:14.185000,-146.0,-15.0,102.0,-1038.0,218.0,-95.0,702.0,-576.0,361.0
19:49:14.190000,-131.0,-9.0,77.0,-1055.0,191.0,-119.0,702.0,-576.0,361.0
19:49:14.195000,-108.0,-3.0,67.0,-1081.0,195.0,-137.0,697.0,-567.0,373.0
19:49:14.200000,-88.0,3.0,58.0,-1096.0,226.0,-138.0,697.0,-567.0,373.0
19:49:14.204000,-79.0,7.0,50.0,-1074.0,230.0,-120.0,697.0,-567.0,373.0
19:49:14.209000,-74.0,2.0,46.0,-992.0,150.0,-89.0,690.0,-573.0,361.0
19:49:14.214000,-54.0,-8.0,59.0,-870.0,-7.0,-53.0,690.0,-573.0,361.0
19:49:14.218000,-11.0,-21.0,86.0,-870.0,-7.0,-53.0,672.0,-562.0,387.0
19:49:14.223000,49.0,-35.0,98.0,-749.0,-181.0,-6.0,672.0,-562.0,387.0
19:49:14.227000,123.0,-46.0,92.0,-636.0,-334.0,43.0,672.0,-562.0,387.0
19:49:14.232000,194.0,-49.0,94.0,-531.0,-456.0,86.0,685.0,-568.0,361.0
19:49:14.237000,247.0,-43.0,102.0,-455.0,-529.0,127.0,685.0,-568.0,361.0
19:49:14.242000,284.0,-33.0,88.0,-418.0,-550.0,164.0,679.0,-567.0,375.0
19:49:14.247000,314.0,-26.0,69.0,-402.0,-544.0,190.0,679.0,-567.0,375.0
19:49:14.251000,314.0,-26.0,69.0,-407.0,-522.0,202.0,679.0,-567.0,375.0
19:49:14.256000,329.0,-34.0,124.0,-458.0,-470.0,204.0,678.0,-568.0,373.0
19:49:14.261000,329.0,-34.0,124.0,-563.0,-383.0,202.0,678.0,-568.0,373.0
19:49:14.265000,315.0,-52.0,175.0,-695.0,-294.0,185.0,676.0,-562.0,381.0
19:49:14.270000,290.0,-72.0,228.0,-825.0,-239.0,151.0,676.0,-562.0,381.0
19:49:14.274000,247.0,-88.0,309.0,-952.0,-216.0,108.0,676.0,-562.0,381.0
19:49:14.279000,172.0,-98.0,415.0,-1076.0,-201.0,60.0,676.0,-561.0,379.0
19:49:14.284000,67.0,-101.0,513.0,-1167.0,-204.0,9.0,676.0,-561.0,379.0
19:49:14.289000,-51.0,-103.0,579.0,-1201.0,-248.0,-36.0,667.0,-567.0,376.0
19:49:14.294000,-163.0,-109.0,619.0,-1199.0,-332.0,-81.0,667.0,-567.0,376.0
19:49:14.298000,-256.0,-119.0,642.0,-1204.0,-442.0,-132.0,667.0,-567.0,376.0
19:49:14.303000,-326.0,-124.0,662.0,-1250.0,-575.0,-198.0,679.0,-579.0,381.0
19:49:14.308000,-364.0,-114.0,683.0,-1335.0,-733.0,-276.0,679.0,-579.0,381.0
19:49:14.312000,-357.0,-90.0,693.0,-1335.0,-733.0,-276.0,646.0,-573.0,379.0
19:49:14.317000,-299.0,-63.0,700.0,-1426.0,-1115.0,-384.0,646.0,-573.0,379.0
19:49:14.321000,-189.0,-44.0,732.0,-1426.0,-1115.0,-384.0,646.0,-573.0,379.0
19:49:14.326000,-44.0,-39.0,808.0,-1358.0,-1256.0,-398.0,657.0,-582.0,381.0
19:49:14.331000,105.0,-48.0,905.0,-1233.0,-1273.0,-397.0,657.0,-582.0,381.0
19:49:14.336000,227.0,-81.0,981.0,-1097.0,-1133.0,-381.0,645.0,-589.0,385.0
19:49:14.341000,301.0,-133.0,1024.0,-973.0,-886.0,-342.0,645.0,-589.0,385.0
19:49:14.345000,323.0,-219.0,1059.0,-853.0,-629.0,-264.0,645.0,-589.0,385.0
19:49:14.350000,311.0,-332.0,1113.0,-704.0,-428.0,-173.0,646.0,-591.0,391.0
19:49:14.355000,280.0,-459.0,1219.0,-525.0,-288.0,-109.0,646.0,-591.0,391.0
19:49:14.359000,224.0,-583.0,1375.0,-388.0,-151.0,-60.0,652.0,-598.0,375.0
19:49:14.364000,123.0,-695.0,1542.0,-366.0,24.0,-7.0,652.0,-598.0,375.0
19:49:14.368000,123.0,-695.0,1542.0,-428.0,165.0,43.0,652.0,-598.0,375.0
19:49:14.373000,-2.0,-789.0,1720.0,-460.0,146.0,78.0,633.0,-610.0,376.0
19:49:14.378000,-126.0,-860.0,1948.0,-407.0,-13.0,92.0,633.0,-610.0,376.0
19:49:14.383000,-221.0,-909.0,2219.0,-316.0,-167.0,93.0,631.0,-627.0,370.0
19:49:14.388000,-282.0,-938.0,2470.0,-248.0,-229.0,88.0,631.0,-627.0,370.0
19:49:14.395000,-336.0,-952.0,2813.0,-223.0,-254.0,67.0,613.0,-640.0,361.0
19:49:14.397000,-336.0,-952.0,2813.0,-223.0,-254.0,67.0,613.0,-640.0,361.0
19:49:14.401000,-337.0,-945.0,2943.0,-206.0,-341.0,56.0,613.0,-640.0,361.0
19:49:14.406000,-313.0,-926.0,3081.0,-156.0,-472.0,48.0,607.0,-655.0,358.0
19:49:14.411000,-267.0,-895.0,3240.0,-78.0,-571.0,51.0,607.0,-655.0,358.0
19:49:14.416000,-215.0,-852.0,3403.0,-78.0,-571.0,51.0,591.0,-664.0,345.0
19:49:14.420000,-171.0,-798.0,3542.0,115.0,-511.0,103.0,591.0,-664.0,345.0
19:49:14.424000,-144.0,-739.0,3635.0,212.0,-372.0,145.0,591.0,-664.0,345.0
19:49:14.430000,-140.0,-676.0,3674.0,212.0,-372.0,145.0,565.0,-706.0,342.0
19:49:14.434000,-152.0,-613.0,3668.0,411.0,-156.0,224.0,565.0,-706.0,342.0
19:49:14.439000,-172.0,-552.0,3669.0,411.0,-156.0,224.0,522.0,-727.0,349.0
19:49:14.444000,-182.0,-494.0,3741.0,546.0,-203.0,240.0,522.0,-727.0,349.0
19:49:14.448000,-169.0,-447.0,3897.0,675.0,-335.0,233.0,522.0,-727.0,349.0
19:49:14.453000,-133.0,-408.0,4099.0,736.0,-467.0,200.0,516.0,-741.0,334.0
19:49:14.458000,-86.0,-369.0,4295.0,691.0,-554.0,144.0,516.0,-741.0,334.0
19:49:14.463000,-38.0,-325.0,4463.0,579.0,-630.0,89.0,486.0,-765.0,330.0
19:49:14.467000,23.0,-277.0,4617.0,508.0,-764.0,30.0,486.0,-765.0,330.0
19:49:14.471000,23.0,-277.0,4617.0,557.0,-943.0,-38.0,486.0,-765.0,330.0
19:49:14.477000,107.0,-233.0,4771.0,686.0,-1022.0,-107.0,463.0,-769.0,339.0
19:49:14.481000,193.0,-209.0,4897.0,776.0,-867.0,-167.0,463.0,-769.0,339.0
19:49:14.486000,254.0,-211.0,4924.0,750.0,-514.0,-211.0,418.0,-795.0,327.0
19:49:14.491000,279.0,-244.0,4817.0,613.0,-103.0,-237.0,418.0,-795.0,327.0
19:49:14.495000,277.0,-300.0,4603.0,395.0,249.0,-240.0,418.0,-795.0,327.0
19:49:14.500000,257.0,-370.0,4327.0,139.0,474.0,-229.0,354.0,-814.0,342.0
19:49:14.505000,228.0,-439.0,4043.0,-101.0,537.0,-211.0,354.0,-814.0,342.0
19:49:14.510000,193.0,-497.0,3804.0,-282.0,460.0,-184.0,318.0,-817.0,333.0
19:49:14.514000,156.0,-533.0,3640.0,-388.0,325.0,-146.0,318.0,-817.0,333.0
19:49:14.518000,116.0,-550.0,3528.0,-432.0,235.0,-103.0,318.0,-817.0,333.0
19:49:14.524000,65.0,-545.0,3441.0,-442.0,248.0,-74.0,298.0,-822.0,339.0
19:49:14.528000,-11.0,-510.0,3350.0,-467.0,354.0,-52.0,298.0,-822.0,339.0
19:49:14.533000,-137.0,-441.0,3222.0,-467.0,354.0,-52.0,265.0,-817.0,345.0
19:49:14.538000,-294.0,-345.0,3038.0,-512.0,469.0,-63.0,265.0,-817.0,345.0
19:49:14.542000,-431.0,-246.0,2817.0,-518.0,469.0,-63.0,265.0,-817.0,345.0
19:49:14.547000,-489.0,-186.0,2605.0,-436.0,318.0,-120.0,247.0,-820.0,349.0
19:49:14.552000,-450.0,-172.0,2411.0,-306.0,97.0,-198.0,247.0,-820.0,349.0
19:49:14.557000,-334.0,-177.0,2218.0,-218.0,-69.0,-275.0,225.0,-828.0,334.0
19:49:14.561000,-178.0,-181.0,2062.0,-222.0,-151.0,-341.0,225.0,-828.0,334.0
19:49:14.565000,-19.0,-186.0,2001.0,-299.0,-203.0,-387.0,225.0,-828.0,334.0
19:49:14.571000,118.0,-186.0,2016.0,-419.0,-241.0,-412.0,181.0,-825.0,351.0
19:49:14.575000,219.0,-165.0,2038.0,-552.0,-213.0,-437.0,181.0,-825.0,351.0
19:49:14.580000,269.0,-132.0,2027.0,-665.0,-82.0,-450.0,174.0,-814.0,339.0
19:49:14.585000,269.0,-132.0,2027.0,-731.0,122.0,-432.0,174.0,-814.0,339.0
19:49:14.589000,268.0,-98.0,1972.0,-721.0,330.0,-394.0,174.0,-814.0,339.0
19:49:14.594000,230.0,-72.0,1871.0,-635.0,498.0,-354.0,163.0,-807.0,343.0
19:49:14.599000,178.0,-56.0,1717.0,-514.0,621.0,-313.0,163.0,-807.0,343.0
19:49:14.604000,121.0,-48.0,1516.0,-409.0,688.0,-264.0,154.0,-804.0,348.0
19:49:14.608000,66.0,-42.0,1300.0,-324.0,670.0,-217.0,154.0,-804.0,348.0
19:49:14.612000,30.0,-38.0,1106.0,-246.0,559.0,-183.0,154.0,-804.0,348.0
19:49:14.618000,29.0,-39.0,963.0,-183.0,401.0,-160.0,147.0,-799.0,364.0
19:49:14.622000,56.0,-37.0,878.0,-159.0,260.0,-139.0,147.0,-799.0,364.0
19:49:14.627000,101.0,-27.0,834.0,-165.0,177.0,-111.0,136.0,-801.0,357.0
19:49:14.632000,148.0,-8.0,802.0,-154.0,147.0,-76.0,136.0,-801.0,357.0
19:49:14.636000,182.0,11.0,778.0,-100.0,155.0,-40.0,136.0,-801.0,357.0
19:49:14.641000,191.0,27.0,758.0,-28.0,208.0,-5.0,130.0,-789.0,367.0
19:49:14.646000,164.0,40.0,725.0,28.0,294.0,41.0,130.0,-789.0,367.0
19:49:14.651000,99.0,50.0,658.0,28.0,294.0,41.0,123.0,-784.0,369.0
19:49:14.655000,15.0,51.0,561.0,77.0,352.0,94.0,123.0,-784.0,369.0
19:49:14.663000,-61.0,48.0,462.0,194.0,153.0,133.0,120.0,-774.0,376.0
19:49:14.665000,-112.0,54.0,399.0,194.0,153.0,133.0,120.0,-774.0,376.0
19:49:14.669000,-138.0,77.0,359.0,202.0,-44.0,91.0,120.0,-774.0,376.0
19:49:14.674000,-155.0,97.0,284.0,133.0,-197.0,57.0,114.0,-787.0,369.0
19:49:14.679000,-155.0,113.0,160.0,41.0,-281.0,48.0,114.0,-787.0,369.0
19:49:14.684000,-154.0,128.0,40.0,-1.0,-355.0,31.0,129.0,-777.0,375.0
19:49:14.688000,-142.0,142.0,-62.0,5.0,-462.0,10.0,129.0,-777.0,375.0
19:49:14.692000,-142.0,142.0,-62.0,32.0,-602.0,-15.0,129.0,-777.0,375.0
19:49:14.697000,-102.0,146.0,-162.0,89.0,-770.0,-38.0,117.0,-769.0,370.0
19:49:14.702000,-30.0,138.0,-252.0,180.0,-943.0,-66.0,117.0,-769.0,370.0
19:49:14.706000,70.0,123.0,-316.0,248.0,-1071.0,-91.0,123.0,-766.0,373.0
19:49:14.712000,188.0,106.0,-380.0,239.0,-1126.0,-105.0,123.0,-766.0,373.0
19:49:14.716000,315.0,94.0,-487.0,160.0,-1122.0,-97.0,123.0,-766.0,373.0
19:49:14.721000,431.0,91.0,-644.0,70.0,-1126.0,-56.0,127.0,-768.0,394.0
19:49:14.726000,539.0,95.0,-828.0,51.0,-1191.0,-14.0,127.0,-768.0,394.0
19:49:14.731000,662.0,103.0,-994.0,121.0,-1266.0,3.0,144.0,-751.0,393.0
19:49:14.735000,798.0,118.0,-1106.0,185.0,-1213.0,21.0,144.0,-751.0,393.0
19:49:14.739000,908.0,135.0,-1213.0,136.0,-953.0,64.0,144.0,-751.0,393.0
19:49:14.745000,963.0,153.0,-1407.0,17.0,-620.0,127.0,145.0,-762.0,396.0
19:49:14.749000,966.0,164.0,-1695.0,-18.0,-364.0,200.0,145.0,-762.0,396.0
19:49:14.754000,977.0,159.0,-2046.0,-18.0,-364.0,200.0,159.0,-754.0,415.0
19:49:14.759000,1033.0,140.0,-2247.0,126.0,-290.0,249.0,159.0,-754.0,415.0
19:49:14.763000,1005.0,114.0,-2317.0,328.0,-314.0,307.0,159.0,-754.0,415.0
19:49:14.768000,875.0,78.0,-2195.0,474.0,-349.0,401.0,172.0,-751.0,415.0
19:49:14.773000,688.0,79.0,-1978.0,527.0,-430.0,455.0,172.0,-751.0,415.0
19:49:14.778000,784.0,0.0,-1561.0,527.0,-737.0,401.0,180.0,-738.0,412.0
19:49:14.782000,1425.0,1544.0,69.0,1797.0,-2074.0,-780.0,180.0,-738.0,412.0
19:49:14.786000,-1597.0,2014.0,5878.0,3524.0,-3539.0,-642.0,180.0,-738.0,412.0
19:49:14.792000,1826.0,-10803.0,-10294.0,1837.0,-783.0,1649.0,175.0,-735.0,430.0
19:49:14.796000,4386.0,-7546.0,-22092.0,-2157.0,2604.0,1084.0,175.0,-735.0,430.0
19:49:14.801000,4778.0,-1115.0,-9652.0,-3675.0,1277.0,-1900.0,322.0,-703.0,463.0
19:49:14.806000,4778.0,-1115.0,-9652.0,-875.0,-1831.0,-2120.0,322.0,-703.0,463.0
19:49:14.810000,-1246.0,3759.0,6555.0,-351.0,-1332.0,1310.0,322.0,-703.0,463.0
19:49:14.815000,-3888.0,2067.0,5656.0,-2689.0,1189.0,896.0,310.0,-703.0,453.0
19:49:14.820000,-296.0,1662.0,-421.0,-1378.0,-500.0,-743.0,310.0,-703.0,453.0
19:49:14.825000,732.0,1673.0,-914.0,1040.0,-3132.0,718.0,298.0,-702.0,454.0
19:49:14.829000,-182.0,1368.0,995.0,1141.0,-2690.0,668.0,298.0,-702.0,454.0
19:49:14.833000,429.0,1024.0,154.0,192.0,-1692.0,254.0,298.0,-702.0,454.0
19:49:14.839000,965.0,724.0,-1339.0,-226.0,-1475.0,224.0,280.0,-693.0,450.0
19:49:14.843000,924.0,743.0,-1642.0,-26.0,-1577.0,41.0,280.0,-693.0,450.0
19:49:14.848000,455.0,936.0,-883.0,129.0,-1691.0,114.0,291.0,-687.0,465.0
19:49:14.853000,86.0,794.0,-1016.0,-180.0,-1264.0,284.0,291.0,-687.0,465.0
19:49:14.857000,29.0,770.0,-982.0,-495.0,-1317.0,147.0,291.0,-687.0,465.0
19:49:14.862000,-33.0,704.0,-1244.0,-376.0,-1646.0,13.0,300.0,-682.0,465.0
19:49:14.867000,-247.0,634.0,-1327.0,-376.0,-1646.0,13.0,300.0,-682.0,465.0
19:49:14.872000,-194.0,499.0,-1296.0,-147.0,-1956.0,14.0,298.0,-673.0,466.0
19:49:14.876000,-304.0,384.0,-1360.0,-149.0,-1986.0,-27.0,298.0,-673.0,466.0
19:49:14.884000,-312.0,352.0,-1696.0,-283.0,-1557.0,-107.0,301.0,-670.0,477.0
19:49:14.886000,-539.0,310.0,-2091.0,-283.0,-1557.0,-107.0,301.0,-670.0,477.0
19:49:14.890000,-364.0,242.0,-2248.0,-405.0,-2062.0,349.0,301.0,-670.0,477.0
19:49:14.895000,-109.0,344.0,-2063.0,-341.0,-2684.0,-100.0,316.0,-663.0,462.0
19:49:14.900000,-119.0,495.0,-2104.0,-362.0,-2548.0,-380.0,316.0,-663.0,462.0
19:49:14.904000,-155.0,227.0,-2088.0,-596.0,-2484.0,289.0,312.0,-670.0,460.0
19:49:14.909000,63.0,386.0,-2233.0,-363.0,-2501.0,0.0,312.0,-670.0,460.0
19:49:14.913000,63.0,386.0,-2233.0,-209.0,-2459.0,-124.0,312.0,-670.0,460.0
19:49:14.919000,-137.0,203.0,-2209.0,-355.0,-2739.0,-22.0,328.0,-658.0,466.0
19:49:14.933000,168.0,22.0,-2390.0,-30.0,-2348.0,-71.0,331.0,-646.0,486.0
19:49:14.937000,58.0,-92.0,-2643.0,306.0,-2113.0,-106.0,331.0,-646.0,486.0
19:49:14.942000,-232.0,-401.0,-2609.0,378.0,-2233.0,-206.0,331.0,-646.0,486.0
19:49:14.946000,-87.0,-557.0,-2758.0,134.0,-2638.0,-289.0,331.0,-646.0,486.0
19:49:14.951000,-152.0,-706.0,-2825.0,-218.0,-2767.0,-273.0,363.0,-634.0,468.0
19:49:14.956000,-172.0,-632.0,-2907.0,-570.0,-2466.0,-385.0,363.0,-634.0,468.0
19:49:14.961000,-116.0,-614.0,-2918.0,-762.0,-2741.0,-302.0,372.0,-630.0,462.0
19:49:14.966000,162.0,-535.0,-2634.0,-707.0,-3081.0,-264.0,372.0,-630.0,462.0
19:49:14.970000,-52.0,-491.0,-2524.0,-623.0,-2830.0,-542.0,372.0,-630.0,462.0
19:49:14.975000,238.0,-376.0,-2622.0,-804.0,-2988.0,-564.0,400.0,-609.0,453.0
19:49:14.980000,520.0,-448.0,-2529.0,-804.0,-2988.0,-564.0,400.0,-609.0,453.0
19:49:14.984000,661.0,-365.0,-2192.0,-868.0,-3092.0,-358.0,406.0,-612.0,459.0
19:49:14.989000,888.0,-153.0,-2041.0,-904.0,-2943.0,-638.0,406.0,-612.0,459.0
19:49:14.993000,938.0,-273.0,-2310.0,-1175.0,-2906.0,-457.0,406.0,-612.0,459.0
19:49:14.998000,1054.0,-290.0,-2212.0,-1024.0,-2668.0,-330.0,421.0,-588.0,465.0
19:49:15.003000,1185.0,-157.0,-1938.0,-547.0,-2574.0,-646.0,421.0,-588.0,465.0
19:49:15.008000,1443.0,-330.0,-1977.0,-461.0,-2689.0,-476.0,436.0,-582.0,469.0
19:49:15.013000,1153.0,-576.0,-2468.0,-706.0,-2521.0,-63.0,436.0,-582.0,469.0
19:49:15.017000,1153.0,-576.0,-2468.0,-747.0,-2034.0,-297.0,436.0,-582.0,469.0
19:49:15.022000,1073.0,-731.0,-2540.0,-406.0,-1644.0,-336.0,433.0,-559.0,471.0
19:49:15.027000,1073.0,-731.0,-2540.0,-286.0,-1877.0,-85.0,433.0,-559.0,471.0
19:49:15.031000,816.0,-814.0,-1953.0,-653.0,-2004.0,-305.0,451.0,-547.0,471.0
19:49:15.036000,870.0,-785.0,-2298.0,-1242.0,-2096.0,-366.0,451.0,-547.0,471.0
19:49:15.040000,1066.0,-917.0,-2513.0,-987.0,-1940.0,-141.0,451.0,-547.0,471.0
19:49:15.045000,782.0,-980.0,-2368.0,-409.0,-1487.0,-103.0,471.0,-529.0,466.0
19:49:15.050000,324.0,-767.0,-2152.0,-398.0,-1876.0,-169.0,471.0,-529.0,466.0
19:49:15.054000,6.0,-789.0,-1953.0,-503.0,-2035.0,-131.0,477.0,-514.0,469.0
19:49:15.060000,-135.0,-764.0,-2171.0,-687.0,-1851.0,-265.0,477.0,-514.0,469.0
19:49:15.064000,-29.0,-730.0,-2294.0,-821.0,-2121.0,-264.0,477.0,-514.0,469.0
19:49:15.069000,21.0,-781.0,-2258.0,-1178.0,-2287.0,-357.0,496.0,-501.0,463.0
19:49:15.074000,259.0,-540.0,-2223.0,-1299.0,-2365.0,-546.0,496.0,-501.0,463.0
19:49:15.078000,237.0,-186.0,-1999.0,-1299.0,-2365.0,-546.0,499.0,-499.0,459.0
19:49:15.083000,380.0,-184.0,-1662.0,-701.0,-2706.0,-331.0,499.0,-499.0,459.0
19:49:15.087000,481.0,-89.0,-1304.0,-701.0,-2706.0,-331.0,499.0,-499.0,459.0
19:49:15.092000,367.0,-72.0,-1719.0,-866.0,-2374.0,-246.0,510.0,-495.0,457.0
19:49:15.097000,436.0,-312.0,-2112.0,-519.0,-1476.0,-112.0,510.0,-495.0,457.0
19:49:15.102000,611.0,-549.0,-2786.0,-519.0,-1476.0,-112.0,508.0,-475.0,453.0
19:49:15.107000,452.0,-468.0,-2921.0,-359.0,-1492.0,-188.0,508.0,-475.0,453.0
19:49:15.111000,268.0,-514.0,-2839.0,-469.0,-1511.0,-106.0,501.0,-466.0,460.0
19:49:15.116000,225.0,-560.0,-2629.0,-479.0,-1579.0,-87.0,501.0,-466.0,460.0
19:49:15.120000,225.0,-560.0,-2629.0,-501.0,-1732.0,-256.0,501.0,-466.0,460.0
19:49:15.125000,45.0,-562.0,-2389.0,-870.0,-1554.0,-204.0,519.0,-441.0,463.0
19:49:15.130000,86.0,-591.0,-2569.0,-1090.0,-1464.0,-119.0,519.0,-441.0,463.0
19:49:15.135000,86.0,-591.0,-2569.0,-929.0,-1539.0,-292.0,525.0,-421.0,450.0
19:49:15.139000,165.0,-485.0,-2596.0,-708.0,-1419.0,-364.0,525.0,-421.0,450.0
19:49:15.144000,236.0,-493.0,-2450.0,-628.0,-1280.0,-219.0,525.0,-421.0,450.0
19:49:15.149000,156.0,-506.0,-2215.0,-681.0,-1325.0,-171.0,520.0,-415.0,454.0
19:49:15.154000,116.0,-420.0,-2144.0,-524.0,-1413.0,-281.0,520.0,-415.0,454.0
19:49:15.158000,191.0,-434.0,-1832.0,-302.0,-1351.0,-82.0,534.0,-397.0,453.0
19:49:15.163000,109.0,-604.0,-1591.0,-563.0,-1203.0,-38.0,534.0,-397.0,453.0
19:49:15.167000,114.0,-542.0,-1610.0,-857.0,-1110.0,-212.0,534.0,-397.0,453.0
19:49:15.172000,96.0,-523.0,-1781.0,-972.0,-1072.0,-190.0,540.0,-396.0,451.0
19:49:15.177000,56.0,-471.0,-1800.0,-1159.0,-1110.0,-236.0,540.0,-396.0,451.0
19:49:15.181000,22.0,-266.0,-1816.0,-1151.0,-1108.0,-255.0,538.0,-378.0,463.0
19:49:15.186000,55.0,-171.0,-1848.0,-810.0,-1132.0,-145.0,538.0,-378.0,463.0
19:49:15.191000,-2.0,-236.0,-1478.0,-807.0,-1059.0,-92.0,538.0,-378.0,463.0
19:49:15.196000,-82.0,-130.0,-1337.0,-807.0,-1059.0,-92.0,544.0,-373.0,444.0
19:49:15.201000,-82.0,-178.0,-1283.0,-1030.0,-1010.0,-94.0,544.0,-373.0,444.0
19:49:15.205000,-141.0,-61.0,-938.0,-869.0,-962.0,-85.0,543.0,-352.0,442.0
19:49:15.210000,-157.0,-18.0,-611.0,-829.0,-846.0,-74.0,543.0,-352.0,442.0
19:49:15.214000,-37.0,581.0,1077.0,-905.0,-1056.0,-157.0,543.0,-352.0,442.0
19:49:15.219000,-91.0,909.0,4807.0,-1072.0,-2392.0,-387.0,549.0,-357.0,439.0
19:49:15.224000,-186.0,432.0,2200.0,-2355.0,-1724.0,-90.0,549.0,-357.0,439.0
19:49:15.229000,244.0,294.0,-1558.0,-2730.0,523.0,-10.0,537.0,-385.0,445.0
19:49:15.233000,-89.0,159.0,-2019.0,-1067.0,106.0,-6.0,537.0,-385.0,445.0
19:49:15.238000,-89.0,159.0,-2019.0,146.0,-874.0,151.0,537.0,-385.0,445.0
19:49:15.243000,-441.0,348.0,-471.0,193.0,-1508.0,-143.0,535.0,-378.0,447.0
19:49:15.248000,-572.0,614.0,1568.0,-623.0,-1325.0,-199.0,535.0,-378.0,447.0
19:49:15.252000,-436.0,455.0,1362.0,-1130.0,-732.0,-120.0,532.0,-372.0,445.0
19:49:15.257000,-597.0,517.0,700.0,-1009.0,-829.0,-119.0,532.0,-372.0,445.0
19:49:15.261000,-617.0,638.0,72.0,-697.0,-1095.0,-145.0,532.0,-372.0,445.0
19:49:15.266000,-389.0,524.0,74.0,-503.0,-1298.0,-231.0,537.0,-382.0,457.0
19:49:15.271000,-338.0,600.0,107.0,-626.0,-900.0,-193.0,537.0,-382.0,457.0
19:49:15.276000,-263.0,506.0,-261.0,-599.0,-462.0,-201.0,534.0,-394.0,454.0
19:49:15.280000,-200.0,606.0,-629.0,-498.0,-405.0,-163.0,534.0,-394.0,454.0
19:49:15.285000,-131.0,438.0,-607.0,-454.0,-682.0,-86.0,534.0,-394.0,454.0
19:49:15.290000,-14.0,261.0,-315.0,-485.0,-851.0,-96.0,525.0,-388.0,457.0
19:49:15.295000,-127.0,201.0,-429.0,-541.0,-788.0,-34.0,525.0,-388.0,457.0
19:49:15.299000,-96.0,-9.0,-696.0,-541.0,-788.0,-34.0,529.0,-387.0,450.0
19:49:15.304000,19.0,32.0,-707.0,-552.0,-816.0,-164.0,529.0,-387.0,450.0
19:49:15.308000,-63.0,87.0,-541.0,-1009.0,-747.0,-147.0,529.0,-387.0,450.0
19:49:15.313000,-185.0,-20.0,-517.0,-1009.0,-747.0,-147.0,529.0,-381.0,462.0
19:49:15.318000,-196.0,106.0,-463.0,-1066.0,-485.0,-235.0,529.0,-381.0,462.0
19:49:15.323000,-287.0,39.0,-115.0,-928.0,-544.0,-259.0,538.0,-382.0,453.0
19:49:15.327000,-298.0,48.0,191.0,-720.0,-740.0,-187.0,538.0,-382.0,453.0
19:49:15.332000,-242.0,30.0,261.0,-595.0,-854.0,-246.0,538.0,-382.0,453.0
19:49:15.337000,-67.0,98.0,0.0,-729.0,-910.0,-289.0,529.0,-384.0,450.0
19:49:15.342000,40.0,73.0,-460.0,-822.0,-802.0,-328.0,529.0,-384.0,450.0
19:49:15.346000,-9.0,-79.0,-472.0,-695.0,-719.0,-172.0,528.0,-381.0,456.0
19:49:15.351000,-9.0,-79.0,-472.0,-626.0,-770.0,-191.0,528.0,-381.0,456.0
19:49:15.358000,7.0,-154.0,-214.0,-659.0,-792.0,-85.0,520.0,-381.0,460.0
19:49:15.360000,7.0,-154.0,-214.0,-659.0,-792.0,-85.0,520.0,-381.0,460.0
19:49:15.364000,-134.0,-294.0,-175.0,-732.0,-730.0,-173.0,520.0,-381.0,460.0
19:49:15.370000,-221.0,-212.0,-28.0,-1048.0,-807.0,-234.0,531.0,-381.0,459.0
19:49:15.374000,-262.0,-227.0,-17.0,-1265.0,-749.0,-315.0,531.0,-381.0,459.0
19:49:15.379000,-9.0,-44.0,-154.0,-1174.0,-773.0,-401.0,531.0,-379.0,454.0
19:49:15.384000,2.0,54.0,-124.0,-1002.0,-917.0,-221.0,531.0,-379.0,454.0
19:49:15.388000,-115.0,55.0,46.0,-856.0,-836.0,-152.0,531.0,-379.0,454.0
19:49:15.393000,-54.0,4.0,32.0,-831.0,-754.0,-178.0,529.0,-381.0,468.0
19:49:15.398000,-56.0,-44.0,9.0,-814.0,-764.0,-161.0,529.0,-381.0,468.0
19:49:15.403000,-220.0,-14.0,-81.0,-814.0,-764.0,-161.0,532.0,-372.0,456.0
19:49:15.407000,-203.0,-31.0,-158.0,-804.0,-638.0,-110.0,532.0,-372.0,456.0
19:49:15.411000,-188.0,-51.0,-212.0,-812.0,-760.0,-160.0,532.0,-372.0,456.0
19:49:15.417000,-206.0,19.0,5.0,-812.0,-760.0,-160.0,531.0,-381.0,460.0
19:49:15.421000,-319.0,-9.0,282.0,-866.0,-790.0,-114.0,531.0,-381.0,460.0
19:49:15.426000,-303.0,66.0,486.0,-915.0,-643.0,-80.0,532.0,-384.0,462.0
19:49:15.431000,-123.0,82.0,430.0,-958.0,-613.0,-174.0,532.0,-384.0,462.0
19:49:15.435000,-135.0,123.0,161.0,-1046.0,-778.0,-163.0,532.0,-384.0,462.0
19:49:15.440000,-131.0,189.0,-198.0,-1061.0,-771.0,-163.0,528.0,-388.0,451.0
19:49:15.445000,135.0,146.0,-303.0,-983.0,-683.0,-181.0,528.0,-388.0,451.0
19:49:15.450000,238.0,119.0,-176.0,-860.0,-832.0,-158.0,529.0,-384.0,478.0
19:49:15.454000,130.0,21.0,-39.0,-822.0,-995.0,-79.0,529.0,-384.0,478.0
19:49:15.458000,130.0,21.0,-39.0,-781.0,-945.0,-95.0,529.0,-384.0,478.0
19:49:15.464000,44.0,111.0,-40.0,-801.0,-830.0,-106.0,517.0,-378.0,459.0
19:49:15.468000,-32.0,109.0,44.0,-828.0,-797.0,-52.0,517.0,-378.0,459.0
19:49:15.473000,-114.0,54.0,171.0,-848.0,-698.0,-40.0,529.0,-387.0,460.0
19:49:15.478000,-238.0,-6.0,5.0,-760.0,-627.0,-26.0,529.0,-387.0,460.0
19:49:15.482000,-131.0,-32.0,44.0,-829.0,-688.0,-110.0,529.0,-387.0,460.0
19:49:15.487000,81.0,9.0,37.0,-1186.0,-727.0,-142.0,525.0,-390.0,468.0
19:49:15.492000,-33.0,90.0,-303.0,-1194.0,-806.0,-88.0,525.0,-390.0,468.0
19:49:15.497000,-3.0,118.0,-388.0,-953.0,-893.0,-69.0,528.0,-391.0,451.0
19:49:15.501000,247.0,19.0,-242.0,-858.0,-812.0,-97.0,528.0,-391.0,451.0
19:49:15.505000,325.0,29.0,-215.0,-870.0,-694.0,-108.0,528.0,-391.0,451.0
19:49:15.511000,176.0,56.0,-278.0,-808.0,-620.0,-25.0,529.0,-381.0,457.0
19:49:15.515000,37.0,-21.0,-267.0,-780.0,-547.0,-7.0,529.0,-381.0,457.0
19:49:15.520000,21.0,-34.0,-350.0,-780.0,-547.0,-7.0,525.0,-385.0,453.0
19:49:15.525000,88.0,-37.0,-431.0,-826.0,-485.0,-46.0,525.0,-385.0,453.0
19:49:15.529000,133.0,-41.0,-441.0,-801.0,-553.0,-93.0,525.0,-385.0,453.0
19:49:15.534000,61.0,-174.0,-270.0,-730.0,-752.0,-22.0,522.0,-390.0,459.0
19:49:15.539000,-8.0,-91.0,-49.0,-666.0,-851.0,-18.0,522.0,-390.0,459.0
19:49:15.544000,-32.0,-53.0,-139.0,-794.0,-790.0,-110.0,513.0,-379.0,465.0
19:49:15.548000,60.0,-128.0,-450.0,-994.0,-586.0,-66.0,513.0,-379.0,465.0
19:49:15.552000,211.0,-135.0,-648.0,-983.0,-431.0,-85.0,513.0,-379.0,465.0
19:49:15.558000,197.0,-89.0,-676.0,-854.0,-487.0,-104.0,526.0,-384.0,466.0
19:49:15.562000,101.0,-70.0,-665.0,-769.0,-614.0,-49.0,526.0,-384.0,466.0
19:49:15.567000,50.0,-88.0,-401.0,-718.0,-801.0,-7.0,529.0,-373.0,466.0
19:49:15.572000,50.0,-88.0,-401.0,-770.0,-977.0,-60.0,529.0,-373.0,466.0
19:49:15.576000,-31.0,11.0,-114.0,-1024.0,-847.0,-32.0,529.0,-373.0,466.0
19:49:15.581000,-125.0,-30.0,-284.0,-1169.0,-560.0,14.0,535.0,-370.0,472.0
19:49:15.586000,-110.0,-74.0,-557.0,-1028.0,-498.0,-18.0,535.0,-370.0,472.0
19:49:15.591000,-131.0,-46.0,-490.0,-880.0,-545.0,-42.0,525.0,-372.0,465.0
19:49:15.595000,-154.0,65.0,-303.0,-938.0,-615.0,-26.0,525.0,-372.0,465.0
19:49:15.599000,-176.0,50.0,-209.0,-1046.0,-639.0,-18.0,525.0,-372.0,465.0
19:49:15.605000,-127.0,30.0,-291.0,-1021.0,-653.0,-52.0,528.0,-372.0,457.0
19:49:15.609000,-86.0,46.0,-275.0,-948.0,-725.0,-50.0,528.0,-372.0,457.0
19:49:15.614000,-91.0,70.0,-294.0,-918.0,-735.0,-31.0,528.0,-369.0,463.0
19:49:15.619000,-46.0,16.0,-412.0,-888.0,-647.0,-30.0,528.0,-369.0,463.0
19:49:15.623000,-8.0,14.0,-478.0,-831.0,-518.0,-78.0,526.0,-366.0,465.0
19:49:15.628000,12.0,59.0,-483.0,-831.0,-518.0,-78.0,526.0,-366.0,465.0
19:49:15.632000,-74.0,56.0,-470.0,-785.0,-492.0,-48.0,526.0,-366.0,465.0
19:49:15.638000,-98.0,51.0,-450.0,-732.0,-549.0,-22.0,520.0,-363.0,474.0
19:49:15.642000,-34.0,37.0,-464.0,-742.0,-567.0,-73.0,520.0,-363.0,474.0
19:49:15.647000,-22.0,-2.0,-424.0,-796.0,-607.0,-82.0,534.0,-361.0,463.0
19:49:15.652000,-21.0,-9.0,-434.0,-825.0,-633.0,-82.0,534.0,-361.0,463.0
19:49:15.656000,-3.0,23.0,-479.0,-892.0,-605.0,-127.0,534.0,-361.0,463.0
19:49:15.661000,9.0,23.0,-504.0,-934.0,-597.0,-135.0,526.0,-355.0,469.0
19:49:15.666000,19.0,18.0,-540.0,-919.0,-602.0,-133.0,526.0,-355.0,469.0
19:49:15.671000,46.0,-65.0,-635.0,-894.0,-566.0,-127.0,517.0,-367.0,483.0
19:49:15.675000,64.0,-74.0,-667.0,-807.0,-479.0,-128.0,517.0,-367.0,483.0
19:49:15.679000,64.0,-74.0,-667.0,-763.0,-435.0,-127.0,517.0,-367.0,483.0
19:49:15.685000,32.0,-87.0,-667.0,-812.0,-421.0,-117.0,528.0,-361.0,469.0
19:49:15.689000,-11.0,-62.0,-734.0,-848.0,-434.0,-104.0,528.0,-361.0,469.0
19:49:15.694000,-14.0,-99.0,-777.0,-827.0,-517.0,-77.0,525.0,-351.0,466.0
19:49:15.699000,-18.0,-139.0,-632.0,-787.0,-610.0,-116.0,525.0,-351.0,466.0
19:49:15.703000,-7.0,-120.0,-428.0,-871.0,-621.0,-132.0,525.0,-351.0,466.0
19:49:15.708000,13.0,-101.0,-374.0,-999.0,-579.0,-129.0,525.0,-342.0,463.0
19:49:15.713000,-2.0,-61.0,-406.0,-1089.0,-499.0,-137.0,525.0,-342.0,463.0
19:49:15.718000,-10.0,-27.0,-480.0,-1106.0,-425.0,-125.0,534.0,-358.0,472.0
19:49:15.722000,-8.0,-21.0,-511.0,-1041.0,-440.0,-92.0,534.0,-358.0,472.0
19:49:15.726000,-21.0,-49.0,-455.0,-963.0,-488.0,-92.0,534.0,-358.0,472.0
19:49:15.732000,-40.0,-34.0,-349.0,-940.0,-495.0,-103.0,528.0,-337.0,471.0
19:49:15.736000,-52.0,-35.0,-238.0,-1010.0,-481.0,-86.0,528.0,-337.0,471.0
19:49:15.741000,-67.0,-26.0,-176.0,-1010.0,-481.0,-86.0,525.0,-345.0,466.0
19:49:15.746000,-63.0,-35.0,-228.0,-1104.0,-461.0,-90.0,525.0,-345.0,466.0
19:49:15.750000,-94.0,7.0,-280.0,-1134.0,-419.0,-104.0,525.0,-345.0,466.0
19:49:15.755000,-112.0,66.0,-328.0,-1118.0,-375.0,-114.0,534.0,-343.0,462.0
19:49:15.760000,-105.0,85.0,-336.0,-1064.0,-386.0,-111.0,534.0,-343.0,462.0
19:49:15.765000,-135.0,87.0,-275.0,-990.0,-447.0,-83.0,514.0,-337.0,484.0
19:49:15.769000,-183.0,77.0,-207.0,-949.0,-485.0,-59.0,514.0,-337.0,484.0
19:49:15.773000,-268.0,77.0,-221.0,-920.0,-435.0,-39.0,514.0,-337.0,484.0
19:49:15.779000,-295.0,77.0,-267.0,-894.0,-308.0,-53.0,526.0,-334.0,468.0
19:49:15.783000,-308.0,11.0,-245.0,-845.0,-253.0,-39.0,526.0,-334.0,468.0
19:49:15.788000,-308.0,11.0,-245.0,-772.0,-321.0,-41.0,522.0,-340.0,475.0
19:49:15.793000,-319.0,39.0,-136.0,-806.0,-395.0,-100.0,522.0,-340.0,475.0
19:49:15.797000,-251.0,37.0,-105.0,-959.0,-357.0,-99.0,522.0,-340.0,475.0
19:49:15.802000,-98.0,-1.0,-272.0,-1015.0,-298.0,-114.0,526.0,-340.0,478.0
19:49:15.807000,41.0,6.0,-483.0,-926.0,-321.0,-112.0,526.0,-340.0,478.0
19:49:15.811000,58.0,11.0,-584.0,-821.0,-327.0,-100.0,538.0,-342.0,474.0
19:49:15.816000,63.0,29.0,-640.0,-773.0,-337.0,-92.0,538.0,-342.0,474.0
19:49:15.820000,39.0,24.0,-599.0,-783.0,-419.0,-73.0,538.0,-342.0,474.0
19:49:15.826000,-9.0,9.0,-394.0,-862.0,-463.0,-84.0,534.0,-343.0,475.0
19:49:15.830000,-41.0,0.0,-240.0,-984.0,-386.0,-87.0,534.0,-343.0,475.0
19:49:15.835000,-72.0,-36.0,-292.0,-1007.0,-278.0,-97.0,532.0,-334.0,472.0
19:49:15.840000,-88.0,-32.0,-396.0,-950.0,-242.0,-118.0,532.0,-334.0,472.0
19:49:15.847000,-147.0,-30.0,-373.0,-951.0,-388.0,-95.0,538.0,-336.0,480.0
19:49:15.849000,-147.0,-30.0,-373.0,-951.0,-388.0,-95.0,538.0,-336.0,480.0
19:49:15.853000,-161.0,0.0,-343.0,-951.0,-388.0,-95.0,538.0,-336.0,480.0
19:49:15.858000,-161.0,-7.0,-337.0,-983.0,-406.0,-111.0,525.0,-336.0,468.0
19:49:15.863000,-157.0,-21.0,-296.0,-957.0,-424.0,-84.0,525.0,-336.0,468.0
19:49:15.868000,-170.0,-4.0,-254.0,-903.0,-424.0,-88.0,525.0,-333.0,468.0
19:49:15.873000,-137.0,-9.0,-240.0,-899.0,-405.0,-86.0,525.0,-333.0,468.0
19:49:15.877000,-74.0,-7.0,-183.0,-916.0,-433.0,-88.0,525.0,-333.0,468.0
19:49:15.882000,-35.0,-14.0,-168.0,-957.0,-473.0,-91.0,534.0,-328.0,487.0
19:49:15.887000,-18.0,-20.0,-226.0,-1002.0,-411.0,-78.0,534.0,-328.0,487.0
19:49:15.891000,-18.0,-20.0,-226.0,-976.0,-286.0,-64.0,540.0,-334.0,475.0
19:49:15.896000,-57.0,-23.0,-329.0,-898.0,-199.0,-66.0,540.0,-334.0,475.0
19:49:15.900000,-57.0,-23.0,-329.0,-840.0,-175.0,-71.0,540.0,-334.0,475.0
19:49:15.906000,-58.0,-28.0,-344.0,-837.0,-245.0,-65.0,528.0,-333.0,475.0
19:49:15.910000,-48.0,-30.0,-330.0,-857.0,-351.0,-56.0,528.0,-333.0,475.0
19:49:15.915000,-33.0,-53.0,-274.0,-873.0,-378.0,-54.0,538.0,-334.0,477.0
19:49:15.920000,-38.0,-41.0,-205.0,-898.0,-342.0,-53.0,538.0,-334.0,477.0
19:49:15.924000,-69.0,-39.0,-184.0,-902.0,-284.0,-26.0,538.0,-334.0,477.0
19:49:15.929000,-116.0,-65.0,-177.0,-876.0,-227.0,-5.0,532.0,-328.0,487.0
19:49:15.934000,-167.0,-89.0,-186.0,-885.0,-182.0,-14.0,532.0,-328.0,487.0
19:49:15.938000,-222.0,-70.0,-241.0,-934.0,-190.0,-28.0,543.0,-330.0,478.0
19:49:15.943000,-265.0,-64.0,-276.0,-953.0,-236.0,-20.0,543.0,-330.0,478.0
19:49:15.947000,-320.0,-58.0,-275.0,-915.0,-258.0,-37.0,543.0,-330.0,478.0
19:49:15.953000,-298.0,-37.0,-229.0,-902.0,-273.0,-63.0,549.0,-331.0,481.0
19:49:15.957000,-206.0,-41.0,-187.0,-931.0,-304.0,-57.0,549.0,-331.0,481.0
19:49:15.962000,-111.0,-68.0,-171.0,-931.0,-304.0,-57.0,534.0,-334.0,486.0
19:49:15.967000,-73.0,-98.0,-196.0,-950.0,-335.0,-43.0,534.0,-334.0,486.0
19:49:15.971000,-52.0,-66.0,-188.0,-914.0,-335.0,-53.0,534.0,-334.0,486.0
19:49:15.976000,0.0,-40.0,-149.0,-891.0,-308.0,-64.0,531.0,-325.0,486.0
19:49:15.980000,77.0,-16.0,-119.0,-1007.0,-251.0,-73.0,531.0,-325.0,486.0
19:49:15.985000,143.0,-18.0,-161.0,-1007.0,-251.0,-73.0,544.0,-327.0,493.0
19:49:15.990000,110.0,-51.0,-184.0,-1007.0,-236.0,-33.0,544.0,-327.0,493.0
19:49:15.994000,110.0,-51.0,-184.0,-951.0,-207.0,-25.0,544.0,-327.0,493.0
19:49:16.000000,16.0,-15.0,-197.0,-904.0,-207.0,-47.0,552.0,-327.0,487.0
19:49:16.004000,11.0,-7.0,-184.0,-902.0,-240.0,-48.0,552.0,-327.0,487.0
19:49:16.009000,11.0,-7.0,-184.0,-933.0,-223.0,-57.0,534.0,-331.0,487.0
19:49:16.014000,11.0,8.0,-220.0,-957.0,-213.0,-51.0,534.0,-331.0,487.0
19:49:16.018000,-11.0,14.0,-228.0,-969.0,-217.0,-53.0,534.0,-331.0,487.0
19:49:16.023000,-50.0,38.0,-238.0,-945.0,-198.0,-53.0,541.0,-322.0,492.0
19:49:16.028000,-85.0,44.0,-255.0,-900.0,-234.0,-49.0,541.0,-322.0,492.0
19:49:16.032000,-96.0,46.0,-220.0,-896.0,-267.0,-69.0,537.0,-318.0,484.0
19:49:16.037000,-97.0,65.0,-239.0,-922.0,-230.0,-75.0,537.0,-318.0,484.0
19:49:16.041000,-90.0,65.0,-285.0,-900.0,-227.0,-56.0,537.0,-318.0,484.0
19:49:16.046000,-86.0,44.0,-253.0,-866.0,-243.0,-66.0,540.0,-321.0,490.0
19:49:16.051000,-79.0,50.0,-226.0,-865.0,-234.0,-90.0,540.0,-321.0,490.0
19:49:16.056000,-72.0,64.0,-188.0,-865.0,-234.0,-90.0,550.0,-334.0,489.0
19:49:16.061000,-70.0,61.0,-157.0,-947.0,-222.0,-94.0,550.0,-334.0,489.0
19:49:16.065000,-79.0,72.0,-217.0,-965.0,-167.0,-103.0,550.0,-334.0,489.0
19:49:16.070000,-58.0,91.0,-310.0,-957.0,-164.0,-102.0,547.0,-324.0,492.0
19:49:16.075000,-34.0,102.0,-354.0,-957.0,-164.0,-102.0,547.0,-324.0,492.0
19:49:16.079000,-12.0,55.0,-301.0,-915.0,-198.0,-70.0,531.0,-327.0,514.0
19:49:16.084000,13.0,46.0,-216.0,-876.0,-216.0,-60.0,531.0,-327.0,514.0
19:49:16.088000,-7.0,42.0,-211.0,-902.0,-198.0,-80.0,531.0,-327.0,514.0
19:49:16.093000,-11.0,30.0,-252.0,-955.0,-159.0,-64.0,543.0,-316.0,493.0
19:49:16.098000,-14.0,41.0,-236.0,-954.0,-169.0,-74.0,543.0,-316.0,493.0
19:49:16.103000,-63.0,80.0,-162.0,-910.0,-203.0,-96.0,544.0,-319.0,499.0
19:49:16.108000,-131.0,135.0,-119.0,-893.0,-190.0,-96.0,544.0,-319.0,499.0
19:49:16.112000,-131.0,135.0,-119.0,-928.0,-174.0,-80.0,544.0,-319.0,499.0
19:49:16.117000,-159.0,144.0,-116.0,-963.0,-208.0,-75.0,531.0,-321.0,499.0
19:49:16.122000,-158.0,151.0,-123.0,-977.0,-212.0,-85.0,531.0,-321.0,499.0
19:49:16.126000,-118.0,147.0,-186.0,-949.0,-209.0,-86.0,550.0,-321.0,495.0
19:49:16.131000,-63.0,123.0,-189.0,-910.0,-244.0,-94.0,550.0,-321.0,495.0
19:49:16.135000,-32.0,119.0,-185.0,-906.0,-262.0,-99.0,550.0,-321.0,495.0
19:49:16.140000,-46.0,131.0,-154.0,-915.0,-266.0,-103.0,538.0,-325.0,496.0
19:49:16.145000,-66.0,145.0,-148.0,-958.0,-245.0,-119.0,538.0,-325.0,496.0
19:49:16.150000,-56.0,161.0,-179.0,-989.0,-261.0,-140.0,544.0,-321.0,502.0
19:49:16.155000,-61.0,191.0,-191.0,-982.0,-298.0,-149.0,544.0,-321.0,502.0
19:49:16.162000,44.0,174.0,-228.0,-994.0,-329.0,-140.0,540.0,-321.0,490.0
19:49:16.164000,44.0,174.0,-228.0,-994.0,-329.0,-140.0,540.0,-321.0,490.0
19:49:16.168000,102.0,135.0,-249.0,-986.0,-344.0,-142.0,540.0,-321.0,490.0
19:49:16.173000,94.0,135.0,-238.0,-991.0,-319.0,-155.0,522.0,-318.0,516.0
19:49:16.178000,32.0,160.0,-260.0,-991.0,-276.0,-155.0,522.0,-318.0,516.0
19:49:16.183000,-7.0,199.0,-315.0,-985.0,-276.0,-155.0,537.0,-319.0,505.0
19:49:16.187000,22.0,224.0,-364.0,-957.0,-271.0,-167.0,537.0,-319.0,505.0
19:49:16.192000,45.0,241.0,-377.0,-917.0,-338.0,-171.0,537.0,-319.0,505.0
19:49:16.197000,98.0,214.0,-406.0,-878.0,-388.0,-144.0,544.0,-315.0,507.0
19:49:16.202000,126.0,176.0,-446.0,-827.0,-382.0,-119.0,544.0,-315.0,507.0
19:49:16.206000,105.0,172.0,-457.0,-763.0,-370.0,-109.0,543.0,-310.0,523.0
19:49:16.211000,86.0,149.0,-494.0,-734.0,-330.0,-97.0,543.0,-310.0,523.0
19:49:16.215000,86.0,149.0,-494.0,-767.0,-251.0,-81.0,543.0,-310.0,523.0
19:49:16.220000,209.0,5.0,-730.0,-828.0,-140.0,-72.0,541.0,-303.0,502.0
19:49:16.225000,209.0,5.0,-730.0,-839.0,-84.0,-66.0,541.0,-303.0,502.0
19:49:16.230000,228.0,-37.0,-778.0,-813.0,-78.0,-57.0,534.0,-300.0,502.0
19:49:16.234000,198.0,-42.0,-764.0,-805.0,-37.0,-63.0,534.0,-300.0,502.0
19:49:16.239000,119.0,14.0,-755.0,-843.0,31.0,-73.0,534.0,-300.0,502.0
19:49:16.244000,42.0,65.0,-751.0,-919.0,105.0,-38.0,534.0,-301.0,505.0
19:49:16.249000,-11.0,53.0,-774.0,-980.0,193.0,-5.0,534.0,-301.0,505.0
19:49:16.253000,-65.0,47.0,-835.0,-978.0,218.0,-1.0,523.0,-295.0,508.0
19:49:16.258000,-150.0,57.0,-821.0,-948.0,167.0,14.0,523.0,-295.0,508.0
19:49:16.262000,-229.0,52.0,-729.0,-961.0,128.0,20.0,523.0,-295.0,508.0
19:49:16.267000,-282.0,60.0,-648.0,-1021.0,149.0,14.0,525.0,-285.0,511.0
19:49:16.272000,-287.0,56.0,-663.0,-1070.0,203.0,17.0,525.0,-285.0,511.0
19:49:16.277000,-249.0,34.0,-728.0,-1070.0,203.0,17.0,532.0,-289.0,508.0
19:49:16.281000,-225.0,40.0,-759.0,-1025.0,158.0,-1.0,532.0,-289.0,508.0
19:49:16.286000,-240.0,81.0,-725.0,-992.0,106.0,0.0,532.0,-289.0,508.0
19:49:16.291000,-275.0,108.0,-655.0,-992.0,106.0,0.0,532.0,-294.0,519.0
19:49:16.296000,-273.0,112.0,-595.0,-1010.0,56.0,0.0,532.0,-294.0,519.0
19:49:16.300000,-235.0,109.0,-545.0,-1010.0,56.0,0.0,522.0,-291.0,514.0
19:49:16.305000,-193.0,124.0,-492.0,-1008.0,34.0,-25.0,522.0,-291.0,514.0
19:49:16.309000,-147.0,126.0,-444.0,-983.0,-4.0,-40.0,522.0,-291.0,514.0
19:49:16.314000,-72.0,114.0,-427.0,-956.0,-18.0,-47.0,528.0,-285.0,520.0
19:49:16.319000,-18.0,124.0,-415.0,-925.0,-9.0,-71.0,528.0,-285.0,520.0
19:49:16.324000,-5.0,131.0,-384.0,-884.0,21.0,-83.0,528.0,-283.0,511.0
19:49:16.328000,-18.0,152.0,-340.0,-848.0,66.0,-93.0,528.0,-283.0,511.0
19:49:16.333000,-18.0,152.0,-340.0,-842.0,124.0,-117.0,528.0,-283.0,511.0
19:49:16.338000,-9.0,172.0,-288.0,-873.0,188.0,-121.0,519.0,-285.0,519.0
19:49:16.342000,-9.0,179.0,-260.0,-907.0,221.0,-118.0,519.0,-285.0,519.0
19:49:16.347000,-26.0,195.0,-242.0,-922.0,224.0,-130.0,514.0,-282.0,537.0
19:49:16.352000,-19.0,211.0,-228.0,-920.0,208.0,-127.0,514.0,-282.0,537.0
19:49:16.356000,-30.0,212.0,-224.0,-906.0,214.0,-125.0,514.0,-282.0,537.0
19:49:16.361000,-22.0,214.0,-212.0,-871.0,231.0,-133.0,514.0,-268.0,522.0
19:49:16.366000,-7.0,198.0,-168.0,-850.0,257.0,-111.0,514.0,-268.0,522.0
19:49:16.371000,0.0,144.0,-166.0,-858.0,304.0,-103.0,523.0,-274.0,514.0
19:49:16.375000,9.0,127.0,-228.0,-859.0,308.0,-141.0,523.0,-274.0,514.0
19:49:16.380000,-16.0,172.0,-276.0,-849.0,242.0,-162.0,523.0,-274.0,514.0
19:49:16.385000,-55.0,217.0,-221.0,-856.0,154.0,-142.0,519.0,-277.0,538.0
19:49:16.390000,-36.0,203.0,-100.0,-874.0,77.0,-142.0,519.0,-277.0,538.0
19:49:16.394000,-23.0,194.0,7.0,-874.0,77.0,-142.0,516.0,-271.0,526.0
19:49:16.399000,-25.0,196.0,18.0,-901.0,54.0,-162.0,516.0,-271.0,526.0
19:49:16.403000,13.0,182.0,-11.0,-917.0,86.0,-171.0,516.0,-271.0,526.0
19:49:16.408000,55.0,170.0,-43.0,-905.0,131.0,-174.0,528.0,-262.0,525.0
19:49:16.413000,35.0,191.0,-28.0,-885.0,168.0,-180.0,528.0,-262.0,525.0
19:49:16.418000,0.0,209.0,-2.0,-885.0,192.0,-188.0,525.0,-270.0,528.0
19:49:16.422000,18.0,170.0,-58.0,-934.0,234.0,-167.0,525.0,-270.0,528.0
19:49:16.427000,104.0,127.0,-171.0,-988.0,271.0,-162.0,525.0,-270.0,528.0
19:49:16.432000,173.0,57.0,-254.0,-998.0,260.0,-163.0,516.0,-274.0,532.0
19:49:16.437000,189.0,-16.0,-274.0,-973.0,217.0,-120.0,516.0,-274.0,532.0
19:49:16.441000,142.0,40.0,-229.0,-934.0,192.0,-147.0,505.0,-270.0,528.0
19:49:16.446000,142.0,40.0,-229.0,-908.0,175.0,-202.0,505.0,-270.0,528.0
19:49:16.450000,98.0,89.0,-140.0,-939.0,174.0,-158.0,505.0,-270.0,528.0
19:49:16.455000,117.0,21.0,-121.0,-994.0,205.0,-146.0,519.0,-274.0,525.0
19:49:16.460000,177.0,-16.0,-173.0,-1014.0,210.0,-202.0,519.0,-274.0,525.0
19:49:16.465000,201.0,7.0,-151.0,-1021.0,175.0,-223.0,511.0,-267.0,531.0
19:49:16.469000,192.0,32.0,-65.0,-1064.0,164.0,-221.0,511.0,-267.0,531.0
19:49:16.474000,199.0,39.0,-35.0,-1099.0,195.0,-226.0,511.0,-267.0,531.0
19:49:16.479000,184.0,57.0,-49.0,-1089.0,242.0,-222.0,519.0,-276.0,531.0
19:49:16.484000,144.0,77.0,-72.0,-1081.0,276.0,-224.0,519.0,-276.0,531.0
19:49:16.488000,115.0,114.0,-101.0,-1084.0,289.0,-223.0,513.0,-267.0,528.0
19:49:16.493000,95.0,114.0,-141.0,-1095.0,279.0,-206.0,513.0,-267.0,528.0
19:49:16.497000,80.0,108.0,-143.0,-1122.0,244.0,-226.0,513.0,-267.0,528.0
19:49:16.502000,114.0,109.0,-163.0,-1181.0,239.0,-247.0,523.0,-267.0,531.0
19:49:16.507000,179.0,85.0,-263.0,-1181.0,239.0,-247.0,523.0,-267.0,531.0
19:49:16.512000,210.0,65.0,-325.0,-1206.0,211.0,-239.0,513.0,-270.0,528.0
19:49:16.516000,228.0,32.0,-394.0,-1194.0,193.0,-223.0,513.0,-270.0,528.0
19:49:16.521000,209.0,63.0,-420.0,-1122.0,187.0,-247.0,513.0,-270.0,528.0
19:49:16.526000,137.0,104.0,-283.0,-1122.0,187.0,-247.0,520.0,-261.0,531.0
19:49:16.531000,70.0,97.0,-186.0,-1105.0,171.0,-223.0,520.0,-261.0,531.0
19:49:16.535000,5.0,113.0,-178.0,-1164.0,229.0,-226.0,505.0,-255.0,532.0
19:49:16.540000,16.0,77.0,-315.0,-1223.0,276.0,-249.0,505.0,-255.0,532.0
19:49:16.544000,16.0,77.0,-315.0,-1218.0,286.0,-241.0,505.0,-255.0,532.0
19:49:16.549000,161.0,0.0,-436.0,-1121.0,183.0,-259.0,508.0,-258.0,540.0
19:49:16.554000,161.0,0.0,-436.0,-1029.0,62.0,-280.0,508.0,-258.0,540.0
19:49:16.559000,155.0,11.0,-324.0,-1002.0,44.0,-263.0,505.0,-250.0,535.0
19:49:16.563000,109.0,20.0,-270.0,-1011.0,45.0,-244.0,505.0,-250.0,535.0
19:49:16.571000,57.0,45.0,-184.0,-1066.0,31.0,-252.0,513.0,-246.0,531.0
19:49:16.573000,57.0,45.0,-184.0,-1066.0,31.0,-252.0,513.0,-246.0,531.0
19:49:16.577000,32.0,35.0,-248.0,-1064.0,107.0,-225.0,513.0,-246.0,531.0
19:49:16.582000,42.0,6.0,-345.0,-978.0,163.0,-220.0,517.0,-253.0,538.0
19:49:16.587000,110.0,-35.0,-349.0,-906.0,127.0,-210.0,517.0,-253.0,538.0
19:49:16.592000,179.0,-111.0,-319.0,-862.0,97.0,-194.0,510.0,-243.0,531.0
19:49:16.596000,154.0,-147.0,-340.0,-815.0,107.0,-186.0,510.0,-243.0,531.0
19:49:16.600000,100.0,-163.0,-365.0,-751.0,82.0,-192.0,510.0,-243.0,531.0
19:49:16.606000,77.0,-160.0,-326.0,-714.0,17.0,-218.0,525.0,-249.0,538.0
19:49:16.610000,112.0,-172.0,-275.0,-752.0,12.0,-196.0,525.0,-249.0,538.0
19:49:16.615000,195.0,-275.0,-293.0,-752.0,12.0,-196.0,517.0,-238.0,538.0
19:49:16.620000,245.0,-326.0,-375.0,-825.0,45.0,-179.0,517.0,-238.0,538.0
19:49:16.624000,223.0,-332.0,-415.0,-850.0,41.0,-207.0,517.0,-238.0,538.0
19:49:16.629000,210.0,-358.0,-400.0,-806.0,49.0,-205.0,517.0,-240.0,535.0
19:49:16.634000,191.0,-376.0,-374.0,-771.0,92.0,-185.0,517.0,-240.0,535.0
19:49:16.639000,193.0,-311.0,-361.0,-799.0,124.0,-211.0,528.0,-237.0,531.0
19:49:16.643000,158.0,-226.0,-336.0,-888.0,94.0,-240.0,528.0,-237.0,531.0
19:49:16.647000,146.0,-182.0,-329.0,-977.0,59.0,-220.0,528.0,-237.0,531.0
19:49:16.653000,107.0,-228.0,-247.0,-997.0,-6.0,-159.0,528.0,-229.0,535.0
19:49:16.657000,16.0,-163.0,-232.0,-993.0,-37.0,-157.0,528.0,-229.0,535.0
19:49:16.662000,16.0,-163.0,-232.0,-998.0,70.0,-170.0,522.0,-234.0,528.0
19:49:16.667000,-77.0,-112.0,-320.0,-961.0,183.0,-158.0,522.0,-234.0,528.0
19:49:16.671000,-43.0,-88.0,-394.0,-952.0,243.0,-182.0,522.0,-234.0,528.0
19:49:16.676000,25.0,-85.0,-493.0,-1007.0,227.0,-168.0,532.0,-222.0,523.0
19:49:16.681000,66.0,-98.0,-541.0,-1026.0,125.0,-135.0,532.0,-222.0,523.0
19:49:16.686000,24.0,-104.0,-499.0,-1019.0,66.0,-127.0,525.0,-219.0,520.0
19:49:16.690000,-77.0,-65.0,-492.0,-1029.0,111.0,-138.0,525.0,-219.0,520.0
19:49:16.694000,-138.0,-30.0,-541.0,-1016.0,116.0,-150.0,525.0,-219.0,520.0
19:49:16.700000,-145.0,-28.0,-518.0,-1007.0,78.0,-163.0,525.0,-216.0,525.0
19:49:16.704000,-131.0,-23.0,-479.0,-1021.0,51.0,-170.0,525.0,-216.0,525.0
19:49:16.709000,-156.0,6.0,-482.0,-1029.0,41.0,-169.0,526.0,-214.0,532.0
19:49:16.714000,-203.0,51.0,-520.0,-994.0,27.0,-157.0,526.0,-214.0,532.0
19:49:16.718000,-241.0,76.0,-495.0,-921.0,-10.0,-138.0,526.0,-214.0,532.0
19:49:16.723000,-258.0,77.0,-398.0,-890.0,-28.0,-128.0,525.0,-214.0,538.0
19:49:16.728000,-256.0,71.0,-314.0,-890.0,-28.0,-128.0,525.0,-214.0,538.0
19:49:16.733000,-243.0,60.0,-297.0,-908.0,-13.0,-119.0,516.0,-214.0,531.0
19:49:16.737000,-211.0,41.0,-344.0,-923.0,19.0,-112.0,516.0,-214.0,531.0
19:49:16.741000,-161.0,9.0,-397.0,-908.0,46.0,-104.0,516.0,-214.0,531.0
19:49:16.747000,-126.0,-4.0,-424.0,-868.0,43.0,-101.0,520.0,-211.0,547.0
19:49:16.751000,-119.0,9.0,-423.0,-828.0,20.0,-106.0,520.0,-211.0,547.0
19:49:16.756000,-122.0,18.0,-421.0,-816.0,6.0,-103.0,520.0,-211.0,547.0
19:49:16.761000,-109.0,4.0,-424.0,-822.0,8.0,-95.0,520.0,-211.0,547.0
19:49:16.765000,-109.0,4.0,-424.0,-832.0,16.0,-94.0,520.0,-211.0,547.0
19:49:16.770000,-82.0,-35.0,-406.0,-840.0,20.0,-96.0,520.0,-222.0,538.0
19:49:16.775000,-82.0,-35.0,-406.0,-838.0,1.0,-95.0,520.0,-222.0,538.0
19:49:16.780000,-89.0,-45.0,-349.0,-851.0,-11.0,-94.0,519.0,-216.0,528.0
19:49:16.784000,-97.0,-48.0,-327.0,-875.0,0.0,-103.0,519.0,-216.0,528.0
19:49:16.788000,-72.0,-52.0,-356.0,-883.0,0.0,-114.0,519.0,-216.0,528.0
19:49:16.793000,-34.0,-56.0,-384.0,-879.0,-19.0,-116.0,516.0,-217.0,522.0
19:49:16.798000,-7.0,-54.0,-385.0,-871.0,-31.0,-115.0,516.0,-217.0,522.0
19:49:16.803000,-7.0,-37.0,-372.0,-864.0,-20.0,-116.0,528.0,-205.0,528.0
19:49:16.808000,-23.0,-10.0,-370.0,-858.0,13.0,-114.0,528.0,-205.0,528.0
19:49:16.812000,-30.0,3.0,-375.0,-841.0,53.0,-106.0,528.0,-205.0,528.0
19:49:16.817000,-25.0,0.0,-387.0,-818.0,90.0,-103.0,520.0,-208.0,532.0
19:49:16.822000,-21.0,-2.0,-406.0,-801.0,117.0,-106.0,520.0,-208.0,532.0
19:49:16.827000,-26.0,2.0,-413.0,-801.0,117.0,-106.0,522.0,-198.0,529.0
19:49:16.831000,-39.0,5.0,-407.0,-799.0,142.0,-108.0,522.0,-198.0,529.0
19:49:16.839000,-44.0,14.0,-402.0,-821.0,152.0,-113.0,517.0,-208.0,546.0
19:49:16.841000,-44.0,23.0,-415.0,-821.0,152.0,-113.0,517.0,-208.0,546.0
19:49:16.845000,-41.0,25.0,-439.0,-852.0,161.0,-114.0,517.0,-208.0,546.0
19:49:16.850000,-32.0,18.0,-455.0,-864.0,162.0,-109.0,513.0,-199.0,540.0
19:49:16.855000,-17.0,4.0,-466.0,-850.0,159.0,-103.0,513.0,-199.0,540.0
19:49:16.860000,2.0,-11.0,-462.0,-823.0,159.0,-100.0,516.0,-196.0,543.0
19:49:16.864000,5.0,-17.0,-424.0,-799.0,147.0,-97.0,516.0,-196.0,543.0
19:49:16.868000,5.0,-17.0,-424.0,-788.0,116.0,-92.0,516.0,-196.0,543.0
19:49:16.874000,9.0,-39.0,-350.0,-795.0,106.0,-87.0,514.0,-189.0,538.0
19:49:16.878000,39.0,-67.0,-371.0,-813.0,144.0,-84.0,514.0,-189.0,538.0
19:49:16.882000,39.0,-67.0,-371.0,-826.0,190.0,-81.0,516.0,-187.0,535.0
19:49:16.888000,77.0,-109.0,-394.0,-827.0,206.0,-72.0,516.0,-187.0,535.0
19:49:16.892000,93.0,-139.0,-407.0,-816.0,208.0,-67.0,516.0,-187.0,535.0
19:49:16.897000,89.0,-151.0,-389.0,-788.0,186.0,-62.0,519.0,-190.0,532.0
19:49:16.902000,63.0,-158.0,-320.0,-774.0,172.0,-52.0,519.0,-190.0,532.0
19:49:16.907000,42.0,-175.0,-273.0,-790.0,214.0,-48.0,516.0,-190.0,534.0
19:49:16.911000,35.0,-200.0,-279.0,-813.0,274.0,-53.0,516.0,-190.0,534.0
19:49:16.915000,42.0,-226.0,-326.0,-790.0,278.0,-41.0,516.0,-190.0,534.0
19:49:16.921000,9.0,-256.0,-310.0,-746.0,229.0,-33.0,513.0,-178.0,537.0
19:49:16.925000,-38.0,-252.0,-246.0,-762.0,216.0,-47.0,513.0,-178.0,537.0
19:49:16.929000,-48.0,-261.0,-211.0,-790.0,228.0,-54.0,516.0,-190.0,535.0
19:49:16.935000,-51.0,-275.0,-199.0,-812.0,239.0,-54.0,516.0,-190.0,535.0
19:49:16.939000,-61.0,-280.0,-228.0,-841.0,258.0,-60.0,516.0,-190.0,535.0
19:49:16.944000,-86.0,-274.0,-258.0,-841.0,258.0,-60.0,519.0,-184.0,531.0
19:49:16.949000,-106.0,-277.0,-249.0,-836.0,268.0,-67.0,519.0,-184.0,531.0
19:49:16.954000,-126.0,-274.0,-247.0,-826.0,281.0,-70.0,517.0,-184.0,535.0
19:49:16.958000,-134.0,-256.0,-259.0,-843.0,299.0,-82.0,517.0,-184.0,535.0
19:49:16.962000,-155.0,-235.0,-242.0,-838.0,301.0,-91.0,517.0,-184.0,535.0
19:49:16.968000,-169.0,-223.0,-210.0,-817.0,292.0,-92.0,517.0,-181.0,537.0
19:49:16.972000,-172.0,-205.0,-201.0,-817.0,292.0,-98.0,517.0,-181.0,537.0
19:49:16.977000,-182.0,-193.0,-195.0,-815.0,296.0,-101.0,516.0,-190.0,525.0
19:49:16.982000,-193.0,-187.0,-172.0,-795.0,302.0,-95.0,516.0,-190.0,525.0
19:49:16.986000,-193.0,-187.0,-172.0,-791.0,313.0,-92.0,516.0,-190.0,525.0
19:49:16.991000,-218.0,-180.0,-142.0,-787.0,314.0,-88.0,528.0,-172.0,529.0
19:49:16.996000,-234.0,-179.0,-88.0,-772.0,309.0,-93.0,528.0,-172.0,529.0
19:49:17.001000,-236.0,-175.0,-38.0,-781.0,322.0,-106.0,525.0,-187.0,537.0
19:49:17.005000,-217.0,-170.0,-37.0,-791.0,339.0,-107.0,525.0,-187.0,537.0
19:49:17.009000,-211.0,-174.0,-49.0,-778.0,338.0,-103.0,525.0,-187.0,537.0
19:49:17.015000,-213.0,-173.0,-21.0,-769.0,326.0,-107.0,528.0,-192.0,534.0
19:49:17.019000,-224.0,-166.0,21.0,-768.0,305.0,-108.0,528.0,-192.0,534.0
19:49:17.024000,-234.0,-160.0,77.0,-778.0,316.0,-109.0,523.0,-183.0,549.0
19:49:17.029000,-219.0,-166.0,71.0,-783.0,347.0,-117.0,523.0,-183.0,549.0
19:49:17.033000,-208.0,-162.0,54.0,-763.0,337.0,-113.0,523.0,-183.0,549.0
19:49:17.038000,-214.0,-161.0,98.0,-748.0,302.0,-101.0,523.0,-180.0,534.0
19:49:17.043000,-221.0,-164.0,180.0,-760.0,291.0,-102.0,523.0,-180.0,534.0
19:49:17.048000,-229.0,-162.0,225.0,-760.0,291.0,-102.0,526.0,-183.0,531.0
19:49:17.052000,-235.0,-160.0,224.0,-787.0,341.0,-105.0,526.0,-183.0,531.0
19:49:17.056000,-229.0,-163.0,215.0,-798.0,341.0,-105.0,526.0,-183.0,531.0
19:49:17.062000,-231.0,-169.0,227.0,-769.0,349.0,-89.0,531.0,-186.0,534.0
19:49:17.066000,-240.0,-176.0,248.0,-769.0,349.0,-89.0,531.0,-186.0,534.0
19:49:17.071000,-252.0,-184.0,267.0,-755.0,332.0,-80.0,537.0,-186.0,544.0
19:49:17.076000,-264.0,-192.0,276.0,-746.0,320.0,-76.0,537.0,-186.0,544.0
19:49:17.080000,-283.0,-194.0,290.0,-746.0,317.0,-72.0,537.0,-186.0,544.0
19:49:17.085000,-292.0,-203.0,315.0,-751.0,308.0,-66.0,532.0,-196.0,541.0
19:49:17.090000,-296.0,-210.0,328.0,-755.0,293.0,-64.0,532.0,-196.0,541.0
19:49:17.095000,-305.0,-211.0,334.0,-749.0,271.0,-63.0,546.0,-198.0,537.0
19:49:17.099000,-303.0,-215.0,320.0,-752.0,262.0,-61.0,546.0,-198.0,537.0
19:49:17.103000,-303.0,-215.0,320.0,-773.0,283.0,-57.0,546.0,-198.0,537.0
19:49:17.109000,-299.0,-224.0,287.0,-780.0,296.0,-55.0,543.0,-202.0,537.0
19:49:17.113000,-303.0,-223.0,273.0,-768.0,286.0,-52.0,543.0,-202.0,537.0
19:49:17.118000,-309.0,-227.0,272.0,-765.0,275.0,-49.0,543.0,-210.0,538.0
19:49:17.123000,-318.0,-227.0,263.0,-778.0,276.0,-47.0,543.0,-210.0,538.0
19:49:17.127000,-327.0,-229.0,245.0,-788.0,274.0,-44.0,543.0,-210.0,538.0
19:49:17.132000,-340.0,-228.0,228.0,-793.0,266.0,-43.0,556.0,-199.0,540.0
19:49:17.137000,-351.0,-226.0,204.0,-793.0,257.0,-45.0,556.0,-199.0,540.0
19:49:17.142000,-354.0,-224.0,176.0,-795.0,249.0,-48.0,547.0,-213.0,534.0
19:49:17.146000,-354.0,-221.0,144.0,-798.0,239.0,-52.0,547.0,-213.0,534.0
19:49:17.150000,-352.0,-218.0,111.0,-798.0,232.0,-53.0,547.0,-213.0,534.0
