hh:mm:ss.ms,gyroX[mdps],gyroY[mdps],gyroZ[mdps],accX[mg],accY[mg],accZ[mg],magX[mG],magY[mG],magZ[mG]
19:48:53.065000,126.0,-163.0,-36.0,-1198.0,679.0,171.0,729.0,-508.0,352.0
19:48:53.069000,91.0,-107.0,-58.0,-1324.0,735.0,135.0,730.0,-498.0,363.0
19:48:53.074000,67.0,-51.0,-77.0,-1406.0,755.0,104.0,730.0,-498.0,363.0
19:48:53.078000,69.0,-7.0,-78.0,-1440.0,730.0,85.0,730.0,-498.0,363.0
19:48:53.084000,98.0,16.0,-53.0,-1439.0,685.0,79.0,724.0,-501.0,360.0
19:48:53.088000,148.0,14.0,-6.0,-1418.0,652.0,82.0,724.0,-501.0,360.0
19:48:53.093000,206.0,-8.0,51.0,-1392.0,659.0,93.0,723.0,-490.0,354.0
19:48:53.098000,250.0,-46.0,108.0,-1364.0,706.0,112.0,723.0,-490.0,354.0
19:48:53.102000,266.0,-93.0,156.0,-1324.0,767.0,133.0,723.0,-490.0,354.0
19:48:53.107000,250.0,-139.0,196.0,-1265.0,815.0,153.0,724.0,-495.0,360.0
19:48:53.112000,202.0,-177.0,230.0,-1265.0,815.0,153.0,724.0,-495.0,360.0
19:48:53.116000,131.0,-205.0,248.0,-1128.0,813.0,196.0,717.0,-492.0,382.0
19:48:53.121000,56.0,-226.0,241.0,-1128.0,813.0,196.0,717.0,-492.0,382.0
19:48:53.125000,-5.0,-236.0,217.0,-1065.0,732.0,212.0,717.0,-492.0,382.0
19:48:53.131000,-40.0,-228.0,190.0,-1018.0,592.0,213.0,724.0,-495.0,358.0
19:48:53.135000,-49.0,-201.0,166.0,-1001.0,428.0,201.0,724.0,-495.0,358.0
19:48:53.140000,-43.0,-159.0,133.0,-1016.0,300.0,182.0,709.0,-499.0,355.0
19:48:53.145000,-30.0,-106.0,86.0,-1047.0,244.0,161.0,709.0,-499.0,355.0
19:48:53.149000,-30.0,-106.0,86.0,-1066.0,245.0,137.0,709.0,-499.0,355.0
19:48:53.154000,-10.0,3.0,12.0,-1061.0,280.0,115.0,726.0,-492.0,366.0
19:48:53.159000,-10.0,3.0,12.0,-1037.0,331.0,98.0,726.0,-492.0,366.0
19:48:53.164000,-9.0,42.0,-13.0,-987.0,359.0,82.0,714.0,-495.0,361.0
19:48:53.168000,-14.0,70.0,-18.0,-911.0,339.0,66.0,714.0,-495.0,361.0
19:48:53.172000,-26.0,91.0,6.0,-823.0,290.0,51.0,714.0,-495.0,361.0
19:48:53.178000,-48.0,107.0,51.0,-732.0,235.0,38.0,706.0,-486.0,361.0
19:48:53.182000,-78.0,115.0,98.0,-647.0,176.0,24.0,706.0,-486.0,361.0
19:48:53.187000,-119.0,128.0,148.0,-579.0,107.0,8.0,706.0,-480.0,363.0
19:48:53.192000,-168.0,144.0,206.0,-536.0,18.0,-10.0,706.0,-480.0,363.0
19:48:53.196000,-210.0,164.0,262.0,-513.0,-92.0,-35.0,706.0,-480.0,363.0
19:48:53.201000,-231.0,184.0,315.0,-520.0,-208.0,-66.0,708.0,-487.0,361.0
19:48:53.206000,-227.0,202.0,373.0,-577.0,-288.0,-98.0,708.0,-487.0,361.0
19:48:53.211000,-199.0,212.0,438.0,-682.0,-319.0,-123.0,702.0,-489.0,367.0
19:48:53.215000,-154.0,213.0,499.0,-793.0,-329.0,-147.0,702.0,-489.0,367.0
19:48:53.219000,-98.0,202.0,558.0,-793.0,-329.0,-147.0,702.0,-489.0,367.0
19:48:53.225000,-46.0,186.0,632.0,-873.0,-335.0,-172.0,705.0,-498.0,373.0
19:48:53.229000,-14.0,165.0,716.0,-925.0,-323.0,-192.0,705.0,-498.0,373.0
19:48:53.234000,-10.0,139.0,790.0,-968.0,-267.0,-208.0,694.0,-502.0,366.0
19:48:53.239000,-39.0,113.0,854.0,-1013.0,-178.0,-222.0,694.0,-502.0,366.0
19:48:53.243000,-93.0,87.0,909.0,-1067.0,-89.0,-233.0,694.0,-502.0,366.0
19:48:53.248000,-155.0,59.0,948.0,-1132.0,-36.0,-238.0,696.0,-508.0,361.0
19:48:53.253000,-197.0,30.0,984.0,-1190.0,-66.0,-239.0,696.0,-508.0,361.0
19:48:53.258000,-191.0,7.0,1040.0,-1205.0,-240.0,-241.0,682.0,-513.0,372.0
19:48:53.262000,-130.0,-2.0,1118.0,-1164.0,-545.0,-254.0,682.0,-513.0,372.0
19:48:53.266000,-130.0,-2.0,1118.0,-1124.0,-841.0,-271.0,682.0,-513.0,372.0
19:48:53.272000,-32.0,-2.0,1194.0,-1138.0,-974.0,-275.0,688.0,-529.0,378.0
19:48:53.276000,67.0,7.0,1248.0,-1194.0,-904.0,-259.0,688.0,-529.0,378.0
19:48:53.281000,140.0,21.0,1278.0,-1223.0,-713.0,-222.0,661.0,-534.0,364.0
19:48:53.286000,170.0,31.0,1288.0,-1157.0,-523.0,-177.0,661.0,-534.0,364.0
19:48:53.290000,163.0,27.0,1293.0,-1001.0,-383.0,-120.0,661.0,-534.0,364.0
19:48:53.295000,126.0,0.0,1316.0,-816.0,-265.0,-33.0,664.0,-555.0,376.0
19:48:53.300000,61.0,-67.0,1359.0,-622.0,-177.0,52.0,664.0,-555.0,376.0
19:48:53.305000,-9.0,-166.0,1425.0,-402.0,-161.0,104.0,657.0,-558.0,382.0
19:48:53.309000,-72.0,-282.0,1529.0,-209.0,-175.0,122.0,657.0,-558.0,382.0
19:48:53.313000,-128.0,-398.0,1666.0,-162.0,-97.0,126.0,657.0,-558.0,382.0
19:48:53.319000,-192.0,-507.0,1801.0,-307.0,91.0,137.0,660.0,-561.0,382.0
19:48:53.323000,-280.0,-601.0,1922.0,-515.0,240.0,141.0,660.0,-561.0,382.0
19:48:53.328000,-380.0,-664.0,2081.0,-515.0,240.0,141.0,648.0,-580.0,376.0
19:48:53.333000,-470.0,-697.0,2351.0,-606.0,184.0,117.0,648.0,-580.0,376.0
19:48:53.337000,-523.0,-713.0,2695.0,-529.0,-68.0,73.0,648.0,-580.0,376.0
19:48:53.342000,-532.0,-716.0,2994.0,-370.0,-346.0,25.0,639.0,-607.0,366.0
19:48:53.347000,-513.0,-714.0,3203.0,-226.0,-499.0,-13.0,639.0,-607.0,366.0
19:48:53.352000,-494.0,-709.0,3355.0,-124.0,-523.0,-32.0,630.0,-624.0,360.0
19:48:53.356000,-487.0,-697.0,3488.0,-49.0,-498.0,-37.0,630.0,-624.0,360.0
19:48:53.360000,-488.0,-672.0,3602.0,34.0,-500.0,-34.0,630.0,-624.0,360.0
19:48:53.366000,-484.0,-640.0,3698.0,142.0,-554.0,-23.0,606.0,-649.0,349.0
19:48:53.370000,-476.0,-600.0,3773.0,267.0,-625.0,0.0,606.0,-649.0,349.0
19:48:53.375000,-463.0,-555.0,3826.0,392.0,-662.0,32.0,583.0,-676.0,345.0
19:48:53.380000,-463.0,-555.0,3826.0,498.0,-645.0,65.0,583.0,-676.0,345.0
19:48:53.384000,-449.0,-506.0,3864.0,574.0,-599.0,84.0,583.0,-676.0,345.0
19:48:53.389000,-432.0,-455.0,3887.0,630.0,-577.0,78.0,570.0,-693.0,340.0
19:48:53.394000,-405.0,-406.0,3917.0,665.0,-602.0,55.0,570.0,-693.0,340.0
19:48:53.399000,-371.0,-357.0,3969.0,686.0,-657.0,39.0,537.0,-720.0,339.0
19:48:53.403000,-337.0,-310.0,4047.0,725.0,-722.0,36.0,537.0,-720.0,339.0
19:48:53.407000,-305.0,-273.0,4149.0,819.0,-781.0,35.0,537.0,-720.0,339.0
19:48:53.413000,-273.0,-254.0,4265.0,954.0,-801.0,23.0,492.0,-759.0,339.0
19:48:53.417000,-247.0,-253.0,4375.0,1064.0,-748.0,4.0,492.0,-759.0,339.0
19:48:53.422000,-235.0,-268.0,4450.0,1103.0,-629.0,-28.0,463.0,-769.0,340.0
19:48:53.427000,-231.0,-299.0,4473.0,1052.0,-471.0,-77.0,463.0,-769.0,340.0
19:48:53.434000,-215.0,-409.0,4326.0,642.0,-34.0,-159.0,420.0,-789.0,336.0
19:48:53.436000,-215.0,-409.0,4326.0,642.0,-34.0,-159.0,420.0,-789.0,336.0
19:48:53.440000,-211.0,-473.0,4143.0,642.0,-34.0,-159.0,420.0,-789.0,336.0
19:48:53.446000,-201.0,-543.0,3949.0,388.0,142.0,-163.0,390.0,-801.0,345.0
19:48:53.450000,-172.0,-610.0,3800.0,215.0,192.0,-145.0,390.0,-801.0,345.0
19:48:53.455000,-126.0,-667.0,3687.0,119.0,151.0,-108.0,378.0,-814.0,330.0
19:48:53.460000,-70.0,-712.0,3591.0,57.0,93.0,-57.0,378.0,-814.0,330.0
19:48:53.464000,-20.0,-742.0,3510.0,-6.0,61.0,-3.0,378.0,-814.0,330.0
19:48:53.469000,5.0,-751.0,3444.0,-96.0,70.0,41.0,331.0,-807.0,336.0
19:48:53.473000,5.0,-751.0,3444.0,-216.0,113.0,73.0,331.0,-807.0,336.0
19:48:53.479000,-30.0,-684.0,3327.0,-338.0,153.0,86.0,319.0,-814.0,328.0
19:48:53.483000,-76.0,-606.0,3283.0,-423.0,153.0,68.0,319.0,-814.0,328.0
19:48:53.487000,-76.0,-606.0,3283.0,-459.0,138.0,8.0,319.0,-814.0,328.0
19:48:53.492000,-130.0,-505.0,3229.0,-476.0,197.0,-69.0,277.0,-829.0,345.0
19:48:53.497000,-182.0,-402.0,3110.0,-501.0,377.0,-131.0,277.0,-829.0,345.0
19:48:53.502000,-241.0,-321.0,2908.0,-531.0,594.0,-178.0,252.0,-814.0,325.0
19:48:53.507000,-303.0,-259.0,2686.0,-568.0,680.0,-229.0,252.0,-814.0,325.0
19:48:53.511000,-341.0,-213.0,2527.0,-610.0,545.0,-290.0,252.0,-814.0,325.0
19:48:53.516000,-333.0,-181.0,2464.0,-645.0,270.0,-353.0,232.0,-822.0,331.0
19:48:53.521000,-270.0,-159.0,2456.0,-664.0,21.0,-401.0,232.0,-822.0,331.0
19:48:53.526000,-171.0,-142.0,2454.0,-642.0,-104.0,-420.0,214.0,-813.0,352.0
19:48:53.530000,-69.0,-129.0,2428.0,-561.0,-102.0,-404.0,214.0,-813.0,352.0
19:48:53.534000,14.0,-128.0,2369.0,-432.0,-22.0,-355.0,214.0,-813.0,352.0
19:48:53.540000,65.0,-137.0,2279.0,-296.0,69.0,-300.0,187.0,-816.0,333.0
19:48:53.544000,86.0,-151.0,2153.0,-225.0,152.0,-259.0,187.0,-816.0,333.0
19:48:53.549000,84.0,-158.0,1988.0,-225.0,152.0,-259.0,177.0,-811.0,346.0
19:48:53.554000,59.0,-141.0,1787.0,-275.0,235.0,-234.0,177.0,-811.0,346.0
19:48:53.558000,22.0,-101.0,1569.0,-423.0,304.0,-222.0,177.0,-811.0,346.0
19:48:53.563000,-18.0,-47.0,1359.0,-577.0,326.0,-213.0,159.0,-802.0,339.0
19:48:53.568000,-43.0,9.0,1186.0,-640.0,271.0,-208.0,159.0,-802.0,339.0
19:48:53.572000,-36.0,53.0,1062.0,-582.0,131.0,-213.0,139.0,-808.0,354.0
19:48:53.577000,4.0,92.0,961.0,-454.0,-50.0,-233.0,139.0,-808.0,354.0
19:48:53.581000,4.0,92.0,961.0,-345.0,-196.0,-254.0,139.0,-808.0,354.0
19:48:53.587000,105.0,135.0,766.0,-295.0,-255.0,-257.0,136.0,-792.0,354.0
19:48:53.591000,120.0,125.0,639.0,-279.0,-208.0,-242.0,136.0,-792.0,354.0
19:48:53.596000,120.0,125.0,639.0,-227.0,-109.0,-222.0,132.0,-787.0,354.0
19:48:53.601000,97.0,105.0,498.0,-122.0,-34.0,-199.0,132.0,-787.0,354.0
19:48:53.605000,39.0,72.0,360.0,-9.0,7.0,-179.0,132.0,-787.0,354.0
19:48:53.610000,-36.0,36.0,210.0,75.0,15.0,-167.0,124.0,-789.0,366.0
19:48:53.615000,-124.0,5.0,56.0,114.0,-20.0,-165.0,124.0,-789.0,366.0
19:48:53.619000,-206.0,-14.0,-98.0,94.0,-87.0,-184.0,120.0,-790.0,372.0
19:48:53.624000,-285.0,-16.0,-245.0,35.0,-162.0,-183.0,120.0,-790.0,372.0
19:48:53.628000,-338.0,-25.0,-403.0,14.0,-283.0,-149.0,120.0,-790.0,372.0
19:48:53.634000,-333.0,-49.0,-578.0,91.0,-538.0,-123.0,136.0,-774.0,360.0
19:48:53.638000,-256.0,-67.0,-721.0,219.0,-916.0,-104.0,136.0,-774.0,360.0
19:48:53.643000,-109.0,-74.0,-802.0,219.0,-1278.0,-73.0,141.0,-775.0,360.0
19:48:53.648000,104.0,-70.0,-859.0,256.0,-1478.0,-91.0,141.0,-775.0,360.0
19:48:53.652000,361.0,-56.0,-961.0,91.0,-1447.0,-78.0,141.0,-775.0,360.0
19:48:53.657000,619.0,-28.0,-1138.0,-153.0,-1238.0,-25.0,162.0,-777.0,373.0
19:48:53.662000,831.0,12.0,-1376.0,-153.0,-1238.0,-25.0,162.0,-777.0,373.0
19:48:53.666000,977.0,51.0,-1626.0,-359.0,-985.0,69.0,165.0,-765.0,370.0
19:48:53.671000,1054.0,81.0,-1825.0,-389.0,-814.0,184.0,165.0,-765.0,370.0
19:48:53.675000,1054.0,100.0,-1951.0,-234.0,-737.0,310.0,165.0,-765.0,370.0
19:48:53.681000,971.0,123.0,-2021.0,-6.0,-674.0,439.0,166.0,-765.0,384.0
19:48:53.685000,1266.0,252.0,-1906.0,338.0,-831.0,348.0,166.0,-765.0,384.0
19:48:53.690000,1674.0,1159.0,774.0,1933.0,-2291.0,-793.0,181.0,-772.0,405.0
19:48:53.695000,-2459.0,-1425.0,3634.0,3647.0,-3770.0,631.0,181.0,-772.0,405.0
19:48:53.699000,-2459.0,-1425.0,3634.0,1359.0,-447.0,723.0,181.0,-772.0,405.0
19:48:53.704000,5034.0,-7568.0,-13943.0,-2636.0,3543.0,-207.0,186.0,-753.0,403.0
19:48:53.709000,8600.0,-5960.0,-21329.0,-3185.0,2685.0,1571.0,186.0,-753.0,403.0
19:48:53.713000,968.0,-3193.0,-8756.0,-372.0,-375.0,648.0,355.0,-706.0,439.0
19:48:53.718000,-4289.0,1125.0,4045.0,243.0,-1707.0,-276.0,355.0,-706.0,439.0
19:48:53.722000,-2743.0,921.0,4193.0,-1936.0,-1580.0,-208.0,355.0,-706.0,439.0
19:48:53.727000,-640.0,1022.0,-235.0,-1279.0,-2661.0,-282.0,325.0,-717.0,424.0
19:48:53.732000,-97.0,1283.0,-1248.0,382.0,-3410.0,387.0,325.0,-717.0,424.0
19:48:53.737000,175.0,562.0,-360.0,806.0,-3268.0,559.0,322.0,-715.0,429.0
19:48:53.742000,47.0,266.0,605.0,563.0,-2360.0,242.0,322.0,-715.0,429.0
19:48:53.746000,-168.0,214.0,312.0,-243.0,-1473.0,245.0,322.0,-715.0,429.0
19:48:53.751000,-16.0,-70.0,-218.0,-496.0,-1756.0,95.0,322.0,-721.0,451.0
19:48:53.756000,-411.0,206.0,-329.0,-621.0,-2233.0,-130.0,322.0,-721.0,451.0
19:48:53.760000,0.0,234.0,-854.0,-621.0,-2233.0,-130.0,322.0,-706.0,429.0
19:48:53.765000,-332.0,392.0,-653.0,-583.0,-2892.0,148.0,322.0,-706.0,429.0
19:48:53.769000,-280.0,462.0,-627.0,-327.0,-2892.0,148.0,322.0,-706.0,429.0
19:48:53.775000,485.0,205.0,-1358.0,-477.0,-2619.0,173.0,322.0,-700.0,424.0
19:48:53.779000,394.0,111.0,-1497.0,-470.0,-2641.0,149.0,322.0,-700.0,424.0
19:48:53.783000,9.0,330.0,-956.0,-335.0,-2297.0,-4.0,331.0,-691.0,442.0
19:48:53.789000,128.0,396.0,-1434.0,-335.0,-2297.0,-4.0,331.0,-691.0,442.0
19:48:53.793000,198.0,245.0,-1789.0,-363.0,-1929.0,-38.0,331.0,-691.0,442.0
19:48:53.798000,129.0,441.0,-1745.0,-307.0,-2081.0,149.0,339.0,-685.0,438.0
19:48:53.803000,-51.0,94.0,-1728.0,-179.0,-2391.0,205.0,339.0,-685.0,438.0
19:48:53.807000,-116.0,-20.0,-1955.0,37.0,-2473.0,433.0,348.0,-681.0,444.0
19:48:53.812000,-179.0,168.0,-2203.0,-95.0,-2248.0,238.0,348.0,-681.0,444.0
19:48:53.816000,-179.0,168.0,-2203.0,-132.0,-2258.0,33.0,348.0,-681.0,444.0
19:48:53.822000,-75.0,156.0,-2163.0,-19.0,-2655.0,62.0,364.0,-681.0,432.0
19:48:53.826000,14.0,205.0,-2160.0,-39.0,-2699.0,254.0,364.0,-681.0,432.0
19:48:53.831000,-80.0,118.0,-2376.0,-116.0,-2432.0,300.0,369.0,-664.0,433.0
19:48:53.836000,-149.0,81.0,-2524.0,-54.0,-2284.0,120.0,369.0,-664.0,433.0
19:48:53.840000,-212.0,217.0,-2459.0,155.0,-2559.0,76.0,382.0,-667.0,448.0
19:48:53.845000,-111.0,112.0,-2016.0,-31.0,-2755.0,168.0,382.0,-667.0,448.0
19:48:53.849000,-296.0,-2.0,-2182.0,-322.0,-2353.0,149.0,382.0,-667.0,448.0
19:48:53.854000,-394.0,118.0,-2286.0,-211.0,-2169.0,170.0,391.0,-652.0,436.0
19:48:53.859000,-449.0,-67.0,-2118.0,-140.0,-2458.0,68.0,391.0,-652.0,436.0
19:48:53.864000,-294.0,-52.0,-2055.0,-140.0,-2458.0,68.0,414.0,-636.0,436.0
19:48:53.869000,-333.0,60.0,-2141.0,-198.0,-2322.0,82.0,414.0,-636.0,436.0
19:48:53.873000,-350.0,-132.0,-2190.0,-269.0,-2277.0,158.0,414.0,-636.0,436.0
19:48:53.878000,-343.0,-163.0,-2095.0,-269.0,-2277.0,158.0,421.0,-636.0,432.0
19:48:53.883000,-312.0,-185.0,-2053.0,-290.0,-2588.0,37.0,421.0,-636.0,432.0
19:48:53.887000,-352.0,-219.0,-2010.0,-268.0,-2694.0,-13.0,436.0,-627.0,420.0
19:48:53.892000,-352.0,-251.0,-1867.0,-297.0,-2645.0,0.0,436.0,-627.0,420.0
19:48:53.896000,-303.0,-388.0,-1773.0,-342.0,-2551.0,118.0,436.0,-627.0,420.0
19:48:53.901000,-207.0,-269.0,-1896.0,-413.0,-2503.0,-56.0,444.0,-631.0,433.0
19:48:53.906000,-203.0,-208.0,-2067.0,-594.0,-2370.0,-161.0,444.0,-631.0,433.0
19:48:53.910000,-203.0,-208.0,-2067.0,-579.0,-2366.0,7.0,451.0,-621.0,427.0
19:48:53.916000,-54.0,-127.0,-1853.0,-542.0,-2487.0,-71.0,451.0,-621.0,427.0
19:48:53.920000,-54.0,-127.0,-1853.0,-540.0,-2449.0,-54.0,451.0,-621.0,427.0
19:48:53.925000,-44.0,-132.0,-1838.0,-485.0,-2411.0,-30.0,453.0,-610.0,429.0
19:48:53.930000,-9.0,-95.0,-1789.0,-458.0,-2486.0,-124.0,453.0,-610.0,429.0
19:48:53.934000,32.0,-14.0,-1471.0,-372.0,-2428.0,-114.0,463.0,-604.0,429.0
19:48:53.939000,105.0,-25.0,-1539.0,-327.0,-2239.0,-74.0,463.0,-604.0,429.0
19:48:53.943000,144.0,-149.0,-1741.0,-284.0,-2061.0,-32.0,463.0,-604.0,429.0
19:48:53.948000,147.0,-224.0,-1771.0,-230.0,-1905.0,-48.0,475.0,-595.0,418.0
19:48:53.953000,29.0,-186.0,-1687.0,-288.0,-1919.0,-2.0,475.0,-595.0,418.0
19:48:53.957000,-23.0,-196.0,-1670.0,-267.0,-1957.0,22.0,469.0,-585.0,432.0
19:48:53.963000,-12.0,-193.0,-1652.0,-279.0,-2092.0,97.0,469.0,-585.0,432.0
19:48:53.967000,18.0,-232.0,-1571.0,-418.0,-2178.0,123.0,486.0,-573.0,420.0
19:48:53.972000,-123.0,-60.0,-1442.0,-422.0,-1974.0,122.0,486.0,-573.0,420.0
19:48:53.976000,-230.0,26.0,-1528.0,-434.0,-1828.0,189.0,486.0,-573.0,420.0
19:48:53.981000,-121.0,-12.0,-1736.0,-500.0,-2112.0,155.0,496.0,-571.0,426.0
19:48:53.986000,-46.0,23.0,-1677.0,-500.0,-2112.0,155.0,496.0,-571.0,426.0
19:48:53.991000,-32.0,181.0,-1446.0,-497.0,-2408.0,105.0,489.0,-562.0,427.0
19:48:53.995000,-2.0,237.0,-1295.0,-310.0,-2338.0,124.0,489.0,-562.0,427.0
19:48:54.000000,79.0,160.0,-1421.0,-121.0,-1930.0,116.0,489.0,-562.0,427.0
19:48:54.005000,254.0,140.0,-1524.0,-121.0,-1930.0,116.0,513.0,-568.0,424.0
19:48:54.010000,381.0,350.0,-1570.0,-359.0,-2001.0,-49.0,513.0,-568.0,424.0
19:48:54.014000,334.0,488.0,-1612.0,-520.0,-1948.0,-52.0,511.0,-550.0,420.0
19:48:54.019000,238.0,473.0,-1508.0,-282.0,-1702.0,43.0,511.0,-550.0,420.0
19:48:54.023000,238.0,473.0,-1508.0,-56.0,-1543.0,172.0,511.0,-550.0,420.0
19:48:54.028000,224.0,67.0,-1078.0,-86.0,-1725.0,164.0,507.0,-537.0,426.0
19:48:54.033000,224.0,67.0,-1078.0,-286.0,-1839.0,93.0,507.0,-537.0,426.0
19:48:54.038000,256.0,-65.0,-1118.0,-568.0,-1750.0,15.0,520.0,-534.0,432.0
19:48:54.042000,304.0,46.0,-1218.0,-439.0,-1730.0,-114.0,520.0,-534.0,432.0
19:48:54.047000,193.0,128.0,-1107.0,-156.0,-1629.0,-27.0,520.0,-534.0,432.0
19:48:54.052000,88.0,137.0,-887.0,-94.0,-1454.0,6.0,505.0,-520.0,441.0
19:48:54.057000,111.0,133.0,-819.0,-68.0,-1517.0,53.0,505.0,-520.0,441.0
19:48:54.061000,72.0,-13.0,-805.0,-346.0,-1395.0,86.0,520.0,-517.0,429.0
19:48:54.066000,123.0,-113.0,-1183.0,-729.0,-1162.0,119.0,520.0,-517.0,429.0
19:48:54.070000,98.0,-169.0,-1465.0,-702.0,-1147.0,104.0,520.0,-517.0,429.0
19:48:54.075000,86.0,-107.0,-1376.0,-479.0,-1381.0,-59.0,519.0,-501.0,432.0
19:48:54.080000,21.0,89.0,-902.0,-376.0,-1540.0,-28.0,519.0,-501.0,432.0
19:48:54.084000,4.0,179.0,-562.0,-355.0,-1351.0,-14.0,526.0,-504.0,447.0
19:48:54.089000,-72.0,262.0,-568.0,-555.0,-1119.0,113.0,526.0,-504.0,447.0
19:48:54.094000,-114.0,73.0,-956.0,-555.0,-1025.0,113.0,526.0,-504.0,447.0
19:48:54.099000,-51.0,48.0,-1029.0,-752.0,-1024.0,176.0,526.0,-507.0,426.0
19:48:54.104000,-28.0,256.0,-893.0,-728.0,-1387.0,-51.0,526.0,-507.0,426.0
19:48:54.108000,8.0,214.0,-839.0,-774.0,-1526.0,-33.0,535.0,-492.0,429.0
19:48:54.113000,-4.0,1.0,-835.0,-513.0,-1399.0,130.0,535.0,-492.0,429.0
19:48:54.117000,-124.0,-22.0,-772.0,-228.0,-1455.0,141.0,535.0,-492.0,429.0
19:48:54.122000,-69.0,65.0,-629.0,-389.0,-1409.0,16.0,532.0,-492.0,433.0
19:48:54.127000,93.0,207.0,-580.0,-602.0,-1333.0,-130.0,532.0,-492.0,433.0
19:48:54.131000,93.0,207.0,-580.0,-681.0,-1385.0,-114.0,541.0,-487.0,432.0
19:48:54.136000,308.0,39.0,-634.0,-702.0,-1384.0,46.0,541.0,-487.0,432.0
19:48:54.141000,308.0,39.0,-634.0,-577.0,-1329.0,-31.0,541.0,-487.0,432.0
19:48:54.146000,263.0,201.0,-548.0,-413.0,-1329.0,-14.0,531.0,-486.0,423.0
19:48:54.151000,125.0,199.0,-462.0,-435.0,-1100.0,-20.0,531.0,-486.0,423.0
19:48:54.155000,205.0,349.0,-788.0,-515.0,-904.0,-166.0,529.0,-477.0,432.0
19:48:54.160000,361.0,389.0,-1043.0,-450.0,-1100.0,-38.0,529.0,-477.0,432.0
19:48:54.164000,519.0,223.0,-1018.0,-483.0,-1284.0,-45.0,529.0,-477.0,432.0
19:48:54.169000,430.0,305.0,-928.0,-702.0,-1113.0,-57.0,540.0,-474.0,438.0
19:48:54.173000,312.0,217.0,-942.0,-838.0,-838.0,-41.0,540.0,-474.0,438.0
19:48:54.179000,254.0,259.0,-980.0,-895.0,-679.0,-149.0,529.0,-466.0,450.0
19:48:54.183000,140.0,455.0,-1009.0,-761.0,-665.0,-163.0,529.0,-466.0,450.0
19:48:54.188000,185.0,560.0,-826.0,-348.0,-973.0,-102.0,540.0,-450.0,444.0
19:48:54.193000,184.0,527.0,-403.0,-348.0,-973.0,-102.0,540.0,-450.0,444.0
19:48:54.197000,241.0,303.0,-140.0,-435.0,-1234.0,-10.0,540.0,-450.0,444.0
19:48:54.202000,328.0,277.0,-428.0,-611.0,-899.0,-140.0,528.0,-457.0,439.0
19:48:54.207000,397.0,319.0,-932.0,-611.0,-899.0,-140.0,528.0,-457.0,439.0
19:48:54.212000,422.0,261.0,-1254.0,-594.0,-746.0,-102.0,534.0,-457.0,448.0
19:48:54.216000,401.0,210.0,-1159.0,-442.0,-969.0,-107.0,534.0,-457.0,448.0
19:48:54.220000,193.0,245.0,-638.0,-442.0,-969.0,-107.0,534.0,-457.0,448.0
19:48:54.226000,0.0,190.0,-23.0,-475.0,-1167.0,-87.0,538.0,-447.0,465.0
19:48:54.230000,-86.0,61.0,264.0,-462.0,-1308.0,-39.0,538.0,-447.0,465.0
19:48:54.235000,32.0,51.0,0.0,-462.0,-1328.0,-86.0,523.0,-444.0,450.0
19:48:54.240000,304.0,73.0,-646.0,-626.0,-1045.0,-181.0,523.0,-444.0,450.0
19:48:54.244000,304.0,73.0,-646.0,-661.0,-795.0,-165.0,523.0,-444.0,450.0
19:48:54.249000,450.0,67.0,-823.0,-464.0,-960.0,-115.0,543.0,-436.0,442.0
19:48:54.254000,450.0,67.0,-823.0,-514.0,-986.0,-151.0,543.0,-436.0,442.0
19:48:54.259000,499.0,93.0,-700.0,-753.0,-620.0,-167.0,531.0,-430.0,459.0
19:48:54.263000,446.0,116.0,-800.0,-715.0,-371.0,-143.0,531.0,-430.0,459.0
19:48:54.267000,345.0,119.0,-788.0,-532.0,-459.0,-94.0,531.0,-430.0,459.0
19:48:54.273000,219.0,75.0,-588.0,-442.0,-697.0,-40.0,534.0,-426.0,448.0
19:48:54.277000,108.0,10.0,-389.0,-495.0,-710.0,-46.0,534.0,-426.0,448.0
19:48:54.282000,85.0,-39.0,-462.0,-499.0,-675.0,-95.0,543.0,-429.0,453.0
19:48:54.287000,147.0,22.0,-457.0,-501.0,-894.0,-140.0,543.0,-429.0,453.0
19:48:54.291000,150.0,102.0,-221.0,-674.0,-940.0,-108.0,543.0,-429.0,453.0
19:48:54.296000,179.0,71.0,-246.0,-743.0,-792.0,-30.0,540.0,-423.0,451.0
19:48:54.301000,214.0,-6.0,-448.0,-649.0,-763.0,-48.0,540.0,-423.0,451.0
19:48:54.305000,235.0,53.0,-531.0,-604.0,-744.0,-106.0,538.0,-418.0,447.0
19:48:54.310000,249.0,131.0,-498.0,-715.0,-773.0,-75.0,538.0,-418.0,447.0
19:48:54.314000,221.0,119.0,-378.0,-715.0,-773.0,-75.0,538.0,-418.0,447.0
19:48:54.320000,135.0,163.0,-268.0,-806.0,-784.0,-75.0,543.0,-415.0,453.0
19:48:54.324000,116.0,97.0,-117.0,-713.0,-815.0,-65.0,543.0,-415.0,453.0
19:48:54.329000,45.0,101.0,-250.0,-653.0,-813.0,-46.0,543.0,-417.0,453.0
19:48:54.334000,37.0,108.0,-513.0,-666.0,-603.0,-89.0,543.0,-417.0,453.0
19:48:54.338000,121.0,82.0,-585.0,-699.0,-538.0,-91.0,543.0,-417.0,453.0
19:48:54.343000,161.0,58.0,-408.0,-622.0,-767.0,-109.0,538.0,-409.0,456.0
19:48:54.348000,177.0,28.0,-219.0,-603.0,-935.0,-140.0,538.0,-409.0,456.0
19:48:54.352000,177.0,28.0,-219.0,-728.0,-829.0,-98.0,538.0,-405.0,465.0
19:48:54.357000,-24.0,-43.0,-572.0,-670.0,-504.0,-67.0,538.0,-405.0,465.0
19:48:54.361000,-24.0,-43.0,-572.0,-463.0,-338.0,-62.0,538.0,-405.0,465.0
19:48:54.367000,-152.0,-69.0,-564.0,-296.0,-532.0,-39.0,546.0,-402.0,451.0
19:48:54.371000,-176.0,-140.0,-313.0,-406.0,-747.0,-103.0,546.0,-402.0,451.0
19:48:54.376000,-169.0,-95.0,-188.0,-753.0,-811.0,-184.0,541.0,-399.0,454.0
19:48:54.381000,-82.0,-80.0,-189.0,-1045.0,-797.0,-199.0,541.0,-399.0,454.0
19:48:54.385000,-18.0,3.0,-214.0,-1102.0,-871.0,-241.0,541.0,-399.0,454.0
19:48:54.390000,35.0,147.0,-97.0,-981.0,-1028.0,-160.0,535.0,-405.0,454.0
19:48:54.395000,21.0,64.0,64.0,-796.0,-873.0,-70.0,535.0,-405.0,454.0
19:48:54.400000,76.0,-7.0,-142.0,-593.0,-500.0,-117.0,520.0,-403.0,468.0
19:48:54.404000,193.0,-25.0,-492.0,-471.0,-393.0,-135.0,520.0,-403.0,468.0
19:48:54.408000,200.0,3.0,-653.0,-528.0,-649.0,-97.0,520.0,-403.0,468.0
19:48:54.414000,182.0,-23.0,-566.0,-680.0,-949.0,-142.0,541.0,-397.0,453.0
19:48:54.418000,156.0,71.0,-365.0,-862.0,-1015.0,-194.0,541.0,-397.0,453.0
19:48:54.423000,124.0,118.0,-179.0,-862.0,-1015.0,-194.0,544.0,-397.0,450.0
19:48:54.428000,72.0,156.0,-119.0,-1001.0,-872.0,-145.0,544.0,-397.0,450.0
19:48:54.432000,147.0,236.0,-173.0,-1021.0,-670.0,-194.0,544.0,-397.0,450.0
19:48:54.437000,189.0,218.0,-240.0,-1017.0,-655.0,-216.0,531.0,-399.0,457.0
19:48:54.442000,118.0,147.0,-325.0,-691.0,-668.0,-64.0,531.0,-399.0,457.0
19:48:54.447000,116.0,28.0,-217.0,-691.0,-668.0,-64.0,540.0,-402.0,462.0
19:48:54.451000,58.0,-29.0,-98.0,-555.0,-581.0,-62.0,540.0,-402.0,462.0
19:48:54.455000,58.0,-29.0,-98.0,-702.0,-469.0,-113.0,540.0,-402.0,462.0
19:48:54.461000,-65.0,-137.0,-283.0,-825.0,-437.0,-75.0,537.0,-402.0,460.0
19:48:54.465000,-25.0,-191.0,-292.0,-764.0,-468.0,-43.0,537.0,-402.0,460.0
19:48:54.470000,-25.0,-191.0,-292.0,-709.0,-573.0,-91.0,537.0,-391.0,463.0
19:48:54.475000,-11.0,-156.0,-348.0,-764.0,-695.0,-106.0,537.0,-391.0,463.0
19:48:54.479000,13.0,-124.0,-360.0,-842.0,-637.0,-109.0,537.0,-391.0,463.0
19:48:54.484000,21.0,-86.0,-425.0,-879.0,-539.0,-86.0,540.0,-393.0,460.0
19:48:54.489000,-16.0,-78.0,-508.0,-818.0,-588.0,-46.0,540.0,-393.0,460.0
19:48:54.494000,-72.0,-89.0,-466.0,-815.0,-710.0,-75.0,540.0,-391.0,456.0
19:48:54.498000,-82.0,-18.0,-426.0,-914.0,-685.0,-124.0,540.0,-391.0,456.0
19:48:54.502000,-56.0,23.0,-483.0,-970.0,-630.0,-116.0,540.0,-391.0,456.0
19:48:54.508000,34.0,-4.0,-446.0,-966.0,-665.0,-75.0,541.0,-393.0,453.0
19:48:54.512000,6.0,-51.0,-382.0,-911.0,-631.0,-90.0,541.0,-393.0,453.0
19:48:54.517000,-61.0,-6.0,-388.0,-911.0,-570.0,-80.0,535.0,-382.0,456.0
19:48:54.522000,-77.0,-92.0,-359.0,-731.0,-476.0,-74.0,535.0,-382.0,456.0
19:48:54.526000,-28.0,-98.0,-366.0,-828.0,-407.0,-105.0,535.0,-382.0,456.0
19:48:54.531000,-14.0,-156.0,-445.0,-892.0,-469.0,-48.0,541.0,-393.0,466.0
19:48:54.536000,-40.0,-252.0,-513.0,-892.0,-469.0,-48.0,541.0,-393.0,466.0
19:48:54.541000,-66.0,-240.0,-464.0,-782.0,-543.0,-62.0,544.0,-378.0,456.0
19:48:54.545000,-52.0,-246.0,-391.0,-657.0,-572.0,-93.0,544.0,-378.0,456.0
19:48:54.549000,-9.0,-260.0,-351.0,-683.0,-584.0,-84.0,544.0,-378.0,456.0
19:48:54.555000,15.0,-196.0,-393.0,-805.0,-578.0,-121.0,546.0,-381.0,450.0
19:48:54.559000,16.0,-170.0,-565.0,-988.0,-578.0,-117.0,546.0,-381.0,450.0
19:48:54.564000,30.0,-132.0,-665.0,-1077.0,-591.0,-96.0,544.0,-379.0,451.0
19:48:54.569000,49.0,-154.0,-550.0,-949.0,-592.0,-74.0,544.0,-379.0,451.0
19:48:54.573000,49.0,-154.0,-550.0,-747.0,-637.0,-58.0,544.0,-379.0,451.0
19:48:54.578000,29.0,-125.0,-354.0,-753.0,-641.0,-71.0,547.0,-372.0,456.0
19:48:54.583000,-17.0,-70.0,-320.0,-934.0,-605.0,-47.0,547.0,-372.0,456.0
19:48:54.588000,-28.0,-70.0,-319.0,-1037.0,-637.0,-1.0,546.0,-378.0,454.0
19:48:54.592000,-103.0,-88.0,-360.0,-1019.0,-618.0,-20.0,546.0,-378.0,454.0
19:48:54.596000,-52.0,-85.0,-459.0,-857.0,-605.0,-27.0,546.0,-378.0,454.0
19:48:54.602000,-21.0,-139.0,-430.0,-716.0,-567.0,-38.0,538.0,-372.0,448.0
19:48:54.606000,1.0,-75.0,-420.0,-786.0,-513.0,-91.0,538.0,-372.0,448.0
19:48:54.611000,51.0,-44.0,-483.0,-927.0,-530.0,-45.0,550.0,-367.0,453.0
19:48:54.616000,66.0,-69.0,-557.0,-958.0,-517.0,-26.0,550.0,-367.0,453.0
19:48:54.623000,79.0,-128.0,-591.0,-821.0,-528.0,16.0,552.0,-364.0,474.0
19:48:54.625000,79.0,-128.0,-591.0,-821.0,-528.0,16.0,552.0,-364.0,474.0
19:48:54.629000,-9.0,-93.0,-546.0,-833.0,-434.0,0.0,552.0,-364.0,474.0
19:48:54.635000,-78.0,-70.0,-557.0,-888.0,-329.0,-33.0,541.0,-366.0,453.0
19:48:54.639000,-93.0,-25.0,-546.0,-930.0,-384.0,-25.0,541.0,-366.0,453.0
19:48:54.644000,-139.0,-31.0,-473.0,-930.0,-384.0,-25.0,543.0,-360.0,456.0
19:48:54.649000,-149.0,-16.0,-375.0,-982.0,-557.0,-5.0,543.0,-360.0,456.0
19:48:54.653000,-190.0,43.0,-360.0,-1046.0,-670.0,-23.0,543.0,-360.0,456.0
19:48:54.658000,-261.0,84.0,-282.0,-1048.0,-640.0,-3.0,549.0,-360.0,453.0
19:48:54.663000,-468.0,310.0,616.0,-765.0,-897.0,-98.0,549.0,-360.0,453.0
19:48:54.668000,-379.0,24.0,644.0,-893.0,-727.0,32.0,543.0,-358.0,468.0
19:48:54.672000,-342.0,277.0,28.0,-1251.0,-163.0,19.0,543.0,-358.0,468.0
19:48:54.676000,-342.0,277.0,28.0,-1122.0,-361.0,-85.0,543.0,-358.0,468.0
19:48:54.682000,-274.0,232.0,-109.0,-957.0,-529.0,-7.0,540.0,-373.0,456.0
19:48:54.686000,-263.0,213.0,-91.0,-840.0,-463.0,-31.0,540.0,-373.0,456.0
19:48:54.691000,-263.0,213.0,-91.0,-784.0,-442.0,-10.0,541.0,-369.0,466.0
19:48:54.696000,-231.0,191.0,-174.0,-797.0,-349.0,-19.0,541.0,-369.0,466.0
19:48:54.700000,-156.0,142.0,-317.0,-772.0,-399.0,-20.0,541.0,-369.0,466.0
19:48:54.705000,-73.0,142.0,-395.0,-738.0,-543.0,-42.0,540.0,-364.0,462.0
19:48:54.710000,-51.0,143.0,-305.0,-808.0,-607.0,-24.0,540.0,-364.0,462.0
19:48:54.715000,-99.0,121.0,-228.0,-946.0,-498.0,-15.0,538.0,-370.0,474.0
19:48:54.719000,-118.0,109.0,-282.0,-994.0,-391.0,-37.0,538.0,-370.0,474.0
19:48:54.723000,-144.0,121.0,-380.0,-941.0,-379.0,-14.0,538.0,-370.0,474.0
19:48:54.729000,-184.0,89.0,-459.0,-835.0,-428.0,-15.0,547.0,-358.0,457.0
19:48:54.733000,-185.0,79.0,-426.0,-750.0,-490.0,-37.0,547.0,-358.0,457.0
19:48:54.738000,-196.0,63.0,-325.0,-750.0,-490.0,-37.0,541.0,-369.0,463.0
19:48:54.743000,-208.0,58.0,-220.0,-828.0,-425.0,-61.0,541.0,-369.0,463.0
19:48:54.747000,-231.0,82.0,-160.0,-881.0,-378.0,-52.0,541.0,-369.0,463.0
19:48:54.752000,-271.0,65.0,-172.0,-881.0,-324.0,-36.0,547.0,-370.0,475.0
19:48:54.757000,-314.0,62.0,-248.0,-881.0,-324.0,-36.0,547.0,-370.0,475.0
19:48:54.762000,-319.0,40.0,-298.0,-854.0,-291.0,-32.0,543.0,-372.0,474.0
19:48:54.766000,-368.0,32.0,-247.0,-802.0,-336.0,-22.0,543.0,-372.0,474.0
19:48:54.770000,-382.0,14.0,-247.0,-782.0,-367.0,-24.0,543.0,-372.0,474.0
19:48:54.776000,-343.0,-2.0,-279.0,-829.0,-408.0,-54.0,541.0,-367.0,468.0
19:48:54.780000,-272.0,28.0,-256.0,-830.0,-481.0,-83.0,541.0,-367.0,468.0
19:48:54.785000,-240.0,48.0,-254.0,-887.0,-530.0,-78.0,540.0,-369.0,463.0
19:48:54.790000,-267.0,53.0,-228.0,-957.0,-576.0,-47.0,540.0,-369.0,463.0
19:48:54.794000,-267.0,53.0,-228.0,-955.0,-578.0,-49.0,540.0,-369.0,463.0
19:48:54.799000,-218.0,62.0,-196.0,-981.0,-487.0,-108.0,547.0,-357.0,468.0
19:48:54.804000,-123.0,80.0,-259.0,-958.0,-398.0,-95.0,547.0,-357.0,468.0
19:48:54.809000,-121.0,39.0,-282.0,-860.0,-378.0,-66.0,526.0,-367.0,474.0
19:48:54.813000,-170.0,63.0,-245.0,-780.0,-376.0,-68.0,526.0,-367.0,474.0
19:48:54.817000,-185.0,33.0,-192.0,-754.0,-398.0,-36.0,526.0,-367.0,474.0
19:48:54.823000,-212.0,-11.0,-170.0,-761.0,-389.0,-49.0,541.0,-360.0,471.0
19:48:54.827000,-221.0,14.0,-201.0,-836.0,-385.0,-69.0,541.0,-360.0,471.0
19:48:54.832000,-170.0,8.0,-240.0,-904.0,-426.0,-79.0,544.0,-361.0,468.0
19:48:54.837000,-105.0,26.0,-224.0,-917.0,-476.0,-72.0,544.0,-361.0,468.0
19:48:54.841000,-107.0,39.0,-172.0,-908.0,-474.0,-50.0,544.0,-361.0,468.0
19:48:54.846000,-122.0,51.0,-136.0,-896.0,-397.0,-35.0,537.0,-369.0,484.0
19:48:54.851000,-185.0,56.0,-117.0,-911.0,-272.0,-17.0,537.0,-369.0,484.0
19:48:54.856000,-229.0,54.0,-142.0,-911.0,-272.0,-17.0,543.0,-370.0,465.0
19:48:54.860000,-249.0,16.0,-233.0,-907.0,-185.0,1.0,543.0,-370.0,465.0
19:48:54.864000,-243.0,32.0,-311.0,-868.0,-219.0,-11.0,543.0,-370.0,465.0
19:48:54.870000,-207.0,59.0,-282.0,-830.0,-372.0,-53.0,549.0,-366.0,480.0
19:48:54.874000,-197.0,41.0,-177.0,-826.0,-536.0,-43.0,549.0,-366.0,480.0
19:48:54.879000,-169.0,34.0,-172.0,-863.0,-529.0,-30.0,543.0,-367.0,469.0
19:48:54.884000,-112.0,56.0,-218.0,-898.0,-405.0,-53.0,543.0,-367.0,469.0
19:48:54.888000,-128.0,80.0,-165.0,-904.0,-391.0,-55.0,546.0,-367.0,469.0
19:48:54.893000,-178.0,105.0,-28.0,-892.0,-456.0,-47.0,546.0,-367.0,469.0
19:48:54.897000,-178.0,105.0,-28.0,-897.0,-420.0,-46.0,546.0,-367.0,469.0
19:48:54.903000,-132.0,50.0,-102.0,-928.0,-296.0,-43.0,535.0,-366.0,469.0
19:48:54.907000,-132.0,50.0,-102.0,-912.0,-227.0,-50.0,535.0,-366.0,469.0
19:48:54.912000,-144.0,56.0,-250.0,-841.0,-267.0,-33.0,549.0,-373.0,471.0
19:48:54.917000,-182.0,32.0,-271.0,-766.0,-337.0,-28.0,549.0,-373.0,471.0
19:48:54.921000,-174.0,20.0,-168.0,-742.0,-351.0,-47.0,549.0,-373.0,471.0
19:48:54.926000,-156.0,19.0,-60.0,-817.0,-302.0,-54.0,538.0,-373.0,468.0
19:48:54.931000,-136.0,20.0,-36.0,-889.0,-250.0,-46.0,538.0,-373.0,468.0
19:48:54.935000,-130.0,-5.0,-102.0,-883.0,-244.0,-34.0,528.0,-373.0,475.0
19:48:54.940000,-137.0,-8.0,-162.0,-834.0,-278.0,-37.0,528.0,-373.0,475.0
19:48:54.944000,-106.0,-12.0,-164.0,-810.0,-318.0,-30.0,528.0,-373.0,475.0
19:48:54.950000,-102.0,-16.0,-154.0,-844.0,-328.0,-19.0,531.0,-372.0,466.0
19:48:54.954000,-126.0,-10.0,-154.0,-895.0,-292.0,-7.0,531.0,-372.0,466.0
19:48:54.959000,-145.0,-32.0,-232.0,-895.0,-292.0,-7.0,544.0,-369.0,475.0
19:48:54.964000,-142.0,-43.0,-322.0,-809.0,-236.0,-8.0,544.0,-369.0,475.0
19:48:54.968000,-136.0,-40.0,-291.0,-809.0,-320.0,-9.0,544.0,-369.0,475.0
19:48:54.973000,-180.0,-15.0,-144.0,-801.0,-407.0,-15.0,531.0,-369.0,481.0
19:48:54.978000,-210.0,18.0,-24.0,-801.0,-407.0,-15.0,531.0,-369.0,481.0
19:48:54.982000,-187.0,44.0,9.0,-947.0,-439.0,-45.0,531.0,-369.0,481.0
19:48:54.987000,-194.0,38.0,-5.0,-1064.0,-425.0,-47.0,531.0,-369.0,481.0
19:48:54.991000,-197.0,55.0,-28.0,-1080.0,-376.0,-38.0,531.0,-369.0,481.0
19:48:54.997000,-183.0,67.0,-38.0,-1019.0,-328.0,-44.0,552.0,-376.0,471.0
19:48:55.001000,-137.0,54.0,-23.0,-926.0,-331.0,-36.0,552.0,-376.0,471.0
19:48:55.006000,-102.0,25.0,-24.0,-848.0,-338.0,-23.0,546.0,-360.0,468.0
19:48:55.011000,-78.0,15.0,-7.0,-798.0,-327.0,-27.0,546.0,-360.0,468.0
19:48:55.015000,-78.0,15.0,-7.0,-784.0,-291.0,-46.0,546.0,-360.0,468.0
19:48:55.020000,-50.0,4.0,-37.0,-802.0,-253.0,-38.0,541.0,-370.0,474.0
19:48:55.025000,-41.0,-17.0,-106.0,-791.0,-273.0,-27.0,541.0,-370.0,474.0
19:48:55.029000,-62.0,-28.0,-126.0,-779.0,-316.0,-25.0,540.0,-372.0,469.0
19:48:55.034000,-115.0,-26.0,-72.0,-821.0,-323.0,-35.0,540.0,-372.0,469.0
19:48:55.038000,-113.0,-33.0,-1.0,-915.0,-300.0,-45.0,540.0,-372.0,469.0
19:48:55.044000,-108.0,-44.0,-9.0,-988.0,-289.0,-49.0,549.0,-373.0,474.0
19:48:55.048000,-113.0,-34.0,-79.0,-987.0,-294.0,-53.0,549.0,-373.0,474.0
19:48:55.053000,-98.0,-25.0,-124.0,-956.0,-322.0,-52.0,541.0,-373.0,478.0
19:48:55.058000,-91.0,-11.0,-105.0,-936.0,-347.0,-37.0,541.0,-373.0,478.0
19:48:55.062000,-73.0,-23.0,-73.0,-925.0,-351.0,-26.0,541.0,-373.0,478.0
19:48:55.067000,-34.0,-32.0,-46.0,-922.0,-343.0,-29.0,549.0,-372.0,471.0
19:48:55.072000,-49.0,-13.0,-16.0,-946.0,-329.0,-29.0,549.0,-372.0,471.0
19:48:55.076000,-52.0,-4.0,13.0,-946.0,-329.0,-29.0,549.0,-373.0,478.0
19:48:55.081000,-83.0,-17.0,16.0,-975.0,-334.0,-14.0,549.0,-373.0,478.0
19:48:55.085000,-112.0,-14.0,-2.0,-965.0,-346.0,-5.0,549.0,-373.0,478.0
19:48:55.091000,-110.0,-13.0,-39.0,-934.0,-318.0,-7.0,546.0,-372.0,477.0
19:48:55.095000,-93.0,9.0,-62.0,-901.0,-299.0,-13.0,546.0,-372.0,477.0
19:48:55.100000,-70.0,39.0,-28.0,-893.0,-349.0,-28.0,552.0,-372.0,478.0
19:48:55.105000,-65.0,29.0,-17.0,-934.0,-394.0,-22.0,552.0,-372.0,478.0
19:48:55.109000,-23.0,16.0,-26.0,-951.0,-385.0,-28.0,552.0,-372.0,478.0
19:48:55.114000,10.0,12.0,-64.0,-940.0,-354.0,-44.0,544.0,-378.0,474.0
19:48:55.119000,26.0,5.0,-94.0,-918.0,-310.0,-34.0,544.0,-378.0,474.0
19:48:55.123000,0.0,0.0,-92.0,-882.0,-278.0,-19.0,535.0,-373.0,486.0
19:48:55.128000,0.0,0.0,-92.0,-857.0,-269.0,-3.0,535.0,-373.0,486.0
19:48:55.132000,-32.0,-16.0,-71.0,-853.0,-244.0,-13.0,535.0,-373.0,486.0
19:48:55.138000,-49.0,0.0,-45.0,-889.0,-229.0,-29.0,549.0,-379.0,477.0
19:48:55.142000,-86.0,31.0,-21.0,-952.0,-232.0,-26.0,549.0,-379.0,477.0
19:48:55.147000,-102.0,49.0,-11.0,-997.0,-227.0,-22.0,541.0,-372.0,486.0
19:48:55.152000,-119.0,53.0,-36.0,-1007.0,-225.0,-19.0,541.0,-372.0,486.0
19:48:55.156000,-128.0,65.0,-83.0,-995.0,-225.0,-29.0,541.0,-372.0,486.0
19:48:55.161000,-94.0,77.0,-103.0,-978.0,-258.0,-40.0,544.0,-382.0,472.0
19:48:55.166000,-54.0,84.0,-71.0,-972.0,-307.0,-36.0,544.0,-382.0,472.0
19:48:55.170000,-36.0,84.0,-30.0,-982.0,-330.0,-34.0,550.0,-373.0,481.0
19:48:55.175000,-37.0,80.0,-19.0,-977.0,-338.0,-25.0,550.0,-373.0,481.0
19:48:55.179000,-47.0,56.0,-18.0,-926.0,-348.0,-26.0,550.0,-373.0,481.0
19:48:55.184000,-66.0,63.0,11.0,-879.0,-340.0,-33.0,553.0,-375.0,486.0
19:48:55.189000,-79.0,54.0,22.0,-879.0,-340.0,-33.0,553.0,-375.0,486.0
19:48:55.194000,-61.0,63.0,18.0,-863.0,-335.0,-43.0,546.0,-375.0,481.0
19:48:55.199000,-60.0,56.0,21.0,-866.0,-363.0,-46.0,546.0,-375.0,481.0
19:48:55.203000,-46.0,55.0,36.0,-882.0,-382.0,-52.0,546.0,-375.0,481.0
19:48:55.208000,3.0,48.0,44.0,-882.0,-382.0,-52.0,534.0,-378.0,492.0
19:48:55.213000,4.0,37.0,35.0,-894.0,-369.0,-54.0,534.0,-378.0,492.0
19:48:55.217000,-22.0,20.0,26.0,-885.0,-344.0,-43.0,552.0,-387.0,484.0
19:48:55.222000,-49.0,4.0,25.0,-851.0,-285.0,-35.0,552.0,-387.0,484.0
19:48:55.226000,-49.0,4.0,25.0,-837.0,-229.0,-41.0,552.0,-387.0,484.0
19:48:55.231000,-31.0,-3.0,18.0,-852.0,-233.0,-54.0,549.0,-379.0,478.0
19:48:55.236000,-31.0,-3.0,18.0,-880.0,-298.0,-60.0,549.0,-379.0,478.0
19:48:55.241000,-30.0,4.0,14.0,-912.0,-346.0,-62.0,550.0,-376.0,483.0
19:48:55.246000,-36.0,14.0,11.0,-941.0,-336.0,-67.0,550.0,-376.0,483.0
19:48:55.250000,-38.0,27.0,-27.0,-950.0,-315.0,-77.0,550.0,-376.0,483.0
19:48:55.255000,-26.0,46.0,-82.0,-941.0,-318.0,-79.0,549.0,-385.0,502.0
19:48:55.260000,0.0,54.0,-117.0,-934.0,-329.0,-76.0,549.0,-385.0,502.0
19:48:55.264000,32.0,67.0,-118.0,-933.0,-340.0,-83.0,541.0,-385.0,502.0
19:48:55.269000,81.0,79.0,-100.0,-945.0,-349.0,-81.0,541.0,-385.0,502.0
19:48:55.273000,95.0,81.0,-80.0,-947.0,-354.0,-67.0,541.0,-385.0,502.0
19:48:55.278000,97.0,72.0,-49.0,-931.0,-351.0,-62.0,552.0,-387.0,489.0
19:48:55.283000,100.0,68.0,-25.0,-929.0,-350.0,-70.0,552.0,-387.0,489.0
19:48:55.288000,86.0,80.0,-18.0,-929.0,-350.0,-70.0,541.0,-376.0,490.0
19:48:55.293000,70.0,89.0,-23.0,-984.0,-327.0,-78.0,541.0,-376.0,490.0
19:48:55.297000,83.0,79.0,-46.0,-984.0,-327.0,-78.0,541.0,-376.0,490.0
19:48:55.302000,91.0,62.0,-64.0,-953.0,-320.0,-74.0,555.0,-373.0,483.0
19:48:55.307000,60.0,70.0,-39.0,-953.0,-320.0,-74.0,555.0,-373.0,483.0
19:48:55.311000,30.0,81.0,-16.0,-926.0,-326.0,-72.0,558.0,-375.0,481.0
19:48:55.316000,19.0,86.0,-11.0,-943.0,-313.0,-68.0,558.0,-375.0,481.0
19:48:55.320000,3.0,77.0,-48.0,-979.0,-306.0,-62.0,558.0,-375.0,481.0
19:48:55.325000,-14.0,72.0,-109.0,-985.0,-288.0,-52.0,547.0,-376.0,486.0
19:48:55.330000,-35.0,61.0,-125.0,-947.0,-281.0,-42.0,547.0,-376.0,486.0
19:48:55.335000,-56.0,51.0,-107.0,-899.0,-301.0,-33.0,547.0,-369.0,490.0
19:48:55.340000,-56.0,46.0,-112.0,-896.0,-323.0,-29.0,547.0,-369.0,490.0
19:48:55.347000,-65.0,41.0,-134.0,-925.0,-355.0,-17.0,552.0,-372.0,493.0
19:48:55.349000,-65.0,41.0,-134.0,-925.0,-355.0,-17.0,552.0,-372.0,493.0
19:48:55.353000,-88.0,36.0,-147.0,-926.0,-343.0,-15.0,552.0,-372.0,493.0
19:48:55.358000,-84.0,27.0,-160.0,-938.0,-321.0,-17.0,537.0,-373.0,498.0
19:48:55.363000,-67.0,19.0,-204.0,-951.0,-304.0,-23.0,537.0,-373.0,498.0
19:48:55.368000,-53.0,37.0,-261.0,-952.0,-293.0,-25.0,538.0,-379.0,505.0
19:48:55.372000,-26.0,46.0,-293.0,-970.0,-268.0,-18.0,538.0,-379.0,505.0
19:48:55.377000,12.0,51.0,-313.0,-989.0,-242.0,-15.0,538.0,-379.0,505.0
19:48:55.382000,46.0,46.0,-303.0,-985.0,-221.0,-10.0,549.0,-366.0,496.0
19:48:55.387000,63.0,37.0,-275.0,-984.0,-188.0,-7.0,549.0,-366.0,496.0
19:48:55.391000,46.0,39.0,-278.0,-994.0,-144.0,-11.0,543.0,-369.0,486.0
19:48:55.396000,35.0,49.0,-308.0,-1011.0,-118.0,-14.0,543.0,-369.0,486.0
19:48:55.400000,18.0,65.0,-317.0,-1035.0,-120.0,-11.0,543.0,-369.0,486.0
19:48:55.405000,6.0,72.0,-294.0,-1035.0,-122.0,-10.0,553.0,-370.0,498.0
19:48:55.410000,5.0,76.0,-275.0,-1058.0,-122.0,-10.0,553.0,-370.0,498.0
19:48:55.415000,1.0,95.0,-277.0,-1074.0,-116.0,-17.0,550.0,-369.0,492.0
19:48:55.419000,-4.0,110.0,-270.0,-1075.0,-106.0,-22.0,550.0,-369.0,492.0
19:48:55.424000,-16.0,122.0,-237.0,-1050.0,-108.0,-20.0,550.0,-369.0,492.0
19:48:55.429000,-37.0,143.0,-182.0,-1018.0,-124.0,-20.0,541.0,-366.0,493.0
19:48:55.434000,-51.0,156.0,-123.0,-1007.0,-137.0,-18.0,541.0,-366.0,493.0
19:48:55.438000,-41.0,161.0,-74.0,-1008.0,-141.0,-21.0,543.0,-373.0,498.0
19:48:55.443000,-21.0,158.0,-49.0,-1005.0,-143.0,-27.0,543.0,-373.0,498.0
19:48:55.447000,-21.0,158.0,-49.0,-994.0,-139.0,-28.0,543.0,-373.0,498.0
19:48:55.452000,-19.0,151.0,-44.0,-966.0,-121.0,-28.0,550.0,-360.0,495.0
19:48:55.457000,-19.0,151.0,-44.0,-934.0,-88.0,-30.0,550.0,-360.0,495.0
19:48:55.462000,-30.0,147.0,-46.0,-919.0,-45.0,-32.0,535.0,-361.0,487.0
19:48:55.466000,-37.0,133.0,-52.0,-920.0,-18.0,-30.0,535.0,-361.0,487.0
19:48:55.471000,-44.0,114.0,-51.0,-923.0,-21.0,-29.0,535.0,-361.0,487.0
19:48:55.476000,-56.0,95.0,-44.0,-926.0,-33.0,-33.0,553.0,-372.0,499.0
19:48:55.481000,-60.0,86.0,-46.0,-929.0,-53.0,-38.0,553.0,-372.0,499.0
19:48:55.485000,-56.0,77.0,-54.0,-927.0,-81.0,-39.0,549.0,-369.0,496.0
19:48:55.490000,-45.0,70.0,-53.0,-920.0,-100.0,-41.0,549.0,-369.0,496.0
19:48:55.494000,-42.0,65.0,-53.0,-925.0,-98.0,-42.0,549.0,-369.0,496.0
19:48:55.499000,-49.0,64.0,-56.0,-942.0,-89.0,-50.0,532.0,-355.0,507.0
19:48:55.504000,-51.0,64.0,-53.0,-962.0,-87.0,-58.0,532.0,-355.0,507.0
19:48:55.509000,-57.0,58.0,-60.0,-962.0,-87.0,-58.0,541.0,-373.0,505.0
19:48:55.513000,-59.0,59.0,-63.0,-948.0,-110.0,-78.0,541.0,-373.0,505.0
19:48:55.518000,-56.0,45.0,-51.0,-948.0,-110.0,-78.0,541.0,-373.0,505.0
19:48:55.523000,-49.0,31.0,-39.0,-913.0,-110.0,-83.0,543.0,-367.0,498.0
19:48:55.528000,-49.0,23.0,-32.0,-877.0,-72.0,-102.0,543.0,-367.0,498.0
19:48:55.532000,-53.0,22.0,-28.0,-877.0,-72.0,-102.0,535.0,-370.0,522.0
19:48:55.537000,-58.0,20.0,-28.0,-905.0,-53.0,-112.0,535.0,-370.0,522.0
19:48:55.541000,-56.0,21.0,-34.0,-953.0,-45.0,-120.0,535.0,-370.0,522.0
19:48:55.546000,-47.0,14.0,-50.0,-989.0,-48.0,-129.0,540.0,-369.0,501.0
19:48:55.551000,-42.0,4.0,-86.0,-988.0,-39.0,-125.0,540.0,-369.0,501.0
19:48:55.556000,-32.0,17.0,-102.0,-964.0,-25.0,-127.0,552.0,-366.0,505.0
19:48:55.560000,-10.0,30.0,-90.0,-954.0,-35.0,-140.0,552.0,-366.0,505.0
19:48:55.565000,-10.0,30.0,-90.0,-982.0,-57.0,-135.0,552.0,-366.0,505.0
19:48:55.570000,5.0,17.0,-87.0,-1012.0,-45.0,-138.0,544.0,-366.0,496.0
19:48:55.575000,18.0,31.0,-110.0,-1024.0,-38.0,-136.0,544.0,-366.0,496.0
19:48:55.579000,-27.0,30.0,-127.0,-1002.0,0.0,-156.0,538.0,-364.0,505.0
19:48:55.584000,32.0,43.0,-121.0,-1010.0,-16.0,-152.0,538.0,-364.0,505.0
19:48:55.588000,2.0,21.0,-117.0,-1053.0,-77.0,-139.0,538.0,-364.0,505.0
19:48:55.593000,-32.0,44.0,-152.0,-1050.0,-75.0,-172.0,547.0,-366.0,507.0
19:48:55.598000,-20.0,46.0,-146.0,-1033.0,-77.0,-188.0,547.0,-366.0,507.0
19:48:55.603000,11.0,64.0,-90.0,-1068.0,-59.0,-205.0,541.0,-363.0,507.0
19:48:55.607000,35.0,91.0,-87.0,-1119.0,-32.0,-201.0,541.0,-363.0,507.0
19:48:55.612000,49.0,97.0,-116.0,-1115.0,-33.0,-198.0,541.0,-363.0,507.0
19:48:55.617000,88.0,90.0,-127.0,-1070.0,-66.0,-189.0,549.0,-363.0,502.0
19:48:55.621000,109.0,76.0,-116.0,-1029.0,-110.0,-181.0,549.0,-363.0,502.0
19:48:55.626000,125.0,73.0,-97.0,-1029.0,-110.0,-181.0,549.0,-366.0,502.0
19:48:55.631000,94.0,74.0,-72.0,-1010.0,-149.0,-172.0,549.0,-366.0,502.0
19:48:55.635000,90.0,72.0,-128.0,-1022.0,-115.0,-155.0,549.0,-366.0,502.0
19:48:55.640000,86.0,87.0,-206.0,-1030.0,-45.0,-153.0,552.0,-364.0,511.0
19:48:55.645000,107.0,92.0,-239.0,-1004.0,-28.0,-153.0,552.0,-364.0,511.0
19:48:55.650000,118.0,88.0,-252.0,-994.0,-49.0,-140.0,546.0,-361.0,507.0
19:48:55.654000,108.0,92.0,-284.0,-1015.0,-75.0,-123.0,546.0,-361.0,507.0
19:48:55.659000,108.0,92.0,-284.0,-1040.0,-79.0,-122.0,546.0,-361.0,507.0
19:48:55.664000,140.0,116.0,-315.0,-1052.0,-75.0,-133.0,541.0,-354.0,510.0
19:48:55.669000,137.0,115.0,-324.0,-1086.0,-82.0,-131.0,541.0,-354.0,510.0
19:48:55.673000,137.0,115.0,-324.0,-1115.0,-77.0,-120.0,541.0,-357.0,520.0
19:48:55.678000,131.0,117.0,-360.0,-1110.0,-56.0,-122.0,541.0,-357.0,520.0
19:48:55.682000,147.0,115.0,-383.0,-1071.0,-80.0,-120.0,541.0,-357.0,520.0
19:48:55.687000,139.0,112.0,-302.0,-1036.0,-102.0,-117.0,552.0,-346.0,513.0
19:48:55.692000,147.0,100.0,-189.0,-1064.0,-84.0,-122.0,552.0,-346.0,513.0
19:48:55.697000,125.0,100.0,-154.0,-1095.0,-65.0,-127.0,546.0,-343.0,510.0
19:48:55.701000,86.0,117.0,-185.0,-1070.0,-73.0,-120.0,546.0,-343.0,510.0
19:48:55.706000,47.0,116.0,-196.0,-1048.0,-86.0,-135.0,546.0,-343.0,510.0
19:48:55.711000,33.0,135.0,-254.0,-1041.0,-91.0,-146.0,537.0,-334.0,531.0
19:48:55.716000,27.0,126.0,-327.0,-976.0,-145.0,-130.0,537.0,-334.0,531.0
19:48:55.720000,5.0,109.0,-284.0,-976.0,-171.0,-130.0,546.0,-343.0,516.0
19:48:55.725000,-46.0,98.0,-249.0,-892.0,-105.0,-129.0,546.0,-343.0,516.0
19:48:55.729000,-77.0,95.0,-324.0,-857.0,-110.0,-131.0,546.0,-343.0,516.0
19:48:55.734000,-84.0,86.0,-388.0,-857.0,-110.0,-131.0,535.0,-346.0,526.0
19:48:55.739000,-98.0,62.0,-416.0,-810.0,-230.0,-121.0,535.0,-346.0,526.0
19:48:55.744000,-88.0,60.0,-442.0,-787.0,-346.0,-129.0,546.0,-339.0,511.0
19:48:55.748000,-115.0,80.0,-504.0,-830.0,-431.0,-138.0,546.0,-339.0,511.0
19:48:55.753000,-68.0,95.0,-570.0,-897.0,-531.0,-148.0,546.0,-339.0,511.0
19:48:55.758000,-22.0,43.0,-558.0,-862.0,-531.0,-148.0,544.0,-343.0,516.0
19:48:55.763000,68.0,29.0,-522.0,-807.0,-550.0,-143.0,544.0,-343.0,516.0
19:48:55.767000,102.0,-7.0,-609.0,-838.0,-500.0,-145.0,544.0,-339.0,516.0
19:48:55.772000,129.0,-11.0,-783.0,-861.0,-428.0,-132.0,544.0,-339.0,516.0
19:48:55.776000,129.0,-11.0,-783.0,-819.0,-427.0,-146.0,544.0,-339.0,516.0
19:48:55.781000,152.0,-22.0,-865.0,-779.0,-432.0,-134.0,538.0,-333.0,513.0
19:48:55.786000,166.0,-33.0,-894.0,-816.0,-367.0,-142.0,538.0,-333.0,513.0
19:48:55.791000,196.0,-46.0,-944.0,-894.0,-283.0,-153.0,531.0,-328.0,516.0
19:48:55.795000,203.0,-69.0,-971.0,-961.0,-215.0,-134.0,531.0,-328.0,516.0
19:48:55.803000,95.0,-86.0,-1008.0,-1008.0,-106.0,-151.0,547.0,-324.0,537.0
19:48:55.805000,95.0,-86.0,-1008.0,-1008.0,-106.0,-151.0,547.0,-324.0,537.0
19:48:55.809000,7.0,-60.0,-993.0,-1057.0,-78.0,-154.0,547.0,-324.0,537.0
19:48:55.814000,-63.0,-16.0,-979.0,-1134.0,-87.0,-168.0,540.0,-310.0,520.0
19:48:55.819000,-142.0,47.0,-956.0,-1207.0,-120.0,-167.0,540.0,-310.0,520.0
19:48:55.824000,-179.0,77.0,-932.0,-1243.0,-129.0,-165.0,550.0,-312.0,523.0
19:48:55.828000,-217.0,121.0,-942.0,-1228.0,-113.0,-167.0,550.0,-312.0,523.0
19:48:55.832000,-235.0,159.0,-973.0,-1158.0,-102.0,-161.0,550.0,-312.0,523.0
19:48:55.838000,-264.0,190.0,-914.0,-1085.0,-127.0,-149.0,537.0,-309.0,522.0
19:48:55.842000,-284.0,205.0,-793.0,-1083.0,-135.0,-153.0,537.0,-309.0,522.0
19:48:55.847000,-282.0,218.0,-728.0,-1083.0,-135.0,-153.0,528.0,-303.0,531.0
19:48:55.852000,-296.0,203.0,-737.0,-1123.0,-125.0,-144.0,528.0,-303.0,531.0
19:48:55.856000,-294.0,164.0,-758.0,-1119.0,-123.0,-120.0,528.0,-303.0,531.0
19:48:55.861000,-272.0,144.0,-736.0,-1067.0,-149.0,-126.0,529.0,-306.0,532.0
19:48:55.866000,-259.0,127.0,-665.0,-1035.0,-208.0,-138.0,529.0,-306.0,532.0
19:48:55.871000,-231.0,67.0,-588.0,-1036.0,-262.0,-120.0,531.0,-294.0,525.0
19:48:55.875000,-199.0,23.0,-532.0,-1036.0,-291.0,-106.0,531.0,-294.0,525.0
19:48:55.879000,-199.0,23.0,-532.0,-1033.0,-316.0,-121.0,531.0,-294.0,525.0
19:48:55.885000,-131.0,-11.0,-451.0,-1049.0,-329.0,-128.0,532.0,-295.0,526.0
19:48:55.889000,-111.0,-26.0,-447.0,-1073.0,-318.0,-122.0,532.0,-295.0,526.0
19:48:55.894000,-111.0,-26.0,-447.0,-1079.0,-292.0,-114.0,535.0,-295.0,526.0
19:48:55.899000,-81.0,-47.0,-464.0,-1073.0,-266.0,-109.0,535.0,-295.0,526.0
19:48:55.903000,-43.0,-75.0,-485.0,-1070.0,-252.0,-105.0,535.0,-295.0,526.0
19:48:55.908000,-19.0,-88.0,-488.0,-1077.0,-251.0,-100.0,534.0,-292.0,526.0
19:48:55.913000,4.0,-100.0,-473.0,-1102.0,-259.0,-88.0,534.0,-292.0,526.0
19:48:55.918000,16.0,-110.0,-473.0,-1133.0,-265.0,-86.0,526.0,-286.0,531.0
19:48:55.922000,42.0,-113.0,-502.0,-1158.0,-269.0,-89.0,526.0,-286.0,531.0
19:48:55.926000,79.0,-121.0,-553.0,-1163.0,-268.0,-77.0,526.0,-286.0,531.0
19:48:55.932000,108.0,-135.0,-604.0,-1147.0,-263.0,-70.0,531.0,-279.0,531.0
19:48:55.936000,121.0,-136.0,-641.0,-1128.0,-253.0,-65.0,531.0,-279.0,531.0
19:48:55.941000,128.0,-140.0,-670.0,-1128.0,-253.0,-65.0,537.0,-292.0,529.0
19:48:55.946000,144.0,-144.0,-712.0,-1105.0,-209.0,-64.0,537.0,-292.0,529.0
19:48:55.950000,157.0,-136.0,-772.0,-1088.0,-195.0,-62.0,537.0,-292.0,529.0
19:48:55.955000,153.0,-131.0,-802.0,-1088.0,-195.0,-62.0,535.0,-280.0,528.0
19:48:55.960000,149.0,-133.0,-792.0,-1075.0,-183.0,-52.0,535.0,-280.0,528.0
19:48:55.965000,151.0,-137.0,-793.0,-1084.0,-155.0,-49.0,537.0,-276.0,525.0
19:48:55.969000,155.0,-138.0,-816.0,-1123.0,-100.0,-50.0,537.0,-276.0,525.0
19:48:55.973000,160.0,-138.0,-833.0,-1123.0,-100.0,-50.0,537.0,-276.0,525.0
19:48:55.979000,165.0,-137.0,-844.0,-1126.0,-92.0,-50.0,514.0,-267.0,531.0
19:48:55.983000,161.0,-132.0,-858.0,-1130.0,-85.0,-48.0,514.0,-267.0,531.0
19:48:55.988000,151.0,-133.0,-875.0,-1138.0,-74.0,-44.0,528.0,-258.0,535.0
19:48:55.993000,135.0,-134.0,-880.0,-1139.0,-59.0,-38.0,528.0,-258.0,535.0
19:48:55.997000,135.0,-134.0,-880.0,-1137.0,-43.0,-36.0,528.0,-258.0,535.0
19:48:56.002000,121.0,-135.0,-873.0,-1141.0,-24.0,-40.0,538.0,-250.0,520.0
19:48:56.007000,105.0,-126.0,-866.0,-1154.0,-7.0,-43.0,538.0,-250.0,520.0
19:48:56.012000,95.0,-122.0,-868.0,-1165.0,-2.0,-41.0,538.0,-253.0,522.0
19:48:56.016000,86.0,-122.0,-872.0,-1160.0,-5.0,-40.0,538.0,-253.0,522.0
19:48:56.020000,77.0,-127.0,-865.0,-1141.0,-2.0,-39.0,538.0,-253.0,522.0
19:48:56.026000,67.0,-131.0,-854.0,-1115.0,7.0,-41.0,528.0,-240.0,525.0
19:48:56.030000,55.0,-133.0,-837.0,-1096.0,27.0,-43.0,528.0,-240.0,525.0
19:48:56.035000,42.0,-137.0,-817.0,-1092.0,48.0,-43.0,531.0,-243.0,525.0
19:48:56.040000,26.0,-137.0,-806.0,-1091.0,61.0,-48.0,531.0,-243.0,525.0
19:48:56.044000,7.0,-135.0,-800.0,-1089.0,65.0,-51.0,531.0,-243.0,525.0
19:48:56.049000,-9.0,-133.0,-787.0,-1089.0,71.0,-54.0,522.0,-238.0,522.0
19:48:56.054000,-25.0,-126.0,-765.0,-1090.0,90.0,-56.0,522.0,-238.0,522.0
19:48:56.058000,-44.0,-122.0,-751.0,-1086.0,102.0,-50.0,535.0,-237.0,514.0
19:48:56.063000,-65.0,-119.0,-730.0,-1086.0,102.0,-50.0,535.0,-237.0,514.0
19:48:56.068000,-79.0,-119.0,-696.0,-1076.0,93.0,-43.0,532.0,-229.0,526.0
19:48:56.073000,-93.0,-112.0,-671.0,-1066.0,68.0,-40.0,532.0,-229.0,526.0
19:48:56.077000,-102.0,-109.0,-655.0,-1056.0,31.0,-34.0,532.0,-229.0,526.0
19:48:56.082000,-96.0,-116.0,-637.0,-1040.0,-6.0,-27.0,528.0,-214.0,525.0
19:48:56.087000,-84.0,-121.0,-620.0,-1020.0,-30.0,-26.0,528.0,-214.0,525.0
19:48:56.092000,-72.0,-122.0,-609.0,-1006.0,-33.0,-27.0,529.0,-226.0,528.0
19:48:56.096000,-59.0,-121.0,-606.0,-1000.0,-16.0,-30.0,529.0,-226.0,528.0
19:48:56.100000,-59.0,-121.0,-606.0,-998.0,10.0,-32.0,529.0,-226.0,528.0
19:48:56.106000,-49.0,-114.0,-579.0,-995.0,27.0,-31.0,540.0,-214.0,526.0
19:48:56.110000,-49.0,-114.0,-579.0,-991.0,40.0,-29.0,540.0,-214.0,526.0
19:48:56.115000,-50.0,-114.0,-556.0,-986.0,62.0,-29.0,529.0,-222.0,528.0
19:48:56.120000,-53.0,-106.0,-550.0,-981.0,82.0,-30.0,529.0,-222.0,528.0
19:48:56.124000,-60.0,-97.0,-559.0,-971.0,93.0,-25.0,529.0,-222.0,528.0
19:48:56.129000,-74.0,-91.0,-567.0,-950.0,94.0,-21.0,523.0,-210.0,517.0
19:48:56.134000,-95.0,-78.0,-561.0,-930.0,92.0,-22.0,523.0,-210.0,517.0
19:48:56.139000,-121.0,-57.0,-553.0,-926.0,96.0,-27.0,526.0,-210.0,519.0
19:48:56.143000,-145.0,-30.0,-548.0,-939.0,103.0,-26.0,526.0,-210.0,519.0
