hh:mm:ss.ms,gyroX[mdps],gyroY[mdps],gyroZ[mdps],accX[mg],accY[mg],accZ[mg],magX[mG],magY[mG],magZ[mG]
19:52:05.264000,129.0,31.0,-153.0,-920.0,228.0,141.0,717.0,-556.0,367.0
19:52:05.268000,129.0,31.0,-153.0,-881.0,318.0,163.0,717.0,-556.0,367.0
19:52:05.274000,72.0,50.0,-146.0,-844.0,390.0,188.0,726.0,-540.0,348.0
19:52:05.278000,2.0,56.0,-137.0,-806.0,427.0,214.0,726.0,-540.0,348.0
19:52:05.283000,-63.0,50.0,-123.0,-772.0,421.0,237.0,718.0,-537.0,345.0
19:52:05.288000,-105.0,28.0,-103.0,-765.0,393.0,246.0,718.0,-537.0,345.0
19:52:05.292000,-116.0,2.0,-74.0,-811.0,385.0,234.0,718.0,-537.0,345.0
19:52:05.297000,-114.0,-14.0,-46.0,-909.0,425.0,209.0,715.0,-540.0,348.0
19:52:05.302000,-128.0,-9.0,-27.0,-1027.0,480.0,182.0,715.0,-540.0,348.0
19:52:05.306000,-153.0,14.0,-3.0,-1133.0,506.0,157.0,718.0,-537.0,352.0
19:52:05.311000,-170.0,49.0,21.0,-1207.0,481.0,143.0,718.0,-537.0,352.0
19:52:05.315000,-164.0,80.0,35.0,-1217.0,396.0,148.0,718.0,-537.0,352.0
19:52:05.321000,-109.0,91.0,51.0,-1164.0,283.0,163.0,724.0,-541.0,354.0
19:52:05.325000,-2.0,72.0,72.0,-1105.0,220.0,184.0,724.0,-541.0,354.0
19:52:05.330000,124.0,30.0,91.0,-1105.0,220.0,184.0,720.0,-523.0,355.0
19:52:05.335000,221.0,-16.0,119.0,-1120.0,340.0,223.0,720.0,-523.0,355.0
19:52:05.339000,256.0,-51.0,171.0,-1120.0,340.0,223.0,720.0,-523.0,355.0
19:52:05.344000,244.0,-73.0,239.0,-1170.0,431.0,236.0,721.0,-538.0,360.0
19:52:05.349000,200.0,-91.0,290.0,-1192.0,578.0,264.0,721.0,-538.0,360.0
19:52:05.353000,134.0,-117.0,311.0,-1192.0,578.0,264.0,702.0,-532.0,382.0
19:52:05.358000,49.0,-148.0,317.0,-1158.0,636.0,287.0,702.0,-532.0,382.0
19:52:05.362000,-36.0,-172.0,326.0,-1127.0,652.0,300.0,702.0,-532.0,382.0
19:52:05.368000,-100.0,-182.0,335.0,-1122.0,603.0,291.0,715.0,-534.0,354.0
19:52:05.372000,-133.0,-169.0,332.0,-1147.0,504.0,257.0,715.0,-534.0,354.0
19:52:05.377000,-138.0,-139.0,315.0,-1196.0,418.0,208.0,712.0,-531.0,354.0
19:52:05.382000,-141.0,-95.0,287.0,-1260.0,393.0,163.0,712.0,-531.0,354.0
19:52:05.386000,-141.0,-95.0,287.0,-1310.0,408.0,127.0,712.0,-531.0,354.0
19:52:05.391000,-145.0,-47.0,266.0,-1334.0,427.0,90.0,705.0,-538.0,355.0
19:52:05.395000,-138.0,-4.0,255.0,-1343.0,450.0,45.0,705.0,-538.0,355.0
19:52:05.400000,-120.0,30.0,251.0,-1357.0,486.0,-1.0,699.0,-535.0,354.0
19:52:05.405000,-114.0,59.0,255.0,-1370.0,530.0,-58.0,699.0,-535.0,354.0
19:52:05.409000,-133.0,91.0,280.0,-1364.0,561.0,-129.0,699.0,-535.0,354.0
19:52:05.414000,-187.0,133.0,324.0,-1326.0,549.0,-203.0,706.0,-532.0,366.0
19:52:05.419000,-270.0,182.0,367.0,-1234.0,458.0,-276.0,706.0,-532.0,366.0
19:52:05.424000,-354.0,229.0,410.0,-1091.0,278.0,-351.0,700.0,-540.0,360.0
19:52:05.429000,-413.0,272.0,453.0,-926.0,53.0,-421.0,700.0,-540.0,360.0
19:52:05.433000,-438.0,303.0,470.0,-769.0,-167.0,-476.0,700.0,-540.0,360.0
19:52:05.438000,-431.0,323.0,452.0,-629.0,-353.0,-510.0,697.0,-540.0,366.0
19:52:05.443000,-402.0,339.0,415.0,-508.0,-506.0,-514.0,697.0,-540.0,366.0
19:52:05.447000,-359.0,353.0,375.0,-508.0,-506.0,-514.0,672.0,-544.0,376.0
19:52:05.452000,-295.0,365.0,317.0,-400.0,-654.0,-499.0,672.0,-544.0,376.0
19:52:05.456000,-196.0,355.0,249.0,-305.0,-781.0,-478.0,672.0,-544.0,376.0
19:52:05.462000,-73.0,324.0,221.0,-242.0,-844.0,-448.0,685.0,-546.0,364.0
19:52:05.466000,49.0,284.0,218.0,-271.0,-807.0,-411.0,685.0,-546.0,364.0
19:52:05.471000,150.0,245.0,220.0,-417.0,-663.0,-373.0,691.0,-550.0,381.0
19:52:05.476000,209.0,208.0,238.0,-617.0,-459.0,-340.0,691.0,-550.0,381.0
19:52:05.480000,209.0,208.0,238.0,-806.0,-249.0,-307.0,691.0,-550.0,381.0
19:52:05.485000,193.0,151.0,331.0,-966.0,-76.0,-269.0,673.0,-547.0,390.0
19:52:05.490000,133.0,145.0,423.0,-1106.0,26.0,-247.0,673.0,-547.0,390.0
19:52:05.494000,133.0,145.0,423.0,-1242.0,49.0,-247.0,676.0,-544.0,372.0
19:52:05.499000,41.0,173.0,543.0,-1367.0,-8.0,-258.0,676.0,-544.0,372.0
19:52:05.503000,-65.0,227.0,685.0,-1444.0,-134.0,-265.0,676.0,-544.0,372.0
19:52:05.509000,-158.0,282.0,840.0,-1449.0,-286.0,-260.0,666.0,-549.0,384.0
19:52:05.513000,-207.0,317.0,991.0,-1384.0,-424.0,-246.0,666.0,-549.0,384.0
19:52:05.518000,-215.0,328.0,1136.0,-1275.0,-537.0,-227.0,661.0,-549.0,390.0
19:52:05.523000,-198.0,324.0,1286.0,-1143.0,-633.0,-205.0,661.0,-549.0,390.0
19:52:05.527000,-169.0,313.0,1419.0,-986.0,-731.0,-165.0,661.0,-549.0,390.0
19:52:05.532000,-131.0,284.0,1542.0,-808.0,-812.0,-97.0,654.0,-565.0,388.0
19:52:05.537000,-84.0,221.0,1637.0,-626.0,-844.0,-31.0,654.0,-565.0,388.0
19:52:05.541000,-10.0,128.0,1702.0,-626.0,-827.0,-15.0,634.0,-567.0,399.0
19:52:05.546000,95.0,34.0,1796.0,-479.0,-712.0,-16.0,634.0,-567.0,399.0
19:52:05.550000,168.0,-28.0,1903.0,-682.0,-522.0,29.0,634.0,-567.0,399.0
19:52:05.556000,179.0,-48.0,2007.0,-682.0,-522.0,29.0,624.0,-585.0,396.0
19:52:05.560000,190.0,-39.0,2179.0,-880.0,-425.0,82.0,624.0,-585.0,396.0
19:52:05.565000,226.0,-15.0,2412.0,-936.0,-468.0,97.0,619.0,-604.0,402.0
19:52:05.570000,280.0,2.0,2683.0,-862.0,-559.0,90.0,619.0,-604.0,402.0
19:52:05.577000,324.0,4.0,2968.0,-526.0,-591.0,81.0,612.0,-615.0,405.0
19:52:05.579000,323.0,-13.0,3246.0,-526.0,-591.0,81.0,612.0,-615.0,405.0
19:52:05.583000,271.0,-46.0,3513.0,-348.0,-520.0,90.0,612.0,-615.0,405.0
19:52:05.588000,186.0,-93.0,3754.0,-181.0,-453.0,108.0,600.0,-640.0,400.0
19:52:05.593000,101.0,-140.0,3973.0,-9.0,-432.0,125.0,600.0,-640.0,400.0
19:52:05.598000,21.0,-216.0,4180.0,176.0,-471.0,154.0,570.0,-654.0,409.0
19:52:05.603000,21.0,-216.0,4180.0,308.0,-534.0,191.0,570.0,-654.0,409.0
19:52:05.607000,-33.0,-298.0,4331.0,361.0,-591.0,214.0,570.0,-654.0,409.0
19:52:05.612000,-74.0,-370.0,4436.0,384.0,-655.0,241.0,544.0,-679.0,399.0
19:52:05.617000,-121.0,-419.0,4543.0,409.0,-734.0,273.0,544.0,-679.0,399.0
19:52:05.621000,-171.0,-443.0,4673.0,448.0,-827.0,310.0,526.0,-702.0,402.0
19:52:05.626000,-212.0,-440.0,4802.0,507.0,-911.0,349.0,526.0,-702.0,402.0
19:52:05.630000,-241.0,-417.0,4906.0,583.0,-968.0,386.0,526.0,-702.0,402.0
19:52:05.635000,-267.0,-380.0,4978.0,668.0,-1010.0,406.0,469.0,-736.0,393.0
19:52:05.640000,-287.0,-332.0,5017.0,754.0,-1077.0,390.0,469.0,-736.0,393.0
19:52:05.645000,-282.0,-279.0,5038.0,822.0,-1198.0,322.0,439.0,-763.0,396.0
19:52:05.650000,-224.0,-217.0,5059.0,822.0,-1338.0,205.0,439.0,-763.0,396.0
19:52:05.654000,-118.0,-136.0,5079.0,762.0,-1419.0,83.0,439.0,-763.0,396.0
19:52:05.659000,2.0,-43.0,5063.0,634.0,-1406.0,-22.0,397.0,-766.0,388.0
19:52:05.664000,121.0,60.0,4992.0,521.0,-1327.0,-119.0,397.0,-766.0,388.0
19:52:05.668000,245.0,159.0,4870.0,521.0,-1327.0,-119.0,367.0,-780.0,396.0
19:52:05.673000,378.0,235.0,4680.0,440.0,-1193.0,-196.0,367.0,-780.0,396.0
19:52:05.677000,503.0,271.0,4421.0,373.0,-973.0,-244.0,367.0,-780.0,396.0
19:52:05.682000,609.0,246.0,4123.0,290.0,-653.0,-252.0,336.0,-787.0,400.0
19:52:05.687000,669.0,165.0,3779.0,130.0,-241.0,-230.0,336.0,-787.0,400.0
19:52:05.692000,663.0,56.0,3384.0,-160.0,202.0,-185.0,306.0,-795.0,399.0
19:52:05.697000,627.0,-54.0,2991.0,-536.0,549.0,-132.0,306.0,-795.0,399.0
19:52:05.701000,627.0,-54.0,2991.0,-902.0,702.0,-101.0,306.0,-795.0,399.0
19:52:05.706000,583.0,-125.0,2415.0,-1196.0,685.0,-100.0,259.0,-787.0,405.0
19:52:05.711000,583.0,-125.0,2415.0,-1391.0,591.0,-116.0,259.0,-787.0,405.0
19:52:05.715000,584.0,-41.0,2207.0,-1427.0,487.0,-124.0,244.0,-783.0,418.0
19:52:05.720000,646.0,54.0,2020.0,-1244.0,489.0,-75.0,244.0,-783.0,418.0
19:52:05.724000,739.0,84.0,1790.0,-890.0,739.0,49.0,244.0,-783.0,418.0
19:52:05.729000,719.0,52.0,1466.0,-467.0,1165.0,186.0,225.0,-781.0,429.0
19:52:05.734000,537.0,-22.0,1140.0,-97.0,1522.0,267.0,225.0,-781.0,429.0
19:52:05.739000,273.0,-132.0,911.0,71.0,1643.0,260.0,217.0,-775.0,433.0
19:52:05.744000,-3.0,-238.0,828.0,-63.0,1535.0,173.0,217.0,-775.0,433.0
19:52:05.748000,-260.0,-278.0,863.0,-463.0,1328.0,43.0,217.0,-775.0,433.0
19:52:05.753000,-469.0,-235.0,924.0,-944.0,1120.0,-81.0,201.0,-774.0,447.0
19:52:05.758000,-621.0,-119.0,961.0,-1297.0,911.0,-174.0,201.0,-774.0,447.0
19:52:05.762000,-712.0,39.0,1004.0,-1297.0,911.0,-174.0,201.0,-774.0,447.0
19:52:05.767000,-739.0,202.0,1069.0,-1249.0,497.0,-209.0,201.0,-774.0,447.0
19:52:05.771000,-706.0,315.0,1129.0,-917.0,360.0,-149.0,201.0,-774.0,447.0
19:52:05.776000,-634.0,354.0,1148.0,-917.0,360.0,-149.0,183.0,-774.0,429.0
19:52:05.781000,-539.0,337.0,1123.0,-532.0,270.0,-70.0,183.0,-774.0,429.0
19:52:05.786000,-414.0,278.0,1066.0,-216.0,185.0,10.0,187.0,-771.0,426.0
19:52:05.791000,-256.0,210.0,983.0,-43.0,98.0,75.0,187.0,-771.0,426.0
19:52:05.795000,-81.0,168.0,869.0,-24.0,38.0,106.0,187.0,-771.0,426.0
19:52:05.800000,87.0,172.0,723.0,-125.0,31.0,119.0,180.0,-760.0,421.0
19:52:05.805000,222.0,232.0,563.0,-275.0,81.0,116.0,180.0,-760.0,421.0
19:52:05.809000,298.0,329.0,418.0,-402.0,174.0,97.0,169.0,-751.0,429.0
19:52:05.814000,311.0,455.0,315.0,-454.0,272.0,63.0,169.0,-751.0,429.0
19:52:05.818000,311.0,455.0,315.0,-436.0,349.0,20.0,169.0,-751.0,429.0
19:52:05.823000,262.0,583.0,262.0,-375.0,425.0,-14.0,177.0,-769.0,427.0
19:52:05.828000,170.0,682.0,245.0,-273.0,497.0,-46.0,177.0,-769.0,427.0
19:52:05.833000,49.0,744.0,229.0,-125.0,537.0,-83.0,166.0,-750.0,432.0
19:52:05.838000,-98.0,778.0,206.0,65.0,510.0,-126.0,166.0,-750.0,432.0
19:52:05.845000,-354.0,712.0,170.0,509.0,192.0,-228.0,141.0,-748.0,448.0
19:52:05.847000,-354.0,712.0,170.0,509.0,192.0,-228.0,141.0,-748.0,448.0
19:52:05.851000,-416.0,615.0,140.0,662.0,6.0,-312.0,141.0,-748.0,448.0
19:52:05.856000,-437.0,505.0,84.0,705.0,-115.0,-406.0,163.0,-736.0,438.0
19:52:05.861000,-436.0,392.0,-5.0,671.0,-228.0,-482.0,163.0,-736.0,438.0
19:52:05.866000,-408.0,280.0,-116.0,623.0,-419.0,-529.0,160.0,-736.0,439.0
19:52:05.870000,-329.0,168.0,-210.0,585.0,-665.0,-542.0,160.0,-736.0,439.0
19:52:05.875000,-185.0,56.0,-279.0,537.0,-853.0,-516.0,160.0,-736.0,439.0
19:52:05.879000,1.0,-58.0,-371.0,453.0,-886.0,-450.0,159.0,-744.0,436.0
19:52:05.885000,184.0,-172.0,-527.0,453.0,-886.0,-450.0,159.0,-744.0,436.0
19:52:05.889000,312.0,-268.0,-727.0,194.0,-671.0,-255.0,169.0,-741.0,435.0
19:52:05.894000,378.0,-338.0,-919.0,194.0,-671.0,-255.0,169.0,-741.0,435.0
19:52:05.898000,410.0,-382.0,-1078.0,78.0,-646.0,-166.0,169.0,-741.0,435.0
19:52:05.903000,442.0,-408.0,-1184.0,1.0,-742.0,-94.0,169.0,-733.0,442.0
19:52:05.908000,376.0,-252.0,-1263.0,-44.0,-900.0,-106.0,169.0,-733.0,442.0
19:52:05.913000,301.0,406.0,-1059.0,270.0,-1643.0,-191.0,178.0,-724.0,445.0
19:52:05.917000,39.0,420.0,3086.0,1586.0,-2955.0,-372.0,178.0,-724.0,445.0
19:52:05.921000,39.0,420.0,3086.0,3179.0,-3072.0,1271.0,178.0,-724.0,445.0
19:52:05.927000,7262.0,-3708.0,-19366.0,982.0,694.0,852.0,186.0,-714.0,474.0
19:52:05.932000,7262.0,-3708.0,-19366.0,-2874.0,3947.0,527.0,186.0,-714.0,474.0
19:52:05.936000,3840.0,-5159.0,-19177.0,-3959.0,3869.0,1769.0,301.0,-684.0,492.0
19:52:05.941000,-155.0,-2611.0,-6651.0,-2568.0,1393.0,-706.0,301.0,-684.0,492.0
19:52:05.945000,-2548.0,1117.0,3624.0,-447.0,-1809.0,-1516.0,301.0,-684.0,492.0
19:52:05.950000,-2854.0,1332.0,3985.0,-1245.0,-2177.0,452.0,321.0,-675.0,477.0
19:52:05.955000,653.0,-869.0,1691.0,-1800.0,-2839.0,-355.0,321.0,-675.0,477.0
19:52:05.960000,872.0,327.0,1919.0,-627.0,-3705.0,-1241.0,312.0,-678.0,483.0
19:52:05.964000,-501.0,959.0,1986.0,-278.0,-2715.0,-233.0,312.0,-678.0,483.0
19:52:05.968000,-485.0,507.0,104.0,-60.0,-2555.0,-560.0,312.0,-678.0,483.0
19:52:05.974000,-1.0,464.0,-277.0,165.0,-3040.0,-605.0,289.0,-670.0,478.0
19:52:05.979000,46.0,293.0,-53.0,-1024.0,-1898.0,-218.0,289.0,-670.0,478.0
19:52:05.983000,1607.0,-230.0,-1287.0,-1024.0,-1898.0,-218.0,280.0,-676.0,501.0
19:52:05.988000,882.0,616.0,-1294.0,1071.0,-3279.0,-494.0,280.0,-676.0,501.0
19:52:05.992000,306.0,266.0,-277.0,1071.0,-3279.0,-494.0,280.0,-676.0,501.0
19:52:05.997000,1463.0,-616.0,-1481.0,1171.0,-2741.0,274.0,295.0,-658.0,493.0
19:52:06.002000,1195.0,-242.0,-3232.0,-567.0,-1528.0,-240.0,295.0,-658.0,493.0
19:52:06.007000,18.0,-158.0,-1453.0,-330.0,-2364.0,-343.0,324.0,-640.0,483.0
19:52:06.011000,170.0,-531.0,-972.0,164.0,-2408.0,86.0,324.0,-640.0,483.0
19:52:06.015000,256.0,-744.0,-2723.0,-247.0,-1405.0,-145.0,324.0,-640.0,483.0
19:52:06.021000,-39.0,-548.0,-4277.0,-670.0,-998.0,-591.0,324.0,-637.0,496.0
19:52:06.026000,245.0,-836.0,-3878.0,-1144.0,-1311.0,-329.0,324.0,-637.0,496.0
19:52:06.030000,-196.0,-891.0,-2001.0,-289.0,-2221.0,-98.0,360.0,-621.0,484.0
19:52:06.035000,-689.0,-879.0,-107.0,711.0,-2802.0,-225.0,360.0,-621.0,484.0
19:52:06.039000,-689.0,-879.0,-107.0,-102.0,-3347.0,-332.0,360.0,-621.0,484.0
19:52:06.044000,-1180.0,-543.0,735.0,-515.0,-2941.0,-629.0,358.0,-630.0,496.0
19:52:06.049000,-717.0,-373.0,-590.0,545.0,-2273.0,-458.0,358.0,-630.0,496.0
19:52:06.054000,254.0,-725.0,-3242.0,790.0,-1896.0,-40.0,367.0,-627.0,484.0
19:52:06.058000,1230.0,-1560.0,-4805.0,-418.0,-1878.0,-10.0,367.0,-627.0,484.0
19:52:06.062000,254.0,-1334.0,-4040.0,-1103.0,-2022.0,-546.0,367.0,-627.0,484.0
19:52:06.068000,-466.0,-609.0,-3705.0,-806.0,-2369.0,-667.0,382.0,-615.0,489.0
19:52:06.072000,18.0,-702.0,-2909.0,-563.0,-2981.0,-554.0,382.0,-615.0,489.0
19:52:06.077000,-325.0,-223.0,-2382.0,-62.0,-3072.0,-263.0,421.0,-588.0,483.0
19:52:06.082000,189.0,-789.0,-1764.0,-43.0,-2734.0,-250.0,421.0,-588.0,483.0
19:52:06.086000,226.0,-660.0,-2964.0,-428.0,-2386.0,-468.0,421.0,-588.0,483.0
19:52:06.091000,219.0,-784.0,-3445.0,-422.0,-2529.0,-547.0,426.0,-577.0,478.0
19:52:06.095000,130.0,-595.0,-3304.0,-930.0,-2665.0,-907.0,426.0,-577.0,478.0
19:52:06.101000,331.0,-364.0,-3119.0,-930.0,-3085.0,-675.0,445.0,-571.0,489.0
19:52:06.105000,39.0,-272.0,-1621.0,-528.0,-3085.0,-675.0,445.0,-571.0,489.0
19:52:06.110000,80.0,-452.0,-2810.0,97.0,-2346.0,-477.0,445.0,-553.0,480.0
19:52:06.115000,212.0,-760.0,-2555.0,-21.0,-2062.0,-442.0,445.0,-553.0,480.0
19:52:06.119000,347.0,-564.0,-2304.0,95.0,-3096.0,-705.0,445.0,-553.0,480.0
19:52:06.124000,203.0,-706.0,-2384.0,-38.0,-2754.0,-641.0,454.0,-549.0,472.0
19:52:06.129000,76.0,-825.0,-2671.0,236.0,-1480.0,-408.0,454.0,-549.0,472.0
19:52:06.134000,88.0,-753.0,-2555.0,146.0,-1316.0,-619.0,462.0,-534.0,471.0
19:52:06.138000,-137.0,-510.0,-2293.0,-469.0,-2095.0,-751.0,462.0,-534.0,471.0
19:52:06.142000,-137.0,-510.0,-2293.0,-810.0,-2318.0,-529.0,462.0,-534.0,471.0
19:52:06.148000,-178.0,-817.0,-2253.0,-1000.0,-2331.0,-585.0,474.0,-526.0,472.0
19:52:06.152000,-249.0,-616.0,-2322.0,-1211.0,-2060.0,-932.0,474.0,-526.0,472.0
19:52:06.157000,76.0,-506.0,-2331.0,-457.0,-2227.0,-695.0,493.0,-505.0,460.0
19:52:06.162000,-39.0,-530.0,-1353.0,-122.0,-1952.0,-379.0,493.0,-505.0,460.0
19:52:06.166000,-97.0,-552.0,-1275.0,-295.0,-1322.0,-501.0,493.0,-505.0,460.0
19:52:06.171000,-476.0,-184.0,-1100.0,-59.0,-1688.0,-307.0,498.0,-501.0,460.0
19:52:06.176000,-599.0,-544.0,-976.0,-469.0,-2010.0,-51.0,498.0,-501.0,460.0
19:52:06.180000,24.0,-1024.0,-893.0,-499.0,-1996.0,-540.0,496.0,-499.0,456.0
19:52:06.185000,-277.0,-387.0,-1007.0,-528.0,-2146.0,-654.0,496.0,-499.0,456.0
19:52:06.189000,-347.0,-140.0,-721.0,-894.0,-2220.0,-588.0,496.0,-499.0,456.0
19:52:06.195000,-531.0,217.0,-530.0,-836.0,-1902.0,-315.0,513.0,-493.0,453.0
19:52:06.199000,-959.0,-58.0,-944.0,-457.0,-1745.0,112.0,513.0,-493.0,453.0
19:52:06.204000,-606.0,-508.0,-1114.0,-457.0,-1745.0,112.0,514.0,-493.0,451.0
19:52:06.209000,-424.0,-171.0,-914.0,194.0,-1949.0,-460.0,514.0,-493.0,451.0
19:52:06.213000,406.0,-319.0,-1242.0,194.0,-1949.0,-460.0,514.0,-493.0,451.0
19:52:06.218000,172.0,-681.0,-1530.0,-430.0,-1783.0,-87.0,510.0,-493.0,448.0
19:52:06.222000,-16.0,-828.0,-1587.0,-817.0,-1453.0,-242.0,510.0,-493.0,448.0
19:52:06.228000,501.0,-789.0,-1512.0,-817.0,-1453.0,-242.0,507.0,-495.0,465.0
19:52:06.232000,-52.0,-698.0,-771.0,-901.0,-2006.0,-246.0,507.0,-495.0,465.0
19:52:06.237000,-85.0,-303.0,-499.0,-798.0,-2124.0,-491.0,537.0,-475.0,451.0
19:52:06.242000,294.0,-442.0,-412.0,-744.0,-2094.0,-547.0,537.0,-475.0,451.0
19:52:06.246000,294.0,-442.0,-412.0,-1085.0,-1811.0,-301.0,537.0,-475.0,451.0
19:52:06.251000,221.0,-233.0,-1515.0,-861.0,-1396.0,-311.0,532.0,-474.0,447.0
19:52:06.256000,252.0,161.0,-1314.0,-113.0,-1914.0,-499.0,532.0,-474.0,447.0
19:52:06.260000,252.0,161.0,-1314.0,-303.0,-1868.0,-673.0,532.0,-466.0,442.0
19:52:06.265000,80.0,511.0,-1348.0,-351.0,-1828.0,-278.0,532.0,-466.0,442.0
19:52:06.269000,339.0,273.0,-462.0,-98.0,-2087.0,-38.0,532.0,-466.0,442.0
19:52:06.275000,507.0,-231.0,-65.0,-520.0,-1331.0,-152.0,520.0,-447.0,453.0
19:52:06.279000,268.0,-210.0,-670.0,-787.0,-696.0,-301.0,520.0,-447.0,453.0
19:52:06.284000,439.0,-211.0,-1188.0,-470.0,-1074.0,-250.0,538.0,-459.0,441.0
19:52:06.289000,340.0,-352.0,-1106.0,-347.0,-1167.0,-49.0,538.0,-459.0,441.0
19:52:06.293000,-55.0,-428.0,-1286.0,-305.0,-973.0,-359.0,538.0,-459.0,441.0
19:52:06.298000,-199.0,4.0,-1348.0,-266.0,-1268.0,-486.0,535.0,-441.0,453.0
19:52:06.303000,-155.0,-107.0,-1257.0,-539.0,-1471.0,-171.0,535.0,-441.0,453.0
19:52:06.307000,137.0,-427.0,-1416.0,-611.0,-1325.0,-205.0,547.0,-439.0,453.0
19:52:06.312000,683.0,-491.0,-1469.0,-708.0,-1354.0,-262.0,547.0,-439.0,453.0
19:52:06.316000,683.0,-611.0,-1223.0,-1132.0,-1086.0,-319.0,547.0,-439.0,453.0
19:52:06.322000,-140.0,-275.0,-1103.0,-1132.0,-1086.0,-319.0,549.0,-433.0,438.0
19:52:06.326000,-217.0,-319.0,-1030.0,-1404.0,-705.0,-232.0,549.0,-433.0,438.0
19:52:06.331000,465.0,-342.0,-1145.0,-1168.0,-806.0,-325.0,550.0,-423.0,436.0
19:52:06.336000,799.0,-291.0,-1159.0,-608.0,-1326.0,-499.0,550.0,-423.0,436.0
19:52:06.340000,532.0,-8.0,-821.0,-10.0,-1604.0,-431.0,550.0,-423.0,436.0
19:52:06.344000,199.0,25.0,-371.0,249.0,-1175.0,-200.0,553.0,-406.0,435.0
19:52:06.350000,-233.0,7.0,-525.0,19.0,-835.0,-11.0,553.0,-406.0,435.0
19:52:06.354000,-270.0,-88.0,-1368.0,-627.0,-827.0,-44.0,547.0,-406.0,442.0
19:52:06.359000,-2.0,-25.0,-1832.0,-897.0,-1120.0,-213.0,547.0,-406.0,442.0
19:52:06.363000,-2.0,-25.0,-1832.0,-610.0,-1670.0,-261.0,547.0,-406.0,442.0
19:52:06.369000,388.0,-242.0,-1538.0,-381.0,-2068.0,-66.0,547.0,-405.0,435.0
19:52:06.373000,281.0,-373.0,-1303.0,-342.0,-1766.0,-155.0,547.0,-405.0,435.0
19:52:06.378000,240.0,-301.0,-1467.0,-439.0,-978.0,-200.0,562.0,-384.0,430.0
19:52:06.383000,387.0,-464.0,-1678.0,-408.0,-658.0,-155.0,562.0,-384.0,430.0
19:52:06.387000,339.0,-420.0,-1619.0,-313.0,-706.0,-252.0,562.0,-384.0,430.0
19:52:06.392000,187.0,-237.0,-1372.0,-383.0,-681.0,-246.0,550.0,-373.0,430.0
19:52:06.397000,218.0,-216.0,-1242.0,-710.0,-603.0,-101.0,550.0,-373.0,430.0
19:52:06.401000,207.0,-366.0,-1472.0,-892.0,-655.0,-107.0,555.0,-367.0,439.0
19:52:06.406000,154.0,-319.0,-1633.0,-737.0,-734.0,-125.0,555.0,-367.0,439.0
19:52:06.410000,-91.0,-306.0,-1558.0,-574.0,-714.0,-133.0,555.0,-367.0,439.0
19:52:06.416000,-161.0,-294.0,-1495.0,-666.0,-717.0,-221.0,555.0,-372.0,426.0
19:52:06.420000,-192.0,-312.0,-1519.0,-807.0,-706.0,-145.0,555.0,-372.0,426.0
19:52:06.425000,-196.0,-333.0,-1453.0,-807.0,-706.0,-145.0,559.0,-352.0,429.0
19:52:06.430000,-169.0,-312.0,-1365.0,-743.0,-722.0,-171.0,559.0,-352.0,429.0
19:52:06.434000,-158.0,-342.0,-1202.0,-755.0,-893.0,-139.0,559.0,-352.0,429.0
19:52:06.439000,-157.0,-457.0,-1096.0,-755.0,-893.0,-139.0,559.0,-358.0,421.0
19:52:06.444000,-221.0,-437.0,-947.0,-649.0,-813.0,-138.0,559.0,-358.0,421.0
19:52:06.448000,-254.0,-387.0,-772.0,-658.0,-773.0,-190.0,546.0,-346.0,423.0
19:52:06.453000,-307.0,-415.0,-723.0,-736.0,-695.0,-144.0,546.0,-346.0,423.0
19:52:06.457000,-298.0,-396.0,-824.0,-889.0,-644.0,-144.0,546.0,-346.0,423.0
19:52:06.463000,-233.0,-396.0,-921.0,-1051.0,-792.0,-195.0,568.0,-342.0,421.0
19:52:06.467000,-217.0,-343.0,-779.0,-963.0,-1020.0,-215.0,568.0,-342.0,421.0
19:52:06.472000,-244.0,-333.0,-720.0,-882.0,-971.0,-160.0,564.0,-334.0,415.0
19:52:06.477000,-244.0,-333.0,-720.0,-886.0,-721.0,-93.0,564.0,-334.0,415.0
19:52:06.481000,-281.0,-291.0,-793.0,-874.0,-594.0,-111.0,564.0,-334.0,415.0
19:52:06.486000,-268.0,-288.0,-882.0,-847.0,-777.0,-28.0,552.0,-330.0,426.0
19:52:06.491000,-280.0,-374.0,-817.0,-850.0,-923.0,-21.0,552.0,-330.0,426.0
19:52:06.495000,-212.0,-344.0,-792.0,-911.0,-890.0,-109.0,564.0,-319.0,412.0
19:52:06.500000,-195.0,-291.0,-734.0,-987.0,-871.0,-95.0,564.0,-319.0,412.0
19:52:06.504000,-134.0,-287.0,-872.0,-1068.0,-835.0,-98.0,564.0,-319.0,412.0
19:52:06.510000,-82.0,-259.0,-1022.0,-1117.0,-841.0,-71.0,568.0,-325.0,415.0
19:52:06.514000,-95.0,-250.0,-1036.0,-1065.0,-808.0,12.0,568.0,-325.0,415.0
19:52:06.518000,-144.0,-275.0,-1071.0,-935.0,-778.0,23.0,565.0,-316.0,433.0
19:52:06.524000,-158.0,-293.0,-982.0,-819.0,-808.0,15.0,565.0,-316.0,433.0
19:52:06.528000,-196.0,-347.0,-809.0,-824.0,-765.0,-72.0,565.0,-316.0,433.0
19:52:06.533000,-154.0,-281.0,-763.0,-971.0,-729.0,-80.0,570.0,-313.0,415.0
19:52:06.538000,-176.0,-303.0,-823.0,-971.0,-702.0,9.0,570.0,-313.0,415.0
19:52:06.542000,-224.0,-318.0,-870.0,-1022.0,-702.0,9.0,562.0,-306.0,403.0
19:52:06.547000,-247.0,-282.0,-784.0,-1024.0,-677.0,-47.0,562.0,-306.0,403.0
19:52:06.551000,-198.0,-219.0,-651.0,-1104.0,-646.0,-147.0,562.0,-306.0,403.0
19:52:06.557000,-151.0,-137.0,-440.0,-1056.0,-674.0,-210.0,567.0,-300.0,415.0
19:52:06.561000,-180.0,-128.0,-401.0,-992.0,-707.0,-140.0,567.0,-300.0,415.0
19:52:06.566000,-197.0,-155.0,-412.0,-976.0,-654.0,-92.0,568.0,-295.0,423.0
19:52:06.571000,-269.0,-184.0,-384.0,-892.0,-624.0,-79.0,568.0,-295.0,423.0
19:52:06.575000,-281.0,-187.0,-337.0,-833.0,-601.0,-67.0,558.0,-304.0,408.0
19:52:06.580000,-294.0,-206.0,-188.0,-838.0,-614.0,-83.0,558.0,-304.0,408.0
19:52:06.584000,-294.0,-206.0,-188.0,-951.0,-626.0,-103.0,558.0,-304.0,408.0
19:52:06.589000,-280.0,-162.0,-126.0,-1034.0,-662.0,-151.0,574.0,-301.0,403.0
19:52:06.594000,-244.0,117.0,468.0,-916.0,-2020.0,-381.0,574.0,-301.0,403.0
19:52:06.599000,-240.0,547.0,2851.0,-1823.0,-1554.0,-421.0,553.0,-313.0,411.0
19:52:06.604000,-7.0,483.0,1106.0,-2403.0,718.0,-160.0,553.0,-313.0,411.0
19:52:06.608000,174.0,360.0,-992.0,-1209.0,255.0,24.0,553.0,-313.0,411.0
19:52:06.613000,-13.0,226.0,-436.0,-525.0,-411.0,30.0,571.0,-313.0,409.0
19:52:06.618000,-110.0,185.0,-193.0,-545.0,-183.0,-62.0,571.0,-313.0,409.0
19:52:06.622000,-149.0,159.0,-247.0,-569.0,-382.0,-75.0,570.0,-304.0,409.0
19:52:06.627000,-105.0,95.0,-238.0,-746.0,-513.0,-89.0,570.0,-304.0,409.0
19:52:06.631000,-119.0,67.0,-339.0,-862.0,-594.0,-108.0,570.0,-304.0,409.0
19:52:06.636000,-101.0,77.0,-336.0,-931.0,-628.0,-119.0,564.0,-313.0,418.0
19:52:06.641000,-71.0,77.0,-341.0,-1045.0,-521.0,-150.0,564.0,-313.0,418.0
19:52:06.646000,-32.0,118.0,-440.0,-1045.0,-521.0,-150.0,564.0,-313.0,417.0
19:52:06.651000,-49.0,92.0,-303.0,-791.0,-632.0,-100.0,564.0,-313.0,417.0
19:52:06.655000,-30.0,84.0,-190.0,-791.0,-632.0,-100.0,564.0,-313.0,417.0
19:52:06.660000,-68.0,42.0,-380.0,-895.0,-438.0,-100.0,556.0,-300.0,435.0
19:52:06.665000,-101.0,29.0,-630.0,-1088.0,-303.0,-71.0,556.0,-300.0,435.0
19:52:06.669000,-103.0,81.0,-635.0,-1037.0,-345.0,-124.0,564.0,-303.0,420.0
19:52:06.674000,-130.0,109.0,-513.0,-867.0,-401.0,-136.0,564.0,-303.0,420.0
19:52:06.678000,-128.0,78.0,-357.0,-777.0,-498.0,-103.0,564.0,-303.0,420.0
19:52:06.683000,-109.0,64.0,-312.0,-774.0,-592.0,-100.0,567.0,-304.0,420.0
19:52:06.688000,-88.0,30.0,-296.0,-816.0,-655.0,-88.0,567.0,-304.0,420.0
19:52:06.692000,-88.0,30.0,-296.0,-882.0,-629.0,-79.0,561.0,-294.0,411.0
19:52:06.698000,-116.0,35.0,-230.0,-877.0,-416.0,-57.0,561.0,-294.0,411.0
19:52:06.702000,-137.0,3.0,-216.0,-885.0,-239.0,-44.0,561.0,-294.0,411.0
19:52:06.707000,-188.0,-5.0,-269.0,-943.0,-226.0,-66.0,558.0,-301.0,426.0
19:52:06.712000,-210.0,-26.0,-347.0,-880.0,-376.0,-93.0,558.0,-301.0,426.0
19:52:06.716000,-168.0,13.0,-232.0,-807.0,-593.0,-123.0,568.0,-297.0,420.0
19:52:06.721000,-130.0,63.0,53.0,-922.0,-655.0,-132.0,568.0,-297.0,420.0
19:52:06.725000,-78.0,88.0,58.0,-1110.0,-563.0,-140.0,568.0,-297.0,420.0
19:52:06.730000,13.0,122.0,-199.0,-1132.0,-512.0,-94.0,561.0,-306.0,421.0
19:52:06.735000,2.0,96.0,-444.0,-929.0,-477.0,-1.0,561.0,-306.0,421.0
19:52:06.740000,-68.0,16.0,-483.0,-612.0,-384.0,-12.0,559.0,-295.0,426.0
19:52:06.745000,-85.0,-6.0,-249.0,-438.0,-267.0,-36.0,559.0,-295.0,426.0
19:52:06.749000,-65.0,-32.0,-26.0,-563.0,-320.0,-80.0,559.0,-295.0,426.0
19:52:06.754000,-55.0,2.0,39.0,-878.0,-470.0,-79.0,562.0,-298.0,423.0
19:52:06.759000,-87.0,-28.0,-74.0,-878.0,-470.0,-79.0,562.0,-298.0,423.0
19:52:06.763000,-150.0,-33.0,-238.0,-1129.0,-522.0,-20.0,564.0,-298.0,418.0
19:52:06.768000,-205.0,-17.0,-313.0,-1079.0,-515.0,-41.0,564.0,-298.0,418.0
19:52:06.772000,-192.0,28.0,-203.0,-914.0,-511.0,-83.0,564.0,-298.0,418.0
19:52:06.777000,-163.0,34.0,-210.0,-891.0,-431.0,-97.0,562.0,-286.0,427.0
19:52:06.782000,-41.0,-26.0,-256.0,-806.0,-411.0,-67.0,562.0,-286.0,427.0
19:52:06.787000,-14.0,-24.0,-233.0,-806.0,-411.0,-67.0,558.0,-298.0,436.0
19:52:06.792000,-56.0,-49.0,-124.0,-747.0,-452.0,-45.0,558.0,-298.0,436.0
19:52:06.796000,-56.0,-49.0,-124.0,-770.0,-416.0,-24.0,558.0,-298.0,436.0
19:52:06.801000,-108.0,-73.0,-87.0,-892.0,-371.0,-44.0,552.0,-295.0,433.0
19:52:06.806000,-108.0,-73.0,-87.0,-1019.0,-428.0,-22.0,552.0,-295.0,433.0
19:52:06.810000,-143.0,-140.0,-28.0,-1031.0,-427.0,0.0,561.0,-292.0,432.0
19:52:06.815000,-165.0,-137.0,-37.0,-1013.0,-373.0,-54.0,561.0,-292.0,432.0
19:52:06.819000,-215.0,-20.0,-120.0,-1056.0,-318.0,-78.0,561.0,-292.0,432.0
19:52:06.824000,-202.0,48.0,-164.0,-1092.0,-307.0,-76.0,561.0,-295.0,432.0
19:52:06.829000,-89.0,100.0,-133.0,-1162.0,-366.0,-56.0,561.0,-295.0,432.0
19:52:06.834000,-21.0,79.0,-270.0,-1173.0,-478.0,-43.0,552.0,-298.0,439.0
19:52:06.839000,-100.0,119.0,-443.0,-1004.0,-543.0,-86.0,552.0,-298.0,439.0
19:52:06.843000,-115.0,151.0,-484.0,-872.0,-491.0,-75.0,552.0,-298.0,439.0
19:52:06.848000,-104.0,134.0,-466.0,-816.0,-499.0,-81.0,556.0,-292.0,430.0
19:52:06.853000,-23.0,91.0,-462.0,-780.0,-573.0,-44.0,556.0,-292.0,430.0
19:52:06.857000,-8.0,-65.0,-467.0,-780.0,-573.0,-44.0,562.0,-295.0,426.0
19:52:06.862000,-52.0,-77.0,-415.0,-677.0,-557.0,-102.0,562.0,-295.0,426.0
19:52:06.866000,-28.0,-112.0,-287.0,-677.0,-401.0,-102.0,562.0,-295.0,426.0
19:52:06.871000,17.0,-168.0,-362.0,-965.0,-235.0,-67.0,556.0,-289.0,442.0
19:52:06.876000,11.0,-231.0,-594.0,-965.0,-235.0,-67.0,556.0,-289.0,442.0
19:52:06.881000,-56.0,-175.0,-609.0,-1011.0,-292.0,-85.0,544.0,-289.0,442.0
19:52:06.886000,-95.0,-149.0,-545.0,-1085.0,-469.0,-122.0,544.0,-289.0,442.0
19:52:06.890000,-135.0,-152.0,-541.0,-1151.0,-522.0,-103.0,544.0,-289.0,442.0
19:52:06.895000,-44.0,-120.0,-531.0,-1053.0,-386.0,-115.0,562.0,-283.0,430.0
19:52:06.900000,42.0,-98.0,-624.0,-976.0,-269.0,-149.0,562.0,-283.0,430.0
19:52:06.904000,86.0,-119.0,-680.0,-1000.0,-300.0,-122.0,564.0,-280.0,439.0
19:52:06.909000,94.0,-123.0,-593.0,-937.0,-375.0,-101.0,564.0,-280.0,439.0
19:52:06.913000,94.0,-123.0,-593.0,-902.0,-417.0,-78.0,564.0,-280.0,439.0
19:52:06.918000,58.0,-145.0,-558.0,-1007.0,-367.0,-42.0,562.0,-270.0,436.0
19:52:06.923000,-10.0,-168.0,-642.0,-1013.0,-269.0,-38.0,562.0,-270.0,436.0
19:52:06.928000,-75.0,-163.0,-559.0,-910.0,-230.0,-59.0,562.0,-267.0,424.0
19:52:06.933000,-160.0,-111.0,-322.0,-976.0,-153.0,-51.0,562.0,-267.0,424.0
19:52:06.937000,-180.0,-118.0,-306.0,-1080.0,-126.0,-67.0,562.0,-267.0,424.0
19:52:06.942000,-93.0,-67.0,-361.0,-1075.0,-230.0,-59.0,562.0,-279.0,429.0
19:52:06.947000,-73.0,-77.0,-364.0,-1040.0,-261.0,-32.0,562.0,-279.0,429.0
19:52:06.951000,-23.0,-80.0,-324.0,-969.0,-239.0,-34.0,561.0,-274.0,427.0
19:52:06.956000,-36.0,-85.0,-235.0,-987.0,-184.0,-25.0,561.0,-274.0,427.0
19:52:06.960000,-51.0,-67.0,-238.0,-1008.0,-169.0,-43.0,561.0,-274.0,427.0
19:52:06.965000,-60.0,-36.0,-179.0,-1000.0,-215.0,-36.0,561.0,-268.0,432.0
19:52:06.970000,-95.0,-26.0,-153.0,-1076.0,-180.0,-28.0,561.0,-268.0,432.0
19:52:06.975000,-105.0,25.0,-286.0,-1076.0,-180.0,-28.0,558.0,-273.0,432.0
19:52:06.980000,-56.0,63.0,-261.0,-1074.0,-213.0,-36.0,558.0,-273.0,432.0
19:52:06.984000,-34.0,67.0,-116.0,-985.0,-354.0,-21.0,558.0,-273.0,432.0
19:52:06.989000,6.0,91.0,-46.0,-955.0,-426.0,-31.0,565.0,-273.0,433.0
19:52:06.994000,70.0,110.0,-99.0,-1007.0,-373.0,-56.0,565.0,-273.0,433.0
19:52:06.998000,68.0,87.0,-169.0,-1035.0,-287.0,-16.0,555.0,-271.0,433.0
19:52:07.003000,81.0,100.0,-72.0,-962.0,-229.0,-10.0,555.0,-271.0,433.0
19:52:07.007000,-1.0,117.0,77.0,-860.0,-208.0,-16.0,555.0,-271.0,433.0
19:52:07.012000,-80.0,121.0,79.0,-845.0,-118.0,26.0,568.0,-268.0,454.0
19:52:07.017000,-45.0,91.0,105.0,-846.0,-46.0,9.0,568.0,-268.0,454.0
19:52:07.022000,-121.0,77.0,164.0,-820.0,-125.0,-3.0,562.0,-268.0,438.0
19:52:07.027000,-121.0,77.0,164.0,-865.0,-167.0,2.0,562.0,-268.0,438.0
19:52:07.031000,-182.0,83.0,163.0,-902.0,-165.0,-42.0,562.0,-268.0,438.0
19:52:07.036000,-162.0,115.0,155.0,-910.0,-227.0,-69.0,564.0,-271.0,439.0
19:52:07.041000,-95.0,121.0,194.0,-929.0,-332.0,-65.0,564.0,-271.0,439.0
19:52:07.045000,-47.0,126.0,227.0,-927.0,-393.0,-48.0,568.0,-265.0,439.0
19:52:07.050000,-44.0,130.0,212.0,-953.0,-381.0,-41.0,568.0,-265.0,439.0
19:52:07.054000,-66.0,171.0,145.0,-985.0,-316.0,-45.0,568.0,-265.0,439.0
19:52:07.059000,-49.0,172.0,35.0,-913.0,-312.0,-61.0,555.0,-273.0,450.0
19:52:07.064000,-31.0,223.0,100.0,-835.0,-394.0,-62.0,555.0,-273.0,450.0
19:52:07.069000,-83.0,228.0,149.0,-828.0,-408.0,-46.0,559.0,-274.0,447.0
19:52:07.074000,-105.0,245.0,84.0,-786.0,-429.0,-77.0,559.0,-274.0,447.0
19:52:07.078000,0.0,226.0,75.0,-739.0,-476.0,-50.0,559.0,-274.0,447.0
19:52:07.083000,-42.0,200.0,135.0,-729.0,-391.0,-42.0,561.0,-274.0,447.0
19:52:07.088000,-53.0,215.0,182.0,-729.0,-391.0,-42.0,561.0,-274.0,447.0
19:52:07.092000,-67.0,188.0,135.0,-808.0,-200.0,-44.0,564.0,-279.0,441.0
19:52:07.097000,-51.0,185.0,49.0,-808.0,-200.0,-44.0,564.0,-279.0,441.0
19:52:07.101000,-30.0,165.0,47.0,-796.0,-285.0,-56.0,564.0,-279.0,441.0
19:52:07.106000,-25.0,193.0,128.0,-796.0,-395.0,-63.0,550.0,-285.0,454.0
19:52:07.111000,-23.0,221.0,228.0,-810.0,-404.0,-77.0,550.0,-285.0,454.0
19:52:07.116000,-23.0,205.0,244.0,-846.0,-330.0,-56.0,565.0,-277.0,456.0
19:52:07.121000,-34.0,150.0,201.0,-841.0,-227.0,-16.0,565.0,-277.0,456.0
19:52:07.125000,-34.0,150.0,201.0,-772.0,-210.0,-26.0,565.0,-277.0,456.0
19:52:07.130000,-115.0,226.0,265.0,-766.0,-218.0,-52.0,561.0,-286.0,456.0
19:52:07.135000,-115.0,226.0,265.0,-851.0,-191.0,-41.0,561.0,-286.0,456.0
19:52:07.139000,-161.0,239.0,308.0,-938.0,-217.0,-45.0,562.0,-289.0,456.0
19:52:07.144000,-149.0,245.0,310.0,-962.0,-254.0,-72.0,562.0,-289.0,456.0
19:52:07.149000,-142.0,268.0,270.0,-903.0,-243.0,-78.0,558.0,-288.0,444.0
19:52:07.153000,-149.0,263.0,237.0,-816.0,-211.0,-67.0,558.0,-288.0,444.0
19:52:07.158000,-140.0,242.0,203.0,-755.0,-213.0,-60.0,558.0,-288.0,444.0
19:52:07.163000,-139.0,206.0,224.0,-738.0,-226.0,-61.0,556.0,-274.0,454.0
19:52:07.168000,-173.0,193.0,248.0,-757.0,-258.0,-70.0,556.0,-274.0,454.0
19:52:07.172000,-217.0,198.0,299.0,-807.0,-281.0,-69.0,565.0,-294.0,454.0
19:52:07.177000,-263.0,201.0,270.0,-801.0,-261.0,-74.0,565.0,-294.0,454.0
19:52:07.181000,-270.0,185.0,233.0,-720.0,-287.0,-74.0,565.0,-294.0,454.0
19:52:07.186000,-296.0,169.0,294.0,-649.0,-353.0,-88.0,556.0,-288.0,468.0
19:52:07.191000,-284.0,169.0,396.0,-638.0,-450.0,-110.0,556.0,-288.0,468.0
19:52:07.196000,-289.0,181.0,480.0,-638.0,-450.0,-110.0,558.0,-295.0,465.0
19:52:07.200000,-279.0,171.0,431.0,-694.0,-497.0,-108.0,558.0,-295.0,465.0
19:52:07.205000,-206.0,135.0,296.0,-703.0,-443.0,-110.0,558.0,-295.0,465.0
19:52:07.210000,-151.0,102.0,228.0,-617.0,-421.0,-111.0,564.0,-292.0,460.0
19:52:07.215000,-121.0,82.0,231.0,-527.0,-432.0,-102.0,564.0,-292.0,460.0
19:52:07.219000,-101.0,49.0,193.0,-519.0,-394.0,-89.0,556.0,-303.0,472.0
19:52:07.224000,-65.0,10.0,143.0,-551.0,-329.0,-71.0,556.0,-303.0,472.0
19:52:07.228000,-65.0,10.0,143.0,-591.0,-300.0,-60.0,556.0,-303.0,472.0
19:52:07.233000,16.0,1.0,68.0,-667.0,-282.0,-61.0,561.0,-310.0,456.0
19:52:07.238000,19.0,9.0,32.0,-758.0,-216.0,-49.0,561.0,-310.0,456.0
19:52:07.243000,19.0,9.0,32.0,-835.0,-78.0,-19.0,561.0,-297.0,457.0
19:52:07.247000,23.0,-11.0,18.0,-888.0,80.0,4.0,561.0,-297.0,457.0
19:52:07.252000,21.0,-28.0,-8.0,-936.0,165.0,24.0,561.0,-297.0,457.0
19:52:07.257000,-19.0,-25.0,14.0,-1032.0,222.0,38.0,565.0,-306.0,454.0
19:52:07.262000,-48.0,-30.0,-6.0,-1138.0,288.0,41.0,565.0,-306.0,454.0
19:52:07.266000,-64.0,-28.0,-113.0,-1157.0,281.0,37.0,556.0,-301.0,463.0
19:52:07.271000,-60.0,-16.0,-186.0,-1110.0,191.0,33.0,556.0,-301.0,463.0
19:52:07.278000,-25.0,12.0,-174.0,-1067.0,16.0,14.0,559.0,-300.0,477.0
19:52:07.280000,-25.0,12.0,-174.0,-1067.0,16.0,14.0,559.0,-300.0,477.0
19:52:07.284000,5.0,22.0,-177.0,-1042.0,-19.0,14.0,559.0,-300.0,477.0
19:52:07.290000,23.0,16.0,-187.0,-995.0,-31.0,8.0,555.0,-307.0,469.0
19:52:07.294000,47.0,15.0,-254.0,-936.0,-52.0,-3.0,555.0,-307.0,469.0
19:52:07.299000,70.0,0.0,-317.0,-936.0,-52.0,-3.0,562.0,-303.0,459.0
19:52:07.304000,105.0,-18.0,-306.0,-873.0,-157.0,-6.0,562.0,-303.0,459.0
19:52:07.308000,128.0,-44.0,-290.0,-851.0,-157.0,-15.0,562.0,-303.0,459.0
19:52:07.313000,142.0,-81.0,-268.0,-853.0,-142.0,-18.0,562.0,-297.0,466.0
19:52:07.318000,151.0,-112.0,-289.0,-864.0,-80.0,-8.0,562.0,-297.0,466.0
19:52:07.322000,138.0,-119.0,-380.0,-974.0,24.0,-7.0,567.0,-292.0,463.0
19:52:07.327000,127.0,-141.0,-487.0,-974.0,24.0,-7.0,567.0,-292.0,463.0
19:52:07.331000,121.0,-162.0,-571.0,-1000.0,40.0,8.0,567.0,-292.0,463.0
19:52:07.337000,97.0,-170.0,-555.0,-971.0,56.0,17.0,552.0,-294.0,466.0
19:52:07.341000,60.0,-197.0,-537.0,-954.0,82.0,29.0,552.0,-294.0,466.0
19:52:07.346000,30.0,-216.0,-554.0,-987.0,152.0,34.0,564.0,-285.0,463.0
19:52:07.351000,30.0,-216.0,-554.0,-1011.0,173.0,26.0,564.0,-285.0,463.0
19:52:07.355000,41.0,-226.0,-529.0,-1050.0,133.0,24.0,564.0,-285.0,463.0
19:52:07.360000,39.0,-236.0,-519.0,-1114.0,87.0,24.0,558.0,-282.0,459.0
19:52:07.365000,-15.0,-225.0,-515.0,-1140.0,29.0,10.0,558.0,-282.0,459.0
19:52:07.369000,-39.0,-217.0,-493.0,-1130.0,-20.0,2.0,567.0,-280.0,457.0
19:52:07.374000,-49.0,-207.0,-511.0,-1097.0,-66.0,-3.0,567.0,-280.0,457.0
19:52:07.378000,-52.0,-177.0,-546.0,-1079.0,-122.0,-21.0,567.0,-280.0,457.0
19:52:07.384000,-56.0,-142.0,-542.0,-1085.0,-198.0,-15.0,564.0,-294.0,454.0
19:52:07.388000,-77.0,-145.0,-529.0,-1045.0,-261.0,-9.0,564.0,-294.0,454.0
19:52:07.393000,-50.0,-152.0,-541.0,-976.0,-327.0,-18.0,562.0,-280.0,459.0
19:52:07.398000,-77.0,-160.0,-547.0,-894.0,-374.0,-15.0,562.0,-280.0,459.0
19:52:07.402000,-81.0,-172.0,-514.0,-836.0,-408.0,-23.0,562.0,-280.0,459.0
19:52:07.407000,-46.0,-170.0,-450.0,-878.0,-454.0,-8.0,564.0,-277.0,459.0
19:52:07.412000,-75.0,-201.0,-460.0,-910.0,-430.0,-4.0,564.0,-277.0,459.0
19:52:07.417000,-65.0,-201.0,-524.0,-910.0,-430.0,-4.0,568.0,-273.0,459.0
19:52:07.421000,-43.0,-168.0,-518.0,-880.0,-386.0,-36.0,568.0,-273.0,459.0
19:52:07.425000,-32.0,-175.0,-444.0,-859.0,-371.0,-26.0,568.0,-273.0,459.0
19:52:07.431000,-9.0,-167.0,-392.0,-865.0,-372.0,-11.0,564.0,-264.0,448.0
19:52:07.435000,-17.0,-148.0,-392.0,-922.0,-404.0,-11.0,564.0,-264.0,448.0
19:52:07.440000,-29.0,-117.0,-442.0,-1001.0,-415.0,-8.0,552.0,-258.0,451.0
19:52:07.445000,-24.0,-97.0,-467.0,-1034.0,-379.0,-8.0,552.0,-258.0,451.0
19:52:07.449000,-24.0,-97.0,-467.0,-995.0,-311.0,-9.0,552.0,-258.0,451.0
19:52:07.454000,-68.0,-87.0,-469.0,-943.0,-203.0,12.0,570.0,-264.0,456.0
19:52:07.459000,-121.0,-104.0,-536.0,-914.0,-114.0,34.0,570.0,-264.0,456.0
19:52:07.464000,-121.0,-104.0,-536.0,-874.0,-109.0,32.0,570.0,-265.0,454.0
19:52:07.468000,-140.0,-131.0,-571.0,-867.0,-175.0,15.0,570.0,-265.0,454.0
19:52:07.472000,-133.0,-130.0,-538.0,-936.0,-248.0,9.0,570.0,-265.0,454.0
19:52:07.478000,-123.0,-149.0,-510.0,-1023.0,-262.0,19.0,564.0,-265.0,448.0
19:52:07.482000,-115.0,-161.0,-538.0,-1049.0,-243.0,9.0,564.0,-265.0,448.0
19:52:07.487000,-88.0,-155.0,-559.0,-1022.0,-236.0,10.0,568.0,-253.0,457.0
19:52:07.492000,-72.0,-157.0,-529.0,-1001.0,-209.0,28.0,568.0,-253.0,457.0
19:52:07.496000,-93.0,-165.0,-487.0,-1002.0,-160.0,36.0,568.0,-253.0,457.0
19:52:07.501000,-111.0,-172.0,-462.0,-1000.0,-133.0,24.0,559.0,-265.0,457.0
19:52:07.506000,-123.0,-163.0,-442.0,-1003.0,-152.0,18.0,559.0,-265.0,457.0
19:52:07.511000,-151.0,-149.0,-418.0,-1003.0,-152.0,18.0,573.0,-255.0,454.0
19:52:07.515000,-173.0,-123.0,-399.0,-1009.0,-182.0,18.0,573.0,-255.0,454.0
19:52:07.519000,-148.0,-100.0,-400.0,-1037.0,-198.0,-10.0,573.0,-255.0,454.0
19:52:07.525000,-133.0,-70.0,-406.0,-1037.0,-198.0,-10.0,556.0,-249.0,453.0
19:52:07.529000,-102.0,-57.0,-406.0,-1045.0,-217.0,-6.0,556.0,-249.0,453.0
19:52:07.534000,-48.0,-37.0,-420.0,-1033.0,-227.0,-9.0,561.0,-247.0,451.0
19:52:07.539000,-23.0,-20.0,-441.0,-1022.0,-224.0,-10.0,561.0,-247.0,451.0
19:52:07.543000,6.0,-7.0,-450.0,-1008.0,-192.0,-4.0,561.0,-247.0,451.0
19:52:07.548000,13.0,17.0,-427.0,-991.0,-161.0,-5.0,556.0,-246.0,462.0
19:52:07.553000,23.0,24.0,-401.0,-991.0,-139.0,-7.0,556.0,-246.0,462.0
19:52:07.558000,31.0,35.0,-393.0,-1011.0,-116.0,-6.0,553.0,-238.0,460.0
19:52:07.562000,40.0,55.0,-404.0,-1023.0,-99.0,-11.0,553.0,-238.0,460.0
19:52:07.566000,40.0,55.0,-404.0,-1018.0,-81.0,-16.0,553.0,-238.0,460.0
19:52:07.572000,51.0,70.0,-411.0,-1008.0,-73.0,-10.0,549.0,-241.0,454.0
19:52:07.576000,55.0,81.0,-414.0,-997.0,-58.0,-6.0,549.0,-241.0,454.0
19:52:07.581000,63.0,88.0,-397.0,-989.0,-28.0,3.0,556.0,-231.0,453.0
19:52:07.586000,62.0,82.0,-382.0,-981.0,22.0,14.0,556.0,-231.0,453.0
19:52:07.593000,30.0,65.0,-385.0,-970.0,98.0,9.0,555.0,-234.0,456.0
19:52:07.595000,30.0,65.0,-385.0,-970.0,98.0,9.0,555.0,-234.0,456.0
19:52:07.599000,28.0,61.0,-366.0,-1000.0,95.0,0.0,555.0,-234.0,456.0
19:52:07.605000,37.0,64.0,-336.0,-1037.0,86.0,0.0,558.0,-231.0,459.0
19:52:07.609000,46.0,62.0,-317.0,-1065.0,86.0,0.0,558.0,-231.0,459.0
19:52:07.614000,46.0,70.0,-305.0,-1077.0,98.0,-2.0,555.0,-231.0,463.0
19:52:07.619000,27.0,86.0,-288.0,-1079.0,136.0,8.0,555.0,-231.0,463.0
19:52:07.623000,-4.0,93.0,-275.0,-1070.0,173.0,16.0,555.0,-231.0,463.0
19:52:07.628000,-39.0,104.0,-245.0,-1052.0,175.0,11.0,549.0,-232.0,460.0
19:52:07.633000,-64.0,117.0,-192.0,-1052.0,175.0,11.0,549.0,-232.0,460.0
19:52:07.638000,-101.0,133.0,-168.0,-1057.0,163.0,12.0,547.0,-229.0,463.0
19:52:07.642000,-144.0,153.0,-161.0,-1083.0,153.0,13.0,547.0,-229.0,463.0
19:52:07.646000,-176.0,164.0,-174.0,-1083.0,153.0,13.0,547.0,-229.0,463.0
19:52:07.652000,-182.0,172.0,-194.0,-1077.0,147.0,5.0,547.0,-228.0,459.0
19:52:07.656000,-184.0,181.0,-184.0,-1050.0,107.0,-3.0,547.0,-228.0,459.0
19:52:07.661000,-186.0,193.0,-175.0,-1035.0,55.0,-7.0,553.0,-228.0,465.0
19:52:07.666000,-195.0,201.0,-182.0,-1039.0,35.0,-9.0,553.0,-228.0,465.0
19:52:07.670000,-195.0,201.0,-182.0,-1038.0,38.0,-5.0,553.0,-228.0,465.0
19:52:07.675000,-197.0,207.0,-251.0,-1025.0,36.0,-6.0,550.0,-228.0,468.0
19:52:07.680000,-197.0,207.0,-251.0,-999.0,21.0,0.0,550.0,-228.0,468.0
19:52:07.684000,-195.0,197.0,-287.0,-970.0,-5.0,4.0,543.0,-220.0,465.0
19:52:07.689000,-198.0,193.0,-302.0,-956.0,-24.0,0.0,543.0,-220.0,465.0
19:52:07.693000,-196.0,186.0,-306.0,-969.0,-30.0,-3.0,543.0,-220.0,465.0
19:52:07.699000,-200.0,189.0,-325.0,-988.0,-35.0,-9.0,529.0,-222.0,469.0
19:52:07.703000,-195.0,191.0,-343.0,-989.0,-43.0,-10.0,529.0,-222.0,469.0
19:52:07.708000,-170.0,183.0,-358.0,-970.0,-54.0,-12.0,541.0,-231.0,477.0
19:52:07.713000,-148.0,175.0,-373.0,-943.0,-49.0,-12.0,541.0,-231.0,477.0
19:52:07.717000,-123.0,165.0,-368.0,-939.0,-8.0,-11.0,541.0,-231.0,477.0
19:52:07.722000,-107.0,156.0,-382.0,-957.0,52.0,-7.0,552.0,-226.0,468.0
19:52:07.727000,-89.0,140.0,-424.0,-962.0,95.0,-6.0,552.0,-226.0,468.0
19:52:07.731000,-80.0,129.0,-444.0,-946.0,89.0,-2.0,537.0,-220.0,474.0
19:52:07.736000,-90.0,115.0,-394.0,-947.0,71.0,0.0,537.0,-220.0,474.0
19:52:07.740000,-103.0,109.0,-350.0,-947.0,85.0,-10.0,537.0,-220.0,474.0
19:52:07.745000,-116.0,109.0,-359.0,-976.0,85.0,-10.0,543.0,-220.0,472.0
19:52:07.750000,-121.0,93.0,-380.0,-991.0,118.0,-12.0,543.0,-220.0,472.0
19:52:07.755000,-124.0,82.0,-370.0,-981.0,138.0,-13.0,538.0,-229.0,481.0
19:52:07.760000,-135.0,72.0,-357.0,-978.0,146.0,-19.0,538.0,-229.0,481.0
19:52:07.764000,-149.0,65.0,-350.0,-989.0,151.0,-22.0,538.0,-229.0,481.0
19:52:07.769000,-165.0,63.0,-315.0,-993.0,135.0,-29.0,544.0,-219.0,480.0
19:52:07.774000,-181.0,75.0,-296.0,-999.0,123.0,-41.0,544.0,-219.0,480.0
19:52:07.778000,-181.0,75.0,-296.0,-1004.0,137.0,-54.0,526.0,-217.0,498.0
19:52:07.783000,-169.0,79.0,-392.0,-988.0,149.0,-56.0,526.0,-217.0,498.0
19:52:07.787000,-169.0,79.0,-392.0,-944.0,119.0,-52.0,526.0,-217.0,498.0
19:52:07.793000,-166.0,74.0,-379.0,-897.0,59.0,-43.0,535.0,-217.0,483.0
19:52:07.797000,-167.0,56.0,-319.0,-887.0,42.0,-43.0,535.0,-217.0,483.0
19:52:07.802000,-150.0,42.0,-302.0,-905.0,65.0,-53.0,535.0,-216.0,484.0
19:52:07.807000,-126.0,28.0,-315.0,-918.0,93.0,-49.0,535.0,-216.0,484.0
19:52:07.811000,-102.0,0.0,-356.0,-913.0,114.0,-44.0,535.0,-216.0,484.0
19:52:07.816000,-79.0,-21.0,-402.0,-887.0,111.0,-44.0,534.0,-214.0,475.0
19:52:07.821000,-62.0,-44.0,-375.0,-892.0,135.0,-41.0,534.0,-214.0,475.0
19:52:07.825000,-58.0,-63.0,-366.0,-924.0,190.0,-35.0,537.0,-220.0,493.0
19:52:07.830000,-44.0,-86.0,-381.0,-948.0,236.0,-33.0,537.0,-220.0,493.0
19:52:07.834000,-38.0,-104.0,-409.0,-959.0,259.0,-33.0,537.0,-220.0,493.0
19:52:07.840000,-39.0,-117.0,-396.0,-968.0,255.0,-30.0,534.0,-213.0,486.0
19:52:07.844000,-51.0,-126.0,-341.0,-1009.0,280.0,-32.0,534.0,-213.0,486.0
19:52:07.849000,-63.0,-121.0,-338.0,-1009.0,280.0,-32.0,529.0,-211.0,487.0
19:52:07.854000,-81.0,-109.0,-380.0,-1051.0,328.0,-33.0,529.0,-211.0,487.0
19:52:07.858000,-99.0,-100.0,-434.0,-1067.0,360.0,-26.0,529.0,-211.0,487.0
19:52:07.863000,-105.0,-100.0,-485.0,-1065.0,385.0,-18.0,526.0,-207.0,489.0
19:52:07.868000,-125.0,-105.0,-479.0,-1015.0,355.0,6.0,526.0,-207.0,489.0
19:52:07.872000,-144.0,-117.0,-450.0,-1015.0,355.0,6.0,511.0,-213.0,492.0
19:52:07.877000,-158.0,-121.0,-438.0,-1021.0,346.0,5.0,511.0,-213.0,492.0
19:52:07.881000,-168.0,-123.0,-438.0,-1054.0,350.0,3.0,511.0,-213.0,492.0
19:52:07.887000,-165.0,-119.0,-457.0,-1086.0,348.0,1.0,525.0,-201.0,481.0
19:52:07.891000,-165.0,-115.0,-490.0,-1092.0,344.0,0.0,525.0,-201.0,481.0
19:52:07.896000,-168.0,-109.0,-513.0,-1071.0,328.0,6.0,519.0,-205.0,484.0
19:52:07.901000,-168.0,-109.0,-513.0,-1048.0,297.0,6.0,519.0,-205.0,484.0
19:52:07.905000,-163.0,-108.0,-504.0,-1040.0,273.0,12.0,519.0,-205.0,484.0
19:52:07.910000,-165.0,-119.0,-483.0,-1043.0,282.0,17.0,519.0,-195.0,510.0
19:52:07.915000,-161.0,-128.0,-482.0,-1053.0,309.0,9.0,519.0,-195.0,510.0
19:52:07.919000,-156.0,-133.0,-488.0,-1063.0,325.0,2.0,519.0,-195.0,510.0
19:52:07.924000,-154.0,-135.0,-476.0,-1088.0,340.0,-1.0,519.0,-195.0,510.0
19:52:07.928000,-153.0,-139.0,-492.0,-1127.0,354.0,-13.0,519.0,-195.0,510.0
19:52:07.934000,-144.0,-121.0,-543.0,-1141.0,345.0,-25.0,526.0,-195.0,489.0
19:52:07.938000,-141.0,-105.0,-577.0,-1126.0,326.0,-23.0,526.0,-195.0,489.0
19:52:07.943000,-145.0,-93.0,-578.0,-1112.0,334.0,-29.0,526.0,-190.0,487.0
19:52:07.948000,-156.0,-74.0,-583.0,-1135.0,373.0,-28.0,526.0,-190.0,487.0
19:52:07.952000,-165.0,-66.0,-614.0,-1164.0,400.0,-30.0,526.0,-190.0,487.0
19:52:07.957000,-163.0,-51.0,-658.0,-1171.0,410.0,-36.0,517.0,-187.0,487.0
19:52:07.962000,-152.0,-62.0,-718.0,-1171.0,410.0,-36.0,517.0,-187.0,487.0
19:52:07.966000,-151.0,-70.0,-748.0,-1174.0,397.0,-30.0,526.0,-192.0,493.0
19:52:07.971000,-144.0,-75.0,-744.0,-1179.0,366.0,-33.0,526.0,-192.0,493.0
19:52:07.975000,-142.0,-79.0,-727.0,-1184.0,350.0,-34.0,526.0,-192.0,493.0
19:52:07.980000,-148.0,-73.0,-723.0,-1190.0,350.0,-40.0,528.0,-189.0,493.0
19:52:07.985000,-144.0,-65.0,-744.0,-1220.0,371.0,-53.0,528.0,-189.0,493.0
19:52:07.990000,-124.0,-56.0,-800.0,-1274.0,386.0,-53.0,517.0,-183.0,490.0
19:52:07.995000,-100.0,-60.0,-849.0,-1288.0,370.0,-42.0,517.0,-183.0,490.0
19:52:07.999000,-100.0,-60.0,-849.0,-1232.0,321.0,-46.0,517.0,-183.0,490.0
19:52:08.004000,-24.0,-96.0,-852.0,-1196.0,288.0,-54.0,498.0,-177.0,505.0
19:52:08.009000,-24.0,-96.0,-852.0,-1225.0,279.0,-49.0,498.0,-177.0,505.0
19:52:08.013000,1.0,-100.0,-882.0,-1247.0,270.0,-44.0,513.0,-177.0,489.0
19:52:08.018000,25.0,-121.0,-923.0,-1220.0,249.0,-55.0,513.0,-177.0,489.0
19:52:08.022000,84.0,-136.0,-954.0,-1157.0,217.0,-71.0,513.0,-177.0,489.0
19:52:08.028000,118.0,-137.0,-968.0,-1106.0,198.0,-55.0,505.0,-172.0,486.0
19:52:08.032000,121.0,-150.0,-966.0,-1067.0,183.0,-54.0,505.0,-172.0,486.0
19:52:08.037000,126.0,-144.0,-943.0,-1021.0,197.0,-49.0,505.0,-159.0,489.0
19:52:08.042000,142.0,-173.0,-928.0,-992.0,177.0,-37.0,505.0,-159.0,489.0
19:52:08.046000,157.0,-196.0,-911.0,-969.0,177.0,-37.0,505.0,-159.0,489.0
19:52:08.051000,149.0,-215.0,-912.0,-931.0,157.0,-30.0,501.0,-148.0,492.0
19:52:08.056000,149.0,-228.0,-895.0,-890.0,155.0,-14.0,501.0,-148.0,492.0
19:52:08.060000,138.0,-269.0,-843.0,-890.0,155.0,-14.0,501.0,-165.0,489.0
19:52:08.065000,127.0,-281.0,-774.0,-814.0,170.0,-30.0,501.0,-165.0,489.0
19:52:08.069000,112.0,-275.0,-712.0,-814.0,170.0,-30.0,501.0,-165.0,489.0
19:52:08.075000,96.0,-282.0,-680.0,-810.0,217.0,-16.0,502.0,-150.0,495.0
19:52:08.079000,61.0,-287.0,-644.0,-809.0,200.0,-14.0,502.0,-150.0,495.0
19:52:08.084000,18.0,-304.0,-607.0,-795.0,239.0,-5.0,502.0,-147.0,484.0
19:52:08.089000,2.0,-323.0,-597.0,-741.0,263.0,7.0,502.0,-147.0,484.0
19:52:08.093000,-18.0,-329.0,-585.0,-729.0,315.0,-20.0,502.0,-147.0,484.0
19:52:08.098000,-51.0,-329.0,-577.0,-716.0,381.0,-14.0,495.0,-144.0,486.0
19:52:08.103000,-95.0,-342.0,-584.0,-749.0,425.0,-14.0,495.0,-144.0,486.0
19:52:08.107000,-121.0,-352.0,-571.0,-786.0,476.0,-7.0,505.0,-138.0,480.0
19:52:08.112000,-131.0,-355.0,-581.0,-799.0,456.0,-9.0,505.0,-138.0,480.0
19:52:08.116000,-131.0,-355.0,-581.0,-869.0,480.0,0.0,505.0,-138.0,480.0
19:52:08.122000,-136.0,-384.0,-623.0,-920.0,489.0,25.0,504.0,-135.0,481.0
19:52:08.126000,-130.0,-395.0,-662.0,-925.0,476.0,28.0,504.0,-135.0,481.0
19:52:08.131000,-121.0,-427.0,-697.0,-875.0,480.0,59.0,499.0,-138.0,477.0
19:52:08.136000,-83.0,-464.0,-688.0,-872.0,384.0,55.0,499.0,-138.0,477.0
19:52:08.140000,-52.0,-465.0,-609.0,-923.0,401.0,64.0,499.0,-138.0,477.0
19:52:08.145000,-33.0,-489.0,-553.0,-988.0,470.0,89.0,495.0,-129.0,486.0
19:52:08.150000,2.0,-520.0,-542.0,-918.0,412.0,83.0,495.0,-129.0,486.0
19:52:08.154000,82.0,-557.0,-543.0,-799.0,368.0,76.0,511.0,-123.0,484.0
19:52:08.159000,130.0,-588.0,-514.0,-884.0,410.0,73.0,511.0,-123.0,484.0
19:52:08.163000,156.0,-571.0,-478.0,-809.0,384.0,82.0,511.0,-123.0,484.0
19:52:08.169000,119.0,-534.0,-455.0,-694.0,338.0,74.0,508.0,-115.0,481.0
19:52:08.173000,61.0,-488.0,-316.0,-994.0,485.0,55.0,508.0,-115.0,481.0
19:52:08.178000,43.0,-418.0,-179.0,-1118.0,475.0,130.0,508.0,-121.0,469.0
19:52:08.183000,-70.0,-385.0,-158.0,-1118.0,475.0,130.0,508.0,-121.0,469.0
19:52:08.187000,-89.0,-371.0,-106.0,-1008.0,279.0,142.0,508.0,-121.0,469.0
19:52:08.192000,-45.0,-338.0,-86.0,-1087.0,225.0,57.0,510.0,-121.0,471.0
19:52:08.197000,-111.0,-327.0,-95.0,-1074.0,213.0,36.0,510.0,-121.0,471.0
19:52:08.201000,-154.0,-275.0,-105.0,-1013.0,348.0,-17.0,504.0,-118.0,474.0
19:52:08.206000,-174.0,-211.0,-149.0,-1031.0,473.0,-81.0,504.0,-118.0,474.0
19:52:08.210000,-245.0,-138.0,-217.0,-1175.0,476.0,-71.0,504.0,-118.0,474.0
19:52:08.215000,-245.0,-138.0,-217.0,-1278.0,402.0,-50.0,507.0,-112.0,462.0
19:52:08.220000,-334.0,-37.0,-226.0,-1073.0,270.0,-34.0,507.0,-112.0,462.0
19:52:08.224000,-334.0,-37.0,-226.0,-1016.0,325.0,-2.0,502.0,-123.0,472.0
19:52:08.230000,-350.0,22.0,-219.0,-1106.0,327.0,-7.0,502.0,-123.0,472.0
19:52:08.234000,-368.0,69.0,-238.0,-987.0,193.0,75.0,502.0,-123.0,472.0
19:52:08.239000,-338.0,-40.0,-244.0,-867.0,107.0,73.0,504.0,-117.0,481.0
19:52:08.244000,-250.0,-44.0,-261.0,-852.0,53.0,37.0,504.0,-117.0,481.0
19:52:08.248000,-165.0,-90.0,-284.0,-735.0,123.0,127.0,504.0,-117.0,481.0
19:52:08.253000,-137.0,-123.0,-348.0,-505.0,259.0,153.0,504.0,-117.0,481.0
19:52:08.257000,-88.0,-173.0,-466.0,-447.0,317.0,135.0,504.0,-117.0,481.0
19:52:08.263000,-25.0,-224.0,-561.0,-507.0,313.0,142.0,510.0,-120.0,480.0
19:52:08.267000,-10.0,-244.0,-576.0,-561.0,341.0,162.0,510.0,-120.0,480.0
19:52:08.272000,-37.0,-287.0,-619.0,-660.0,396.0,154.0,514.0,-114.0,475.0
19:52:08.277000,-96.0,-285.0,-669.0,-806.0,414.0,128.0,514.0,-114.0,475.0
19:52:08.281000,-105.0,-278.0,-652.0,-806.0,414.0,128.0,508.0,-105.0,475.0
19:52:08.286000,-159.0,-254.0,-538.0,-867.0,441.0,118.0,508.0,-105.0,475.0
19:52:08.290000,-203.0,-202.0,-451.0,-867.0,441.0,118.0,508.0,-105.0,475.0
19:52:08.295000,-231.0,-169.0,-445.0,-936.0,468.0,91.0,510.0,-102.0,472.0
19:52:08.300000,-235.0,-155.0,-485.0,-1022.0,498.0,93.0,510.0,-102.0,472.0
19:52:08.305000,-228.0,-89.0,-427.0,-991.0,442.0,87.0,514.0,-100.0,475.0
19:52:08.310000,-223.0,-90.0,-307.0,-746.0,373.0,76.0,514.0,-100.0,475.0
19:52:08.314000,-205.0,-75.0,-261.0,-656.0,379.0,70.0,514.0,-100.0,475.0
19:52:08.319000,-212.0,-42.0,-253.0,-817.0,441.0,78.0,510.0,-103.0,496.0
19:52:08.324000,-225.0,-42.0,-231.0,-734.0,450.0,81.0,510.0,-103.0,496.0
19:52:08.328000,-200.0,-56.0,-201.0,-545.0,407.0,62.0,507.0,-108.0,480.0
19:52:08.333000,-179.0,1.0,-175.0,-700.0,380.0,35.0,507.0,-108.0,480.0
19:52:08.337000,-179.0,1.0,-175.0,-882.0,401.0,48.0,507.0,-108.0,480.0
19:52:08.342000,-194.0,12.0,-175.0,-820.0,441.0,73.0,502.0,-103.0,481.0
