hh:mm:ss.ms,gyroX[mdps],gyroY[mdps],gyroZ[mdps],accX[mg],accY[mg],accZ[mg],magX[mG],magY[mG],magZ[mG]
19:51:42.170000,-44.0,-49.0,-154.0,-812.0,75.0,17.0,715.0,-559.0,354.0
19:51:42.174000,-34.0,-53.0,-147.0,-822.0,101.0,27.0,715.0,-559.0,354.0
19:51:42.179000,-30.0,-56.0,-129.0,-840.0,133.0,37.0,718.0,-553.0,352.0
19:51:42.184000,-40.0,-54.0,-103.0,-881.0,179.0,50.0,718.0,-553.0,352.0
19:51:42.189000,-60.0,-48.0,-75.0,-939.0,231.0,61.0,712.0,-561.0,354.0
19:51:42.193000,-91.0,-34.0,-42.0,-999.0,272.0,69.0,712.0,-561.0,354.0
19:51:42.197000,-91.0,-34.0,-42.0,-1054.0,285.0,74.0,712.0,-561.0,354.0
19:51:42.203000,-127.0,-13.0,-1.0,-1097.0,262.0,75.0,721.0,-547.0,348.0
19:51:42.207000,-155.0,11.0,42.0,-1132.0,222.0,70.0,721.0,-547.0,348.0
19:51:42.212000,-165.0,37.0,74.0,-1173.0,191.0,64.0,712.0,-543.0,352.0
19:51:42.217000,-167.0,65.0,86.0,-1210.0,167.0,64.0,712.0,-543.0,352.0
19:51:42.221000,-170.0,102.0,87.0,-1217.0,125.0,70.0,712.0,-543.0,352.0
19:51:42.226000,-159.0,133.0,91.0,-1191.0,67.0,77.0,721.0,-547.0,351.0
19:51:42.231000,-130.0,149.0,85.0,-1144.0,21.0,91.0,721.0,-547.0,351.0
19:51:42.236000,-81.0,144.0,68.0,-1091.0,11.0,112.0,715.0,-553.0,354.0
19:51:42.240000,-30.0,114.0,47.0,-1049.0,40.0,144.0,715.0,-553.0,354.0
19:51:42.244000,10.0,64.0,35.0,-1016.0,92.0,177.0,715.0,-553.0,354.0
19:51:42.250000,38.0,-1.0,37.0,-995.0,160.0,204.0,708.0,-553.0,376.0
19:51:42.254000,53.0,-80.0,51.0,-1013.0,257.0,226.0,708.0,-553.0,376.0
19:51:42.259000,46.0,-163.0,64.0,-1013.0,257.0,226.0,705.0,-553.0,351.0
19:51:42.264000,5.0,-233.0,89.0,-1088.0,375.0,240.0,705.0,-553.0,351.0
19:51:42.268000,-59.0,-273.0,153.0,-1204.0,456.0,245.0,705.0,-553.0,351.0
19:51:42.273000,-116.0,-282.0,253.0,-1325.0,442.0,244.0,711.0,-540.0,351.0
19:51:42.278000,-132.0,-266.0,338.0,-1419.0,339.0,234.0,711.0,-540.0,351.0
19:51:42.283000,-97.0,-232.0,366.0,-1470.0,191.0,217.0,720.0,-541.0,346.0
19:51:42.330000,-70.0,-28.0,-4.0,-1107.0,180.0,250.0,700.0,-543.0,352.0
19:51:42.334000,-80.0,-50.0,0.0,-1159.0,128.0,224.0,706.0,-538.0,351.0
19:51:42.339000,-56.0,-64.0,1.0,-1233.0,105.0,197.0,706.0,-538.0,351.0
19:51:42.343000,-20.0,-61.0,-19.0,-1290.0,119.0,175.0,706.0,-538.0,351.0
19:51:42.348000,-3.0,-39.0,-39.0,-1296.0,129.0,154.0,702.0,-543.0,360.0
19:51:42.353000,-15.0,-1.0,-50.0,-1233.0,93.0,135.0,702.0,-543.0,360.0
19:51:42.358000,-41.0,43.0,-66.0,-1233.0,93.0,135.0,712.0,-535.0,349.0
19:51:42.362000,-55.0,79.0,-109.0,-932.0,-148.0,94.0,712.0,-535.0,349.0
19:51:42.367000,-46.0,102.0,-189.0,-757.0,-284.0,74.0,712.0,-535.0,349.0
19:51:42.372000,-17.0,109.0,-295.0,-757.0,-284.0,74.0,702.0,-534.0,351.0
19:51:42.376000,23.0,109.0,-392.0,-536.0,-411.0,58.0,702.0,-534.0,351.0
19:51:42.381000,57.0,109.0,-466.0,-536.0,-411.0,58.0,703.0,-541.0,352.0
19:51:42.386000,65.0,121.0,-527.0,-552.0,-351.0,58.0,703.0,-541.0,352.0
19:51:42.391000,63.0,142.0,-578.0,-622.0,-259.0,60.0,712.0,-529.0,349.0
19:51:42.395000,65.0,170.0,-611.0,-697.0,-201.0,58.0,712.0,-529.0,349.0
19:51:42.399000,75.0,205.0,-613.0,-759.0,-194.0,47.0,712.0,-529.0,349.0
19:51:42.405000,89.0,245.0,-579.0,-803.0,-216.0,25.0,706.0,-514.0,363.0
19:51:42.409000,93.0,287.0,-530.0,-831.0,-222.0,-4.0,706.0,-514.0,363.0
19:51:42.414000,77.0,317.0,-483.0,-838.0,-184.0,-32.0,697.0,-513.0,364.0
19:51:42.419000,77.0,317.0,-483.0,-819.0,-113.0,-53.0,697.0,-513.0,364.0
19:51:42.423000,33.0,324.0,-438.0,-783.0,-37.0,-69.0,697.0,-513.0,364.0
19:51:42.428000,-28.0,301.0,-392.0,-754.0,25.0,-86.0,697.0,-496.0,370.0
19:51:42.433000,-97.0,254.0,-344.0,-756.0,67.0,-110.0,697.0,-496.0,370.0
19:51:42.438000,-166.0,193.0,-285.0,-808.0,71.0,-142.0,703.0,-502.0,375.0
19:51:42.442000,-233.0,130.0,-204.0,-904.0,9.0,-181.0,703.0,-502.0,375.0
19:51:42.446000,-277.0,76.0,-95.0,-1008.0,-129.0,-227.0,703.0,-502.0,375.0
19:51:42.452000,-274.0,29.0,43.0,-1102.0,-319.0,-268.0,702.0,-502.0,373.0
19:51:42.456000,-206.0,-14.0,195.0,-1191.0,-488.0,-293.0,702.0,-502.0,373.0
19:51:42.461000,-84.0,-58.0,329.0,-1275.0,-577.0,-294.0,688.0,-501.0,367.0
19:51:42.466000,62.0,-102.0,434.0,-1349.0,-582.0,-282.0,688.0,-501.0,367.0
19:51:42.470000,209.0,-138.0,516.0,-1412.0,-524.0,-263.0,688.0,-501.0,367.0
19:51:42.475000,330.0,-164.0,580.0,-1474.0,-407.0,-228.0,702.0,-504.0,378.0
19:51:42.480000,395.0,-177.0,632.0,-1474.0,-407.0,-228.0,702.0,-504.0,378.0
19:51:42.485000,387.0,-178.0,692.0,-1523.0,-264.0,-171.0,687.0,-516.0,373.0
19:51:42.489000,340.0,-174.0,787.0,-1515.0,-165.0,-125.0,687.0,-516.0,373.0
19:51:42.493000,280.0,-173.0,905.0,-1453.0,-134.0,-91.0,687.0,-516.0,373.0
19:51:42.499000,226.0,-189.0,1019.0,-1403.0,-115.0,-34.0,681.0,-507.0,378.0
19:51:42.503000,168.0,-215.0,1129.0,-1403.0,-63.0,56.0,681.0,-507.0,378.0
19:51:42.508000,102.0,-230.0,1278.0,-1416.0,-37.0,147.0,679.0,-523.0,381.0
19:51:42.513000,66.0,-218.0,1477.0,-1381.0,-134.0,198.0,679.0,-523.0,381.0
19:51:42.517000,66.0,-218.0,1477.0,-1274.0,-350.0,214.0,679.0,-523.0,381.0
19:51:42.522000,151.0,-200.0,1850.0,-1094.0,-571.0,221.0,682.0,-525.0,393.0
19:51:42.527000,151.0,-200.0,1850.0,-878.0,-671.0,231.0,682.0,-525.0,393.0
19:51:42.532000,213.0,-222.0,1966.0,-698.0,-619.0,245.0,672.0,-540.0,381.0
19:51:42.536000,238.0,-259.0,2046.0,-595.0,-479.0,258.0,672.0,-540.0,381.0
19:51:42.540000,218.0,-292.0,2111.0,-572.0,-330.0,259.0,672.0,-540.0,381.0
19:51:42.546000,159.0,-309.0,2160.0,-590.0,-224.0,250.0,660.0,-567.0,387.0
19:51:42.550000,79.0,-306.0,2210.0,-601.0,-180.0,235.0,660.0,-567.0,387.0
19:51:42.555000,-3.0,-289.0,2290.0,-595.0,-194.0,213.0,648.0,-582.0,378.0
19:51:42.560000,-63.0,-263.0,2402.0,-592.0,-239.0,182.0,648.0,-582.0,378.0
19:51:42.565000,-86.0,-229.0,2524.0,-595.0,-292.0,147.0,643.0,-588.0,376.0
19:51:42.569000,-77.0,-182.0,2646.0,-584.0,-347.0,111.0,643.0,-588.0,376.0
19:51:42.573000,-48.0,-123.0,2772.0,-539.0,-400.0,78.0,643.0,-588.0,376.0
19:51:42.579000,-14.0,-51.0,2905.0,-466.0,-450.0,53.0,624.0,-619.0,373.0
19:51:42.583000,15.0,30.0,3041.0,-367.0,-490.0,34.0,624.0,-619.0,373.0
19:51:42.588000,32.0,122.0,3168.0,-367.0,-490.0,34.0,610.0,-621.0,378.0
19:51:42.593000,36.0,206.0,3272.0,-233.0,-512.0,27.0,610.0,-621.0,378.0
19:51:42.597000,17.0,278.0,3354.0,-64.0,-514.0,36.0,610.0,-621.0,378.0
19:51:42.602000,-22.0,338.0,3432.0,121.0,-512.0,48.0,589.0,-640.0,376.0
19:51:42.607000,-64.0,386.0,3521.0,300.0,-531.0,47.0,589.0,-640.0,376.0
19:51:42.612000,-95.0,434.0,3612.0,436.0,-574.0,2.0,568.0,-666.0,384.0
19:51:42.616000,-107.0,487.0,3677.0,498.0,-626.0,-86.0,568.0,-666.0,384.0
19:51:42.620000,-99.0,554.0,3704.0,491.0,-672.0,-206.0,568.0,-666.0,384.0
19:51:42.626000,-65.0,636.0,3696.0,454.0,-716.0,-342.0,532.0,-700.0,393.0
19:51:42.630000,15.0,709.0,3649.0,443.0,-754.0,-467.0,532.0,-700.0,393.0
19:51:42.635000,15.0,709.0,3649.0,481.0,-721.0,-563.0,502.0,-714.0,387.0
19:51:42.640000,142.0,738.0,3539.0,528.0,-536.0,-623.0,502.0,-714.0,387.0
19:51:42.644000,283.0,718.0,3357.0,533.0,-184.0,-642.0,502.0,-714.0,387.0
19:51:42.649000,399.0,650.0,3117.0,463.0,274.0,-617.0,478.0,-738.0,403.0
19:51:42.654000,469.0,540.0,2846.0,320.0,747.0,-566.0,478.0,-738.0,403.0
19:51:42.659000,480.0,423.0,2557.0,146.0,1133.0,-506.0,465.0,-736.0,397.0
19:51:42.663000,452.0,308.0,2283.0,-5.0,1367.0,-445.0,465.0,-736.0,397.0
19:51:42.667000,403.0,201.0,2062.0,-102.0,1471.0,-389.0,465.0,-736.0,397.0
19:51:42.673000,322.0,117.0,1907.0,-114.0,1476.0,-340.0,433.0,-745.0,411.0
19:51:42.677000,210.0,62.0,1825.0,14.0,1371.0,-287.0,433.0,-745.0,411.0
19:51:42.682000,135.0,-2.0,1799.0,292.0,1201.0,-209.0,424.0,-750.0,409.0
19:51:42.687000,137.0,-107.0,1800.0,597.0,1130.0,-119.0,424.0,-750.0,409.0
19:51:42.694000,140.0,-319.0,1723.0,681.0,1425.0,24.0,417.0,-753.0,406.0
19:51:42.696000,140.0,-319.0,1723.0,681.0,1425.0,24.0,417.0,-753.0,406.0
19:51:42.700000,84.0,-374.0,1680.0,681.0,1425.0,24.0,417.0,-753.0,406.0
19:51:42.706000,38.0,-374.0,1684.0,470.0,1461.0,38.0,394.0,-751.0,421.0
19:51:42.710000,36.0,-329.0,1706.0,221.0,1361.0,8.0,394.0,-751.0,421.0
19:51:42.715000,68.0,-254.0,1723.0,-3.0,1242.0,-38.0,388.0,-757.0,424.0
19:51:42.720000,114.0,-172.0,1769.0,-155.0,1149.0,-76.0,388.0,-757.0,424.0
19:51:42.724000,158.0,-91.0,1866.0,-201.0,1070.0,-96.0,388.0,-757.0,424.0
19:51:42.729000,193.0,-20.0,1988.0,-151.0,1008.0,-113.0,376.0,-753.0,415.0
19:51:42.734000,224.0,22.0,2102.0,-32.0,958.0,-122.0,376.0,-753.0,415.0
19:51:42.738000,248.0,24.0,2204.0,133.0,904.0,-110.0,355.0,-750.0,436.0
19:51:42.743000,259.0,-4.0,2292.0,300.0,864.0,-86.0,355.0,-750.0,436.0
19:51:42.747000,259.0,-4.0,2292.0,402.0,862.0,-66.0,355.0,-750.0,436.0
19:51:42.753000,243.0,-48.0,2347.0,416.0,864.0,-55.0,342.0,-760.0,417.0
19:51:42.757000,210.0,-91.0,2379.0,381.0,807.0,-58.0,342.0,-760.0,417.0
19:51:42.762000,175.0,-122.0,2408.0,341.0,694.0,-63.0,330.0,-757.0,429.0
19:51:42.767000,146.0,-142.0,2438.0,327.0,580.0,-51.0,330.0,-757.0,429.0
19:51:42.771000,151.0,-173.0,2501.0,379.0,325.0,-42.0,330.0,-757.0,429.0
19:51:42.776000,226.0,-203.0,2725.0,328.0,284.0,39.0,310.0,-757.0,432.0
19:51:42.780000,10.0,-130.0,2496.0,260.0,566.0,116.0,310.0,-757.0,432.0
19:51:42.785000,-61.0,-126.0,2234.0,362.0,469.0,147.0,271.0,-759.0,432.0
19:51:42.790000,-148.0,-137.0,2349.0,376.0,108.0,160.0,271.0,-759.0,432.0
19:51:42.794000,-184.0,-107.0,2450.0,230.0,-108.0,120.0,271.0,-759.0,432.0
19:51:42.800000,-156.0,-44.0,2347.0,82.0,-299.0,-19.0,265.0,-754.0,424.0
19:51:42.804000,193.0,172.0,2229.0,-135.0,-715.0,-124.0,265.0,-754.0,424.0
19:51:42.809000,564.0,390.0,2172.0,-135.0,-715.0,-124.0,252.0,-754.0,423.0
19:51:42.814000,761.0,562.0,2038.0,-423.0,-1043.0,-65.0,252.0,-754.0,423.0
19:51:42.818000,919.0,687.0,1724.0,-603.0,-967.0,-14.0,252.0,-754.0,423.0
19:51:42.823000,844.0,677.0,1295.0,-574.0,-725.0,60.0,229.0,-750.0,439.0
19:51:42.828000,294.0,417.0,962.0,-146.0,677.0,562.0,229.0,-750.0,439.0
19:51:42.832000,-801.0,102.0,1199.0,795.0,677.0,562.0,249.0,-739.0,442.0
19:51:42.837000,-1271.0,128.0,1835.0,1474.0,1199.0,326.0,249.0,-739.0,442.0
19:51:42.841000,-1271.0,128.0,1835.0,889.0,354.0,-135.0,249.0,-739.0,442.0
19:51:42.847000,-763.0,162.0,1057.0,-84.0,-1080.0,-319.0,222.0,-736.0,436.0
19:51:42.851000,-436.0,177.0,939.0,-400.0,-1935.0,-422.0,222.0,-736.0,436.0
19:51:42.856000,-436.0,177.0,939.0,-363.0,-2004.0,-415.0,207.0,-738.0,444.0
19:51:42.861000,-217.0,192.0,833.0,-211.0,-1616.0,-360.0,207.0,-738.0,444.0
19:51:42.865000,-74.0,193.0,522.0,45.0,-1302.0,-291.0,207.0,-738.0,444.0
19:51:42.870000,7.0,127.0,237.0,227.0,-1248.0,-228.0,202.0,-735.0,444.0
19:51:42.875000,93.0,24.0,21.0,93.0,-1285.0,-201.0,202.0,-735.0,444.0
19:51:42.879000,224.0,-28.0,-262.0,-336.0,-1307.0,-179.0,207.0,-726.0,436.0
19:51:42.884000,386.0,-2.0,-668.0,-787.0,-1345.0,-135.0,207.0,-726.0,436.0
19:51:42.888000,553.0,80.0,-1103.0,-1025.0,-1424.0,-70.0,207.0,-726.0,436.0
19:51:42.894000,714.0,177.0,-1491.0,-995.0,-1493.0,-36.0,216.0,-726.0,439.0
19:51:42.898000,742.0,345.0,-1803.0,-409.0,-1940.0,-395.0,216.0,-726.0,439.0
19:51:42.903000,662.0,1010.0,-1852.0,-409.0,-3127.0,-395.0,228.0,-714.0,453.0
19:51:42.908000,1010.0,1024.0,508.0,3105.0,-3825.0,784.0,228.0,-714.0,453.0
19:51:42.912000,28.0,-2102.0,2408.0,1933.0,-164.0,997.0,228.0,-714.0,453.0
19:51:42.917000,4293.0,-5221.0,-15963.0,1933.0,-164.0,997.0,220.0,-705.0,463.0
19:51:42.922000,3161.0,-5248.0,-20475.0,-2046.0,3300.0,763.0,220.0,-705.0,463.0
19:51:42.926000,1328.0,-519.0,-10358.0,-3982.0,3357.0,-381.0,258.0,-694.0,468.0
19:51:42.931000,-520.0,1709.0,753.0,-3153.0,1475.0,-1137.0,258.0,-694.0,468.0
19:51:42.935000,-1281.0,345.0,4285.0,-290.0,-1834.0,1092.0,258.0,-694.0,468.0
19:51:42.941000,-763.0,36.0,2695.0,1512.0,-2937.0,391.0,352.0,-652.0,483.0
19:51:42.945000,-527.0,220.0,112.0,-336.0,-2037.0,-495.0,352.0,-652.0,483.0
19:51:42.950000,-1246.0,750.0,-479.0,-1919.0,-2285.0,-358.0,346.0,-669.0,478.0
19:51:42.955000,-443.0,772.0,-613.0,-1220.0,-3567.0,-402.0,346.0,-669.0,478.0
19:51:42.959000,-443.0,772.0,-613.0,-8.0,-3852.0,-437.0,346.0,-669.0,478.0
19:51:42.964000,-240.0,880.0,20.0,406.0,-3513.0,-171.0,331.0,-670.0,489.0
19:51:42.969000,18.0,443.0,254.0,-213.0,-2653.0,-255.0,331.0,-670.0,489.0
19:51:42.973000,374.0,78.0,-795.0,-1215.0,-2100.0,-385.0,342.0,-664.0,466.0
19:51:42.978000,-24.0,272.0,-1585.0,-1397.0,-2134.0,-322.0,342.0,-664.0,466.0
19:51:42.982000,-303.0,539.0,-1537.0,-499.0,-2496.0,-394.0,342.0,-664.0,466.0
19:51:42.988000,158.0,280.0,-1386.0,-345.0,-3112.0,-302.0,349.0,-658.0,484.0
19:51:42.992000,24.0,216.0,-1554.0,-722.0,-3112.0,-217.0,349.0,-658.0,484.0
19:51:42.996000,32.0,119.0,-2180.0,-665.0,-2616.0,-384.0,369.0,-636.0,487.0
19:51:43.002000,145.0,149.0,-2976.0,-134.0,-2585.0,-460.0,369.0,-636.0,487.0
19:51:43.006000,275.0,79.0,-2836.0,63.0,-2829.0,-216.0,369.0,-636.0,487.0
19:51:43.011000,408.0,-177.0,-1409.0,-203.0,-2383.0,-121.0,364.0,-639.0,487.0
19:51:43.016000,-24.0,-184.0,-1519.0,-500.0,-2130.0,-373.0,364.0,-639.0,487.0
19:51:43.020000,-65.0,-108.0,-1981.0,-500.0,-2130.0,-373.0,370.0,-624.0,481.0
19:51:43.025000,-118.0,-252.0,-2585.0,132.0,-1947.0,-133.0,370.0,-624.0,481.0
19:51:43.029000,225.0,-791.0,-4195.0,172.0,-1947.0,-133.0,370.0,-624.0,481.0
19:51:43.035000,60.0,-574.0,-3065.0,-787.0,-2025.0,-363.0,388.0,-618.0,480.0
19:51:43.039000,-95.0,-273.0,-1378.0,-181.0,-3228.0,-698.0,388.0,-618.0,480.0
19:51:43.044000,81.0,-88.0,-938.0,-181.0,-3228.0,-698.0,400.0,-615.0,480.0
19:51:43.049000,229.0,-325.0,-2463.0,-23.0,-2523.0,-559.0,400.0,-615.0,480.0
19:51:43.053000,585.0,-863.0,-3712.0,340.0,-2432.0,-286.0,411.0,-597.0,484.0
19:51:43.058000,442.0,-561.0,-3332.0,320.0,-2647.0,-745.0,411.0,-597.0,484.0
19:51:43.062000,442.0,-561.0,-3332.0,-128.0,-2213.0,-617.0,411.0,-597.0,484.0
19:51:43.067000,-31.0,-727.0,-3035.0,-296.0,-2297.0,-278.0,423.0,-583.0,486.0
19:51:43.072000,160.0,-727.0,-2885.0,-358.0,-2498.0,-619.0,423.0,-583.0,486.0
19:51:43.077000,160.0,-734.0,-2885.0,-542.0,-2701.0,-738.0,433.0,-582.0,477.0
19:51:43.082000,148.0,-599.0,-1812.0,-296.0,-2668.0,-685.0,433.0,-582.0,477.0
19:51:43.086000,95.0,-574.0,-1685.0,-109.0,-2131.0,-611.0,433.0,-582.0,477.0
19:51:43.091000,-109.0,-585.0,-2433.0,-278.0,-2140.0,-435.0,459.0,-555.0,472.0
19:51:43.096000,-9.0,-653.0,-2736.0,-270.0,-2300.0,-322.0,459.0,-555.0,472.0
19:51:43.100000,266.0,-772.0,-2315.0,-326.0,-2269.0,-391.0,466.0,-543.0,472.0
19:51:43.105000,184.0,-834.0,-2287.0,-671.0,-2304.0,-547.0,466.0,-543.0,472.0
19:51:43.109000,228.0,-546.0,-2114.0,-421.0,-2362.0,-634.0,466.0,-543.0,472.0
19:51:43.114000,365.0,-571.0,-1567.0,-579.0,-2034.0,-507.0,480.0,-535.0,471.0
19:51:43.119000,394.0,-578.0,-1926.0,-1251.0,-1830.0,-405.0,480.0,-535.0,471.0
19:51:43.123000,172.0,-458.0,-2429.0,-869.0,-2080.0,-333.0,484.0,-525.0,468.0
19:51:43.129000,100.0,-457.0,-1645.0,-226.0,-2199.0,-367.0,484.0,-525.0,468.0
19:51:43.133000,-24.0,-525.0,-863.0,-162.0,-1918.0,-248.0,484.0,-525.0,468.0
19:51:43.138000,-73.0,-539.0,-944.0,-162.0,-1918.0,-248.0,478.0,-528.0,466.0
19:51:43.143000,277.0,-741.0,-1696.0,-511.0,-1673.0,-261.0,478.0,-528.0,466.0
19:51:43.147000,443.0,-886.0,-1591.0,-806.0,-1921.0,-292.0,493.0,-508.0,451.0
19:51:43.152000,137.0,-1026.0,-991.0,-864.0,-1836.0,103.0,493.0,-508.0,451.0
19:51:43.156000,-172.0,-513.0,-575.0,-485.0,-966.0,-423.0,493.0,-508.0,451.0
19:51:43.161000,-793.0,-142.0,-854.0,-255.0,-551.0,-589.0,507.0,-501.0,463.0
19:51:43.166000,-206.0,-296.0,-1568.0,-716.0,-1175.0,-128.0,507.0,-501.0,463.0
19:51:43.171000,-179.0,-221.0,-1314.0,-633.0,-2280.0,-248.0,505.0,-496.0,474.0
19:51:43.176000,-408.0,-132.0,-658.0,-219.0,-2349.0,-264.0,505.0,-496.0,474.0
19:51:43.180000,-214.0,-819.0,-655.0,-551.0,-1647.0,244.0,513.0,-492.0,453.0
19:51:43.185000,-214.0,-819.0,-655.0,-661.0,-2053.0,66.0,513.0,-492.0,453.0
19:51:43.189000,-109.0,-482.0,-658.0,-398.0,-2308.0,-496.0,513.0,-492.0,453.0
19:51:43.194000,42.0,-350.0,-684.0,-831.0,-1595.0,-10.0,519.0,-502.0,456.0
19:51:43.199000,214.0,-776.0,-1003.0,-922.0,-1502.0,-25.0,519.0,-502.0,456.0
19:51:43.204000,-154.0,-525.0,-972.0,-570.0,-1739.0,-372.0,528.0,-490.0,448.0
19:51:43.208000,40.0,-324.0,-674.0,-651.0,-1669.0,-461.0,528.0,-490.0,448.0
19:51:43.213000,254.0,-131.0,-743.0,-450.0,-1656.0,-525.0,528.0,-490.0,448.0
19:51:43.218000,455.0,81.0,-679.0,-217.0,-1511.0,-390.0,535.0,-487.0,469.0
19:51:43.223000,420.0,95.0,-914.0,-271.0,-1554.0,-96.0,535.0,-487.0,469.0
19:51:43.227000,256.0,-212.0,-1324.0,-237.0,-1559.0,-120.0,525.0,-478.0,447.0
19:51:43.232000,63.0,-149.0,-1424.0,-25.0,-1344.0,-273.0,525.0,-478.0,447.0
19:51:43.236000,-134.0,-32.0,-1472.0,-35.0,-1469.0,-246.0,525.0,-478.0,447.0
19:51:43.241000,-158.0,-13.0,-1373.0,-223.0,-1750.0,-535.0,538.0,-468.0,453.0
19:51:43.246000,232.0,357.0,-760.0,-223.0,-1750.0,-535.0,538.0,-468.0,453.0
19:51:43.250000,469.0,371.0,-545.0,-602.0,-1196.0,-46.0,535.0,-459.0,457.0
19:51:43.255000,207.0,4.0,-1082.0,-602.0,-1196.0,-46.0,535.0,-459.0,457.0
19:51:43.260000,-102.0,-385.0,-1813.0,-482.0,-603.0,133.0,535.0,-459.0,457.0
19:51:43.265000,-94.0,-265.0,-1852.0,112.0,-609.0,-145.0,537.0,-450.0,456.0
19:51:43.270000,42.0,-139.0,-1094.0,351.0,-1628.0,-389.0,537.0,-450.0,456.0
19:51:43.274000,-67.0,-158.0,-672.0,-73.0,-2166.0,-301.0,549.0,-439.0,448.0
19:51:43.279000,23.0,-472.0,-1718.0,-725.0,-1202.0,-108.0,549.0,-439.0,448.0
19:51:43.283000,23.0,-472.0,-1718.0,-814.0,-536.0,-78.0,549.0,-439.0,448.0
19:51:43.288000,-212.0,-218.0,-1439.0,-380.0,-746.0,-255.0,537.0,-435.0,450.0
19:51:43.293000,-212.0,-218.0,-1439.0,-285.0,-655.0,-268.0,537.0,-435.0,450.0
19:51:43.298000,-155.0,-214.0,-921.0,-413.0,-856.0,-227.0,544.0,-432.0,447.0
19:51:43.302000,-218.0,-170.0,-610.0,-512.0,-987.0,-179.0,544.0,-432.0,447.0
19:51:43.307000,-382.0,-172.0,-687.0,-614.0,-824.0,-169.0,544.0,-432.0,447.0
19:51:43.312000,-336.0,-174.0,-742.0,-591.0,-1074.0,-430.0,549.0,-423.0,448.0
19:51:43.317000,-115.0,159.0,267.0,-914.0,-1368.0,-320.0,549.0,-423.0,448.0
19:51:43.321000,-270.0,81.0,726.0,-1239.0,-664.0,-172.0,544.0,-426.0,447.0
19:51:43.326000,-323.0,-25.0,-497.0,-758.0,-555.0,-433.0,544.0,-426.0,447.0
19:51:43.330000,-53.0,186.0,-241.0,-370.0,-1650.0,-303.0,544.0,-426.0,447.0
19:51:43.335000,-95.0,70.0,647.0,-559.0,-1473.0,-154.0,552.0,-427.0,442.0
19:51:43.340000,-335.0,-8.0,508.0,-470.0,-582.0,-318.0,552.0,-427.0,442.0
19:51:43.345000,-224.0,-1.0,127.0,-470.0,-582.0,-318.0,549.0,-430.0,442.0
19:51:43.349000,-308.0,-114.0,-7.0,-224.0,-1400.0,-183.0,549.0,-430.0,442.0
19:51:43.354000,-387.0,-260.0,102.0,-224.0,-1400.0,-183.0,549.0,-430.0,442.0
19:51:43.359000,-205.0,-141.0,-126.0,-377.0,-1504.0,-374.0,546.0,-432.0,442.0
19:51:43.364000,-50.0,-186.0,-571.0,-692.0,-1519.0,-502.0,546.0,-432.0,442.0
19:51:43.368000,-30.0,-249.0,-532.0,-482.0,-1569.0,-311.0,547.0,-427.0,442.0
19:51:43.373000,4.0,-237.0,-557.0,-203.0,-1385.0,-271.0,547.0,-427.0,442.0
19:51:43.377000,-145.0,-317.0,-721.0,-378.0,-1095.0,-210.0,547.0,-427.0,442.0
19:51:43.382000,135.0,-246.0,-780.0,-569.0,-972.0,-284.0,532.0,-426.0,451.0
19:51:43.387000,261.0,-44.0,-658.0,-821.0,-1064.0,-395.0,532.0,-426.0,451.0
19:51:43.392000,287.0,-49.0,-627.0,-1010.0,-1323.0,-258.0,553.0,-421.0,442.0
19:51:43.396000,277.0,-128.0,-578.0,-863.0,-1278.0,-189.0,553.0,-421.0,442.0
19:51:43.401000,277.0,-128.0,-578.0,-631.0,-1109.0,-112.0,553.0,-421.0,442.0
19:51:43.406000,42.0,-148.0,-380.0,-690.0,-826.0,-6.0,549.0,-417.0,432.0
19:51:43.411000,-90.0,-239.0,-401.0,-823.0,-576.0,-137.0,549.0,-417.0,432.0
19:51:43.415000,-62.0,-110.0,-498.0,-900.0,-652.0,-228.0,558.0,-417.0,436.0
19:51:43.420000,-80.0,-51.0,-419.0,-857.0,-863.0,-153.0,558.0,-417.0,436.0
19:51:43.427000,-55.0,-19.0,139.0,-895.0,-946.0,-187.0,555.0,-415.0,441.0
19:51:43.429000,-55.0,-19.0,139.0,-895.0,-946.0,-187.0,555.0,-415.0,441.0
19:51:43.433000,29.0,8.0,-218.0,-863.0,-904.0,-205.0,555.0,-415.0,441.0
19:51:43.439000,58.0,1.0,-515.0,-516.0,-1074.0,-189.0,553.0,-406.0,438.0
19:51:43.443000,86.0,-54.0,-539.0,-377.0,-1158.0,-151.0,553.0,-406.0,438.0
19:51:43.448000,-6.0,-78.0,-541.0,-550.0,-1138.0,-147.0,549.0,-408.0,433.0
19:51:43.453000,-30.0,-86.0,-622.0,-592.0,-1038.0,-158.0,549.0,-408.0,433.0
19:51:43.457000,-58.0,-77.0,-582.0,-556.0,-1007.0,-196.0,549.0,-408.0,433.0
19:51:43.462000,-90.0,-37.0,-354.0,-681.0,-979.0,-212.0,546.0,-411.0,441.0
19:51:43.466000,-16.0,-53.0,-374.0,-878.0,-1017.0,-157.0,546.0,-411.0,441.0
19:51:43.472000,-151.0,-61.0,-445.0,-878.0,-1017.0,-157.0,540.0,-411.0,448.0
19:51:43.476000,-172.0,-21.0,-525.0,-950.0,-1036.0,-200.0,540.0,-411.0,448.0
19:51:43.480000,-58.0,-41.0,-654.0,-872.0,-912.0,-264.0,540.0,-411.0,448.0
19:51:43.485000,126.0,-30.0,-564.0,-717.0,-1032.0,-257.0,559.0,-403.0,444.0
19:51:43.490000,172.0,-29.0,-423.0,-612.0,-1243.0,-189.0,559.0,-403.0,444.0
19:51:43.495000,87.0,13.0,-557.0,-708.0,-975.0,-155.0,544.0,-400.0,429.0
19:51:43.500000,-10.0,-27.0,-744.0,-753.0,-557.0,-141.0,544.0,-400.0,429.0
19:51:43.504000,-10.0,-27.0,-744.0,-679.0,-599.0,-91.0,544.0,-400.0,429.0
19:51:43.509000,-37.0,-42.0,-436.0,-581.0,-957.0,-130.0,555.0,-399.0,432.0
19:51:43.514000,-37.0,-42.0,-436.0,-630.0,-1068.0,-166.0,555.0,-399.0,432.0
19:51:43.519000,-16.0,-56.0,-287.0,-828.0,-894.0,-92.0,552.0,-403.0,453.0
19:51:43.523000,-133.0,-175.0,-445.0,-804.0,-677.0,-172.0,552.0,-403.0,453.0
19:51:43.527000,-105.0,23.0,-537.0,-714.0,-697.0,-235.0,552.0,-403.0,453.0
19:51:43.533000,-84.0,59.0,-443.0,-776.0,-805.0,-137.0,561.0,-397.0,436.0
19:51:43.537000,-119.0,-8.0,-357.0,-799.0,-842.0,-126.0,561.0,-397.0,436.0
19:51:43.542000,-140.0,-61.0,-397.0,-764.0,-760.0,-197.0,558.0,-388.0,442.0
19:51:43.547000,-26.0,28.0,-403.0,-697.0,-818.0,-213.0,558.0,-388.0,442.0
19:51:43.551000,214.0,-30.0,-58.0,-736.0,-847.0,-205.0,558.0,-388.0,442.0
19:51:43.556000,271.0,39.0,-152.0,-728.0,-591.0,-157.0,562.0,-393.0,445.0
19:51:43.561000,161.0,-11.0,-481.0,-526.0,-551.0,-98.0,562.0,-393.0,445.0
19:51:43.566000,-46.0,-17.0,-721.0,-526.0,-551.0,-98.0,558.0,-385.0,436.0
19:51:43.570000,-67.0,-71.0,-766.0,-483.0,-872.0,-174.0,558.0,-385.0,436.0
19:51:43.574000,34.0,-107.0,-665.0,-483.0,-872.0,-174.0,558.0,-385.0,436.0
19:51:43.580000,55.0,-56.0,-607.0,-679.0,-834.0,-204.0,556.0,-384.0,436.0
19:51:43.584000,-35.0,-22.0,-679.0,-806.0,-526.0,-174.0,556.0,-384.0,436.0
19:51:43.589000,-100.0,33.0,-679.0,-776.0,-431.0,-200.0,562.0,-378.0,430.0
19:51:43.594000,-134.0,-35.0,-565.0,-733.0,-648.0,-178.0,562.0,-378.0,430.0
19:51:43.601000,-133.0,32.0,-375.0,-903.0,-893.0,-213.0,559.0,-379.0,433.0
19:51:43.603000,-97.0,-2.0,-250.0,-903.0,-893.0,-213.0,559.0,-379.0,433.0
19:51:43.607000,-97.0,-2.0,-250.0,-912.0,-672.0,-142.0,559.0,-379.0,433.0
19:51:43.613000,-127.0,-1.0,-352.0,-739.0,-447.0,-146.0,544.0,-375.0,432.0
19:51:43.617000,-139.0,-35.0,-357.0,-633.0,-512.0,-153.0,544.0,-375.0,432.0
19:51:43.622000,-139.0,-35.0,-357.0,-666.0,-652.0,-129.0,564.0,-372.0,435.0
19:51:43.627000,-215.0,-64.0,-322.0,-707.0,-597.0,-150.0,564.0,-372.0,435.0
19:51:43.631000,-115.0,-68.0,-283.0,-717.0,-584.0,-136.0,564.0,-372.0,435.0
19:51:43.636000,-9.0,-126.0,-285.0,-778.0,-678.0,-151.0,553.0,-372.0,441.0
19:51:43.641000,74.0,-95.0,-429.0,-746.0,-773.0,-172.0,553.0,-372.0,441.0
19:51:43.645000,-76.0,36.0,-467.0,-775.0,-790.0,-171.0,546.0,-366.0,447.0
19:51:43.650000,-130.0,104.0,-312.0,-882.0,-587.0,-136.0,546.0,-366.0,447.0
19:51:43.654000,-58.0,25.0,-465.0,-761.0,-462.0,-129.0,546.0,-366.0,447.0
19:51:43.660000,-23.0,21.0,-548.0,-682.0,-627.0,-132.0,561.0,-375.0,438.0
19:51:43.664000,-11.0,-39.0,-407.0,-839.0,-644.0,-148.0,561.0,-375.0,438.0
19:51:43.669000,-2.0,25.0,-510.0,-839.0,-644.0,-148.0,556.0,-363.0,439.0
19:51:43.674000,9.0,0.0,-672.0,-766.0,-534.0,-108.0,556.0,-363.0,439.0
19:51:43.678000,45.0,-64.0,-712.0,-703.0,-700.0,-126.0,556.0,-363.0,439.0
19:51:43.683000,94.0,-88.0,-547.0,-703.0,-700.0,-126.0,556.0,-361.0,439.0
19:51:43.688000,46.0,-30.0,-351.0,-842.0,-546.0,-155.0,556.0,-361.0,439.0
19:51:43.692000,-44.0,-19.0,-337.0,-842.0,-546.0,-155.0,561.0,-364.0,441.0
19:51:43.697000,-32.0,-13.0,-254.0,-840.0,-395.0,-152.0,561.0,-364.0,441.0
19:51:43.701000,-95.0,-90.0,-104.0,-825.0,-516.0,-118.0,561.0,-364.0,441.0
19:51:43.707000,-168.0,-56.0,-125.0,-784.0,-593.0,-104.0,553.0,-354.0,438.0
19:51:43.711000,-193.0,-37.0,-227.0,-785.0,-585.0,-158.0,553.0,-354.0,438.0
19:51:43.716000,-249.0,-1.0,-337.0,-839.0,-549.0,-160.0,556.0,-363.0,435.0
19:51:43.721000,-291.0,-30.0,-410.0,-840.0,-444.0,-141.0,556.0,-363.0,435.0
19:51:43.725000,-291.0,-30.0,-410.0,-791.0,-422.0,-104.0,556.0,-363.0,435.0
19:51:43.730000,-302.0,-79.0,-378.0,-772.0,-542.0,-95.0,552.0,-361.0,435.0
19:51:43.735000,-237.0,-175.0,-376.0,-714.0,-713.0,-168.0,552.0,-361.0,435.0
19:51:43.739000,-182.0,-102.0,-235.0,-694.0,-838.0,-207.0,552.0,-354.0,444.0
19:51:43.744000,-37.0,-128.0,-30.0,-873.0,-906.0,-123.0,552.0,-354.0,444.0
19:51:43.748000,0.0,-197.0,81.0,-998.0,-782.0,-122.0,552.0,-354.0,444.0
19:51:43.754000,-44.0,-133.0,-28.0,-988.0,-456.0,-178.0,555.0,-351.0,442.0
19:51:43.758000,-15.0,-81.0,-248.0,-946.0,-367.0,-171.0,555.0,-351.0,442.0
19:51:43.763000,-2.0,-63.0,-392.0,-840.0,-532.0,-128.0,559.0,-357.0,442.0
19:51:43.768000,-108.0,-46.0,-320.0,-709.0,-684.0,-106.0,559.0,-357.0,442.0
19:51:43.772000,-137.0,-69.0,-122.0,-691.0,-648.0,-96.0,559.0,-357.0,442.0
19:51:43.777000,-119.0,-139.0,-181.0,-749.0,-559.0,-70.0,561.0,-354.0,456.0
19:51:43.782000,-93.0,-189.0,-200.0,-839.0,-590.0,-136.0,561.0,-354.0,456.0
19:51:43.786000,-55.0,-97.0,-137.0,-839.0,-590.0,-136.0,558.0,-361.0,435.0
19:51:43.791000,-77.0,-33.0,-80.0,-1008.0,-573.0,-171.0,558.0,-361.0,435.0
19:51:43.795000,14.0,-7.0,-126.0,-1122.0,-573.0,-142.0,558.0,-361.0,435.0
19:51:43.801000,101.0,-4.0,-220.0,-1061.0,-553.0,-130.0,562.0,-348.0,426.0
19:51:43.805000,159.0,39.0,-318.0,-902.0,-641.0,-128.0,562.0,-348.0,426.0
19:51:43.810000,128.0,-4.0,-307.0,-830.0,-787.0,-94.0,559.0,-351.0,430.0
19:51:43.814000,124.0,-45.0,-194.0,-701.0,-685.0,-64.0,559.0,-351.0,430.0
19:51:43.819000,116.0,-129.0,-114.0,-701.0,-685.0,-64.0,559.0,-351.0,430.0
19:51:43.824000,-7.0,-159.0,-147.0,-715.0,-454.0,-42.0,565.0,-354.0,441.0
19:51:43.829000,-85.0,-98.0,-300.0,-806.0,-273.0,-86.0,565.0,-354.0,441.0
19:51:43.833000,-66.0,-95.0,-359.0,-921.0,-355.0,-116.0,559.0,-352.0,433.0
19:51:43.838000,-66.0,-95.0,-359.0,-924.0,-622.0,-105.0,559.0,-352.0,433.0
19:51:43.842000,2.0,-105.0,-280.0,-921.0,-829.0,-100.0,559.0,-352.0,433.0
19:51:43.848000,92.0,-111.0,-147.0,-997.0,-869.0,-96.0,559.0,-349.0,432.0
19:51:43.852000,116.0,-88.0,-184.0,-1043.0,-717.0,-68.0,559.0,-349.0,432.0
19:51:43.857000,30.0,-105.0,-306.0,-945.0,-494.0,-51.0,550.0,-349.0,426.0
19:51:43.862000,2.0,-119.0,-330.0,-830.0,-358.0,-47.0,550.0,-349.0,426.0
19:51:43.866000,-6.0,-160.0,-414.0,-783.0,-377.0,-30.0,550.0,-349.0,426.0
19:51:43.871000,-81.0,-168.0,-485.0,-733.0,-527.0,-25.0,549.0,-339.0,447.0
19:51:43.876000,-99.0,-214.0,-345.0,-814.0,-607.0,-59.0,549.0,-339.0,447.0
19:51:43.880000,-63.0,-208.0,-347.0,-963.0,-589.0,-66.0,558.0,-346.0,445.0
19:51:43.885000,-45.0,-219.0,-415.0,-995.0,-639.0,-55.0,558.0,-346.0,445.0
19:51:43.889000,-9.0,-194.0,-355.0,-982.0,-687.0,-78.0,558.0,-346.0,445.0
19:51:43.895000,67.0,-185.0,-250.0,-994.0,-631.0,-70.0,558.0,-348.0,433.0
19:51:43.899000,72.0,-140.0,-233.0,-1004.0,-523.0,-61.0,558.0,-348.0,433.0
19:51:43.904000,79.0,-113.0,-337.0,-1011.0,-509.0,-18.0,559.0,-349.0,447.0
19:51:43.909000,45.0,-175.0,-442.0,-1011.0,-509.0,-18.0,559.0,-349.0,447.0
19:51:43.913000,-22.0,-160.0,-513.0,-954.0,-532.0,-4.0,559.0,-349.0,447.0
19:51:43.918000,-49.0,-143.0,-637.0,-899.0,-432.0,-46.0,561.0,-334.0,433.0
19:51:43.923000,-58.0,-163.0,-590.0,-870.0,-410.0,-54.0,561.0,-334.0,433.0
19:51:43.927000,-51.0,-184.0,-437.0,-815.0,-523.0,-62.0,565.0,-336.0,432.0
19:51:43.932000,-11.0,-177.0,-406.0,-857.0,-573.0,-82.0,565.0,-336.0,432.0
19:51:43.936000,-11.0,-177.0,-406.0,-988.0,-608.0,-95.0,565.0,-336.0,432.0
19:51:43.942000,51.0,-156.0,-555.0,-1076.0,-601.0,-81.0,565.0,-328.0,433.0
19:51:43.946000,59.0,-143.0,-611.0,-1033.0,-614.0,-72.0,565.0,-328.0,433.0
19:51:43.950000,59.0,-143.0,-611.0,-945.0,-630.0,-76.0,564.0,-331.0,435.0
19:51:43.956000,54.0,-147.0,-639.0,-893.0,-517.0,-51.0,564.0,-331.0,435.0
19:51:43.960000,5.0,-157.0,-686.0,-871.0,-406.0,-51.0,561.0,-330.0,435.0
19:51:43.965000,-9.0,-156.0,-751.0,-877.0,-438.0,-57.0,561.0,-330.0,435.0
19:51:43.969000,21.0,-212.0,-748.0,-899.0,-542.0,-42.0,561.0,-330.0,435.0
19:51:43.974000,23.0,-245.0,-699.0,-940.0,-488.0,-61.0,567.0,-325.0,426.0
19:51:43.979000,-15.0,-219.0,-699.0,-998.0,-336.0,-71.0,567.0,-325.0,426.0
19:51:43.984000,-74.0,-199.0,-769.0,-1008.0,-259.0,-68.0,553.0,-322.0,427.0
19:51:43.989000,-76.0,-209.0,-793.0,-961.0,-331.0,-84.0,553.0,-322.0,427.0
19:51:43.993000,-37.0,-191.0,-694.0,-1002.0,-430.0,-98.0,553.0,-322.0,427.0
19:51:43.998000,-7.0,-168.0,-698.0,-1093.0,-460.0,-80.0,553.0,-313.0,433.0
19:51:44.003000,-37.0,-153.0,-771.0,-1075.0,-418.0,-50.0,553.0,-313.0,433.0
19:51:44.007000,-69.0,-152.0,-805.0,-1075.0,-418.0,-50.0,568.0,-304.0,420.0
19:51:44.012000,-48.0,-133.0,-679.0,-971.0,-384.0,-62.0,568.0,-304.0,420.0
19:51:44.016000,-27.0,-116.0,-583.0,-963.0,-410.0,-73.0,568.0,-304.0,420.0
19:51:44.021000,-28.0,-121.0,-609.0,-1041.0,-401.0,-50.0,559.0,-307.0,424.0
19:51:44.026000,-51.0,-116.0,-693.0,-1023.0,-328.0,-38.0,559.0,-307.0,424.0
19:51:44.031000,-69.0,-133.0,-782.0,-953.0,-240.0,-26.0,559.0,-303.0,430.0
19:51:44.036000,-73.0,-137.0,-779.0,-888.0,-234.0,-11.0,559.0,-303.0,430.0
19:51:44.040000,-44.0,-142.0,-699.0,-865.0,-326.0,-16.0,559.0,-303.0,430.0
19:51:44.045000,-18.0,-119.0,-670.0,-923.0,-398.0,-27.0,564.0,-301.0,433.0
19:51:44.050000,-5.0,-85.0,-667.0,-1000.0,-375.0,-31.0,564.0,-301.0,433.0
19:51:44.054000,-7.0,-88.0,-674.0,-1006.0,-318.0,-7.0,562.0,-291.0,423.0
19:51:44.059000,-7.0,-88.0,-674.0,-950.0,-259.0,3.0,562.0,-291.0,423.0
19:51:44.063000,-7.0,-72.0,-688.0,-908.0,-209.0,9.0,562.0,-291.0,423.0
19:51:44.068000,-28.0,-74.0,-685.0,-893.0,-183.0,29.0,568.0,-301.0,430.0
19:51:44.073000,-26.0,-70.0,-644.0,-927.0,-196.0,32.0,568.0,-301.0,430.0
19:51:44.078000,-28.0,-55.0,-561.0,-1007.0,-198.0,26.0,556.0,-288.0,427.0
19:51:44.083000,-25.0,-32.0,-494.0,-1046.0,-149.0,30.0,556.0,-288.0,427.0
19:51:44.087000,-42.0,-5.0,-494.0,-1007.0,-135.0,46.0,556.0,-288.0,427.0
19:51:44.092000,-63.0,24.0,-431.0,-974.0,-183.0,36.0,556.0,-291.0,432.0
19:51:44.097000,-49.0,74.0,-336.0,-1034.0,-191.0,49.0,556.0,-291.0,432.0
19:51:44.101000,-35.0,68.0,-355.0,-1066.0,-167.0,56.0,562.0,-286.0,423.0
19:51:44.106000,-35.0,95.0,-422.0,-988.0,-168.0,38.0,562.0,-286.0,423.0
19:51:44.110000,-24.0,113.0,-455.0,-940.0,-183.0,39.0,562.0,-286.0,423.0
19:51:44.115000,-11.0,126.0,-469.0,-952.0,-195.0,50.0,559.0,-283.0,429.0
19:51:44.120000,-23.0,104.0,-469.0,-952.0,-195.0,50.0,559.0,-283.0,429.0
19:51:44.125000,-14.0,113.0,-434.0,-901.0,-164.0,40.0,552.0,-270.0,427.0
19:51:44.130000,-7.0,85.0,-394.0,-810.0,-99.0,43.0,552.0,-270.0,427.0
19:51:44.134000,-9.0,65.0,-319.0,-810.0,-99.0,43.0,552.0,-270.0,427.0
19:51:44.139000,1.0,45.0,-266.0,-825.0,-88.0,43.0,562.0,-280.0,430.0
19:51:44.144000,-30.0,53.0,-258.0,-895.0,-86.0,43.0,562.0,-280.0,430.0
19:51:44.148000,-44.0,67.0,-231.0,-912.0,-112.0,42.0,556.0,-276.0,426.0
19:51:44.153000,-18.0,91.0,-198.0,-900.0,-145.0,25.0,556.0,-276.0,426.0
19:51:44.157000,-18.0,91.0,-198.0,-919.0,-158.0,13.0,556.0,-276.0,426.0
19:51:44.162000,-14.0,128.0,-277.0,-960.0,-124.0,3.0,558.0,-267.0,427.0
19:51:44.167000,-14.0,128.0,-277.0,-935.0,-74.0,7.0,558.0,-267.0,427.0
19:51:44.172000,-31.0,123.0,-350.0,-813.0,-55.0,39.0,558.0,-279.0,424.0
19:51:44.176000,-88.0,98.0,-352.0,-720.0,-71.0,59.0,558.0,-279.0,424.0
19:51:44.181000,-122.0,84.0,-322.0,-711.0,-173.0,25.0,558.0,-279.0,424.0
19:51:44.185000,-67.0,103.0,-245.0,-796.0,-245.0,7.0,559.0,-261.0,442.0
19:51:44.191000,-46.0,62.0,-289.0,-811.0,-179.0,23.0,559.0,-261.0,442.0
19:51:44.195000,-42.0,30.0,-332.0,-679.0,-100.0,8.0,556.0,-273.0,435.0
19:51:44.200000,-18.0,9.0,-259.0,-615.0,-35.0,10.0,556.0,-273.0,435.0
19:51:44.204000,-30.0,-25.0,-247.0,-665.0,10.0,18.0,556.0,-273.0,435.0
19:51:44.209000,-86.0,-51.0,-266.0,-718.0,12.0,7.0,564.0,-271.0,438.0
19:51:44.214000,-62.0,-87.0,-262.0,-765.0,22.0,-12.0,564.0,-271.0,438.0
19:51:44.219000,-63.0,-86.0,-245.0,-816.0,56.0,-14.0,552.0,-259.0,442.0
19:51:44.224000,-67.0,-121.0,-178.0,-838.0,80.0,2.0,552.0,-259.0,442.0
19:51:44.228000,-133.0,-109.0,-116.0,-838.0,104.0,-8.0,552.0,-259.0,442.0
19:51:44.233000,-196.0,-60.0,-108.0,-850.0,104.0,-8.0,549.0,-264.0,435.0
19:51:44.238000,-205.0,-78.0,-50.0,-887.0,91.0,3.0,549.0,-264.0,435.0
19:51:44.242000,-200.0,-45.0,16.0,-938.0,30.0,-1.0,559.0,-270.0,429.0
19:51:44.247000,-196.0,-48.0,46.0,-959.0,-18.0,0.0,559.0,-270.0,429.0
19:51:44.251000,-207.0,32.0,32.0,-969.0,-53.0,-1.0,559.0,-270.0,429.0
19:51:44.256000,-245.0,49.0,-77.0,-994.0,-35.0,-16.0,553.0,-270.0,439.0
19:51:44.261000,-249.0,46.0,-105.0,-934.0,-12.0,6.0,553.0,-270.0,439.0
19:51:44.265000,-249.0,46.0,-105.0,-819.0,-65.0,-2.0,547.0,-274.0,439.0
19:51:44.271000,-117.0,42.0,-11.0,-838.0,-108.0,-26.0,547.0,-274.0,439.0
19:51:44.275000,-117.0,42.0,-11.0,-892.0,-123.0,-32.0,547.0,-274.0,439.0
19:51:44.280000,-50.0,44.0,-4.0,-880.0,-118.0,-22.0,546.0,-264.0,441.0
19:51:44.285000,-25.0,49.0,19.0,-874.0,-67.0,10.0,546.0,-264.0,441.0
19:51:44.289000,-95.0,21.0,-25.0,-815.0,2.0,14.0,559.0,-273.0,450.0
19:51:44.294000,-107.0,2.0,-48.0,-759.0,31.0,-10.0,559.0,-273.0,450.0
19:51:44.298000,-84.0,-32.0,18.0,-806.0,-14.0,-14.0,559.0,-273.0,450.0
19:51:44.303000,-82.0,-27.0,152.0,-927.0,-44.0,-21.0,552.0,-262.0,445.0
19:51:44.308000,-81.0,-36.0,198.0,-1019.0,47.0,12.0,552.0,-262.0,445.0
19:51:44.313000,-122.0,-65.0,82.0,-1007.0,133.0,14.0,555.0,-274.0,441.0
19:51:44.318000,-138.0,-19.0,-3.0,-979.0,84.0,-13.0,555.0,-274.0,441.0
19:51:44.322000,-158.0,-3.0,-48.0,-948.0,15.0,8.0,555.0,-274.0,441.0
19:51:44.327000,-182.0,-4.0,-9.0,-891.0,-38.0,4.0,547.0,-264.0,456.0
19:51:44.332000,-135.0,-3.0,111.0,-891.0,-79.0,-17.0,547.0,-264.0,456.0
19:51:44.336000,-44.0,2.0,199.0,-891.0,-79.0,-17.0,555.0,-273.0,439.0
19:51:44.341000,-21.0,-46.0,158.0,-950.0,-96.0,18.0,555.0,-273.0,439.0
19:51:44.345000,-17.0,-42.0,18.0,-988.0,-87.0,39.0,555.0,-273.0,439.0
19:51:44.350000,47.0,28.0,-58.0,-1004.0,-86.0,-26.0,555.0,-280.0,442.0
19:51:44.355000,78.0,48.0,-135.0,-1071.0,-61.0,-45.0,555.0,-280.0,442.0
19:51:44.360000,100.0,81.0,-119.0,-1109.0,-22.0,-36.0,558.0,-273.0,442.0
19:51:44.365000,96.0,73.0,-86.0,-1086.0,-20.0,-34.0,558.0,-273.0,442.0
19:51:44.369000,117.0,53.0,-183.0,-1044.0,-2.0,-25.0,558.0,-273.0,442.0
19:51:44.374000,65.0,43.0,-296.0,-992.0,2.0,-21.0,555.0,-276.0,444.0
19:51:44.379000,51.0,52.0,-271.0,-975.0,-51.0,-26.0,555.0,-276.0,444.0
19:51:44.383000,60.0,60.0,-191.0,-997.0,-98.0,-49.0,555.0,-271.0,451.0
19:51:44.388000,60.0,60.0,-191.0,-1025.0,-56.0,-61.0,555.0,-271.0,451.0
19:51:44.392000,82.0,81.0,-157.0,-1021.0,28.0,-67.0,555.0,-271.0,451.0
19:51:44.397000,69.0,99.0,-151.0,-960.0,57.0,-58.0,558.0,-273.0,445.0
19:51:44.402000,42.0,103.0,-118.0,-883.0,48.0,-63.0,558.0,-273.0,445.0
19:51:44.407000,67.0,105.0,-99.0,-921.0,1.0,-60.0,553.0,-264.0,438.0
19:51:44.412000,76.0,124.0,-150.0,-1010.0,-92.0,-61.0,553.0,-264.0,438.0
19:51:44.416000,63.0,163.0,-153.0,-1048.0,-81.0,-32.0,553.0,-264.0,438.0
19:51:44.420000,65.0,102.0,-204.0,-1033.0,37.0,-19.0,550.0,-265.0,444.0
19:51:44.426000,56.0,108.0,-315.0,-966.0,93.0,-37.0,550.0,-265.0,444.0
19:51:44.430000,84.0,98.0,-298.0,-906.0,60.0,-32.0,547.0,-262.0,448.0
19:51:44.435000,157.0,73.0,-219.0,-902.0,41.0,-4.0,547.0,-262.0,448.0
19:51:44.439000,134.0,-3.0,-206.0,-905.0,141.0,15.0,547.0,-262.0,448.0
19:51:44.444000,112.0,-23.0,-193.0,-953.0,224.0,-4.0,552.0,-262.0,447.0
19:51:44.449000,20.0,-4.0,-204.0,-953.0,224.0,-4.0,552.0,-262.0,447.0
19:51:44.454000,-110.0,-10.0,-187.0,-1064.0,163.0,3.0,558.0,-262.0,445.0
19:51:44.459000,-168.0,-42.0,-108.0,-1006.0,42.0,9.0,558.0,-262.0,445.0
19:51:44.463000,-184.0,-31.0,-79.0,-1006.0,42.0,9.0,558.0,-262.0,445.0
19:51:44.468000,-238.0,1.0,4.0,-1014.0,-5.0,-23.0,552.0,-267.0,462.0
19:51:44.473000,-336.0,-52.0,11.0,-1020.0,21.0,15.0,552.0,-267.0,462.0
19:51:44.477000,-353.0,-44.0,-50.0,-959.0,152.0,20.0,556.0,-264.0,448.0
19:51:44.482000,-322.0,-66.0,70.0,-845.0,84.0,-24.0,556.0,-264.0,448.0
19:51:44.486000,-322.0,-66.0,70.0,-848.0,-149.0,-39.0,556.0,-264.0,448.0
19:51:44.491000,-162.0,-44.0,198.0,-976.0,-285.0,-65.0,549.0,-270.0,450.0
19:51:44.496000,-162.0,-44.0,198.0,-1052.0,-267.0,-61.0,549.0,-270.0,450.0
19:51:44.501000,-77.0,-73.0,37.0,-961.0,-218.0,-47.0,550.0,-262.0,453.0
19:51:44.506000,0.0,-105.0,56.0,-892.0,-204.0,-57.0,550.0,-262.0,453.0
19:51:44.510000,72.0,-113.0,139.0,-970.0,-84.0,-59.0,550.0,-262.0,453.0
19:51:44.515000,133.0,-126.0,-19.0,-1021.0,30.0,-5.0,553.0,-270.0,448.0
19:51:44.520000,136.0,-213.0,-186.0,-922.0,41.0,5.0,553.0,-270.0,448.0
19:51:44.524000,93.0,-215.0,-184.0,-859.0,37.0,2.0,559.0,-267.0,445.0
19:51:44.529000,16.0,-237.0,-115.0,-916.0,80.0,5.0,559.0,-267.0,445.0
19:51:44.533000,49.0,-268.0,-58.0,-1002.0,66.0,2.0,559.0,-267.0,445.0
19:51:44.538000,1.0,-310.0,-91.0,-1021.0,21.0,12.0,559.0,-267.0,445.0
19:51:44.543000,-45.0,-295.0,-118.0,-1020.0,-37.0,-19.0,559.0,-267.0,445.0
19:51:44.547000,-28.0,-276.0,-48.0,-1127.0,-166.0,-56.0,558.0,-265.0,444.0
19:51:44.553000,-65.0,-154.0,-28.0,-1299.0,-238.0,-77.0,558.0,-265.0,444.0
19:51:44.557000,-30.0,-66.0,-103.0,-1299.0,-238.0,-77.0,558.0,-265.0,444.0
19:51:44.562000,31.0,-73.0,-317.0,-1431.0,-209.0,-46.0,556.0,-261.0,460.0
19:51:44.567000,114.0,-23.0,-342.0,-1335.0,-214.0,-47.0,556.0,-261.0,460.0
19:51:44.571000,151.0,13.0,-66.0,-1094.0,-341.0,-32.0,562.0,-259.0,448.0
19:51:44.576000,210.0,141.0,177.0,-1035.0,-423.0,-40.0,562.0,-259.0,448.0
19:51:44.580000,212.0,117.0,-55.0,-1213.0,-308.0,-32.0,562.0,-259.0,448.0
19:51:44.585000,235.0,147.0,-371.0,-1241.0,-163.0,10.0,562.0,-262.0,438.0
19:51:44.590000,289.0,218.0,-356.0,-1038.0,-226.0,-46.0,562.0,-262.0,438.0
19:51:44.594000,289.0,218.0,-356.0,-904.0,-349.0,-55.0,564.0,-249.0,439.0
19:51:44.600000,296.0,113.0,-210.0,-872.0,-308.0,18.0,564.0,-249.0,439.0
19:51:44.604000,296.0,113.0,-210.0,-817.0,-194.0,43.0,564.0,-249.0,439.0
19:51:44.609000,302.0,49.0,-315.0,-697.0,-159.0,20.0,565.0,-259.0,450.0
19:51:44.614000,288.0,2.0,-237.0,-642.0,-177.0,44.0,565.0,-259.0,450.0
19:51:44.618000,209.0,-54.0,-113.0,-722.0,-127.0,40.0,568.0,-250.0,451.0
19:51:44.623000,200.0,-39.0,-143.0,-878.0,-106.0,-4.0,568.0,-250.0,451.0
19:51:44.627000,202.0,-20.0,-242.0,-958.0,-95.0,31.0,568.0,-250.0,451.0
19:51:44.632000,151.0,-77.0,-359.0,-910.0,-50.0,88.0,544.0,-253.0,442.0
19:51:44.637000,112.0,-129.0,-336.0,-840.0,-28.0,76.0,544.0,-253.0,442.0
19:51:44.641000,96.0,-138.0,-285.0,-873.0,7.0,78.0,559.0,-241.0,444.0
19:51:44.647000,73.0,-164.0,-326.0,-994.0,56.0,85.0,559.0,-241.0,444.0
19:51:44.651000,37.0,-121.0,-461.0,-1044.0,68.0,54.0,559.0,-241.0,444.0
19:51:44.655000,-9.0,-46.0,-506.0,-1028.0,47.0,94.0,547.0,-246.0,444.0
19:51:44.661000,-100.0,-62.0,-424.0,-1057.0,70.0,115.0,547.0,-246.0,444.0
19:51:44.665000,-156.0,-64.0,-418.0,-1057.0,70.0,115.0,555.0,-250.0,438.0
19:51:44.670000,-122.0,-105.0,-501.0,-1117.0,105.0,93.0,555.0,-250.0,438.0
19:51:44.674000,-115.0,-84.0,-496.0,-1102.0,34.0,76.0,555.0,-250.0,438.0
19:51:44.679000,-161.0,-36.0,-459.0,-1058.0,-84.0,36.0,559.0,-243.0,444.0
19:51:44.684000,-201.0,-18.0,-347.0,-1029.0,-48.0,41.0,559.0,-243.0,444.0
19:51:44.689000,-204.0,6.0,-39.0,-1029.0,-48.0,41.0,559.0,-237.0,441.0
19:51:44.694000,-186.0,-4.0,25.0,-1119.0,-9.0,7.0,559.0,-237.0,441.0
19:51:44.698000,-193.0,-21.0,-102.0,-1205.0,0.0,6.0,559.0,-240.0,436.0
19:51:44.703000,-172.0,38.0,-179.0,-1129.0,-50.0,-13.0,559.0,-240.0,436.0
19:51:44.707000,-172.0,38.0,-179.0,-1052.0,-92.0,-11.0,559.0,-240.0,436.0
19:51:44.712000,-159.0,53.0,-331.0,-993.0,-68.0,-1.0,553.0,-237.0,441.0
19:51:44.717000,-159.0,53.0,-331.0,-917.0,-88.0,3.0,553.0,-237.0,441.0
19:51:44.722000,-180.0,35.0,-158.0,-935.0,-146.0,26.0,564.0,-238.0,447.0
19:51:44.726000,-193.0,0.0,-76.0,-1036.0,-116.0,-4.0,564.0,-238.0,447.0
19:51:44.731000,-165.0,25.0,-116.0,-1072.0,-146.0,-36.0,564.0,-238.0,447.0
19:51:44.736000,-108.0,53.0,-51.0,-1047.0,-183.0,-7.0,556.0,-234.0,466.0
19:51:44.741000,-87.0,25.0,16.0,-1030.0,-180.0,25.0,556.0,-234.0,466.0
19:51:44.745000,-128.0,30.0,20.0,-1000.0,-138.0,12.0,547.0,-235.0,445.0
19:51:44.750000,-126.0,15.0,-84.0,-980.0,-45.0,4.0,547.0,-235.0,445.0
19:51:44.754000,-120.0,-2.0,-236.0,-940.0,-51.0,10.0,547.0,-235.0,445.0
19:51:44.759000,-156.0,-20.0,-202.0,-916.0,-141.0,24.0,550.0,-241.0,445.0
19:51:44.764000,-143.0,-63.0,-78.0,-986.0,-177.0,2.0,550.0,-241.0,445.0
19:51:44.769000,-112.0,-54.0,-121.0,-986.0,-177.0,2.0,547.0,-238.0,444.0
19:51:44.773000,-112.0,-94.0,-231.0,-1023.0,-150.0,37.0,547.0,-238.0,444.0
19:51:44.781000,-103.0,-134.0,-261.0,-969.0,-146.0,8.0,550.0,-244.0,451.0
19:51:44.783000,-85.0,-125.0,-228.0,-969.0,-146.0,8.0,550.0,-244.0,451.0
19:51:44.787000,-81.0,-154.0,-198.0,-967.0,-141.0,6.0,550.0,-244.0,451.0
19:51:44.792000,-100.0,-168.0,-303.0,-1015.0,-75.0,22.0,544.0,-226.0,457.0
19:51:44.797000,-147.0,-171.0,-353.0,-1014.0,-24.0,26.0,544.0,-226.0,457.0
19:51:44.802000,-156.0,-191.0,-221.0,-938.0,-67.0,30.0,555.0,-237.0,448.0
19:51:44.806000,-153.0,-215.0,-217.0,-915.0,-99.0,19.0,555.0,-237.0,448.0
19:51:44.810000,-153.0,-215.0,-217.0,-928.0,-100.0,26.0,555.0,-237.0,448.0
19:51:44.816000,-140.0,-268.0,-151.0,-899.0,-134.0,28.0,550.0,-241.0,444.0
19:51:44.820000,-151.0,-263.0,-63.0,-903.0,-139.0,13.0,550.0,-241.0,444.0
19:51:44.825000,-151.0,-263.0,-63.0,-1000.0,-64.0,24.0,546.0,-232.0,462.0
19:51:44.830000,-183.0,-276.0,-98.0,-1107.0,5.0,40.0,546.0,-232.0,462.0
19:51:44.834000,-208.0,-265.0,-266.0,-1144.0,-8.0,3.0,546.0,-232.0,462.0
19:51:44.839000,-193.0,-184.0,-466.0,-1121.0,-82.0,0.0,562.0,-231.0,450.0
19:51:44.844000,-148.0,-177.0,-529.0,-1055.0,-182.0,25.0,562.0,-231.0,450.0
19:51:44.849000,-125.0,-141.0,-405.0,-1048.0,-215.0,5.0,559.0,-237.0,444.0
19:51:44.853000,-114.0,-90.0,-326.0,-1113.0,-156.0,35.0,559.0,-237.0,444.0
19:51:44.857000,-139.0,-109.0,-380.0,-1085.0,-96.0,62.0,559.0,-237.0,444.0
19:51:44.863000,-189.0,-90.0,-427.0,-997.0,-50.0,55.0,553.0,-235.0,454.0
19:51:44.867000,-218.0,-77.0,-438.0,-964.0,-15.0,42.0,553.0,-235.0,454.0
19:51:44.872000,-214.0,-49.0,-427.0,-964.0,-15.0,42.0,558.0,-235.0,453.0
19:51:44.877000,-216.0,-82.0,-469.0,-1024.0,-60.0,55.0,558.0,-235.0,453.0
19:51:44.881000,-201.0,-72.0,-500.0,-1035.0,-116.0,34.0,558.0,-235.0,453.0
19:51:44.886000,-160.0,-73.0,-529.0,-1035.0,-116.0,34.0,559.0,-235.0,448.0
19:51:44.891000,-138.0,-91.0,-602.0,-1059.0,-113.0,41.0,559.0,-235.0,448.0
19:51:44.896000,-147.0,-78.0,-600.0,-1044.0,-69.0,38.0,549.0,-229.0,454.0
19:51:44.900000,-151.0,-56.0,-518.0,-1007.0,-35.0,31.0,549.0,-229.0,454.0
19:51:44.904000,-140.0,-47.0,-487.0,-1018.0,4.0,30.0,549.0,-229.0,454.0
19:51:44.910000,-142.0,-49.0,-523.0,-1061.0,25.0,31.0,568.0,-222.0,448.0
19:51:44.914000,-171.0,-70.0,-578.0,-1080.0,9.0,51.0,568.0,-222.0,448.0
19:51:44.919000,-159.0,-74.0,-591.0,-1049.0,6.0,50.0,550.0,-229.0,448.0
19:51:44.924000,-133.0,-89.0,-534.0,-1003.0,3.0,42.0,550.0,-229.0,448.0
19:51:44.928000,-133.0,-89.0,-534.0,-997.0,6.0,44.0,550.0,-229.0,448.0
19:51:44.933000,-152.0,-76.0,-526.0,-1023.0,39.0,53.0,558.0,-216.0,454.0
19:51:44.938000,-199.0,-88.0,-532.0,-1029.0,59.0,68.0,558.0,-216.0,454.0
19:51:44.943000,-215.0,-106.0,-506.0,-1031.0,62.0,44.0,559.0,-217.0,454.0
19:51:44.947000,-222.0,-72.0,-533.0,-1075.0,73.0,29.0,559.0,-217.0,454.0
19:51:44.951000,-204.0,-49.0,-598.0,-1135.0,67.0,37.0,559.0,-217.0,454.0
19:51:44.957000,-178.0,-28.0,-667.0,-1158.0,11.0,40.0,547.0,-208.0,447.0
19:51:44.961000,-161.0,-9.0,-651.0,-1150.0,-29.0,48.0,547.0,-208.0,447.0
19:51:44.966000,-161.0,-1.0,-620.0,-1119.0,-3.0,49.0,543.0,-216.0,453.0
19:51:44.971000,-169.0,14.0,-630.0,-1051.0,37.0,17.0,543.0,-216.0,453.0
19:51:44.975000,-173.0,33.0,-642.0,-1035.0,23.0,4.0,543.0,-216.0,453.0
19:51:44.980000,-195.0,49.0,-613.0,-1090.0,-15.0,10.0,556.0,-204.0,453.0
19:51:44.985000,-187.0,52.0,-593.0,-1134.0,-3.0,21.0,556.0,-204.0,453.0
19:51:44.990000,-184.0,53.0,-626.0,-1134.0,-3.0,21.0,553.0,-202.0,457.0
19:51:44.994000,-186.0,76.0,-672.0,-1110.0,-15.0,14.0,553.0,-202.0,457.0
19:51:44.998000,-157.0,72.0,-713.0,-1052.0,-1.0,4.0,553.0,-202.0,457.0
19:51:45.004000,-146.0,67.0,-725.0,-983.0,-15.0,17.0,540.0,-204.0,475.0
19:51:45.008000,-148.0,43.0,-696.0,-962.0,18.0,24.0,540.0,-204.0,475.0
19:51:45.013000,-133.0,19.0,-698.0,-942.0,77.0,44.0,547.0,-192.0,454.0
19:51:45.018000,-128.0,11.0,-725.0,-952.0,107.0,27.0,547.0,-192.0,454.0
19:51:45.022000,-125.0,14.0,-725.0,-953.0,109.0,32.0,547.0,-192.0,454.0
19:51:45.027000,-123.0,2.0,-707.0,-913.0,26.0,28.0,540.0,-196.0,462.0
19:51:45.032000,-95.0,-19.0,-692.0,-934.0,80.0,20.0,540.0,-196.0,462.0
19:51:45.037000,-83.0,-15.0,-649.0,-915.0,61.0,38.0,537.0,-195.0,456.0
19:51:45.041000,-83.0,-15.0,-649.0,-1003.0,86.0,19.0,537.0,-195.0,456.0
19:51:45.045000,-68.0,-36.0,-654.0,-1038.0,157.0,37.0,537.0,-195.0,456.0
19:51:45.051000,-58.0,-38.0,-699.0,-985.0,122.0,34.0,541.0,-183.0,463.0
19:51:45.055000,-72.0,-29.0,-706.0,-974.0,183.0,35.0,541.0,-183.0,463.0
19:51:45.060000,-77.0,-56.0,-665.0,-924.0,189.0,65.0,516.0,-180.0,465.0
19:51:45.065000,-102.0,-76.0,-632.0,-963.0,204.0,34.0,516.0,-180.0,465.0
19:51:45.069000,-118.0,-76.0,-621.0,-988.0,274.0,31.0,516.0,-180.0,465.0
19:51:45.074000,-115.0,-96.0,-609.0,-991.0,240.0,37.0,535.0,-189.0,457.0
19:51:45.079000,-138.0,-70.0,-578.0,-1053.0,222.0,-4.0,535.0,-189.0,457.0
19:51:45.084000,-161.0,-33.0,-532.0,-1083.0,255.0,1.0,531.0,-178.0,466.0
19:51:45.088000,-179.0,-21.0,-501.0,-1068.0,229.0,25.0,531.0,-178.0,466.0
19:51:45.092000,-192.0,0.0,-469.0,-1085.0,280.0,25.0,531.0,-178.0,466.0
19:51:45.098000,-198.0,4.0,-434.0,-1082.0,334.0,25.0,522.0,-180.0,478.0
19:51:45.102000,-205.0,11.0,-461.0,-1062.0,338.0,16.0,522.0,-180.0,478.0
19:51:45.107000,-217.0,22.0,-488.0,-1062.0,338.0,16.0,523.0,-175.0,463.0
19:51:45.112000,-238.0,56.0,-548.0,-1048.0,423.0,0.0,523.0,-175.0,463.0
19:51:45.116000,-260.0,35.0,-532.0,-952.0,350.0,25.0,523.0,-175.0,463.0
19:51:45.121000,-277.0,40.0,-442.0,-875.0,235.0,19.0,528.0,-172.0,462.0
19:51:45.126000,-173.0,-2.0,-509.0,-853.0,254.0,-26.0,528.0,-172.0,462.0
19:51:45.131000,-78.0,-30.0,-595.0,-653.0,0.0,-141.0,528.0,-171.0,472.0
19:51:45.135000,-112.0,-60.0,-379.0,-726.0,10.0,-147.0,528.0,-171.0,472.0
19:51:45.143000,-158.0,-113.0,-292.0,-1091.0,444.0,5.0,531.0,-172.0,466.0
19:51:45.145000,-298.0,-129.0,-187.0,-1091.0,444.0,5.0,531.0,-172.0,466.0
19:51:45.149000,-298.0,-129.0,-187.0,-1088.0,306.0,14.0,531.0,-172.0,466.0
19:51:45.154000,-308.0,-80.0,-171.0,-993.0,191.0,-53.0,514.0,-178.0,462.0
19:51:45.159000,-275.0,-25.0,-257.0,-834.0,-96.0,-34.0,514.0,-178.0,462.0
19:51:45.164000,-277.0,-14.0,-158.0,-946.0,-108.0,3.0,522.0,-165.0,465.0
19:51:45.168000,-253.0,-2.0,77.0,-1251.0,194.0,26.0,522.0,-165.0,465.0
19:51:45.172000,-142.0,-144.0,-95.0,-1330.0,362.0,68.0,522.0,-165.0,465.0
19:51:45.178000,-83.0,-155.0,-272.0,-950.0,349.0,-15.0,520.0,-177.0,468.0
19:51:45.182000,-76.0,-53.0,-386.0,-716.0,334.0,-57.0,520.0,-177.0,468.0
19:51:45.187000,-203.0,-61.0,-438.0,-840.0,325.0,113.0,523.0,-166.0,466.0
19:51:45.192000,-214.0,-253.0,-343.0,-964.0,210.0,103.0,523.0,-166.0,466.0
19:51:45.196000,-153.0,-270.0,-310.0,-1032.0,79.0,-27.0,523.0,-166.0,466.0
19:51:45.201000,-165.0,-191.0,-333.0,-1148.0,167.0,-1.0,514.0,-168.0,469.0
19:51:45.206000,-135.0,-212.0,-305.0,-1334.0,231.0,59.0,514.0,-168.0,469.0
19:51:45.210000,-221.0,-200.0,-345.0,-1334.0,231.0,59.0,519.0,-166.0,465.0
19:51:45.215000,-231.0,-83.0,-378.0,-1337.0,207.0,-27.0,519.0,-166.0,465.0
19:51:45.219000,-240.0,-32.0,-378.0,-1214.0,218.0,-80.0,519.0,-166.0,465.0
19:51:45.225000,-193.0,-30.0,-405.0,-1154.0,221.0,-37.0,522.0,-163.0,472.0
19:51:45.229000,-142.0,-44.0,-421.0,-1081.0,61.0,-61.0,522.0,-163.0,472.0
19:51:45.234000,-102.0,-21.0,-360.0,-975.0,61.0,-61.0,517.0,-157.0,472.0
19:51:45.239000,-101.0,-42.0,-269.0,-977.0,57.0,-38.0,517.0,-157.0,472.0
19:51:45.243000,-80.0,-32.0,-278.0,-1106.0,172.0,-35.0,517.0,-157.0,472.0
19:51:45.248000,-97.0,-44.0,-305.0,-1171.0,277.0,-19.0,525.0,-154.0,463.0
19:51:45.253000,28.0,-102.0,-425.0,-1051.0,362.0,1.0,525.0,-154.0,463.0
19:51:45.257000,29.0,-100.0,-533.0,-926.0,240.0,-48.0,519.0,-162.0,459.0
19:51:45.262000,29.0,-100.0,-533.0,-841.0,163.0,-91.0,519.0,-162.0,459.0
19:51:45.266000,11.0,-45.0,-501.0,-842.0,281.0,-16.0,519.0,-162.0,459.0
19:51:45.272000,41.0,-140.0,-464.0,-903.0,329.0,16.0,516.0,-157.0,468.0
19:51:45.276000,7.0,-140.0,-436.0,-924.0,265.0,-39.0,516.0,-157.0,468.0
19:51:45.281000,2.0,-105.0,-390.0,-1017.0,228.0,-48.0,516.0,-162.0,484.0
19:51:45.286000,22.0,-77.0,-361.0,-1073.0,263.0,-11.0,516.0,-162.0,484.0
19:51:45.290000,34.0,-109.0,-379.0,-1093.0,205.0,-24.0,516.0,-162.0,484.0
