hh:mm:ss.ms,gyroX[mdps],gyroY[mdps],gyroZ[mdps],accX[mg],accY[mg],accZ[mg],magX[mG],magY[mG],magZ[mG]
19:49:54.979000,34.0,-22.0,163.0,-988.0,140.0,84.0,724.0,-549.0,337.0
19:49:54.984000,56.0,-11.0,161.0,-974.0,187.0,99.0,724.0,-549.0,337.0
19:49:54.988000,79.0,-3.0,165.0,-959.0,209.0,101.0,724.0,-549.0,337.0
19:49:54.993000,98.0,3.0,179.0,-959.0,209.0,101.0,720.0,-549.0,340.0
19:49:54.998000,99.0,12.0,191.0,-1014.0,357.0,94.0,720.0,-549.0,340.0
19:49:55.002000,73.0,29.0,201.0,-1014.0,357.0,94.0,721.0,-552.0,334.0
19:49:55.007000,18.0,51.0,219.0,-1072.0,458.0,85.0,721.0,-552.0,334.0
19:49:55.011000,-56.0,77.0,247.0,-1128.0,536.0,73.0,721.0,-552.0,334.0
19:49:55.016000,-137.0,104.0,282.0,-1173.0,574.0,59.0,714.0,-556.0,330.0
19:49:55.021000,-203.0,133.0,319.0,-1212.0,563.0,46.0,714.0,-556.0,330.0
19:49:55.026000,-236.0,159.0,347.0,-1247.0,496.0,37.0,715.0,-553.0,336.0
19:49:55.031000,-221.0,180.0,360.0,-1264.0,374.0,28.0,715.0,-553.0,336.0
19:49:55.035000,-221.0,180.0,360.0,-1244.0,225.0,15.0,715.0,-553.0,336.0
19:49:55.040000,-162.0,196.0,371.0,-1196.0,93.0,5.0,712.0,-564.0,345.0
19:49:55.044000,-81.0,208.0,385.0,-1136.0,23.0,1.0,712.0,-564.0,345.0
19:49:55.049000,0.0,210.0,394.0,-1063.0,21.0,5.0,714.0,-555.0,361.0
19:49:55.054000,58.0,201.0,391.0,-980.0,67.0,15.0,714.0,-555.0,361.0
19:49:55.059000,86.0,179.0,375.0,-883.0,125.0,34.0,712.0,-562.0,345.0
19:49:55.063000,85.0,134.0,350.0,-771.0,159.0,63.0,712.0,-562.0,345.0
19:49:55.068000,70.0,70.0,322.0,-645.0,147.0,106.0,712.0,-562.0,345.0
19:49:55.073000,63.0,-18.0,301.0,-527.0,105.0,147.0,705.0,-559.0,342.0
19:49:55.078000,81.0,-114.0,290.0,-468.0,86.0,180.0,705.0,-559.0,342.0
19:49:55.082000,117.0,-211.0,275.0,-507.0,129.0,213.0,700.0,-559.0,352.0
19:49:55.087000,156.0,-296.0,250.0,-634.0,214.0,240.0,700.0,-559.0,352.0
19:49:55.091000,189.0,-355.0,224.0,-798.0,302.0,252.0,700.0,-559.0,352.0
19:49:55.096000,210.0,-382.0,210.0,-952.0,380.0,254.0,705.0,-568.0,357.0
19:49:55.101000,219.0,-380.0,206.0,-952.0,380.0,254.0,705.0,-568.0,357.0
19:49:55.106000,214.0,-361.0,214.0,-1064.0,446.0,260.0,693.0,-564.0,348.0
19:49:55.110000,199.0,-331.0,235.0,-1110.0,487.0,267.0,693.0,-564.0,348.0
19:49:55.115000,177.0,-294.0,263.0,-1086.0,498.0,266.0,693.0,-564.0,348.0
19:49:55.120000,153.0,-259.0,288.0,-1020.0,486.0,261.0,702.0,-561.0,352.0
19:49:55.125000,132.0,-226.0,302.0,-949.0,465.0,252.0,702.0,-561.0,352.0
19:49:55.129000,114.0,-193.0,308.0,-902.0,455.0,236.0,702.0,-556.0,342.0
19:49:55.134000,100.0,-161.0,305.0,-898.0,464.0,210.0,702.0,-556.0,342.0
19:49:55.141000,89.0,-128.0,294.0,-994.0,504.0,138.0,703.0,-550.0,337.0
19:49:55.143000,80.0,-100.0,290.0,-994.0,504.0,138.0,703.0,-550.0,337.0
19:49:55.147000,80.0,-100.0,290.0,-1039.0,517.0,100.0,703.0,-550.0,337.0
19:49:55.153000,70.0,-79.0,309.0,-1067.0,527.0,62.0,700.0,-562.0,345.0
19:49:55.157000,53.0,-58.0,357.0,-1094.0,543.0,27.0,700.0,-562.0,345.0
19:49:55.162000,22.0,-38.0,410.0,-1126.0,556.0,-2.0,691.0,-562.0,349.0
19:49:55.167000,-22.0,-19.0,452.0,-1133.0,521.0,-27.0,691.0,-562.0,349.0
19:49:55.171000,-74.0,2.0,487.0,-1083.0,403.0,-48.0,691.0,-562.0,349.0
19:49:55.176000,-124.0,30.0,529.0,-983.0,228.0,-70.0,699.0,-555.0,337.0
19:49:55.181000,-173.0,72.0,559.0,-868.0,34.0,-99.0,699.0,-555.0,337.0
19:49:55.185000,-222.0,130.0,551.0,-751.0,-170.0,-135.0,681.0,-573.0,372.0
19:49:55.190000,-261.0,196.0,513.0,-631.0,-382.0,-175.0,681.0,-573.0,372.0
19:49:55.194000,-281.0,269.0,471.0,-532.0,-560.0,-209.0,681.0,-573.0,372.0
19:49:55.200000,-287.0,340.0,426.0,-473.0,-669.0,-234.0,684.0,-571.0,342.0
19:49:55.204000,-278.0,404.0,365.0,-433.0,-749.0,-246.0,684.0,-571.0,342.0
19:49:55.209000,-256.0,448.0,309.0,-433.0,-749.0,-246.0,690.0,-571.0,352.0
19:49:55.214000,-208.0,460.0,293.0,-381.0,-861.0,-242.0,690.0,-571.0,352.0
19:49:55.218000,-118.0,441.0,323.0,-325.0,-999.0,-235.0,690.0,-571.0,352.0
19:49:55.223000,0.0,396.0,381.0,-306.0,-1086.0,-234.0,679.0,-570.0,354.0
19:49:55.228000,100.0,340.0,442.0,-601.0,-773.0,-252.0,679.0,-570.0,354.0
19:49:55.233000,140.0,286.0,469.0,-601.0,-773.0,-252.0,673.0,-571.0,364.0
19:49:55.237000,114.0,232.0,451.0,-875.0,-477.0,-254.0,673.0,-571.0,364.0
19:49:55.241000,48.0,177.0,413.0,-1101.0,-279.0,-248.0,673.0,-571.0,364.0
19:49:55.247000,-23.0,123.0,407.0,-1214.0,-251.0,-253.0,666.0,-573.0,364.0
19:49:55.251000,-72.0,77.0,476.0,-1228.0,-378.0,-278.0,666.0,-573.0,364.0
19:49:55.256000,-72.0,77.0,476.0,-1223.0,-556.0,-308.0,664.0,-576.0,373.0
19:49:55.261000,-88.0,37.0,575.0,-1268.0,-670.0,-318.0,664.0,-576.0,373.0
19:49:55.265000,-80.0,0.0,626.0,-1325.0,-744.0,-303.0,664.0,-576.0,373.0
19:49:55.270000,-43.0,-26.0,624.0,-1283.0,-904.0,-288.0,654.0,-586.0,370.0
19:49:55.275000,58.0,-47.0,642.0,-1120.0,-1145.0,-279.0,654.0,-586.0,370.0
19:49:55.280000,221.0,-74.0,723.0,-942.0,-1253.0,-245.0,636.0,-580.0,372.0
19:49:55.284000,390.0,-110.0,826.0,-859.0,-1068.0,-167.0,636.0,-580.0,372.0
19:49:55.288000,494.0,-158.0,896.0,-864.0,-684.0,-62.0,636.0,-580.0,372.0
19:49:55.294000,509.0,-217.0,920.0,-877.0,-305.0,24.0,643.0,-589.0,373.0
19:49:55.298000,457.0,-283.0,935.0,-865.0,-25.0,84.0,643.0,-589.0,373.0
19:49:55.303000,358.0,-354.0,983.0,-858.0,187.0,125.0,640.0,-591.0,373.0
19:49:55.308000,224.0,-417.0,1069.0,-884.0,352.0,154.0,640.0,-591.0,373.0
19:49:55.312000,67.0,-463.0,1184.0,-917.0,406.0,179.0,640.0,-591.0,373.0
19:49:55.317000,-89.0,-485.0,1364.0,-893.0,278.0,185.0,631.0,-609.0,402.0
19:49:55.322000,-208.0,-476.0,1633.0,-893.0,278.0,185.0,631.0,-609.0,402.0
19:49:55.327000,-268.0,-441.0,1927.0,-803.0,24.0,165.0,631.0,-609.0,402.0
19:49:55.331000,-264.0,-394.0,2162.0,-689.0,-205.0,137.0,631.0,-609.0,402.0
19:49:55.335000,-219.0,-354.0,2313.0,-573.0,-332.0,116.0,631.0,-609.0,402.0
19:49:55.341000,-151.0,-319.0,2416.0,-449.0,-391.0,99.0,613.0,-624.0,370.0
19:49:55.345000,-65.0,-290.0,2512.0,-323.0,-435.0,81.0,613.0,-624.0,370.0
19:49:55.350000,32.0,-270.0,2614.0,-213.0,-473.0,63.0,606.0,-651.0,370.0
19:49:55.355000,126.0,-259.0,2718.0,-136.0,-476.0,54.0,606.0,-651.0,370.0
19:49:55.359000,126.0,-259.0,2718.0,-92.0,-425.0,56.0,606.0,-651.0,370.0
19:49:55.364000,228.0,-252.0,2970.0,-57.0,-345.0,69.0,591.0,-657.0,372.0
19:49:55.369000,228.0,-252.0,2970.0,-5.0,-277.0,89.0,591.0,-657.0,372.0
19:49:55.374000,227.0,-252.0,3146.0,68.0,-235.0,119.0,571.0,-682.0,367.0
19:49:55.378000,194.0,-251.0,3355.0,146.0,-203.0,156.0,571.0,-682.0,367.0
19:49:55.382000,130.0,-249.0,3574.0,222.0,-180.0,192.0,571.0,-682.0,367.0
19:49:55.388000,36.0,-238.0,3784.0,297.0,-201.0,218.0,543.0,-691.0,366.0
19:49:55.392000,-75.0,-215.0,3986.0,382.0,-298.0,236.0,543.0,-691.0,366.0
19:49:55.397000,-184.0,-185.0,4178.0,495.0,-472.0,239.0,529.0,-711.0,361.0
19:49:55.402000,-268.0,-147.0,4357.0,638.0,-677.0,232.0,529.0,-711.0,361.0
19:49:55.406000,-317.0,-104.0,4513.0,783.0,-848.0,216.0,529.0,-711.0,361.0
19:49:55.411000,-333.0,-64.0,4624.0,900.0,-947.0,194.0,460.0,-750.0,378.0
19:49:55.416000,-329.0,-35.0,4692.0,974.0,-996.0,160.0,460.0,-750.0,378.0
19:49:55.421000,-317.0,-8.0,4739.0,974.0,-996.0,160.0,444.0,-768.0,370.0
19:49:55.425000,-293.0,16.0,4772.0,969.0,-1073.0,29.0,444.0,-768.0,370.0
19:49:55.429000,-248.0,33.0,4783.0,969.0,-1073.0,29.0,444.0,-768.0,370.0
19:49:55.435000,-182.0,39.0,4764.0,889.0,-1071.0,-59.0,412.0,-769.0,361.0
19:49:55.439000,-121.0,32.0,4712.0,756.0,-973.0,-144.0,412.0,-769.0,361.0
19:49:55.444000,-95.0,18.0,4631.0,577.0,-781.0,-203.0,384.0,-786.0,364.0
19:49:55.449000,-88.0,-7.0,4538.0,390.0,-590.0,-234.0,384.0,-786.0,364.0
19:49:55.456000,-66.0,-44.0,4443.0,131.0,-418.0,-244.0,346.0,-796.0,361.0
19:49:55.458000,-29.0,-84.0,4328.0,131.0,-418.0,-244.0,346.0,-796.0,361.0
19:49:55.462000,-29.0,-84.0,4328.0,12.0,-325.0,-216.0,346.0,-796.0,361.0
19:49:55.468000,15.0,-177.0,3990.0,-126.0,-188.0,-172.0,306.0,-802.0,366.0
19:49:55.472000,11.0,-211.0,3791.0,-286.0,-50.0,-119.0,306.0,-802.0,366.0
19:49:55.477000,11.0,-211.0,3791.0,-458.0,71.0,-74.0,282.0,-804.0,372.0
19:49:55.482000,-5.0,-219.0,3571.0,-629.0,191.0,-62.0,282.0,-804.0,372.0
19:49:55.486000,-44.0,-186.0,3314.0,-788.0,317.0,-75.0,282.0,-804.0,372.0
19:49:55.491000,-100.0,-127.0,3022.0,-918.0,428.0,-98.0,229.0,-804.0,373.0
19:49:55.496000,-145.0,-64.0,2697.0,-981.0,507.0,-130.0,229.0,-804.0,373.0
19:49:55.501000,-147.0,-1.0,2324.0,-939.0,575.0,-176.0,201.0,-804.0,382.0
19:49:55.505000,-100.0,71.0,1898.0,-795.0,636.0,-211.0,201.0,-804.0,382.0
19:49:55.509000,-32.0,140.0,1463.0,-612.0,677.0,-221.0,201.0,-804.0,382.0
19:49:55.514000,44.0,190.0,1087.0,-493.0,723.0,-231.0,189.0,-801.0,378.0
19:49:55.519000,103.0,224.0,809.0,-477.0,786.0,-246.0,189.0,-801.0,378.0
19:49:55.524000,140.0,252.0,618.0,-477.0,830.0,-246.0,193.0,-802.0,370.0
19:49:55.529000,170.0,277.0,505.0,-464.0,847.0,-300.0,193.0,-802.0,370.0
19:49:55.533000,198.0,293.0,465.0,-383.0,885.0,-311.0,193.0,-802.0,370.0
19:49:55.538000,200.0,293.0,478.0,-383.0,885.0,-311.0,183.0,-802.0,381.0
19:49:55.543000,149.0,274.0,532.0,-180.0,1091.0,-229.0,183.0,-802.0,381.0
19:49:55.548000,42.0,235.0,634.0,-180.0,1091.0,-229.0,186.0,-789.0,379.0
19:49:55.552000,-93.0,177.0,780.0,-67.0,1148.0,-166.0,186.0,-789.0,379.0
19:49:55.556000,-229.0,113.0,933.0,44.0,1117.0,-123.0,186.0,-789.0,379.0
19:49:55.562000,-350.0,53.0,1056.0,117.0,1027.0,-105.0,180.0,-783.0,379.0
19:49:55.566000,-448.0,-2.0,1123.0,124.0,925.0,-91.0,180.0,-783.0,379.0
19:49:55.571000,-520.0,-49.0,1141.0,82.0,814.0,-70.0,171.0,-783.0,379.0
19:49:55.576000,-568.0,-84.0,1131.0,29.0,657.0,-43.0,171.0,-783.0,379.0
19:49:55.580000,-568.0,-84.0,1131.0,-20.0,442.0,-18.0,171.0,-783.0,379.0
19:49:55.585000,-587.0,-101.0,1111.0,-74.0,182.0,1.0,160.0,-780.0,373.0
19:49:55.590000,-564.0,-101.0,1076.0,-129.0,-106.0,7.0,160.0,-780.0,373.0
19:49:55.595000,-493.0,-81.0,1026.0,-192.0,-373.0,-8.0,159.0,-780.0,390.0
19:49:55.599000,-385.0,-38.0,959.0,-288.0,-549.0,-25.0,159.0,-780.0,390.0
19:49:55.603000,-278.0,24.0,847.0,-409.0,-607.0,-32.0,159.0,-780.0,390.0
19:49:55.609000,-191.0,94.0,663.0,-505.0,-601.0,-38.0,153.0,-772.0,387.0
19:49:55.613000,-136.0,162.0,429.0,-520.0,-599.0,-48.0,153.0,-772.0,387.0
19:49:55.618000,-107.0,226.0,198.0,-443.0,-627.0,-51.0,145.0,-772.0,381.0
19:49:55.623000,-92.0,277.0,-11.0,-295.0,-663.0,-47.0,145.0,-772.0,381.0
19:49:55.627000,-84.0,308.0,-212.0,-115.0,-680.0,-59.0,145.0,-772.0,381.0
19:49:55.632000,-81.0,310.0,-404.0,23.0,-650.0,-92.0,145.0,-759.0,394.0
19:49:55.637000,-98.0,302.0,-597.0,34.0,-573.0,-131.0,145.0,-759.0,394.0
19:49:55.642000,-131.0,284.0,-835.0,34.0,-573.0,-131.0,156.0,-753.0,388.0
19:49:55.646000,-137.0,264.0,-1109.0,-56.0,-726.0,-238.0,156.0,-753.0,388.0
19:49:55.650000,-68.0,240.0,-1344.0,-116.0,-726.0,-238.0,156.0,-753.0,388.0
19:49:55.656000,82.0,277.0,-1492.0,-68.0,-1067.0,-318.0,163.0,-759.0,388.0
19:49:55.660000,618.0,660.0,-1124.0,336.0,-1817.0,-265.0,163.0,-759.0,388.0
19:49:55.665000,-11.0,1561.0,4534.0,2102.0,-3132.0,-994.0,172.0,-750.0,406.0
19:49:55.670000,-1940.0,-2602.0,2362.0,3616.0,-3027.0,408.0,172.0,-750.0,406.0
19:49:55.674000,6932.0,-5107.0,-16452.0,-3204.0,3975.0,-434.0,172.0,-750.0,406.0
19:49:55.679000,8864.0,-6535.0,-18723.0,-3204.0,3975.0,-434.0,148.0,-742.0,393.0
19:49:55.684000,714.0,99.0,-4354.0,-1975.0,2008.0,-260.0,148.0,-742.0,393.0
19:49:55.689000,-6233.0,2065.0,4195.0,1378.0,-1749.0,78.0,295.0,-723.0,444.0
19:49:55.693000,-4580.0,662.0,3314.0,1183.0,-2284.0,1065.0,295.0,-723.0,444.0
19:49:55.697000,-4580.0,662.0,3314.0,-828.0,-1147.0,-253.0,295.0,-723.0,444.0
19:49:55.703000,-1117.0,1.0,105.0,-1123.0,-1961.0,-16.0,279.0,-727.0,424.0
19:49:55.707000,243.0,-125.0,-690.0,-26.0,-3121.0,146.0,279.0,-727.0,424.0
19:49:55.712000,70.0,175.0,593.0,907.0,-3538.0,193.0,270.0,-727.0,411.0
19:49:55.717000,-536.0,326.0,1238.0,495.0,-2716.0,353.0,270.0,-727.0,411.0
19:49:55.721000,-54.0,-85.0,-150.0,-118.0,-2277.0,191.0,270.0,-727.0,411.0
19:49:55.726000,309.0,-291.0,-898.0,-93.0,-2654.0,33.0,264.0,-733.0,414.0
19:49:55.731000,32.0,-117.0,-572.0,-173.0,-2358.0,-80.0,264.0,-733.0,414.0
19:49:55.736000,32.0,55.0,-520.0,-291.0,-2150.0,-137.0,274.0,-723.0,415.0
19:49:55.740000,74.0,204.0,-781.0,-303.0,-2421.0,42.0,274.0,-723.0,415.0
19:49:55.744000,189.0,93.0,-1153.0,-301.0,-2845.0,-33.0,274.0,-723.0,415.0
19:49:55.749000,335.0,215.0,-957.0,15.0,-2857.0,-75.0,268.0,-723.0,417.0
19:49:55.754000,385.0,108.0,-821.0,80.0,-2502.0,100.0,268.0,-723.0,417.0
19:49:55.759000,288.0,72.0,-967.0,80.0,-2502.0,100.0,291.0,-708.0,421.0
19:49:55.764000,223.0,147.0,-1553.0,74.0,-2235.0,64.0,291.0,-708.0,421.0
19:49:55.768000,299.0,-156.0,-665.0,74.0,-2235.0,64.0,291.0,-708.0,421.0
19:49:55.773000,-177.0,-115.0,-491.0,351.0,-2337.0,238.0,292.0,-708.0,423.0
19:49:55.778000,-154.0,-70.0,-1439.0,170.0,-2060.0,102.0,292.0,-708.0,423.0
19:49:55.783000,368.0,-378.0,-2737.0,199.0,-1788.0,68.0,300.0,-688.0,427.0
19:49:55.787000,84.0,-521.0,-2119.0,429.0,-2205.0,128.0,300.0,-688.0,427.0
19:49:55.791000,84.0,-521.0,-2119.0,464.0,-2834.0,175.0,300.0,-688.0,427.0
19:49:55.797000,61.0,-468.0,-2422.0,157.0,-2496.0,42.0,313.0,-691.0,423.0
19:49:55.801000,-449.0,-548.0,-2516.0,139.0,-2310.0,297.0,313.0,-691.0,423.0
19:49:55.805000,-449.0,-548.0,-2516.0,577.0,-2785.0,146.0,327.0,-685.0,427.0
19:49:55.811000,-135.0,-310.0,-1235.0,468.0,-3020.0,-140.0,327.0,-685.0,427.0
19:49:55.815000,-23.0,-219.0,-1638.0,66.0,-1900.0,151.0,327.0,-685.0,427.0
19:49:55.820000,-149.0,-322.0,-3984.0,506.0,-1755.0,258.0,342.0,-682.0,432.0
19:49:55.825000,197.0,-786.0,-2969.0,566.0,-2772.0,290.0,342.0,-682.0,432.0
19:49:55.830000,-221.0,-679.0,-2072.0,11.0,-2589.0,-96.0,366.0,-670.0,415.0
19:49:55.834000,-196.0,-438.0,-2520.0,66.0,-2640.0,-68.0,366.0,-670.0,415.0
19:49:55.838000,-96.0,-587.0,-1848.0,104.0,-2697.0,64.0,366.0,-670.0,415.0
19:49:55.844000,-205.0,-352.0,-2536.0,68.0,-2304.0,-152.0,366.0,-675.0,409.0
19:49:55.848000,244.0,-547.0,-2677.0,210.0,-2649.0,126.0,366.0,-675.0,409.0
19:49:55.853000,-501.0,-399.0,-1651.0,103.0,-2955.0,-15.0,390.0,-652.0,424.0
19:49:55.858000,-266.0,-194.0,-2068.0,12.0,-2803.0,-155.0,390.0,-652.0,424.0
19:49:55.862000,196.0,-539.0,-2445.0,12.0,-2803.0,-155.0,412.0,-646.0,424.0
19:49:55.867000,181.0,-496.0,-2529.0,-22.0,-2485.0,-18.0,412.0,-646.0,424.0
19:49:55.871000,-73.0,-388.0,-2367.0,-167.0,-2150.0,-46.0,412.0,-646.0,424.0
19:49:55.877000,35.0,-356.0,-2267.0,-200.0,-2284.0,29.0,433.0,-637.0,414.0
19:49:55.881000,114.0,-235.0,-2009.0,-168.0,-2917.0,-82.0,433.0,-637.0,414.0
19:49:55.886000,49.0,-193.0,-2272.0,-307.0,-3094.0,-89.0,433.0,-634.0,415.0
19:49:55.891000,196.0,-280.0,-1981.0,-316.0,-2823.0,33.0,433.0,-634.0,415.0
19:49:55.895000,49.0,-19.0,-1255.0,-183.0,-2845.0,3.0,433.0,-634.0,415.0
19:49:55.900000,-64.0,102.0,-1453.0,-187.0,-2642.0,22.0,438.0,-628.0,429.0
19:49:55.905000,579.0,80.0,-2179.0,-318.0,-2202.0,-167.0,438.0,-628.0,429.0
19:49:55.909000,113.0,81.0,-1660.0,-123.0,-2374.0,-64.0,444.0,-612.0,420.0
19:49:55.914000,113.0,81.0,-1660.0,73.0,-2096.0,63.0,444.0,-612.0,420.0
19:49:55.918000,263.0,56.0,-1922.0,-223.0,-1503.0,-6.0,444.0,-612.0,420.0
19:49:55.924000,331.0,-91.0,-2210.0,-249.0,-2042.0,85.0,462.0,-619.0,418.0
19:49:55.928000,243.0,4.0,-1535.0,-262.0,-2425.0,-154.0,462.0,-619.0,418.0
19:49:55.933000,273.0,187.0,-1549.0,-318.0,-2460.0,-43.0,471.0,-595.0,423.0
19:49:55.938000,64.0,239.0,-1362.0,-165.0,-2138.0,3.0,471.0,-595.0,423.0
19:49:55.942000,179.0,242.0,-1712.0,-125.0,-1454.0,56.0,471.0,-595.0,423.0
19:49:55.947000,366.0,-3.0,-2387.0,-132.0,-1752.0,156.0,472.0,-591.0,423.0
19:49:55.952000,397.0,-2.0,-1701.0,-370.0,-2380.0,-23.0,472.0,-591.0,423.0
19:49:55.956000,269.0,75.0,-1452.0,-511.0,-2050.0,-94.0,486.0,-579.0,421.0
19:49:55.961000,307.0,324.0,-1696.0,-163.0,-2060.0,-102.0,486.0,-579.0,421.0
19:49:55.965000,89.0,627.0,-1514.0,-6.0,-2232.0,147.0,486.0,-579.0,421.0
19:49:55.971000,30.0,449.0,-1745.0,43.0,-2032.0,38.0,483.0,-573.0,418.0
19:49:55.975000,373.0,410.0,-1823.0,43.0,-2032.0,38.0,483.0,-573.0,418.0
19:49:55.979000,231.0,348.0,-1815.0,-243.0,-1733.0,196.0,490.0,-567.0,423.0
19:49:55.985000,229.0,382.0,-2004.0,-243.0,-1733.0,196.0,490.0,-567.0,423.0
19:49:55.989000,301.0,396.0,-1986.0,-178.0,-1730.0,90.0,490.0,-567.0,423.0
19:49:55.994000,350.0,473.0,-1609.0,-120.0,-2019.0,-10.0,472.0,-552.0,429.0
19:49:55.999000,327.0,625.0,-1270.0,112.0,-2168.0,-195.0,472.0,-552.0,429.0
19:49:56.003000,327.0,595.0,-1799.0,95.0,-1938.0,-13.0,510.0,-541.0,433.0
19:49:56.008000,239.0,382.0,-2141.0,-84.0,-1833.0,272.0,510.0,-541.0,433.0
19:49:56.012000,239.0,382.0,-2141.0,214.0,-1897.0,186.0,510.0,-541.0,433.0
19:49:56.018000,318.0,140.0,-2098.0,-111.0,-1643.0,31.0,505.0,-526.0,429.0
19:49:56.022000,318.0,140.0,-2098.0,-338.0,-1288.0,-163.0,505.0,-526.0,429.0
19:49:56.027000,85.0,413.0,-2030.0,123.0,-1279.0,-94.0,493.0,-513.0,451.0
19:49:56.032000,203.0,214.0,-1465.0,314.0,-1581.0,-72.0,493.0,-513.0,451.0
19:49:56.036000,192.0,249.0,-1242.0,-213.0,-1500.0,-197.0,493.0,-513.0,451.0
19:49:56.041000,204.0,263.0,-1857.0,-480.0,-1508.0,114.0,519.0,-517.0,436.0
19:49:56.046000,83.0,66.0,-1920.0,2.0,-1668.0,100.0,519.0,-517.0,436.0
19:49:56.050000,-109.0,65.0,-1519.0,62.0,-1415.0,-15.0,526.0,-502.0,442.0
19:49:56.055000,-123.0,-3.0,-1397.0,-95.0,-1131.0,-69.0,526.0,-502.0,442.0
19:49:56.059000,-76.0,-43.0,-1400.0,-259.0,-889.0,-123.0,526.0,-502.0,442.0
19:49:56.065000,-212.0,-142.0,-1755.0,-450.0,-899.0,125.0,513.0,-498.0,433.0
19:49:56.069000,-248.0,-246.0,-1473.0,-187.0,-1187.0,-55.0,513.0,-498.0,433.0
19:49:56.074000,-595.0,226.0,-1285.0,-187.0,-1187.0,-55.0,522.0,-486.0,435.0
19:49:56.079000,-534.0,139.0,-1260.0,-575.0,-1414.0,139.0,522.0,-486.0,435.0
19:49:56.083000,-201.0,-84.0,-1040.0,-544.0,-1457.0,-50.0,522.0,-486.0,435.0
19:49:56.088000,81.0,-87.0,-1142.0,-544.0,-1457.0,-50.0,526.0,-486.0,441.0
19:49:56.093000,-79.0,-94.0,-1216.0,-782.0,-1144.0,-55.0,526.0,-486.0,441.0
19:49:56.097000,-77.0,-92.0,-895.0,-769.0,-1144.0,144.0,532.0,-481.0,441.0
19:49:56.102000,-195.0,-109.0,-843.0,-659.0,-1407.0,182.0,532.0,-481.0,441.0
19:49:56.106000,-128.0,-111.0,-861.0,-773.0,-1427.0,101.0,532.0,-481.0,441.0
19:49:56.111000,133.0,-228.0,-949.0,-838.0,-1272.0,1.0,537.0,-463.0,441.0
19:49:56.116000,107.0,-220.0,-1008.0,-904.0,-1273.0,98.0,537.0,-463.0,441.0
19:49:56.121000,-58.0,28.0,-1022.0,-899.0,-1418.0,35.0,517.0,-475.0,438.0
19:49:56.126000,-34.0,28.0,-970.0,-665.0,-1534.0,-3.0,517.0,-475.0,438.0
19:49:56.130000,-34.0,28.0,-970.0,-438.0,-1506.0,42.0,517.0,-475.0,438.0
19:49:56.135000,70.0,-2.0,-985.0,-571.0,-1299.0,-10.0,537.0,-466.0,447.0
19:49:56.140000,118.0,7.0,-1040.0,-681.0,-1043.0,-65.0,537.0,-466.0,447.0
19:49:56.144000,-34.0,135.0,-1092.0,-417.0,-1159.0,40.0,547.0,-450.0,436.0
19:49:56.149000,-114.0,40.0,-910.0,-299.0,-1506.0,-1.0,547.0,-450.0,436.0
19:49:56.153000,-77.0,142.0,-837.0,-597.0,-1535.0,-157.0,547.0,-450.0,436.0
19:49:56.158000,168.0,74.0,-1047.0,-863.0,-1286.0,-213.0,535.0,-451.0,448.0
19:49:56.163000,320.0,142.0,-1365.0,-850.0,-884.0,-206.0,535.0,-451.0,448.0
19:49:56.168000,241.0,292.0,-1543.0,-697.0,-620.0,-56.0,544.0,-441.0,444.0
19:49:56.173000,217.0,198.0,-1364.0,-760.0,-600.0,37.0,544.0,-441.0,444.0
19:49:56.177000,230.0,-47.0,-1372.0,-794.0,-694.0,-98.0,544.0,-441.0,444.0
19:49:56.182000,156.0,79.0,-1264.0,-591.0,-1095.0,-90.0,543.0,-442.0,430.0
19:49:56.187000,-17.0,88.0,-1007.0,-705.0,-1205.0,-70.0,543.0,-442.0,430.0
19:49:56.191000,7.0,171.0,-1265.0,-705.0,-1205.0,-70.0,547.0,-432.0,441.0
19:49:56.196000,-9.0,240.0,-1415.0,-520.0,-1458.0,-77.0,547.0,-432.0,441.0
19:49:56.200000,7.0,122.0,-1246.0,-520.0,-1458.0,-77.0,547.0,-432.0,441.0
19:49:56.205000,165.0,198.0,-1012.0,-360.0,-1419.0,-160.0,546.0,-426.0,436.0
19:49:56.210000,154.0,131.0,-844.0,-535.0,-1264.0,-167.0,546.0,-426.0,436.0
19:49:56.215000,87.0,-10.0,-821.0,-643.0,-1048.0,-1.0,547.0,-412.0,436.0
19:49:56.220000,88.0,-51.0,-892.0,-647.0,-742.0,-49.0,547.0,-412.0,436.0
19:49:56.224000,10.0,-61.0,-1007.0,-645.0,-573.0,-67.0,547.0,-412.0,436.0
19:49:56.229000,-146.0,-82.0,-1171.0,-690.0,-508.0,-1.0,543.0,-412.0,438.0
19:49:56.234000,-119.0,-101.0,-1332.0,-726.0,-489.0,-51.0,543.0,-412.0,438.0
19:49:56.238000,-129.0,-84.0,-1304.0,-649.0,-585.0,-129.0,553.0,-406.0,444.0
19:49:56.243000,-129.0,-84.0,-1304.0,-634.0,-691.0,-79.0,553.0,-406.0,444.0
19:49:56.247000,-144.0,-145.0,-1267.0,-660.0,-708.0,-25.0,553.0,-406.0,444.0
19:49:56.252000,-174.0,-205.0,-1355.0,-666.0,-708.0,-19.0,535.0,-400.0,454.0
19:49:56.257000,-159.0,-272.0,-1365.0,-663.0,-870.0,-1.0,535.0,-400.0,454.0
19:49:56.262000,-261.0,-259.0,-1127.0,-710.0,-876.0,-1.0,550.0,-390.0,444.0
19:49:56.267000,-365.0,-257.0,-980.0,-884.0,-642.0,-38.0,550.0,-390.0,444.0
19:49:56.271000,-381.0,-240.0,-1110.0,-971.0,-592.0,-83.0,550.0,-390.0,444.0
19:49:56.276000,-324.0,-198.0,-1192.0,-889.0,-743.0,-97.0,555.0,-387.0,445.0
19:49:56.281000,-207.0,-263.0,-1050.0,-793.0,-940.0,-36.0,555.0,-387.0,445.0
19:49:56.285000,-229.0,-298.0,-814.0,-784.0,-831.0,2.0,555.0,-373.0,457.0
19:49:56.290000,-291.0,-277.0,-848.0,-843.0,-572.0,-47.0,555.0,-373.0,457.0
19:49:56.294000,-268.0,-274.0,-1041.0,-814.0,-616.0,-10.0,555.0,-373.0,457.0
19:49:56.299000,-322.0,-356.0,-1003.0,-804.0,-636.0,-3.0,556.0,-378.0,439.0
19:49:56.304000,-319.0,-332.0,-826.0,-804.0,-636.0,-3.0,556.0,-378.0,439.0
19:49:56.309000,-329.0,-368.0,-808.0,-882.0,-558.0,-25.0,568.0,-378.0,445.0
19:49:56.314000,-291.0,-326.0,-859.0,-865.0,-633.0,-18.0,568.0,-378.0,445.0
19:49:56.318000,-252.0,-344.0,-744.0,-776.0,-823.0,-30.0,568.0,-378.0,445.0
19:49:56.323000,-284.0,-346.0,-641.0,-756.0,-911.0,24.0,565.0,-375.0,436.0
19:49:56.327000,-308.0,-252.0,-695.0,-799.0,-751.0,2.0,565.0,-375.0,436.0
19:49:56.332000,-329.0,-260.0,-705.0,-857.0,-570.0,14.0,559.0,-375.0,441.0
19:49:56.337000,-240.0,-273.0,-702.0,-936.0,-517.0,16.0,559.0,-375.0,441.0
19:49:56.342000,-193.0,-213.0,-733.0,-952.0,-580.0,-52.0,565.0,-373.0,435.0
19:49:56.346000,-212.0,-207.0,-707.0,-893.0,-728.0,-7.0,565.0,-373.0,435.0
19:49:56.351000,-212.0,-207.0,-707.0,-900.0,-732.0,36.0,565.0,-373.0,435.0
19:49:56.356000,-200.0,-225.0,-706.0,-915.0,-598.0,-16.0,564.0,-370.0,442.0
19:49:56.361000,-185.0,-185.0,-674.0,-883.0,-512.0,-48.0,564.0,-370.0,442.0
19:49:56.365000,-186.0,-148.0,-634.0,-834.0,-538.0,0.0,562.0,-363.0,436.0
19:49:56.369000,-244.0,-172.0,-535.0,-821.0,-585.0,10.0,562.0,-363.0,436.0
19:49:56.374000,-266.0,-177.0,-476.0,-858.0,-596.0,-33.0,562.0,-363.0,436.0
19:49:56.379000,-264.0,-172.0,-474.0,-826.0,-599.0,-29.0,576.0,-364.0,430.0
19:49:56.384000,-253.0,-170.0,-394.0,-833.0,-603.0,-56.0,576.0,-364.0,430.0
19:49:56.389000,-226.0,-69.0,-251.0,-944.0,-688.0,-90.0,568.0,-358.0,430.0
19:49:56.393000,-136.0,64.0,49.0,-649.0,-1555.0,-429.0,568.0,-358.0,430.0
19:49:56.398000,47.0,896.0,2981.0,-1218.0,-1989.0,-388.0,568.0,-358.0,430.0
19:49:56.403000,153.0,884.0,3811.0,-2630.0,-25.0,138.0,565.0,-358.0,439.0
19:49:56.408000,189.0,491.0,17.0,-2185.0,1030.0,148.0,565.0,-358.0,439.0
19:49:56.412000,207.0,367.0,-1941.0,-2185.0,1030.0,148.0,562.0,-373.0,438.0
19:49:56.417000,77.0,337.0,-1299.0,427.0,-1149.0,44.0,562.0,-373.0,438.0
19:49:56.421000,-63.0,422.0,643.0,427.0,-1149.0,44.0,562.0,-373.0,438.0
19:49:56.426000,-123.0,270.0,1283.0,105.0,-1293.0,52.0,565.0,-366.0,459.0
19:49:56.431000,-129.0,212.0,386.0,-853.0,-480.0,67.0,565.0,-366.0,459.0
19:49:56.436000,-58.0,102.0,-258.0,-1141.0,-12.0,-2.0,565.0,-364.0,438.0
19:49:56.440000,-102.0,128.0,-301.0,-880.0,-108.0,-5.0,565.0,-364.0,438.0
19:49:56.445000,-97.0,128.0,-284.0,-695.0,-298.0,-31.0,565.0,-364.0,438.0
19:49:56.449000,-97.0,158.0,-284.0,-741.0,-334.0,-62.0,571.0,-373.0,444.0
19:49:56.455000,51.0,147.0,-485.0,-791.0,-378.0,-79.0,571.0,-373.0,444.0
19:49:56.459000,51.0,147.0,-485.0,-787.0,-462.0,-16.0,565.0,-366.0,444.0
19:49:56.464000,-35.0,98.0,-371.0,-772.0,-493.0,-8.0,565.0,-366.0,444.0
19:49:56.468000,-100.0,168.0,-219.0,-824.0,-505.0,-79.0,565.0,-366.0,444.0
19:49:56.473000,-104.0,207.0,-223.0,-965.0,-515.0,-55.0,567.0,-364.0,444.0
19:49:56.478000,-93.0,151.0,-353.0,-959.0,-524.0,-34.0,567.0,-364.0,444.0
19:49:56.483000,-86.0,119.0,-357.0,-861.0,-497.0,-46.0,565.0,-366.0,450.0
19:49:56.487000,-95.0,136.0,-270.0,-851.0,-462.0,-76.0,565.0,-366.0,450.0
19:49:56.492000,-80.0,191.0,-239.0,-894.0,-437.0,-88.0,565.0,-366.0,450.0
19:49:56.497000,-9.0,167.0,-268.0,-931.0,-445.0,-77.0,555.0,-358.0,448.0
19:49:56.502000,4.0,151.0,-321.0,-903.0,-464.0,-60.0,555.0,-358.0,448.0
19:49:56.506000,-16.0,127.0,-361.0,-766.0,-456.0,-90.0,558.0,-369.0,444.0
19:49:56.511000,5.0,171.0,-363.0,-674.0,-458.0,-99.0,558.0,-369.0,444.0
19:49:56.515000,4.0,163.0,-231.0,-765.0,-468.0,-46.0,558.0,-369.0,444.0
19:49:56.520000,-5.0,130.0,-182.0,-897.0,-406.0,-44.0,555.0,-358.0,450.0
19:49:56.525000,-21.0,100.0,-335.0,-897.0,-406.0,-44.0,555.0,-358.0,450.0
19:49:56.530000,-56.0,81.0,-340.0,-871.0,-411.0,-54.0,561.0,-357.0,459.0
19:49:56.534000,-85.0,77.0,-230.0,-760.0,-495.0,-49.0,561.0,-357.0,459.0
19:49:56.539000,-91.0,114.0,-223.0,-751.0,-473.0,-65.0,561.0,-357.0,459.0
19:49:56.544000,-37.0,134.0,-352.0,-845.0,-418.0,-90.0,565.0,-355.0,456.0
19:49:56.549000,12.0,183.0,-432.0,-921.0,-446.0,-114.0,565.0,-355.0,456.0
19:49:56.553000,-7.0,165.0,-383.0,-927.0,-528.0,-92.0,556.0,-361.0,469.0
19:49:56.558000,-58.0,116.0,-255.0,-866.0,-528.0,-39.0,556.0,-361.0,469.0
19:49:56.562000,-58.0,116.0,-255.0,-790.0,-453.0,-44.0,556.0,-361.0,469.0
19:49:56.567000,-52.0,110.0,-281.0,-804.0,-336.0,-78.0,553.0,-354.0,454.0
19:49:56.572000,-52.0,110.0,-281.0,-864.0,-292.0,-102.0,553.0,-354.0,454.0
19:49:56.577000,-36.0,156.0,-392.0,-895.0,-351.0,-98.0,562.0,-354.0,453.0
19:49:56.581000,2.0,154.0,-417.0,-887.0,-432.0,-77.0,562.0,-354.0,453.0
19:49:56.586000,16.0,119.0,-403.0,-822.0,-507.0,-52.0,562.0,-354.0,453.0
19:49:56.591000,-10.0,59.0,-348.0,-724.0,-469.0,-50.0,558.0,-358.0,460.0
19:49:56.596000,-25.0,29.0,-284.0,-672.0,-361.0,-72.0,558.0,-358.0,460.0
19:49:56.600000,-41.0,42.0,-219.0,-743.0,-295.0,-85.0,543.0,-352.0,463.0
19:49:56.605000,-33.0,56.0,-199.0,-865.0,-285.0,-80.0,543.0,-352.0,463.0
19:49:56.609000,-27.0,53.0,-241.0,-899.0,-303.0,-48.0,543.0,-352.0,463.0
19:49:56.614000,-27.0,2.0,-252.0,-842.0,-334.0,-20.0,561.0,-349.0,456.0
19:49:56.619000,-107.0,-13.0,-154.0,-781.0,-363.0,-20.0,561.0,-349.0,456.0
19:49:56.624000,-170.0,-32.0,-44.0,-781.0,-363.0,-20.0,562.0,-351.0,459.0
19:49:56.628000,-200.0,-37.0,-60.0,-838.0,-267.0,-45.0,562.0,-351.0,459.0
19:49:56.633000,-196.0,18.0,-108.0,-838.0,-267.0,-45.0,562.0,-351.0,459.0
19:49:56.638000,-156.0,46.0,-203.0,-852.0,-227.0,-66.0,556.0,-360.0,459.0
19:49:56.643000,-88.0,28.0,-275.0,-859.0,-271.0,-50.0,556.0,-360.0,459.0
19:49:56.647000,-119.0,19.0,-161.0,-817.0,-440.0,-31.0,543.0,-351.0,471.0
19:49:56.652000,-172.0,36.0,-29.0,-784.0,-546.0,-25.0,543.0,-351.0,471.0
19:49:56.656000,-116.0,26.0,-61.0,-824.0,-452.0,-45.0,543.0,-351.0,471.0
19:49:56.661000,-91.0,6.0,-144.0,-824.0,-332.0,-47.0,564.0,-354.0,463.0
19:49:56.666000,-98.0,15.0,-139.0,-756.0,-324.0,-31.0,564.0,-354.0,463.0
19:49:56.671000,-74.0,0.0,-123.0,-751.0,-390.0,-25.0,552.0,-349.0,466.0
19:49:56.675000,-35.0,-17.0,-158.0,-822.0,-441.0,-30.0,552.0,-349.0,466.0
19:49:56.680000,-35.0,-17.0,-158.0,-869.0,-394.0,-43.0,552.0,-349.0,466.0
19:49:56.684000,-16.0,-27.0,-221.0,-833.0,-301.0,-35.0,549.0,-349.0,460.0
19:49:56.690000,-18.0,-47.0,-219.0,-746.0,-288.0,-25.0,549.0,-349.0,460.0
19:49:56.694000,-55.0,-52.0,-131.0,-738.0,-316.0,-39.0,562.0,-349.0,465.0
19:49:56.699000,-108.0,-18.0,-99.0,-877.0,-315.0,-50.0,562.0,-349.0,465.0
19:49:56.703000,-112.0,-4.0,-191.0,-981.0,-359.0,-41.0,562.0,-349.0,465.0
19:49:56.708000,-116.0,-16.0,-232.0,-949.0,-413.0,-40.0,558.0,-357.0,468.0
19:49:56.713000,-137.0,-18.0,-230.0,-898.0,-397.0,-53.0,558.0,-357.0,468.0
19:49:56.718000,-102.0,-33.0,-242.0,-853.0,-372.0,-38.0,559.0,-351.0,466.0
19:49:56.722000,-90.0,-79.0,-233.0,-786.0,-360.0,-29.0,559.0,-351.0,466.0
19:49:56.727000,-74.0,-82.0,-194.0,-779.0,-354.0,-35.0,556.0,-351.0,460.0
19:49:56.732000,-79.0,-74.0,-164.0,-878.0,-330.0,-31.0,556.0,-351.0,460.0
19:49:56.736000,-92.0,-67.0,-210.0,-956.0,-311.0,-27.0,556.0,-351.0,460.0
19:49:56.741000,-107.0,-65.0,-230.0,-956.0,-311.0,-27.0,547.0,-355.0,474.0
19:49:56.746000,-127.0,-73.0,-205.0,-949.0,-313.0,-13.0,547.0,-355.0,474.0
19:49:56.751000,-101.0,-54.0,-215.0,-923.0,-283.0,-25.0,568.0,-354.0,460.0
19:49:56.755000,-112.0,-58.0,-194.0,-921.0,-300.0,-21.0,568.0,-354.0,460.0
19:49:56.759000,-119.0,-47.0,-120.0,-910.0,-362.0,-8.0,568.0,-354.0,460.0
19:49:56.765000,-115.0,-50.0,-102.0,-917.0,-341.0,-6.0,562.0,-345.0,456.0
19:49:56.769000,-102.0,-65.0,-158.0,-935.0,-268.0,11.0,562.0,-345.0,456.0
19:49:56.774000,-102.0,-65.0,-158.0,-907.0,-233.0,12.0,565.0,-352.0,454.0
19:49:56.779000,-121.0,-24.0,-177.0,-886.0,-238.0,9.0,565.0,-352.0,454.0
19:49:56.783000,-121.0,-24.0,-177.0,-929.0,-260.0,9.0,565.0,-352.0,454.0
19:49:56.788000,-114.0,-12.0,-182.0,-982.0,-291.0,6.0,558.0,-351.0,459.0
19:49:56.793000,-86.0,-10.0,-186.0,-975.0,-329.0,10.0,558.0,-351.0,459.0
19:49:56.798000,-79.0,-3.0,-186.0,-933.0,-356.0,19.0,558.0,-343.0,462.0
19:49:56.802000,-67.0,10.0,-156.0,-897.0,-345.0,25.0,558.0,-343.0,462.0
19:49:56.806000,-70.0,23.0,-137.0,-913.0,-308.0,36.0,558.0,-343.0,462.0
19:49:56.812000,-36.0,13.0,-165.0,-950.0,-297.0,36.0,565.0,-351.0,457.0
19:49:56.816000,-10.0,12.0,-223.0,-928.0,-316.0,26.0,565.0,-351.0,457.0
19:49:56.821000,-23.0,18.0,-230.0,-880.0,-311.0,15.0,556.0,-346.0,469.0
19:49:56.826000,-33.0,32.0,-198.0,-886.0,-289.0,12.0,556.0,-346.0,469.0
19:49:56.830000,-31.0,28.0,-205.0,-930.0,-293.0,-5.0,556.0,-346.0,469.0
19:49:56.835000,-13.0,47.0,-242.0,-959.0,-339.0,-14.0,561.0,-345.0,457.0
19:49:56.840000,-12.0,49.0,-240.0,-956.0,-366.0,-7.0,561.0,-345.0,457.0
19:49:56.845000,2.0,49.0,-214.0,-956.0,-366.0,-7.0,556.0,-346.0,466.0
19:49:56.849000,44.0,35.0,-217.0,-928.0,-330.0,-12.0,556.0,-346.0,466.0
19:49:56.853000,50.0,44.0,-235.0,-911.0,-330.0,-6.0,556.0,-346.0,466.0
19:49:56.859000,39.0,60.0,-219.0,-916.0,-325.0,-1.0,562.0,-343.0,468.0
19:49:56.863000,41.0,70.0,-202.0,-960.0,-283.0,5.0,562.0,-343.0,468.0
19:49:56.868000,46.0,53.0,-186.0,-960.0,-283.0,5.0,565.0,-346.0,457.0
19:49:56.873000,58.0,46.0,-139.0,-924.0,-282.0,7.0,565.0,-346.0,457.0
19:49:56.877000,36.0,61.0,-102.0,-899.0,-292.0,-2.0,565.0,-346.0,457.0
19:49:56.882000,17.0,83.0,-129.0,-940.0,-263.0,-8.0,559.0,-340.0,474.0
19:49:56.887000,9.0,79.0,-173.0,-991.0,-207.0,-17.0,559.0,-340.0,474.0
19:49:56.892000,-7.0,51.0,-167.0,-966.0,-202.0,-5.0,558.0,-349.0,478.0
19:49:56.896000,-7.0,51.0,-167.0,-897.0,-223.0,-5.0,558.0,-349.0,478.0
19:49:56.900000,-32.0,67.0,-140.0,-877.0,-223.0,-10.0,558.0,-349.0,478.0
19:49:56.906000,-48.0,74.0,-145.0,-911.0,-224.0,-3.0,559.0,-342.0,468.0
19:49:56.910000,-52.0,87.0,-164.0,-942.0,-256.0,-4.0,559.0,-342.0,468.0
19:49:56.915000,-57.0,98.0,-165.0,-960.0,-305.0,-10.0,555.0,-342.0,469.0
19:49:56.920000,-39.0,114.0,-146.0,-964.0,-333.0,-14.0,555.0,-342.0,469.0
19:49:56.924000,-23.0,116.0,-131.0,-957.0,-321.0,-7.0,555.0,-342.0,469.0
19:49:56.929000,16.0,98.0,-144.0,-936.0,-293.0,-7.0,561.0,-342.0,474.0
19:49:56.934000,24.0,102.0,-145.0,-915.0,-280.0,-6.0,561.0,-342.0,474.0
19:49:56.939000,19.0,110.0,-133.0,-915.0,-271.0,-7.0,562.0,-337.0,468.0
19:49:56.943000,30.0,112.0,-135.0,-921.0,-275.0,-11.0,562.0,-337.0,468.0
19:49:56.947000,43.0,107.0,-135.0,-917.0,-283.0,-10.0,562.0,-337.0,468.0
19:49:56.953000,36.0,95.0,-128.0,-915.0,-264.0,-9.0,559.0,-337.0,471.0
19:49:56.957000,49.0,95.0,-158.0,-920.0,-240.0,-21.0,559.0,-337.0,471.0
19:49:56.962000,77.0,110.0,-189.0,-920.0,-240.0,-21.0,561.0,-337.0,477.0
19:49:56.967000,77.0,105.0,-170.0,-915.0,-247.0,-19.0,561.0,-337.0,477.0
19:49:56.971000,74.0,112.0,-135.0,-906.0,-274.0,-15.0,561.0,-337.0,477.0
19:49:56.976000,53.0,114.0,-149.0,-917.0,-287.0,-14.0,561.0,-339.0,469.0
19:49:56.981000,59.0,130.0,-171.0,-925.0,-287.0,-20.0,561.0,-339.0,469.0
19:49:56.986000,56.0,127.0,-135.0,-913.0,-304.0,-24.0,553.0,-336.0,472.0
19:49:56.990000,23.0,132.0,-106.0,-910.0,-305.0,-13.0,553.0,-336.0,472.0
19:49:56.994000,23.0,132.0,-106.0,-932.0,-256.0,-15.0,553.0,-336.0,472.0
19:49:57.000000,5.0,138.0,-187.0,-969.0,-216.0,-22.0,556.0,-337.0,481.0
19:49:57.004000,21.0,151.0,-216.0,-973.0,-236.0,-36.0,556.0,-337.0,481.0
19:49:57.009000,21.0,151.0,-216.0,-933.0,-290.0,-32.0,558.0,-334.0,483.0
19:49:57.014000,39.0,128.0,-189.0,-894.0,-330.0,-22.0,558.0,-334.0,483.0
19:49:57.018000,45.0,114.0,-144.0,-871.0,-317.0,-26.0,558.0,-334.0,483.0
19:49:57.023000,58.0,98.0,-133.0,-867.0,-283.0,-20.0,565.0,-333.0,477.0
19:49:57.028000,65.0,77.0,-165.0,-865.0,-282.0,-29.0,565.0,-333.0,477.0
19:49:57.033000,93.0,75.0,-172.0,-874.0,-328.0,-25.0,561.0,-340.0,483.0
19:49:57.037000,102.0,51.0,-140.0,-910.0,-371.0,-31.0,561.0,-340.0,483.0
19:49:57.041000,122.0,64.0,-119.0,-957.0,-369.0,-34.0,561.0,-340.0,483.0
19:49:57.047000,134.0,45.0,-139.0,-989.0,-333.0,-19.0,565.0,-328.0,468.0
19:49:57.051000,157.0,37.0,-182.0,-980.0,-298.0,-23.0,565.0,-328.0,468.0
19:49:57.056000,184.0,18.0,-226.0,-980.0,-298.0,-23.0,543.0,-327.0,493.0
19:49:57.061000,168.0,14.0,-247.0,-970.0,-268.0,-10.0,543.0,-327.0,493.0
19:49:57.065000,127.0,16.0,-240.0,-988.0,-220.0,-3.0,543.0,-327.0,493.0
19:49:57.070000,79.0,9.0,-250.0,-988.0,-220.0,-3.0,559.0,-327.0,474.0
19:49:57.075000,34.0,42.0,-277.0,-1014.0,-163.0,-13.0,559.0,-327.0,474.0
19:49:57.080000,11.0,46.0,-314.0,-1042.0,-139.0,-20.0,559.0,-333.0,478.0
19:49:57.084000,-11.0,42.0,-331.0,-1051.0,-139.0,-13.0,559.0,-333.0,478.0
19:49:57.088000,-46.0,41.0,-298.0,-1030.0,-157.0,-13.0,559.0,-333.0,478.0
19:49:57.094000,-84.0,42.0,-236.0,-1012.0,-188.0,-13.0,561.0,-328.0,490.0
19:49:57.098000,-111.0,32.0,-206.0,-1021.0,-205.0,-13.0,561.0,-328.0,490.0
19:49:57.103000,-119.0,39.0,-242.0,-1036.0,-190.0,-24.0,555.0,-315.0,480.0
19:49:57.108000,-107.0,47.0,-260.0,-1013.0,-186.0,-38.0,555.0,-315.0,480.0
19:49:57.112000,-107.0,47.0,-260.0,-980.0,-203.0,-39.0,555.0,-315.0,480.0
19:49:57.117000,-91.0,51.0,-266.0,-972.0,-186.0,-46.0,556.0,-316.0,475.0
19:49:57.122000,-74.0,58.0,-289.0,-978.0,-139.0,-43.0,556.0,-316.0,475.0
19:49:57.127000,-78.0,60.0,-315.0,-982.0,-103.0,-36.0,553.0,-324.0,475.0
19:49:57.131000,-99.0,72.0,-320.0,-979.0,-98.0,-40.0,553.0,-324.0,475.0
19:49:57.135000,-104.0,75.0,-309.0,-969.0,-119.0,-47.0,553.0,-324.0,475.0
19:49:57.141000,-96.0,73.0,-301.0,-957.0,-141.0,-50.0,553.0,-315.0,483.0
19:49:57.145000,-102.0,77.0,-289.0,-946.0,-141.0,-52.0,553.0,-315.0,483.0
19:49:57.150000,-116.0,86.0,-273.0,-951.0,-112.0,-61.0,540.0,-321.0,481.0
19:49:57.155000,-119.0,96.0,-268.0,-964.0,-88.0,-64.0,540.0,-321.0,481.0
19:49:57.159000,-119.0,89.0,-261.0,-968.0,-90.0,-64.0,540.0,-321.0,481.0
19:49:57.164000,-112.0,84.0,-262.0,-961.0,-98.0,-74.0,550.0,-310.0,483.0
19:49:57.169000,-100.0,85.0,-275.0,-959.0,-97.0,-81.0,550.0,-310.0,483.0
19:49:57.174000,-88.0,86.0,-287.0,-959.0,-97.0,-81.0,552.0,-309.0,486.0
19:49:57.178000,-91.0,95.0,-279.0,-962.0,-91.0,-81.0,552.0,-309.0,486.0
19:49:57.182000,-94.0,90.0,-254.0,-973.0,-86.0,-74.0,552.0,-309.0,486.0
19:49:57.188000,-102.0,98.0,-231.0,-991.0,-78.0,-74.0,556.0,-313.0,495.0
19:49:57.192000,-107.0,95.0,-211.0,-996.0,-69.0,-73.0,556.0,-313.0,495.0
19:49:57.197000,-104.0,103.0,-188.0,-986.0,-62.0,-72.0,553.0,-330.0,484.0
19:49:57.202000,-92.0,110.0,-164.0,-976.0,-58.0,-78.0,553.0,-330.0,484.0
19:49:57.206000,-80.0,121.0,-148.0,-975.0,-65.0,-80.0,553.0,-330.0,484.0
19:49:57.211000,-69.0,122.0,-155.0,-970.0,-75.0,-76.0,550.0,-310.0,489.0
19:49:57.216000,-51.0,121.0,-179.0,-951.0,-82.0,-73.0,550.0,-310.0,489.0
19:49:57.221000,-35.0,114.0,-186.0,-915.0,-90.0,-72.0,556.0,-319.0,493.0
19:49:57.225000,-35.0,114.0,-186.0,-881.0,-101.0,-72.0,556.0,-319.0,493.0
19:49:57.229000,-7.0,104.0,-176.0,-865.0,-94.0,-77.0,556.0,-319.0,493.0
19:49:57.235000,18.0,85.0,-176.0,-855.0,-55.0,-78.0,537.0,-307.0,489.0
19:49:57.239000,35.0,63.0,-189.0,-844.0,-4.0,-79.0,537.0,-307.0,489.0
19:49:57.244000,39.0,51.0,-203.0,-842.0,46.0,-83.0,538.0,-310.0,490.0
19:49:57.249000,18.0,53.0,-205.0,-858.0,83.0,-76.0,538.0,-310.0,490.0
19:49:57.253000,-5.0,42.0,-186.0,-879.0,97.0,-66.0,538.0,-310.0,490.0
19:49:57.258000,-23.0,25.0,-169.0,-894.0,97.0,-72.0,540.0,-318.0,493.0
19:49:57.263000,-35.0,27.0,-165.0,-908.0,104.0,-79.0,540.0,-318.0,493.0
19:49:57.268000,-57.0,37.0,-165.0,-918.0,115.0,-73.0,547.0,-312.0,492.0
19:49:57.272000,-81.0,39.0,-149.0,-913.0,106.0,-74.0,547.0,-312.0,492.0
19:49:57.280000,-106.0,39.0,-107.0,-867.0,38.0,-78.0,549.0,-303.0,492.0
19:49:57.282000,-106.0,39.0,-107.0,-867.0,38.0,-78.0,549.0,-303.0,492.0
19:49:57.286000,-88.0,50.0,-81.0,-867.0,7.0,-89.0,549.0,-303.0,492.0
19:49:57.291000,-58.0,51.0,-65.0,-850.0,7.0,-89.0,550.0,-309.0,492.0
19:49:57.296000,-21.0,51.0,-68.0,-854.0,0.0,-86.0,550.0,-309.0,492.0
19:49:57.301000,22.0,44.0,-77.0,-861.0,18.0,-86.0,550.0,-310.0,492.0
19:49:57.305000,58.0,24.0,-67.0,-864.0,49.0,-78.0,550.0,-310.0,492.0
19:49:57.309000,70.0,24.0,-46.0,-873.0,78.0,-72.0,550.0,-310.0,492.0
19:49:57.315000,70.0,18.0,-24.0,-900.0,121.0,-68.0,561.0,-304.0,490.0
19:49:57.319000,58.0,15.0,-3.0,-948.0,181.0,-59.0,561.0,-304.0,490.0
19:49:57.324000,37.0,16.0,6.0,-999.0,213.0,-55.0,558.0,-309.0,499.0
19:49:57.329000,18.0,16.0,5.0,-1035.0,204.0,-52.0,558.0,-309.0,499.0
19:49:57.333000,18.0,16.0,5.0,-1055.0,185.0,-63.0,558.0,-309.0,499.0
19:49:57.338000,17.0,25.0,5.0,-1062.0,160.0,-64.0,547.0,-309.0,498.0
19:49:57.343000,6.0,28.0,14.0,-1062.0,138.0,-61.0,547.0,-309.0,498.0
19:49:57.348000,-20.0,56.0,28.0,-1064.0,125.0,-64.0,543.0,-306.0,501.0
19:49:57.352000,-11.0,65.0,28.0,-1059.0,92.0,-62.0,543.0,-306.0,501.0
19:49:57.356000,1.0,74.0,1.0,-1035.0,59.0,-61.0,543.0,-306.0,501.0
19:49:57.362000,24.0,82.0,-44.0,-990.0,40.0,-59.0,553.0,-310.0,501.0
19:49:57.366000,53.0,81.0,-61.0,-935.0,27.0,-69.0,553.0,-310.0,501.0
19:49:57.371000,65.0,90.0,-54.0,-917.0,18.0,-76.0,544.0,-316.0,499.0
19:49:57.376000,86.0,88.0,-59.0,-939.0,18.0,-73.0,544.0,-316.0,499.0
19:49:57.380000,91.0,82.0,-85.0,-944.0,24.0,-82.0,544.0,-316.0,499.0
19:49:57.385000,93.0,84.0,-93.0,-939.0,34.0,-84.0,567.0,-304.0,511.0
19:49:57.390000,113.0,63.0,-97.0,-947.0,48.0,-97.0,567.0,-304.0,511.0
19:49:57.395000,107.0,72.0,-112.0,-947.0,48.0,-97.0,555.0,-304.0,499.0
19:49:57.399000,89.0,51.0,-118.0,-961.0,66.0,-99.0,555.0,-304.0,499.0
19:49:57.403000,77.0,43.0,-121.0,-960.0,78.0,-100.0,555.0,-304.0,499.0
19:49:57.409000,82.0,30.0,-123.0,-943.0,95.0,-127.0,553.0,-312.0,504.0
19:49:57.413000,70.0,32.0,-137.0,-942.0,116.0,-139.0,553.0,-312.0,504.0
19:49:57.418000,65.0,32.0,-158.0,-979.0,113.0,-143.0,553.0,-306.0,498.0
19:49:57.423000,74.0,25.0,-158.0,-1020.0,68.0,-143.0,553.0,-306.0,498.0
19:49:57.427000,77.0,19.0,-144.0,-1024.0,1.0,-136.0,553.0,-306.0,498.0
19:49:57.432000,81.0,23.0,-195.0,-1016.0,0.0,-138.0,532.0,-300.0,507.0
19:49:57.437000,101.0,14.0,-273.0,-1006.0,63.0,-141.0,532.0,-300.0,507.0
19:49:57.442000,105.0,18.0,-301.0,-988.0,98.0,-133.0,555.0,-309.0,490.0
19:49:57.446000,105.0,18.0,-301.0,-990.0,110.0,-113.0,555.0,-309.0,490.0
19:49:57.450000,88.0,0.0,-325.0,-979.0,104.0,-120.0,555.0,-309.0,490.0
19:49:57.456000,82.0,-8.0,-338.0,-951.0,84.0,-153.0,538.0,-292.0,493.0
19:49:57.460000,101.0,-12.0,-349.0,-980.0,58.0,-170.0,538.0,-292.0,493.0
19:49:57.465000,119.0,0.0,-382.0,-1024.0,39.0,-177.0,549.0,-297.0,498.0
19:49:57.469000,140.0,-4.0,-422.0,-1045.0,53.0,-163.0,549.0,-297.0,498.0
19:49:57.474000,144.0,-33.0,-436.0,-1028.0,73.0,-165.0,549.0,-297.0,498.0
19:49:57.479000,158.0,-57.0,-427.0,-1023.0,94.0,-187.0,555.0,-288.0,508.0
19:49:57.484000,161.0,-64.0,-427.0,-1026.0,113.0,-176.0,555.0,-288.0,508.0
19:49:57.489000,171.0,-73.0,-415.0,-1030.0,88.0,-162.0,544.0,-288.0,508.0
19:49:57.493000,173.0,-103.0,-423.0,-1041.0,131.0,-146.0,544.0,-288.0,508.0
19:49:57.497000,163.0,-129.0,-449.0,-1043.0,196.0,-140.0,544.0,-288.0,508.0
19:49:57.503000,149.0,-134.0,-504.0,-1021.0,221.0,-132.0,547.0,-288.0,501.0
19:49:57.507000,93.0,-156.0,-508.0,-1021.0,221.0,-132.0,547.0,-288.0,501.0
19:49:57.511000,57.0,-168.0,-492.0,-1070.0,217.0,-109.0,544.0,-285.0,508.0
19:49:57.517000,47.0,-167.0,-458.0,-1070.0,217.0,-109.0,544.0,-285.0,508.0
19:49:57.521000,20.0,-114.0,-448.0,-1086.0,164.0,-134.0,544.0,-285.0,508.0
19:49:57.526000,9.0,-87.0,-433.0,-1186.0,142.0,-154.0,553.0,-280.0,496.0
19:49:57.531000,13.0,-75.0,-443.0,-1202.0,123.0,-111.0,553.0,-280.0,496.0
19:49:57.536000,-4.0,-53.0,-445.0,-1189.0,94.0,-114.0,543.0,-274.0,502.0
19:49:57.540000,-29.0,-42.0,-423.0,-1186.0,87.0,-89.0,543.0,-274.0,502.0
19:49:57.544000,-29.0,-42.0,-423.0,-1175.0,52.0,-74.0,543.0,-274.0,502.0
19:49:57.550000,-28.0,-51.0,-444.0,-1132.0,82.0,-74.0,558.0,-273.0,502.0
19:49:57.554000,-28.0,-51.0,-444.0,-1063.0,82.0,-87.0,558.0,-273.0,502.0
19:49:57.558000,-23.0,-25.0,-478.0,-1024.0,137.0,-99.0,544.0,-270.0,492.0
19:49:57.564000,-25.0,-24.0,-464.0,-942.0,95.0,-79.0,544.0,-270.0,492.0
19:49:57.568000,-37.0,-24.0,-428.0,-930.0,74.0,-98.0,544.0,-270.0,492.0
19:49:57.573000,-60.0,-44.0,-420.0,-1006.0,199.0,-70.0,538.0,-261.0,502.0
19:49:57.578000,-127.0,-34.0,-470.0,-1065.0,211.0,-12.0,538.0,-261.0,502.0
19:49:57.583000,-174.0,-74.0,-480.0,-1015.0,142.0,20.0,553.0,-270.0,493.0
19:49:57.587000,-187.0,-96.0,-447.0,-905.0,-9.0,8.0,553.0,-270.0,493.0
19:49:57.591000,-198.0,-107.0,-436.0,-970.0,-26.0,10.0,553.0,-270.0,493.0
19:49:57.597000,-214.0,-123.0,-408.0,-1047.0,31.0,66.0,558.0,-265.0,501.0
19:49:57.601000,-183.0,-200.0,-378.0,-978.0,10.0,39.0,558.0,-265.0,501.0
19:49:57.605000,-165.0,-191.0,-448.0,-981.0,-4.0,8.0,550.0,-258.0,504.0
19:49:57.611000,-132.0,-182.0,-438.0,-1019.0,-28.0,8.0,550.0,-258.0,504.0
19:49:57.615000,-115.0,-182.0,-386.0,-1019.0,-28.0,8.0,550.0,-258.0,504.0
19:49:57.619000,-72.0,-211.0,-366.0,-983.0,-61.0,-5.0,561.0,-267.0,498.0
19:49:57.625000,-39.0,-183.0,-371.0,-888.0,-118.0,-48.0,561.0,-267.0,498.0
19:49:57.630000,-79.0,-104.0,-311.0,-992.0,-104.0,-106.0,558.0,-256.0,504.0
19:49:57.634000,-44.0,-86.0,-333.0,-1118.0,-103.0,-98.0,558.0,-256.0,504.0
19:49:57.638000,-30.0,-86.0,-372.0,-961.0,-229.0,-94.0,558.0,-256.0,504.0
19:49:57.644000,-77.0,-9.0,-324.0,-921.0,-256.0,-107.0,552.0,-256.0,505.0
19:49:57.648000,-104.0,7.0,-333.0,-1039.0,-84.0,-126.0,552.0,-256.0,505.0
19:49:57.653000,-112.0,0.0,-380.0,-1113.0,22.0,-123.0,553.0,-264.0,511.0
19:49:57.658000,-121.0,-40.0,-458.0,-1061.0,-13.0,-86.0,553.0,-264.0,511.0
19:49:57.662000,-121.0,-40.0,-458.0,-943.0,-52.0,-64.0,553.0,-264.0,511.0
19:49:57.667000,-114.0,-54.0,-506.0,-858.0,54.0,-82.0,559.0,-252.0,495.0
19:49:57.672000,-128.0,-72.0,-533.0,-867.0,38.0,-32.0,559.0,-252.0,495.0
19:49:57.677000,-123.0,-116.0,-438.0,-827.0,-121.0,-48.0,561.0,-261.0,498.0
19:49:57.681000,-137.0,-96.0,-408.0,-897.0,-116.0,-110.0,561.0,-261.0,498.0
19:49:57.685000,-138.0,-120.0,-442.0,-1147.0,-140.0,-93.0,561.0,-261.0,498.0
19:49:57.691000,-119.0,-131.0,-404.0,-1199.0,-94.0,-65.0,567.0,-256.0,502.0
19:49:57.695000,-97.0,-183.0,-411.0,-1099.0,97.0,-37.0,567.0,-256.0,502.0
19:49:57.700000,-60.0,-199.0,-529.0,-1025.0,151.0,-50.0,549.0,-243.0,493.0
19:49:57.705000,-30.0,-173.0,-591.0,-982.0,60.0,-32.0,549.0,-243.0,493.0
19:49:57.709000,30.0,-203.0,-553.0,-930.0,-49.0,-28.0,549.0,-243.0,493.0
19:49:57.714000,62.0,-192.0,-497.0,-905.0,-70.0,-42.0,553.0,-241.0,498.0
19:49:57.719000,63.0,-189.0,-464.0,-880.0,14.0,-28.0,553.0,-241.0,498.0
19:49:57.723000,25.0,-115.0,-438.0,-880.0,14.0,-28.0,555.0,-241.0,501.0
19:49:57.728000,-11.0,-84.0,-433.0,-934.0,85.0,-4.0,555.0,-241.0,501.0
19:49:57.732000,-96.0,-60.0,-394.0,-974.0,73.0,8.0,555.0,-241.0,501.0
19:49:57.738000,-158.0,-9.0,-364.0,-904.0,69.0,-54.0,555.0,-235.0,495.0
19:49:57.742000,-217.0,14.0,-325.0,-990.0,3.0,-27.0,555.0,-235.0,495.0
19:49:57.747000,-137.0,68.0,-406.0,-1232.0,10.0,-35.0,538.0,-238.0,516.0
19:49:57.752000,-21.0,27.0,-439.0,-1279.0,108.0,-72.0,538.0,-238.0,516.0
19:49:57.756000,6.0,-39.0,-444.0,-1127.0,81.0,41.0,538.0,-238.0,516.0
19:49:57.761000,-79.0,44.0,-343.0,-951.0,-34.0,55.0,550.0,-244.0,501.0
19:49:57.766000,-143.0,43.0,-248.0,-699.0,-60.0,-13.0,550.0,-244.0,501.0
19:49:57.770000,-114.0,53.0,-228.0,-730.0,129.0,1.0,547.0,-237.0,508.0
19:49:57.775000,-114.0,53.0,-228.0,-1047.0,275.0,33.0,547.0,-237.0,508.0
19:49:57.779000,-161.0,3.0,-307.0,-1038.0,313.0,-26.0,547.0,-237.0,508.0
19:49:57.785000,-181.0,69.0,-432.0,-974.0,324.0,-61.0,540.0,-232.0,511.0
19:49:57.789000,-189.0,114.0,-494.0,-1006.0,215.0,-71.0,540.0,-232.0,511.0
19:49:57.794000,-252.0,116.0,-382.0,-988.0,35.0,-67.0,556.0,-241.0,511.0
19:49:57.799000,-274.0,98.0,-238.0,-1031.0,19.0,-18.0,556.0,-241.0,511.0
19:49:57.803000,-361.0,130.0,-158.0,-1082.0,88.0,10.0,556.0,-241.0,511.0
19:49:57.808000,-288.0,95.0,-178.0,-1105.0,17.0,10.0,549.0,-226.0,508.0
19:49:57.813000,-289.0,111.0,-238.0,-1014.0,18.0,-17.0,549.0,-226.0,508.0
19:49:57.817000,-231.0,53.0,-242.0,-905.0,-20.0,1.0,552.0,-244.0,513.0
19:49:57.822000,-188.0,44.0,-216.0,-761.0,-119.0,74.0,552.0,-244.0,513.0
19:49:57.826000,-231.0,49.0,-227.0,-723.0,-84.0,18.0,552.0,-244.0,513.0
19:49:57.832000,-182.0,118.0,-256.0,-634.0,-95.0,-91.0,553.0,-232.0,513.0
19:49:57.836000,-151.0,191.0,-266.0,-634.0,-95.0,-91.0,553.0,-232.0,513.0
19:49:57.841000,-147.0,262.0,-270.0,-705.0,-34.0,-94.0,541.0,-231.0,516.0
19:49:57.846000,-152.0,227.0,-250.0,-879.0,175.0,-25.0,541.0,-231.0,516.0
19:49:57.850000,-186.0,142.0,-338.0,-1013.0,244.0,78.0,541.0,-231.0,516.0
19:49:57.854000,-176.0,225.0,-456.0,-948.0,109.0,-21.0,538.0,-232.0,517.0
19:49:57.860000,-194.0,233.0,-409.0,-825.0,-60.0,-104.0,538.0,-232.0,517.0
19:49:57.864000,-156.0,218.0,-402.0,-982.0,-50.0,-10.0,547.0,-238.0,505.0
19:49:57.869000,-81.0,154.0,-563.0,-1028.0,43.0,26.0,547.0,-238.0,505.0
19:49:57.873000,-81.0,154.0,-563.0,-923.0,-21.0,46.0,547.0,-238.0,505.0
19:49:57.879000,-74.0,204.0,-468.0,-843.0,-58.0,-3.0,546.0,-229.0,519.0
19:49:57.883000,-74.0,204.0,-468.0,-878.0,11.0,-16.0,546.0,-229.0,519.0
19:49:57.888000,-43.0,186.0,-507.0,-798.0,50.0,37.0,541.0,-231.0,520.0
19:49:57.893000,-32.0,158.0,-526.0,-751.0,43.0,-25.0,541.0,-231.0,520.0
19:49:57.897000,0.0,145.0,-553.0,-796.0,38.0,-86.0,541.0,-231.0,520.0
19:49:57.902000,0.0,196.0,-588.0,-806.0,34.0,-55.0,541.0,-225.0,513.0
19:49:57.907000,-9.0,189.0,-572.0,-870.0,30.0,-14.0,541.0,-225.0,513.0
19:49:57.911000,-4.0,140.0,-510.0,-994.0,68.0,-32.0,537.0,-219.0,520.0
19:49:57.916000,5.0,186.0,-519.0,-1075.0,111.0,-35.0,537.0,-219.0,520.0
19:49:57.924000,63.0,86.0,-387.0,-1011.0,44.0,-61.0,526.0,-220.0,529.0
19:49:57.926000,63.0,86.0,-387.0,-1011.0,44.0,-61.0,526.0,-220.0,529.0
19:49:57.930000,68.0,135.0,-451.0,-973.0,76.0,-52.0,526.0,-220.0,529.0
19:49:57.935000,108.0,144.0,-507.0,-897.0,76.0,-41.0,538.0,-211.0,531.0
19:49:57.940000,92.0,151.0,-461.0,-842.0,88.0,-45.0,538.0,-211.0,531.0
19:49:57.944000,29.0,175.0,-341.0,-842.0,88.0,-45.0,531.0,-210.0,523.0
19:49:57.949000,-11.0,163.0,-299.0,-894.0,168.0,-8.0,531.0,-210.0,523.0
19:49:57.953000,-27.0,155.0,-321.0,-1008.0,218.0,-24.0,531.0,-210.0,523.0
19:49:57.958000,-49.0,172.0,-336.0,-969.0,191.0,-50.0,529.0,-207.0,523.0
19:49:57.963000,-28.0,140.0,-383.0,-1004.0,175.0,-31.0,529.0,-207.0,523.0
19:49:57.967000,-20.0,122.0,-429.0,-1045.0,173.0,-25.0,526.0,-219.0,526.0
19:49:57.973000,-22.0,130.0,-405.0,-939.0,82.0,-39.0,526.0,-219.0,526.0
19:49:57.977000,-22.0,130.0,-405.0,-882.0,13.0,-68.0,526.0,-219.0,526.0
19:49:57.982000,37.0,137.0,-408.0,-854.0,33.0,-73.0,519.0,-199.0,532.0
19:49:57.987000,36.0,125.0,-414.0,-881.0,101.0,-63.0,519.0,-199.0,532.0
19:49:57.991000,36.0,125.0,-414.0,-912.0,177.0,-58.0,528.0,-204.0,532.0
19:49:57.996000,57.0,104.0,-450.0,-889.0,193.0,-71.0,528.0,-204.0,532.0
19:49:58.000000,37.0,124.0,-457.0,-857.0,178.0,-74.0,528.0,-204.0,532.0
19:49:58.005000,7.0,124.0,-434.0,-886.0,201.0,-66.0,523.0,-202.0,526.0
19:49:58.010000,-5.0,115.0,-440.0,-948.0,226.0,-83.0,523.0,-202.0,526.0
19:49:58.014000,-6.0,111.0,-485.0,-923.0,188.0,-110.0,514.0,-202.0,520.0
19:49:58.020000,-3.0,121.0,-507.0,-840.0,141.0,-123.0,514.0,-202.0,520.0
19:49:58.024000,16.0,111.0,-464.0,-793.0,144.0,-130.0,514.0,-202.0,520.0
19:49:58.029000,37.0,108.0,-433.0,-818.0,192.0,-143.0,516.0,-195.0,534.0
19:49:58.034000,32.0,110.0,-446.0,-854.0,238.0,-139.0,516.0,-195.0,534.0
19:49:58.038000,25.0,98.0,-445.0,-854.0,255.0,-139.0,519.0,-193.0,529.0
19:49:58.043000,34.0,84.0,-434.0,-873.0,256.0,-147.0,519.0,-193.0,529.0
19:49:58.047000,42.0,75.0,-417.0,-874.0,257.0,-145.0,519.0,-193.0,529.0
19:49:58.052000,44.0,58.0,-404.0,-874.0,257.0,-145.0,505.0,-192.0,522.0
19:49:58.057000,39.0,41.0,-371.0,-885.0,274.0,-140.0,505.0,-192.0,522.0
