hh:mm:ss.ms,gyroX[mdps],gyroY[mdps],gyroZ[mdps],accX[mg],accY[mg],accZ[mg],magX[mG],magY[mG],magZ[mG]
19:50:37.657000,-215.0,-4.0,353.0,-1108.0,-30.0,-26.0,718.0,-577.0,352.0
19:50:37.662000,-204.0,-11.0,360.0,-1088.0,-48.0,-19.0,718.0,-577.0,352.0
19:50:37.666000,-204.0,-11.0,360.0,-1090.0,-68.0,-12.0,718.0,-577.0,352.0
19:50:37.671000,-141.0,-14.0,366.0,-1115.0,-93.0,-5.0,705.0,-591.0,348.0
19:50:37.675000,-141.0,-14.0,366.0,-1158.0,-114.0,-4.0,705.0,-591.0,348.0
19:50:37.680000,-94.0,-2.0,377.0,-1219.0,-111.0,-8.0,702.0,-580.0,357.0
19:50:37.685000,-46.0,21.0,375.0,-1280.0,-80.0,-10.0,702.0,-580.0,357.0
19:50:37.689000,-7.0,55.0,361.0,-1317.0,-35.0,-12.0,702.0,-580.0,357.0
19:50:37.695000,16.0,92.0,347.0,-1321.0,15.0,-15.0,694.0,-591.0,355.0
19:50:37.699000,22.0,128.0,335.0,-1300.0,78.0,-16.0,694.0,-591.0,355.0
19:50:37.704000,5.0,158.0,320.0,-1261.0,147.0,-17.0,694.0,-594.0,354.0
19:50:37.709000,-30.0,179.0,298.0,-1203.0,201.0,-16.0,694.0,-594.0,354.0
19:50:37.713000,-77.0,184.0,269.0,-1128.0,225.0,-15.0,694.0,-594.0,354.0
19:50:37.718000,-126.0,179.0,238.0,-1050.0,216.0,-15.0,699.0,-592.0,349.0
19:50:37.723000,-165.0,162.0,206.0,-985.0,181.0,-18.0,699.0,-592.0,349.0
19:50:37.727000,-182.0,141.0,172.0,-945.0,137.0,-29.0,675.0,-592.0,366.0
19:50:37.732000,-174.0,119.0,136.0,-945.0,137.0,-29.0,675.0,-592.0,366.0
19:50:37.736000,-149.0,105.0,100.0,-974.0,100.0,-67.0,675.0,-592.0,366.0
19:50:37.742000,-119.0,102.0,67.0,-1019.0,120.0,-85.0,697.0,-597.0,355.0
19:50:37.746000,-97.0,110.0,42.0,-1019.0,120.0,-85.0,697.0,-597.0,355.0
19:50:37.751000,-83.0,126.0,28.0,-1047.0,147.0,-102.0,687.0,-595.0,361.0
19:50:37.756000,-79.0,147.0,30.0,-1043.0,169.0,-120.0,687.0,-595.0,361.0
19:50:37.760000,-84.0,165.0,33.0,-1013.0,190.0,-137.0,687.0,-595.0,361.0
19:50:37.765000,-95.0,175.0,33.0,-971.0,210.0,-148.0,688.0,-589.0,376.0
19:50:37.770000,-113.0,175.0,31.0,-916.0,225.0,-152.0,688.0,-589.0,376.0
19:50:37.774000,-130.0,159.0,28.0,-849.0,234.0,-149.0,688.0,-589.0,376.0
19:50:37.779000,-145.0,133.0,28.0,-780.0,235.0,-142.0,688.0,-589.0,376.0
19:50:37.783000,-145.0,133.0,28.0,-726.0,232.0,-127.0,688.0,-589.0,376.0
19:50:37.789000,-161.0,50.0,37.0,-698.0,218.0,-109.0,696.0,-585.0,361.0
19:50:37.793000,-161.0,50.0,37.0,-700.0,188.0,-98.0,696.0,-585.0,361.0
19:50:37.798000,-151.0,11.0,59.0,-738.0,149.0,-95.0,696.0,-580.0,366.0
19:50:37.803000,-128.0,-14.0,88.0,-811.0,120.0,-103.0,696.0,-580.0,366.0
19:50:37.807000,-91.0,-24.0,108.0,-906.0,121.0,-117.0,696.0,-580.0,366.0
19:50:37.812000,-54.0,-17.0,115.0,-1000.0,153.0,-125.0,691.0,-588.0,364.0
19:50:37.817000,-26.0,3.0,114.0,-1067.0,200.0,-128.0,691.0,-588.0,364.0
19:50:37.821000,-10.0,30.0,115.0,-1100.0,249.0,-131.0,691.0,-598.0,364.0
19:50:37.826000,-4.0,54.0,117.0,-1100.0,289.0,-133.0,691.0,-598.0,364.0
19:50:37.830000,-4.0,75.0,123.0,-1077.0,313.0,-129.0,691.0,-598.0,364.0
19:50:37.835000,-12.0,84.0,140.0,-1040.0,327.0,-119.0,694.0,-595.0,363.0
19:50:37.840000,-18.0,77.0,160.0,-999.0,343.0,-107.0,694.0,-595.0,363.0
19:50:37.845000,-24.0,53.0,175.0,-999.0,343.0,-107.0,688.0,-588.0,358.0
19:50:37.850000,-29.0,16.0,191.0,-941.0,359.0,-59.0,688.0,-588.0,358.0
19:50:37.854000,-32.0,-29.0,217.0,-941.0,359.0,-59.0,688.0,-588.0,358.0
19:50:37.859000,-23.0,-84.0,252.0,-921.0,309.0,4.0,694.0,-594.0,360.0
19:50:37.864000,-2.0,-141.0,282.0,-917.0,309.0,3.0,694.0,-594.0,360.0
19:50:37.868000,23.0,-193.0,305.0,-939.0,295.0,31.0,688.0,-589.0,358.0
19:50:37.873000,39.0,-232.0,329.0,-991.0,310.0,57.0,688.0,-589.0,358.0
19:50:37.877000,30.0,-252.0,361.0,-1073.0,352.0,82.0,688.0,-589.0,358.0
19:50:37.882000,2.0,-253.0,385.0,-1168.0,399.0,108.0,688.0,-598.0,367.0
19:50:37.887000,-31.0,-244.0,397.0,-1253.0,415.0,141.0,688.0,-598.0,367.0
19:50:37.892000,-37.0,-231.0,396.0,-1304.0,366.0,172.0,682.0,-594.0,361.0
19:50:37.897000,-3.0,-217.0,382.0,-1321.0,266.0,189.0,682.0,-594.0,361.0
19:50:37.901000,-3.0,-217.0,382.0,-1342.0,184.0,198.0,682.0,-594.0,361.0
19:50:37.906000,60.0,-203.0,358.0,-1405.0,183.0,208.0,669.0,-592.0,382.0
19:50:37.911000,122.0,-186.0,334.0,-1505.0,273.0,213.0,669.0,-592.0,382.0
19:50:37.915000,155.0,-169.0,321.0,-1611.0,429.0,210.0,669.0,-592.0,382.0
19:50:37.920000,142.0,-154.0,319.0,-1695.0,611.0,211.0,669.0,-592.0,382.0
19:50:37.924000,75.0,-146.0,330.0,-1731.0,766.0,222.0,669.0,-592.0,382.0
19:50:37.929000,-37.0,-147.0,357.0,-1697.0,835.0,235.0,685.0,-594.0,358.0
19:50:37.934000,-169.0,-164.0,394.0,-1584.0,770.0,238.0,685.0,-594.0,358.0
19:50:37.939000,-280.0,-194.0,424.0,-1422.0,595.0,220.0,682.0,-603.0,363.0
19:50:37.944000,-341.0,-228.0,421.0,-1287.0,391.0,190.0,682.0,-603.0,363.0
19:50:37.948000,-357.0,-257.0,368.0,-1219.0,207.0,159.0,682.0,-603.0,363.0
19:50:37.953000,-336.0,-279.0,296.0,-1198.0,44.0,121.0,681.0,-595.0,364.0
19:50:37.958000,-289.0,-284.0,233.0,-1193.0,-84.0,78.0,681.0,-595.0,364.0
19:50:37.962000,-231.0,-273.0,187.0,-1193.0,-84.0,78.0,681.0,-600.0,360.0
19:50:37.967000,-180.0,-241.0,154.0,-1191.0,-150.0,35.0,681.0,-600.0,360.0
19:50:37.971000,-154.0,-199.0,128.0,-1182.0,-142.0,-2.0,681.0,-600.0,360.0
19:50:37.976000,-162.0,-153.0,108.0,-1156.0,-91.0,-37.0,676.0,-598.0,355.0
19:50:37.981000,-196.0,-110.0,93.0,-1106.0,-45.0,-67.0,676.0,-598.0,355.0
19:50:37.986000,-231.0,-74.0,88.0,-1036.0,-50.0,-90.0,673.0,-598.0,354.0
19:50:37.991000,-248.0,-45.0,95.0,-945.0,-130.0,-114.0,673.0,-598.0,354.0
19:50:37.998000,-235.0,-19.0,108.0,-759.0,-391.0,-178.0,666.0,-589.0,354.0
19:50:38.000000,-196.0,4.0,108.0,-759.0,-391.0,-178.0,666.0,-589.0,354.0
19:50:38.004000,-196.0,4.0,108.0,-710.0,-478.0,-199.0,666.0,-589.0,354.0
19:50:38.009000,-147.0,25.0,95.0,-689.0,-516.0,-208.0,670.0,-595.0,357.0
19:50:38.014000,-98.0,42.0,74.0,-681.0,-522.0,-210.0,670.0,-595.0,357.0
19:50:38.019000,-53.0,52.0,55.0,-675.0,-520.0,-213.0,670.0,-594.0,355.0
19:50:38.023000,-8.0,54.0,48.0,-672.0,-519.0,-217.0,670.0,-594.0,355.0
19:50:38.028000,32.0,52.0,58.0,-682.0,-509.0,-219.0,670.0,-594.0,355.0
19:50:38.033000,69.0,46.0,79.0,-703.0,-487.0,-212.0,664.0,-589.0,358.0
19:50:38.037000,98.0,33.0,107.0,-715.0,-463.0,-198.0,664.0,-589.0,358.0
19:50:38.042000,114.0,11.0,140.0,-704.0,-451.0,-177.0,663.0,-591.0,373.0
19:50:38.047000,118.0,-19.0,189.0,-688.0,-455.0,-154.0,663.0,-591.0,373.0
19:50:38.051000,121.0,-60.0,249.0,-691.0,-467.0,-135.0,663.0,-591.0,373.0
19:50:38.056000,131.0,-107.0,303.0,-723.0,-468.0,-119.0,661.0,-592.0,360.0
19:50:38.061000,151.0,-157.0,333.0,-794.0,-449.0,-108.0,661.0,-592.0,360.0
19:50:38.066000,168.0,-196.0,347.0,-794.0,-449.0,-108.0,660.0,-594.0,364.0
19:50:38.070000,172.0,-215.0,372.0,-899.0,-446.0,-106.0,660.0,-594.0,364.0
19:50:38.075000,166.0,-213.0,449.0,-1012.0,-446.0,-116.0,660.0,-594.0,364.0
19:50:38.080000,168.0,-189.0,583.0,-1115.0,-509.0,-136.0,652.0,-600.0,367.0
19:50:38.085000,177.0,-152.0,724.0,-1299.0,-529.0,-155.0,652.0,-600.0,367.0
19:50:38.089000,186.0,-112.0,819.0,-1299.0,-529.0,-155.0,643.0,-597.0,372.0
19:50:38.094000,183.0,-78.0,883.0,-1307.0,-466.0,-138.0,643.0,-597.0,372.0
19:50:38.098000,168.0,-69.0,971.0,-1185.0,-442.0,-102.0,643.0,-597.0,372.0
19:50:38.103000,148.0,-92.0,1095.0,-973.0,-479.0,-47.0,648.0,-603.0,366.0
19:50:38.108000,131.0,-133.0,1211.0,-782.0,-518.0,8.0,648.0,-603.0,366.0
19:50:38.113000,117.0,-173.0,1292.0,-702.0,-507.0,61.0,642.0,-600.0,367.0
19:50:38.117000,117.0,-173.0,1292.0,-742.0,-451.0,122.0,642.0,-600.0,367.0
19:50:38.122000,95.0,-205.0,1339.0,-820.0,-416.0,183.0,642.0,-600.0,367.0
19:50:38.127000,82.0,-226.0,1390.0,-823.0,-471.0,222.0,630.0,-613.0,363.0
19:50:38.132000,102.0,-243.0,1483.0,-739.0,-575.0,224.0,630.0,-613.0,363.0
19:50:38.136000,151.0,-256.0,1603.0,-665.0,-601.0,203.0,612.0,-624.0,375.0
19:50:38.141000,201.0,-254.0,1713.0,-680.0,-482.0,201.0,612.0,-624.0,375.0
19:50:38.145000,207.0,-250.0,1801.0,-742.0,-295.0,230.0,612.0,-624.0,375.0
19:50:38.150000,163.0,-253.0,1900.0,-733.0,-193.0,240.0,601.0,-637.0,373.0
19:50:38.155000,107.0,-272.0,2060.0,-595.0,-260.0,212.0,601.0,-637.0,373.0
19:50:38.160000,77.0,-301.0,2276.0,-391.0,-420.0,172.0,594.0,-651.0,370.0
19:50:38.164000,76.0,-344.0,2485.0,-203.0,-522.0,155.0,594.0,-651.0,370.0
19:50:38.169000,74.0,-399.0,2656.0,-56.0,-501.0,165.0,594.0,-651.0,370.0
19:50:38.174000,38.0,-463.0,2798.0,47.0,-406.0,183.0,582.0,-663.0,369.0
19:50:38.179000,-38.0,-524.0,2927.0,106.0,-325.0,195.0,582.0,-663.0,369.0
19:50:38.183000,-141.0,-571.0,3049.0,106.0,-325.0,195.0,567.0,-675.0,363.0
19:50:38.188000,-236.0,-590.0,3170.0,118.0,-332.0,190.0,567.0,-675.0,363.0
19:50:38.192000,-289.0,-573.0,3293.0,94.0,-447.0,166.0,567.0,-675.0,363.0
19:50:38.197000,-291.0,-517.0,3418.0,64.0,-640.0,134.0,552.0,-699.0,364.0
19:50:38.202000,-246.0,-427.0,3528.0,61.0,-850.0,102.0,552.0,-699.0,364.0
19:50:38.207000,-177.0,-313.0,3609.0,116.0,-1015.0,76.0,532.0,-723.0,361.0
19:50:38.211000,-102.0,-187.0,3653.0,229.0,-1102.0,53.0,532.0,-723.0,361.0
19:50:38.216000,-102.0,-187.0,3653.0,373.0,-1106.0,32.0,532.0,-723.0,361.0
19:50:38.221000,37.0,23.0,3649.0,511.0,-1036.0,8.0,508.0,-727.0,351.0
19:50:38.226000,89.0,84.0,3585.0,613.0,-897.0,-26.0,508.0,-727.0,351.0
19:50:38.230000,89.0,84.0,3585.0,674.0,-732.0,-71.0,459.0,-760.0,363.0
19:50:38.235000,126.0,125.0,3490.0,709.0,-613.0,-129.0,459.0,-760.0,363.0
19:50:38.239000,159.0,149.0,3413.0,721.0,-564.0,-200.0,459.0,-760.0,363.0
19:50:38.244000,193.0,156.0,3374.0,705.0,-539.0,-281.0,429.0,-769.0,363.0
19:50:38.249000,240.0,148.0,3362.0,636.0,-462.0,-363.0,429.0,-769.0,363.0
19:50:38.254000,301.0,121.0,3339.0,489.0,-281.0,-417.0,408.0,-780.0,366.0
19:50:38.258000,340.0,84.0,3271.0,296.0,-33.0,-434.0,408.0,-780.0,366.0
19:50:38.266000,374.0,-24.0,3026.0,16.0,363.0,-382.0,376.0,-784.0,364.0
19:50:38.268000,374.0,-24.0,3026.0,16.0,363.0,-382.0,376.0,-784.0,364.0
19:50:38.272000,386.0,-102.0,2879.0,-62.0,491.0,-312.0,376.0,-784.0,364.0
19:50:38.277000,381.0,-179.0,2715.0,-104.0,569.0,-231.0,364.0,-789.0,376.0
19:50:38.282000,375.0,-247.0,2562.0,-109.0,575.0,-159.0,364.0,-789.0,376.0
19:50:38.287000,376.0,-308.0,2445.0,-109.0,575.0,-159.0,343.0,-789.0,382.0
19:50:38.291000,375.0,-347.0,2353.0,-115.0,552.0,-105.0,343.0,-789.0,382.0
19:50:38.295000,348.0,-349.0,2272.0,-166.0,562.0,-67.0,343.0,-789.0,382.0
19:50:38.301000,312.0,-315.0,2212.0,-243.0,590.0,-48.0,324.0,-786.0,384.0
19:50:38.305000,291.0,-275.0,2167.0,-211.0,594.0,-43.0,324.0,-786.0,384.0
19:50:38.310000,266.0,-250.0,2104.0,-211.0,594.0,-43.0,297.0,-784.0,385.0
19:50:38.315000,217.0,-240.0,2025.0,-101.0,658.0,-27.0,297.0,-784.0,385.0
19:50:38.319000,141.0,-234.0,1959.0,-35.0,777.0,-22.0,297.0,-784.0,385.0
19:50:38.324000,45.0,-217.0,1918.0,-93.0,896.0,-47.0,274.0,-789.0,387.0
19:50:38.329000,-53.0,-178.0,1889.0,-268.0,982.0,-100.0,274.0,-789.0,387.0
19:50:38.334000,-142.0,-119.0,1859.0,-475.0,1026.0,-147.0,271.0,-784.0,393.0
19:50:38.338000,-142.0,-119.0,1859.0,-610.0,1013.0,-174.0,271.0,-784.0,393.0
19:50:38.342000,-201.0,-48.0,1831.0,-603.0,930.0,-189.0,271.0,-784.0,393.0
19:50:38.348000,-217.0,16.0,1800.0,-458.0,801.0,-179.0,259.0,-787.0,381.0
19:50:38.352000,-197.0,56.0,1757.0,-235.0,679.0,-138.0,259.0,-787.0,381.0
19:50:38.357000,-149.0,56.0,1691.0,-13.0,590.0,-76.0,250.0,-792.0,394.0
19:50:38.362000,-87.0,18.0,1621.0,138.0,529.0,-12.0,250.0,-792.0,394.0
19:50:38.366000,-21.0,-39.0,1569.0,177.0,468.0,35.0,250.0,-792.0,394.0
19:50:38.371000,44.0,-89.0,1543.0,109.0,369.0,55.0,237.0,-780.0,393.0
19:50:38.376000,119.0,-107.0,1549.0,-12.0,211.0,46.0,237.0,-780.0,393.0
19:50:38.381000,206.0,-93.0,1592.0,-128.0,29.0,16.0,214.0,-777.0,397.0
19:50:38.385000,302.0,-55.0,1658.0,-214.0,-109.0,-35.0,214.0,-777.0,397.0
19:50:38.389000,395.0,0.0,1705.0,-290.0,-158.0,-92.0,214.0,-777.0,397.0
19:50:38.395000,467.0,62.0,1692.0,-372.0,-120.0,-130.0,201.0,-772.0,405.0
19:50:38.399000,499.0,112.0,1592.0,-372.0,-120.0,-130.0,201.0,-772.0,405.0
19:50:38.404000,501.0,139.0,1428.0,-419.0,-53.0,-155.0,183.0,-769.0,411.0
19:50:38.409000,486.0,153.0,1250.0,-386.0,-34.0,-186.0,183.0,-769.0,411.0
19:50:38.413000,443.0,145.0,1062.0,-318.0,-51.0,-207.0,183.0,-769.0,411.0
19:50:38.418000,371.0,112.0,874.0,-251.0,-60.0,-194.0,180.0,-753.0,411.0
19:50:38.423000,275.0,60.0,715.0,-148.0,-97.0,-164.0,180.0,-753.0,411.0
19:50:38.428000,177.0,-3.0,591.0,-8.0,-192.0,-138.0,180.0,-756.0,415.0
19:50:38.432000,87.0,-64.0,479.0,109.0,-323.0,-112.0,180.0,-756.0,415.0
19:50:38.436000,87.0,-64.0,479.0,159.0,-449.0,-93.0,180.0,-756.0,415.0
19:50:38.442000,-44.0,-112.0,165.0,138.0,-541.0,-106.0,172.0,-745.0,442.0
19:50:38.446000,-44.0,-112.0,165.0,62.0,-600.0,-90.0,172.0,-745.0,442.0
19:50:38.451000,-81.0,-142.0,-57.0,-26.0,-650.0,-53.0,183.0,-745.0,432.0
19:50:38.456000,-55.0,-177.0,-314.0,-141.0,-711.0,-73.0,183.0,-745.0,432.0
19:50:38.460000,34.0,-178.0,-592.0,-321.0,-782.0,-111.0,183.0,-745.0,432.0
19:50:38.465000,170.0,-138.0,-901.0,-510.0,-874.0,-127.0,186.0,-732.0,424.0
19:50:38.470000,347.0,-79.0,-1215.0,-602.0,-1001.0,-106.0,186.0,-732.0,424.0
19:50:38.475000,521.0,-23.0,-1465.0,-552.0,-1101.0,-56.0,196.0,-729.0,439.0
19:50:38.479000,664.0,18.0,-1617.0,-418.0,-1098.0,-54.0,196.0,-729.0,439.0
19:50:38.483000,727.0,160.0,-1676.0,95.0,-1464.0,-377.0,196.0,-729.0,439.0
19:50:38.489000,1003.0,385.0,-1400.0,1989.0,-2769.0,-1061.0,208.0,-723.0,442.0
19:50:38.493000,434.0,1003.0,2513.0,3720.0,-3534.0,835.0,208.0,-723.0,442.0
19:50:38.498000,-2185.0,-2657.0,4655.0,3720.0,-3534.0,835.0,210.0,-720.0,454.0
19:50:38.503000,6072.0,-8238.0,-16102.0,-2776.0,2861.0,1045.0,210.0,-720.0,454.0
19:50:38.507000,4856.0,-6617.0,-22819.0,-2776.0,2155.0,-511.0,210.0,-720.0,454.0
19:50:38.512000,2858.0,-282.0,-16124.0,-3386.0,2155.0,-511.0,238.0,-708.0,462.0
19:50:38.517000,626.0,2045.0,1773.0,-1562.0,199.0,-2103.0,238.0,-708.0,462.0
19:50:38.522000,-2752.0,1388.0,7911.0,976.0,-2490.0,722.0,387.0,-651.0,489.0
19:50:38.526000,-2155.0,889.0,5419.0,-1504.0,-358.0,124.0,387.0,-651.0,489.0
19:50:38.530000,-1237.0,235.0,1010.0,-1504.0,-358.0,124.0,387.0,-651.0,489.0
19:50:38.536000,-522.0,420.0,397.0,-1262.0,-2205.0,-82.0,333.0,-667.0,472.0
19:50:38.540000,-873.0,1070.0,1003.0,-296.0,-3746.0,-787.0,333.0,-667.0,472.0
19:50:38.545000,-809.0,751.0,489.0,-260.0,-3293.0,-277.0,339.0,-669.0,466.0
19:50:38.550000,-69.0,309.0,893.0,41.0,-3123.0,-15.0,339.0,-669.0,466.0
19:50:38.554000,-69.0,309.0,893.0,-304.0,-2372.0,-330.0,339.0,-669.0,466.0
19:50:38.559000,522.0,146.0,-1157.0,-1351.0,-1753.0,-503.0,328.0,-675.0,472.0
19:50:38.564000,215.0,450.0,-2022.0,-1178.0,-2373.0,-357.0,328.0,-675.0,472.0
19:50:38.568000,363.0,497.0,-2007.0,-759.0,-2607.0,-162.0,331.0,-661.0,478.0
19:50:38.573000,952.0,317.0,-747.0,-99.0,-3126.0,-163.0,331.0,-661.0,478.0
19:50:38.577000,-424.0,715.0,1318.0,332.0,-2824.0,11.0,331.0,-661.0,478.0
19:50:38.583000,-552.0,436.0,555.0,-552.0,-1645.0,42.0,328.0,-651.0,471.0
19:50:38.587000,483.0,102.0,-2033.0,-801.0,-1477.0,-10.0,328.0,-651.0,471.0
19:50:38.592000,889.0,-240.0,-4082.0,-329.0,-2022.0,-74.0,336.0,-654.0,477.0
19:50:38.597000,360.0,-196.0,-3616.0,618.0,-2552.0,25.0,336.0,-654.0,477.0
19:50:38.601000,-404.0,-207.0,-1848.0,544.0,-2482.0,152.0,336.0,-654.0,477.0
19:50:38.606000,-111.0,-556.0,-1468.0,-716.0,-2498.0,-142.0,361.0,-637.0,475.0
19:50:38.610000,-775.0,-124.0,-2447.0,-826.0,-2454.0,-288.0,361.0,-637.0,475.0
19:50:38.616000,352.0,-441.0,-2914.0,-74.0,-2838.0,-234.0,361.0,-634.0,489.0
19:50:38.620000,153.0,-316.0,-1605.0,-74.0,-2838.0,-234.0,361.0,-634.0,489.0
19:50:38.625000,-1367.0,-60.0,-1806.0,444.0,-2756.0,56.0,388.0,-619.0,468.0
19:50:38.630000,-779.0,-280.0,-2242.0,410.0,-1688.0,50.0,388.0,-619.0,468.0
19:50:38.634000,-387.0,-462.0,-2618.0,336.0,-1956.0,-106.0,388.0,-619.0,468.0
19:50:38.639000,-179.0,-430.0,-3364.0,-214.0,-2590.0,-45.0,388.0,-607.0,465.0
19:50:38.644000,174.0,-455.0,-3328.0,-795.0,-2612.0,-109.0,388.0,-607.0,465.0
19:50:38.649000,25.0,-233.0,-2542.0,-695.0,-2672.0,-203.0,402.0,-603.0,468.0
19:50:38.653000,-290.0,-16.0,-2123.0,-358.0,-2763.0,-337.0,402.0,-603.0,468.0
19:50:38.657000,-290.0,-16.0,-2123.0,-462.0,-2511.0,-327.0,402.0,-603.0,468.0
19:50:38.662000,-446.0,-64.0,-2410.0,-599.0,-2504.0,-400.0,415.0,-612.0,477.0
19:50:38.667000,-86.0,-127.0,-2392.0,-389.0,-3000.0,-508.0,415.0,-612.0,477.0
19:50:38.672000,-113.0,-51.0,-1871.0,-40.0,-2854.0,-425.0,430.0,-597.0,462.0
19:50:38.677000,-677.0,46.0,-1838.0,224.0,-2364.0,-286.0,430.0,-597.0,462.0
19:50:38.681000,-275.0,-285.0,-1799.0,88.0,-2093.0,-410.0,430.0,-597.0,462.0
19:50:38.686000,71.0,-447.0,-2387.0,-145.0,-1972.0,-356.0,445.0,-582.0,459.0
19:50:38.691000,-140.0,-566.0,-2569.0,-243.0,-2395.0,-353.0,445.0,-582.0,459.0
19:50:38.695000,-68.0,-577.0,-2209.0,-397.0,-2665.0,-537.0,456.0,-582.0,466.0
19:50:38.700000,-171.0,-552.0,-1856.0,-567.0,-2286.0,-452.0,456.0,-582.0,466.0
19:50:38.704000,-415.0,-508.0,-1843.0,-566.0,-2133.0,-569.0,456.0,-582.0,466.0
19:50:38.710000,-228.0,-464.0,-2026.0,-479.0,-2482.0,-632.0,462.0,-574.0,459.0
19:50:38.714000,-163.0,-470.0,-1931.0,-379.0,-2564.0,-462.0,462.0,-574.0,459.0
19:50:38.719000,-21.0,-581.0,-1445.0,-379.0,-2564.0,-462.0,469.0,-561.0,453.0
19:50:38.724000,-146.0,-417.0,-1183.0,-312.0,-2358.0,-511.0,469.0,-561.0,453.0
19:50:38.728000,-427.0,-322.0,-1578.0,-312.0,-2358.0,-511.0,469.0,-561.0,453.0
19:50:38.733000,119.0,-543.0,-1798.0,-389.0,-1789.0,-378.0,475.0,-553.0,448.0
19:50:38.737000,-6.0,-423.0,-1689.0,-388.0,-2256.0,-299.0,475.0,-553.0,448.0
19:50:38.743000,-4.0,-515.0,-1556.0,-388.0,-2256.0,-299.0,481.0,-559.0,450.0
19:50:38.747000,244.0,-552.0,-1410.0,-666.0,-2666.0,-179.0,481.0,-559.0,450.0
19:50:38.751000,252.0,-359.0,-1646.0,-887.0,-2788.0,-343.0,481.0,-559.0,450.0
19:50:38.757000,309.0,-447.0,-1535.0,-518.0,-1676.0,-194.0,489.0,-541.0,457.0
19:50:38.761000,455.0,-434.0,-973.0,7.0,-790.0,-158.0,489.0,-541.0,457.0
19:50:38.766000,-4.0,-113.0,-405.0,71.0,-1471.0,-265.0,504.0,-519.0,442.0
19:50:38.771000,-438.0,-320.0,-946.0,-663.0,-2182.0,41.0,504.0,-519.0,442.0
19:50:38.775000,-438.0,-320.0,-946.0,-1037.0,-1920.0,-158.0,504.0,-519.0,442.0
19:50:38.780000,-378.0,-247.0,-1395.0,-482.0,-1766.0,-383.0,499.0,-529.0,441.0
19:50:38.785000,-380.0,-246.0,-1372.0,-152.0,-2000.0,-320.0,499.0,-529.0,441.0
19:50:38.790000,110.0,-152.0,-1548.0,-171.0,-2645.0,-261.0,511.0,-526.0,447.0
19:50:38.794000,170.0,-144.0,-1482.0,-617.0,-2407.0,-155.0,511.0,-526.0,447.0
19:50:38.798000,506.0,-308.0,-1641.0,-440.0,-1753.0,-332.0,511.0,-526.0,447.0
19:50:38.804000,18.0,-133.0,-1180.0,118.0,-1659.0,-311.0,516.0,-513.0,447.0
19:50:38.808000,-336.0,75.0,-861.0,-186.0,-1685.0,-304.0,516.0,-513.0,447.0
19:50:38.813000,-3.0,-63.0,-1105.0,-943.0,-1668.0,-416.0,517.0,-507.0,439.0
19:50:38.818000,224.0,31.0,-1701.0,-667.0,-1363.0,-661.0,517.0,-507.0,439.0
19:50:38.822000,74.0,459.0,-1650.0,50.0,-1342.0,-349.0,517.0,-507.0,439.0
19:50:38.827000,-476.0,425.0,-1316.0,-25.0,-1727.0,263.0,511.0,-501.0,457.0
19:50:38.832000,-95.0,-252.0,-1201.0,-380.0,-1808.0,187.0,511.0,-501.0,457.0
19:50:38.837000,788.0,-725.0,-1631.0,-380.0,-1808.0,187.0,526.0,-483.0,447.0
19:50:38.841000,416.0,-226.0,-1604.0,-623.0,-1639.0,-255.0,526.0,-483.0,447.0
19:50:38.845000,-62.0,161.0,-1066.0,-390.0,-1749.0,-461.0,526.0,-483.0,447.0
19:50:38.851000,-121.0,-418.0,-833.0,-343.0,-1395.0,138.0,522.0,-480.0,444.0
19:50:38.855000,95.0,-513.0,-1394.0,-666.0,-859.0,169.0,522.0,-480.0,444.0
19:50:38.860000,-39.0,-557.0,-1658.0,-990.0,-948.0,-196.0,523.0,-480.0,445.0
19:50:38.865000,51.0,-492.0,-1401.0,-636.0,-1463.0,-139.0,523.0,-480.0,445.0
19:50:38.869000,51.0,-492.0,-1401.0,-114.0,-1565.0,-307.0,523.0,-480.0,445.0
19:50:38.874000,-51.0,-505.0,-1217.0,-199.0,-1178.0,-111.0,541.0,-469.0,453.0
19:50:38.879000,163.0,-414.0,-1279.0,-588.0,-871.0,-123.0,541.0,-469.0,453.0
19:50:38.884000,163.0,-414.0,-1279.0,-911.0,-1083.0,-315.0,535.0,-465.0,435.0
19:50:38.888000,318.0,-273.0,-1472.0,-712.0,-1478.0,-317.0,535.0,-465.0,435.0
19:50:38.892000,506.0,-119.0,-1318.0,-579.0,-1253.0,-106.0,535.0,-465.0,435.0
19:50:38.897000,280.0,-256.0,-1221.0,-646.0,-804.0,263.0,538.0,-450.0,439.0
19:50:38.902000,-170.0,-594.0,-1454.0,-684.0,-562.0,347.0,538.0,-450.0,439.0
19:50:38.906000,-407.0,-821.0,-1936.0,-564.0,-729.0,-2.0,552.0,-435.0,429.0
19:50:38.912000,-101.0,-770.0,-1866.0,-443.0,-1224.0,-282.0,552.0,-435.0,429.0
19:50:38.916000,-23.0,-595.0,-1365.0,-540.0,-1478.0,-104.0,552.0,-435.0,429.0
19:50:38.921000,-204.0,-520.0,-1349.0,-798.0,-1298.0,39.0,553.0,-427.0,427.0
19:50:38.926000,-268.0,-473.0,-1402.0,-1030.0,-1760.0,-373.0,553.0,-427.0,427.0
19:50:38.931000,417.0,-73.0,413.0,-1644.0,-2841.0,-622.0,561.0,-429.0,429.0
19:50:38.935000,861.0,50.0,1698.0,-2516.0,-1847.0,43.0,561.0,-429.0,429.0
19:50:38.939000,527.0,-267.0,-777.0,-2097.0,381.0,345.0,561.0,-429.0,429.0
19:50:38.945000,540.0,-561.0,-3217.0,-2097.0,410.0,-31.0,558.0,-426.0,430.0
19:50:38.949000,527.0,-446.0,-3255.0,802.0,-788.0,-24.0,558.0,-426.0,430.0
19:50:38.954000,16.0,-301.0,-2397.0,802.0,-788.0,-24.0,565.0,-408.0,415.0
19:50:38.959000,-301.0,-310.0,-1376.0,725.0,-1085.0,114.0,565.0,-408.0,415.0
19:50:38.963000,-399.0,-414.0,-890.0,90.0,-772.0,131.0,565.0,-402.0,426.0
19:50:38.968000,-338.0,-137.0,-673.0,-407.0,-813.0,-27.0,565.0,-402.0,426.0
19:50:38.972000,-172.0,224.0,1116.0,-402.0,-1917.0,-307.0,565.0,-402.0,426.0
19:50:38.978000,-213.0,184.0,1376.0,-932.0,-2273.0,-80.0,574.0,-408.0,426.0
19:50:38.982000,70.0,403.0,62.0,-1747.0,-1005.0,-77.0,574.0,-408.0,426.0
19:50:38.987000,140.0,603.0,-494.0,-1553.0,-402.0,-234.0,564.0,-406.0,418.0
19:50:38.992000,84.0,583.0,-730.0,-908.0,-585.0,-22.0,564.0,-406.0,418.0
19:50:38.996000,84.0,583.0,-730.0,-408.0,-690.0,59.0,564.0,-406.0,418.0
19:50:39.001000,105.0,533.0,-656.0,-249.0,-706.0,121.0,549.0,-399.0,432.0
19:50:39.006000,-32.0,415.0,-558.0,-327.0,-657.0,114.0,549.0,-399.0,432.0
19:50:39.010000,-133.0,349.0,-524.0,-425.0,-780.0,6.0,555.0,-396.0,435.0
19:50:39.015000,-175.0,391.0,-355.0,-764.0,-890.0,-66.0,555.0,-396.0,435.0
19:50:39.019000,-242.0,520.0,-366.0,-1086.0,-789.0,-50.0,555.0,-396.0,435.0
19:50:39.025000,-300.0,451.0,-729.0,-904.0,-775.0,-7.0,562.0,-387.0,430.0
19:50:39.029000,-127.0,274.0,-1001.0,-539.0,-972.0,-57.0,562.0,-387.0,430.0
19:50:39.034000,-108.0,214.0,-744.0,-419.0,-945.0,-50.0,556.0,-393.0,435.0
19:50:39.039000,-172.0,143.0,-232.0,-460.0,-737.0,-134.0,556.0,-393.0,435.0
19:50:39.043000,-9.0,219.0,2.0,-675.0,-636.0,-132.0,556.0,-393.0,435.0
19:50:39.048000,-35.0,150.0,-217.0,-891.0,-581.0,3.0,558.0,-382.0,432.0
19:50:39.053000,-225.0,144.0,-485.0,-783.0,-656.0,-89.0,558.0,-382.0,432.0
19:50:39.057000,-105.0,210.0,-554.0,-783.0,-656.0,-89.0,559.0,-391.0,432.0
19:50:39.062000,-11.0,178.0,-518.0,-630.0,-804.0,-130.0,559.0,-391.0,432.0
19:50:39.066000,-106.0,196.0,-313.0,-689.0,-938.0,-63.0,559.0,-391.0,432.0
19:50:39.072000,-285.0,278.0,-227.0,-747.0,-880.0,-38.0,559.0,-381.0,432.0
19:50:39.076000,-299.0,254.0,-424.0,-767.0,-731.0,-41.0,559.0,-381.0,432.0
19:50:39.080000,-364.0,288.0,-627.0,-777.0,-725.0,-188.0,555.0,-393.0,436.0
19:50:39.086000,-210.0,422.0,-729.0,-777.0,-725.0,-188.0,555.0,-393.0,436.0
19:50:39.090000,-210.0,422.0,-729.0,-759.0,-916.0,-220.0,555.0,-393.0,436.0
19:50:39.095000,-32.0,270.0,-628.0,-625.0,-1077.0,-171.0,558.0,-385.0,445.0
19:50:39.100000,-116.0,300.0,-137.0,-509.0,-1147.0,-133.0,558.0,-385.0,445.0
19:50:39.104000,-116.0,300.0,-137.0,-680.0,-948.0,-186.0,553.0,-384.0,441.0
19:50:39.109000,-94.0,388.0,-156.0,-819.0,-567.0,-202.0,553.0,-384.0,441.0
19:50:39.113000,28.0,239.0,-434.0,-760.0,-569.0,-91.0,553.0,-384.0,441.0
19:50:39.119000,-137.0,173.0,-308.0,-722.0,-658.0,-201.0,549.0,-384.0,435.0
19:50:39.123000,-104.0,362.0,-47.0,-730.0,-599.0,-277.0,549.0,-384.0,435.0
19:50:39.127000,1.0,343.0,-100.0,-750.0,-759.0,-251.0,544.0,-376.0,447.0
19:50:39.133000,28.0,369.0,-107.0,-749.0,-872.0,-196.0,544.0,-376.0,447.0
19:50:39.137000,-133.0,285.0,-135.0,-672.0,-594.0,-159.0,553.0,-384.0,450.0
19:50:39.142000,-116.0,287.0,-411.0,-556.0,-500.0,-290.0,553.0,-384.0,450.0
19:50:39.146000,28.0,358.0,-394.0,-583.0,-753.0,-250.0,553.0,-384.0,450.0
19:50:39.151000,-99.0,268.0,-88.0,-748.0,-803.0,-185.0,547.0,-376.0,451.0
19:50:39.156000,-177.0,254.0,79.0,-862.0,-656.0,-354.0,547.0,-376.0,451.0
19:50:39.161000,36.0,415.0,57.0,-862.0,-656.0,-354.0,537.0,-382.0,457.0
19:50:39.166000,61.0,250.0,-42.0,-866.0,-592.0,-289.0,537.0,-382.0,457.0
19:50:39.170000,-61.0,168.0,-157.0,-508.0,-656.0,-166.0,537.0,-382.0,457.0
19:50:39.175000,-156.0,140.0,173.0,-508.0,-656.0,-166.0,546.0,-382.0,454.0
19:50:39.180000,-293.0,73.0,301.0,-552.0,-720.0,-175.0,546.0,-382.0,454.0
19:50:39.184000,-245.0,-26.0,-77.0,-811.0,-539.0,-149.0,546.0,-376.0,450.0
19:50:39.189000,-23.0,81.0,-141.0,-847.0,-576.0,-262.0,546.0,-376.0,450.0
19:50:39.193000,-4.0,149.0,137.0,-736.0,-813.0,-340.0,546.0,-376.0,450.0
19:50:39.198000,41.0,-28.0,226.0,-886.0,-988.0,-219.0,543.0,-387.0,462.0
19:50:39.203000,-51.0,3.0,177.0,-880.0,-898.0,-178.0,543.0,-387.0,462.0
19:50:39.208000,-24.0,177.0,123.0,-635.0,-716.0,-305.0,544.0,-379.0,456.0
19:50:39.213000,-24.0,177.0,123.0,-557.0,-608.0,-264.0,544.0,-379.0,456.0
19:50:39.217000,0.0,33.0,93.0,-563.0,-617.0,-125.0,544.0,-379.0,456.0
19:50:39.222000,-263.0,-41.0,123.0,-607.0,-568.0,-176.0,547.0,-382.0,448.0
19:50:39.227000,-338.0,-70.0,2.0,-636.0,-560.0,-252.0,547.0,-382.0,448.0
19:50:39.231000,-256.0,-9.0,-3.0,-732.0,-687.0,-208.0,540.0,-388.0,463.0
19:50:39.236000,-282.0,-65.0,90.0,-814.0,-675.0,-131.0,540.0,-388.0,463.0
19:50:39.240000,-113.0,-172.0,91.0,-724.0,-477.0,-108.0,540.0,-388.0,463.0
19:50:39.245000,-87.0,-289.0,-148.0,-593.0,-448.0,-154.0,540.0,-379.0,456.0
19:50:39.250000,-41.0,-125.0,-95.0,-749.0,-700.0,-336.0,540.0,-379.0,456.0
19:50:39.255000,13.0,277.0,-114.0,-1210.0,-770.0,-262.0,550.0,-387.0,453.0
19:50:39.260000,-35.0,219.0,-613.0,-1139.0,-781.0,-47.0,550.0,-387.0,453.0
19:50:39.264000,-165.0,37.0,-673.0,-464.0,-732.0,-81.0,550.0,-387.0,453.0
19:50:39.269000,-257.0,93.0,-158.0,-175.0,-618.0,-144.0,535.0,-385.0,454.0
19:50:39.274000,-112.0,197.0,373.0,-175.0,-618.0,-144.0,535.0,-385.0,454.0
19:50:39.278000,-7.0,369.0,0.0,-636.0,-525.0,-204.0,534.0,-397.0,463.0
19:50:39.283000,-63.0,196.0,-608.0,-1222.0,-609.0,-162.0,534.0,-397.0,463.0
19:50:39.287000,-132.0,-118.0,-706.0,-1169.0,-717.0,15.0,534.0,-397.0,463.0
19:50:39.292000,45.0,-116.0,-336.0,-660.0,-479.0,5.0,537.0,-379.0,454.0
19:50:39.297000,70.0,-16.0,-58.0,-459.0,-373.0,-131.0,537.0,-379.0,454.0
19:50:39.301000,-89.0,-92.0,18.0,-669.0,-557.0,-117.0,544.0,-379.0,459.0
19:50:39.307000,164.0,-97.0,105.0,-763.0,-645.0,-136.0,544.0,-379.0,459.0
19:50:39.311000,164.0,-97.0,105.0,-742.0,-584.0,-100.0,544.0,-379.0,459.0
19:50:39.316000,298.0,-449.0,-401.0,-720.0,-425.0,19.0,543.0,-382.0,457.0
19:50:39.321000,298.0,-449.0,-401.0,-581.0,-279.0,-79.0,543.0,-382.0,457.0
19:50:39.325000,266.0,-285.0,-622.0,-547.0,-359.0,-174.0,546.0,-372.0,451.0
19:50:39.330000,227.0,-168.0,-505.0,-714.0,-583.0,-104.0,546.0,-372.0,451.0
19:50:39.334000,169.0,-240.0,-259.0,-846.0,-687.0,-52.0,546.0,-372.0,451.0
19:50:39.339000,42.0,-275.0,-196.0,-760.0,-696.0,-63.0,537.0,-367.0,457.0
19:50:39.344000,-7.0,-261.0,-67.0,-666.0,-729.0,-41.0,537.0,-367.0,457.0
19:50:39.348000,-18.0,-288.0,-3.0,-713.0,-637.0,-91.0,544.0,-376.0,472.0
19:50:39.354000,-22.0,-187.0,-196.0,-815.0,-572.0,-63.0,544.0,-376.0,472.0
19:50:39.358000,-154.0,-179.0,-214.0,-919.0,-634.0,-39.0,544.0,-376.0,472.0
19:50:39.362000,-208.0,-111.0,-42.0,-951.0,-626.0,-90.0,544.0,-382.0,451.0
19:50:39.368000,-153.0,-27.0,109.0,-955.0,-583.0,-88.0,544.0,-382.0,451.0
19:50:39.372000,-1.0,-12.0,16.0,-955.0,-583.0,-88.0,547.0,-366.0,454.0
19:50:39.377000,82.0,-58.0,-272.0,-873.0,-613.0,-92.0,547.0,-366.0,454.0
19:50:39.381000,159.0,42.0,-397.0,-808.0,-750.0,-49.0,547.0,-366.0,454.0
19:50:39.386000,115.0,-91.0,-267.0,-808.0,-750.0,-49.0,550.0,-370.0,454.0
19:50:39.390000,57.0,-215.0,-201.0,-648.0,-518.0,-56.0,550.0,-370.0,454.0
19:50:39.396000,35.0,-109.0,-231.0,-648.0,-518.0,-56.0,543.0,-381.0,457.0
19:50:39.401000,51.0,-93.0,-334.0,-668.0,-488.0,-116.0,543.0,-381.0,457.0
19:50:39.405000,19.0,-137.0,-342.0,-746.0,-613.0,-47.0,543.0,-378.0,442.0
19:50:39.410000,91.0,-84.0,-140.0,-766.0,-764.0,-71.0,543.0,-378.0,442.0
19:50:39.414000,126.0,-142.0,32.0,-823.0,-795.0,-64.0,543.0,-378.0,442.0
19:50:39.419000,180.0,-144.0,-173.0,-926.0,-554.0,-38.0,555.0,-373.0,451.0
19:50:39.424000,168.0,-202.0,-476.0,-932.0,-312.0,-44.0,555.0,-373.0,451.0
19:50:39.429000,221.0,-261.0,-562.0,-806.0,-313.0,-21.0,538.0,-367.0,453.0
19:50:39.433000,221.0,-261.0,-562.0,-783.0,-442.0,3.0,538.0,-367.0,453.0
19:50:39.437000,157.0,-329.0,-611.0,-861.0,-577.0,-71.0,538.0,-367.0,453.0
19:50:39.443000,26.0,-158.0,-685.0,-949.0,-642.0,-120.0,541.0,-363.0,462.0
19:50:39.447000,65.0,-150.0,-671.0,-973.0,-592.0,-76.0,541.0,-363.0,462.0
19:50:39.452000,4.0,-142.0,-434.0,-966.0,-394.0,-32.0,559.0,-364.0,441.0
19:50:39.457000,-60.0,-233.0,-278.0,-964.0,-221.0,30.0,559.0,-364.0,441.0
19:50:39.461000,-229.0,-280.0,-219.0,-874.0,-215.0,30.0,559.0,-364.0,441.0
19:50:39.466000,-369.0,-305.0,-210.0,-764.0,-355.0,-24.0,553.0,-358.0,450.0
19:50:39.471000,-357.0,-235.0,-109.0,-773.0,-544.0,-32.0,553.0,-358.0,450.0
19:50:39.476000,-331.0,-241.0,-147.0,-916.0,-643.0,-76.0,555.0,-351.0,448.0
19:50:39.480000,-168.0,-115.0,-323.0,-1028.0,-751.0,-100.0,555.0,-351.0,448.0
19:50:39.484000,-25.0,-148.0,-398.0,-978.0,-766.0,-11.0,555.0,-351.0,448.0
19:50:39.490000,-64.0,-200.0,-292.0,-867.0,-520.0,2.0,553.0,-360.0,459.0
19:50:39.494000,-147.0,-193.0,-312.0,-867.0,-520.0,2.0,553.0,-360.0,459.0
19:50:39.499000,-294.0,-263.0,-720.0,-912.0,-231.0,30.0,552.0,-358.0,445.0
19:50:39.504000,-354.0,-172.0,-650.0,-852.0,-274.0,-7.0,552.0,-358.0,445.0
19:50:39.508000,-319.0,-213.0,-408.0,-741.0,-514.0,-32.0,552.0,-358.0,445.0
19:50:39.513000,-344.0,-237.0,-273.0,-824.0,-582.0,10.0,564.0,-357.0,441.0
19:50:39.518000,-276.0,-210.0,-207.0,-927.0,-517.0,-30.0,564.0,-357.0,441.0
19:50:39.522000,-211.0,-263.0,-193.0,-963.0,-496.0,-35.0,567.0,-346.0,448.0
19:50:39.527000,-231.0,-235.0,-154.0,-949.0,-574.0,-37.0,567.0,-346.0,448.0
19:50:39.531000,-231.0,-235.0,-154.0,-989.0,-491.0,-66.0,567.0,-346.0,448.0
19:50:39.537000,-93.0,-139.0,-639.0,-1108.0,-357.0,-61.0,559.0,-354.0,442.0
19:50:39.541000,-93.0,-139.0,-639.0,-1086.0,-397.0,-32.0,559.0,-354.0,442.0
19:50:39.546000,-82.0,-168.0,-882.0,-867.0,-473.0,-22.0,556.0,-349.0,442.0
19:50:39.551000,-35.0,-161.0,-789.0,-730.0,-534.0,-2.0,556.0,-349.0,442.0
19:50:39.555000,-117.0,-203.0,-610.0,-776.0,-492.0,-10.0,556.0,-349.0,442.0
19:50:39.560000,-111.0,-146.0,-627.0,-870.0,-476.0,-59.0,562.0,-348.0,436.0
19:50:39.564000,-36.0,-107.0,-666.0,-927.0,-582.0,-48.0,562.0,-348.0,436.0
19:50:39.570000,-4.0,-115.0,-583.0,-941.0,-622.0,-29.0,565.0,-349.0,447.0
19:50:39.574000,1.0,-111.0,-396.0,-958.0,-545.0,-22.0,565.0,-349.0,447.0
19:50:39.579000,27.0,-123.0,-238.0,-1026.0,-451.0,-23.0,559.0,-343.0,430.0
19:50:39.584000,-11.0,-109.0,-322.0,-1060.0,-396.0,6.0,559.0,-343.0,430.0
19:50:39.588000,-88.0,-158.0,-506.0,-945.0,-342.0,16.0,559.0,-343.0,430.0
19:50:39.593000,-121.0,-154.0,-567.0,-777.0,-320.0,-9.0,561.0,-339.0,448.0
19:50:39.598000,-126.0,-128.0,-409.0,-778.0,-321.0,10.0,561.0,-339.0,448.0
19:50:39.603000,-169.0,-130.0,-305.0,-778.0,-321.0,10.0,561.0,-337.0,441.0
19:50:39.607000,-164.0,-77.0,-277.0,-936.0,-330.0,8.0,561.0,-337.0,441.0
19:50:39.611000,-133.0,-68.0,-333.0,-1117.0,-319.0,-4.0,561.0,-337.0,441.0
19:50:39.617000,-142.0,-35.0,-403.0,-1117.0,-319.0,-4.0,573.0,-336.0,448.0
19:50:39.621000,-144.0,0.0,-422.0,-1051.0,-252.0,-7.0,573.0,-336.0,448.0
19:50:39.626000,-155.0,32.0,-345.0,-987.0,-289.0,10.0,558.0,-340.0,442.0
19:50:39.631000,-107.0,79.0,-309.0,-1010.0,-362.0,-4.0,558.0,-340.0,442.0
19:50:39.635000,-107.0,79.0,-309.0,-1084.0,-376.0,25.0,558.0,-340.0,442.0
19:50:39.640000,-154.0,78.0,-515.0,-1073.0,-347.0,57.0,562.0,-334.0,441.0
19:50:39.645000,-181.0,84.0,-449.0,-969.0,-322.0,36.0,562.0,-334.0,441.0
19:50:39.650000,-181.0,84.0,-449.0,-852.0,-368.0,40.0,561.0,-337.0,436.0
19:50:39.654000,-237.0,56.0,-203.0,-847.0,-366.0,43.0,561.0,-337.0,436.0
19:50:39.658000,-331.0,72.0,-112.0,-982.0,-294.0,33.0,561.0,-337.0,436.0
19:50:39.664000,-326.0,83.0,-195.0,-1053.0,-300.0,22.0,556.0,-339.0,438.0
19:50:39.668000,-316.0,95.0,-241.0,-983.0,-362.0,10.0,556.0,-339.0,438.0
19:50:39.673000,-219.0,121.0,-156.0,-898.0,-379.0,20.0,556.0,-331.0,442.0
19:50:39.678000,-149.0,88.0,-56.0,-853.0,-302.0,41.0,556.0,-331.0,442.0
19:50:39.682000,-145.0,57.0,-110.0,-823.0,-174.0,40.0,556.0,-331.0,442.0
19:50:39.687000,-172.0,36.0,-273.0,-770.0,-90.0,33.0,558.0,-336.0,436.0
19:50:39.692000,-182.0,0.0,-409.0,-688.0,-132.0,38.0,558.0,-336.0,436.0
19:50:39.697000,-240.0,-46.0,-401.0,-651.0,-242.0,17.0,562.0,-339.0,438.0
19:50:39.701000,-278.0,-44.0,-316.0,-772.0,-317.0,-16.0,562.0,-339.0,438.0
19:50:39.705000,-263.0,-53.0,-326.0,-956.0,-353.0,-47.0,562.0,-339.0,438.0
19:50:39.711000,-248.0,-2.0,-383.0,-956.0,-392.0,-47.0,556.0,-336.0,480.0
19:50:39.715000,-210.0,10.0,-323.0,-1037.0,-392.0,-67.0,556.0,-336.0,480.0
19:50:39.720000,-203.0,-29.0,-250.0,-1052.0,-419.0,-33.0,561.0,-339.0,444.0
19:50:39.725000,-154.0,-11.0,-156.0,-993.0,-389.0,-32.0,561.0,-339.0,444.0
19:50:39.729000,-107.0,-25.0,-154.0,-925.0,-346.0,-47.0,561.0,-339.0,444.0
19:50:39.734000,-110.0,-18.0,-168.0,-908.0,-343.0,-45.0,556.0,-325.0,444.0
19:50:39.739000,-64.0,-35.0,-126.0,-909.0,-318.0,-38.0,556.0,-325.0,444.0
19:50:39.743000,-13.0,-16.0,-111.0,-952.0,-290.0,-35.0,562.0,-333.0,454.0
19:50:39.748000,11.0,13.0,-125.0,-1033.0,-314.0,-51.0,562.0,-333.0,454.0
19:50:39.752000,11.0,13.0,-125.0,-1104.0,-307.0,-20.0,562.0,-333.0,454.0
19:50:39.758000,30.0,-18.0,-220.0,-1078.0,-288.0,-19.0,570.0,-331.0,448.0
19:50:39.762000,12.0,30.0,-301.0,-981.0,-310.0,-37.0,570.0,-331.0,448.0
19:50:39.767000,2.0,47.0,-246.0,-904.0,-316.0,-30.0,565.0,-331.0,450.0
19:50:39.772000,6.0,51.0,-122.0,-891.0,-306.0,-26.0,565.0,-331.0,450.0
19:50:39.776000,-2.0,31.0,-5.0,-913.0,-280.0,-24.0,565.0,-331.0,450.0
19:50:39.781000,11.0,33.0,33.0,-943.0,-231.0,-29.0,559.0,-333.0,439.0
19:50:39.786000,-2.0,50.0,-11.0,-981.0,-229.0,-23.0,559.0,-333.0,439.0
19:50:39.790000,2.0,64.0,-81.0,-1010.0,-302.0,-23.0,568.0,-328.0,456.0
19:50:39.795000,-9.0,76.0,-77.0,-1027.0,-380.0,-33.0,568.0,-328.0,456.0
19:50:39.800000,-9.0,109.0,4.0,-1055.0,-392.0,-42.0,544.0,-336.0,454.0
19:50:39.805000,-16.0,117.0,43.0,-1090.0,-340.0,-19.0,544.0,-336.0,454.0
19:50:39.809000,-37.0,70.0,-18.0,-1067.0,-267.0,-2.0,544.0,-336.0,454.0
19:50:39.814000,-60.0,25.0,-141.0,-965.0,-242.0,-15.0,552.0,-333.0,447.0
19:50:39.819000,-79.0,25.0,-234.0,-866.0,-272.0,-20.0,552.0,-333.0,447.0
19:50:39.823000,-83.0,10.0,-203.0,-866.0,-272.0,-20.0,561.0,-333.0,450.0
19:50:39.828000,-74.0,-28.0,-94.0,-834.0,-327.0,-13.0,561.0,-333.0,450.0
19:50:39.832000,-56.0,-39.0,-32.0,-869.0,-340.0,-12.0,561.0,-333.0,450.0
19:50:39.838000,-10.0,-39.0,-27.0,-965.0,-341.0,-25.0,565.0,-321.0,453.0
19:50:39.842000,2.0,-73.0,-30.0,-1007.0,-347.0,-28.0,565.0,-321.0,453.0
19:50:39.847000,-1.0,-101.0,-53.0,-977.0,-296.0,-16.0,550.0,-328.0,451.0
19:50:39.852000,-47.0,-129.0,-93.0,-933.0,-243.0,-2.0,550.0,-328.0,451.0
19:50:39.856000,-47.0,-129.0,-93.0,-885.0,-228.0,-5.0,550.0,-328.0,451.0
19:50:39.861000,-28.0,-133.0,-63.0,-888.0,-280.0,-23.0,565.0,-324.0,444.0
19:50:39.866000,-48.0,-148.0,-8.0,-960.0,-345.0,-14.0,565.0,-324.0,444.0
19:50:39.870000,-48.0,-148.0,-8.0,-1064.0,-347.0,-18.0,564.0,-336.0,441.0
19:50:39.875000,-62.0,-113.0,-4.0,-1142.0,-338.0,-35.0,564.0,-336.0,441.0
19:50:39.879000,-42.0,-90.0,-58.0,-1162.0,-362.0,-42.0,564.0,-336.0,441.0
19:50:39.885000,-17.0,-72.0,-112.0,-1130.0,-391.0,-33.0,564.0,-334.0,466.0
19:50:39.889000,0.0,-72.0,-135.0,-1065.0,-364.0,-26.0,564.0,-334.0,466.0
19:50:39.894000,16.0,-53.0,-144.0,-1020.0,-319.0,-30.0,564.0,-322.0,448.0
19:50:39.899000,48.0,-28.0,-151.0,-1010.0,-322.0,-14.0,564.0,-322.0,448.0
19:50:39.903000,45.0,-47.0,-145.0,-977.0,-352.0,9.0,564.0,-322.0,448.0
19:50:39.908000,-10.0,-73.0,-107.0,-950.0,-370.0,11.0,568.0,-331.0,453.0
19:50:39.913000,-20.0,-84.0,-65.0,-966.0,-349.0,-9.0,568.0,-331.0,453.0
19:50:39.917000,-6.0,-72.0,-94.0,-966.0,-349.0,-9.0,565.0,-328.0,453.0
19:50:39.922000,-49.0,-63.0,-130.0,-1032.0,-270.0,29.0,565.0,-328.0,453.0
19:50:39.926000,-122.0,-58.0,-96.0,-1043.0,-243.0,36.0,565.0,-328.0,453.0
19:50:39.932000,-147.0,-51.0,-30.0,-1043.0,-243.0,36.0,574.0,-324.0,442.0
19:50:39.936000,-177.0,-35.0,22.0,-1045.0,-235.0,34.0,574.0,-324.0,442.0
19:50:39.941000,-203.0,-27.0,7.0,-1063.0,-233.0,46.0,568.0,-336.0,447.0
19:50:39.946000,-182.0,-13.0,-34.0,-1071.0,-220.0,46.0,568.0,-336.0,447.0
19:50:39.950000,-159.0,-13.0,-16.0,-1018.0,-236.0,43.0,568.0,-336.0,447.0
19:50:39.955000,-135.0,-26.0,61.0,-945.0,-272.0,56.0,568.0,-328.0,444.0
19:50:39.960000,-134.0,-30.0,147.0,-921.0,-298.0,68.0,568.0,-328.0,444.0
19:50:39.964000,-151.0,-11.0,233.0,-958.0,-316.0,71.0,558.0,-342.0,456.0
19:50:39.969000,-144.0,7.0,282.0,-1018.0,-323.0,69.0,558.0,-342.0,456.0
19:50:39.977000,-119.0,12.0,287.0,-1033.0,-330.0,63.0,564.0,-334.0,466.0
19:50:39.979000,-119.0,12.0,287.0,-1033.0,-330.0,63.0,564.0,-334.0,466.0
19:50:39.983000,-77.0,23.0,312.0,-980.0,-343.0,62.0,564.0,-334.0,466.0
19:50:39.988000,-44.0,30.0,341.0,-958.0,-354.0,69.0,565.0,-331.0,454.0
19:50:39.993000,-46.0,45.0,367.0,-951.0,-367.0,73.0,565.0,-331.0,454.0
19:50:39.997000,-46.0,57.0,406.0,-936.0,-380.0,75.0,570.0,-334.0,450.0
19:50:40.002000,-37.0,53.0,465.0,-909.0,-399.0,83.0,570.0,-334.0,450.0
19:50:40.006000,-16.0,25.0,555.0,-870.0,-441.0,88.0,570.0,-334.0,450.0
19:50:40.011000,-7.0,0.0,681.0,-853.0,-458.0,84.0,570.0,-345.0,448.0
19:50:40.016000,-13.0,-5.0,741.0,-896.0,-407.0,73.0,570.0,-345.0,448.0
19:50:40.020000,-16.0,12.0,663.0,-930.0,-372.0,52.0,576.0,-345.0,453.0
19:50:40.026000,-5.0,45.0,590.0,-892.0,-395.0,56.0,576.0,-345.0,453.0
19:50:40.030000,9.0,21.0,547.0,-805.0,-421.0,51.0,576.0,-345.0,453.0
19:50:40.035000,49.0,18.0,539.0,-720.0,-465.0,38.0,567.0,-346.0,448.0
19:50:40.040000,53.0,-11.0,564.0,-720.0,-465.0,38.0,567.0,-346.0,448.0
19:50:40.044000,29.0,-45.0,539.0,-662.0,-481.0,52.0,571.0,-346.0,457.0
19:50:40.049000,62.0,-44.0,466.0,-638.0,-419.0,43.0,571.0,-346.0,457.0
19:50:40.053000,36.0,-77.0,440.0,-627.0,-424.0,49.0,571.0,-346.0,457.0
19:50:40.058000,17.0,-98.0,371.0,-628.0,-431.0,66.0,567.0,-364.0,453.0
19:50:40.063000,15.0,-92.0,319.0,-643.0,-407.0,47.0,567.0,-364.0,453.0
19:50:40.067000,20.0,-104.0,313.0,-654.0,-437.0,37.0,579.0,-357.0,445.0
19:50:40.073000,52.0,-105.0,307.0,-674.0,-455.0,38.0,579.0,-357.0,445.0
19:50:40.077000,52.0,-105.0,307.0,-682.0,-471.0,32.0,579.0,-357.0,445.0
19:50:40.082000,97.0,-99.0,325.0,-690.0,-478.0,38.0,577.0,-351.0,453.0
19:50:40.087000,97.0,-99.0,325.0,-709.0,-460.0,43.0,577.0,-351.0,453.0
19:50:40.091000,101.0,-87.0,300.0,-735.0,-436.0,51.0,574.0,-357.0,448.0
19:50:40.096000,73.0,-84.0,280.0,-746.0,-401.0,59.0,574.0,-357.0,448.0
19:50:40.100000,40.0,-84.0,270.0,-742.0,-340.0,64.0,574.0,-357.0,448.0
19:50:40.105000,1.0,-88.0,249.0,-737.0,-286.0,60.0,577.0,-360.0,453.0
19:50:40.110000,-30.0,-74.0,219.0,-732.0,-284.0,56.0,577.0,-360.0,453.0
19:50:40.114000,-58.0,-68.0,196.0,-725.0,-322.0,63.0,577.0,-367.0,472.0
19:50:40.120000,-95.0,-53.0,193.0,-731.0,-343.0,69.0,577.0,-367.0,472.0
19:50:40.124000,-128.0,-42.0,186.0,-747.0,-353.0,73.0,577.0,-367.0,472.0
19:50:40.129000,-154.0,-33.0,189.0,-764.0,-360.0,78.0,583.0,-372.0,447.0
19:50:40.134000,-177.0,-32.0,171.0,-776.0,-340.0,83.0,583.0,-372.0,447.0
19:50:40.138000,-177.0,-38.0,119.0,-776.0,-340.0,83.0,580.0,-373.0,442.0
19:50:40.143000,-162.0,-44.0,57.0,-749.0,-309.0,80.0,580.0,-373.0,442.0
19:50:40.147000,-154.0,-54.0,12.0,-749.0,-289.0,84.0,580.0,-373.0,442.0
19:50:40.152000,-144.0,-64.0,-13.0,-743.0,-289.0,84.0,580.0,-373.0,450.0
19:50:40.157000,-128.0,-81.0,-43.0,-760.0,-254.0,83.0,580.0,-373.0,450.0
19:50:40.161000,-122.0,-105.0,-77.0,-829.0,-175.0,84.0,577.0,-370.0,456.0
19:50:40.167000,-120.0,-116.0,-100.0,-829.0,-175.0,84.0,577.0,-370.0,456.0
19:50:40.171000,-126.0,-116.0,-132.0,-876.0,-131.0,80.0,577.0,-370.0,456.0
19:50:40.176000,-128.0,-124.0,-147.0,-935.0,-101.0,80.0,571.0,-375.0,447.0
19:50:40.181000,-123.0,-130.0,-130.0,-967.0,-90.0,81.0,571.0,-375.0,447.0
19:50:40.185000,-109.0,-126.0,-105.0,-971.0,-88.0,75.0,579.0,-367.0,441.0
19:50:40.190000,-108.0,-128.0,-70.0,-969.0,-105.0,75.0,579.0,-367.0,441.0
19:50:40.194000,-108.0,-128.0,-70.0,-966.0,-130.0,85.0,579.0,-367.0,441.0
19:50:40.199000,-103.0,-126.0,-47.0,-965.0,-136.0,86.0,585.0,-370.0,445.0
19:50:40.204000,-95.0,-115.0,-46.0,-982.0,-128.0,91.0,585.0,-370.0,445.0
19:50:40.209000,-84.0,-106.0,-66.0,-1009.0,-100.0,96.0,568.0,-367.0,454.0
19:50:40.214000,-70.0,-91.0,-118.0,-1032.0,-53.0,96.0,568.0,-367.0,454.0
19:50:40.218000,-51.0,-72.0,-193.0,-1037.0,-8.0,99.0,585.0,-363.0,448.0
19:50:40.223000,-42.0,-55.0,-252.0,-1023.0,0.0,106.0,585.0,-363.0,448.0
19:50:40.227000,-58.0,-41.0,-263.0,-1028.0,15.0,116.0,585.0,-363.0,448.0
19:50:40.232000,-77.0,-41.0,-284.0,-1058.0,42.0,119.0,583.0,-378.0,436.0
19:50:40.237000,-104.0,-25.0,-310.0,-1084.0,45.0,116.0,583.0,-378.0,436.0
19:50:40.242000,-122.0,-13.0,-342.0,-1100.0,32.0,114.0,588.0,-364.0,441.0
19:50:40.246000,-137.0,11.0,-382.0,-1095.0,5.0,112.0,588.0,-364.0,441.0
19:50:40.251000,-140.0,28.0,-428.0,-1079.0,-16.0,119.0,588.0,-364.0,441.0
19:50:40.256000,-124.0,32.0,-464.0,-1059.0,-63.0,122.0,585.0,-366.0,451.0
19:50:40.261000,-110.0,44.0,-438.0,-1059.0,-63.0,122.0,585.0,-366.0,451.0
19:50:40.265000,-91.0,35.0,-432.0,-1068.0,-86.0,132.0,582.0,-358.0,444.0
19:50:40.270000,-78.0,39.0,-471.0,-1116.0,-44.0,143.0,582.0,-358.0,444.0
19:50:40.274000,-84.0,39.0,-524.0,-1159.0,3.0,149.0,582.0,-358.0,444.0
19:50:40.279000,-98.0,44.0,-572.0,-1175.0,35.0,159.0,579.0,-361.0,444.0
19:50:40.284000,-102.0,45.0,-609.0,-1168.0,45.0,167.0,579.0,-361.0,444.0
19:50:40.289000,-109.0,54.0,-620.0,-1159.0,31.0,173.0,586.0,-349.0,451.0
19:50:40.293000,-115.0,59.0,-624.0,-1153.0,8.0,173.0,586.0,-349.0,451.0
19:50:40.298000,-115.0,59.0,-624.0,-1154.0,-20.0,168.0,586.0,-349.0,451.0
19:50:40.303000,-130.0,133.0,-578.0,-1170.0,-53.0,145.0,574.0,-346.0,453.0
19:50:40.308000,-130.0,133.0,-578.0,-1210.0,-45.0,165.0,574.0,-346.0,453.0
19:50:40.312000,-140.0,121.0,-575.0,-1222.0,-62.0,142.0,592.0,-351.0,453.0
19:50:40.317000,-206.0,266.0,-524.0,-1295.0,-89.0,104.0,592.0,-351.0,453.0
19:50:40.321000,-287.0,343.0,-501.0,-1346.0,-64.0,147.0,592.0,-351.0,453.0
19:50:40.326000,-277.0,272.0,-550.0,-1233.0,-87.0,152.0,586.0,-345.0,454.0
19:50:40.331000,-246.0,248.0,-599.0,-1112.0,-156.0,121.0,586.0,-345.0,454.0
19:50:40.336000,-214.0,262.0,-657.0,-1065.0,-255.0,115.0,580.0,-342.0,453.0
19:50:40.340000,-177.0,265.0,-690.0,-1049.0,-368.0,115.0,580.0,-342.0,453.0
19:50:40.345000,-152.0,274.0,-672.0,-1050.0,-455.0,109.0,580.0,-342.0,453.0
19:50:40.350000,-146.0,284.0,-634.0,-1078.0,-489.0,132.0,585.0,-351.0,459.0
19:50:40.355000,-160.0,249.0,-662.0,-1079.0,-453.0,134.0,585.0,-351.0,459.0
19:50:40.359000,-171.0,250.0,-772.0,-1079.0,-453.0,134.0,577.0,-339.0,463.0
19:50:40.364000,-146.0,270.0,-871.0,-1029.0,-409.0,88.0,577.0,-339.0,463.0
19:50:40.368000,-102.0,278.0,-910.0,-1029.0,-409.0,88.0,577.0,-339.0,463.0
19:50:40.373000,-66.0,301.0,-886.0,-1022.0,-452.0,77.0,577.0,-339.0,462.0
19:50:40.378000,-60.0,280.0,-834.0,-1041.0,-509.0,82.0,577.0,-339.0,462.0
19:50:40.382000,-63.0,268.0,-854.0,-1103.0,-471.0,68.0,576.0,-337.0,466.0
19:50:40.387000,-49.0,284.0,-904.0,-1103.0,-471.0,68.0,576.0,-337.0,466.0
19:50:40.392000,-46.0,298.0,-938.0,-1089.0,-467.0,64.0,576.0,-337.0,466.0
19:50:40.397000,-51.0,289.0,-1010.0,-1083.0,-460.0,70.0,570.0,-324.0,460.0
19:50:40.402000,-78.0,308.0,-1106.0,-1068.0,-435.0,70.0,570.0,-324.0,460.0
19:50:40.406000,-86.0,293.0,-1155.0,-1020.0,-414.0,74.0,576.0,-330.0,466.0
19:50:40.411000,-89.0,275.0,-1169.0,-964.0,-410.0,75.0,576.0,-330.0,466.0
19:50:40.415000,-89.0,275.0,-1169.0,-951.0,-426.0,65.0,576.0,-330.0,466.0
19:50:40.420000,-85.0,266.0,-1164.0,-998.0,-432.0,54.0,567.0,-315.0,471.0
19:50:40.424000,-98.0,259.0,-1186.0,-1069.0,-367.0,57.0,567.0,-315.0,471.0
19:50:40.430000,-121.0,241.0,-1271.0,-1075.0,-289.0,49.0,547.0,-313.0,481.0
19:50:40.434000,-136.0,250.0,-1281.0,-1028.0,-244.0,37.0,547.0,-313.0,481.0
19:50:40.439000,-148.0,237.0,-1235.0,-1013.0,-190.0,42.0,561.0,-306.0,477.0
19:50:40.444000,-175.0,228.0,-1207.0,-1018.0,-135.0,36.0,561.0,-306.0,477.0
19:50:40.448000,-180.0,220.0,-1194.0,-1026.0,-91.0,25.0,561.0,-306.0,477.0
19:50:40.453000,-173.0,205.0,-1183.0,-1044.0,-65.0,16.0,571.0,-297.0,481.0
19:50:40.458000,-193.0,209.0,-1182.0,-1082.0,-49.0,19.0,571.0,-297.0,481.0
19:50:40.463000,-233.0,207.0,-1196.0,-1082.0,-42.0,19.0,568.0,-280.0,475.0
19:50:40.467000,-280.0,215.0,-1203.0,-1128.0,-46.0,10.0,568.0,-280.0,475.0
19:50:40.471000,-310.0,229.0,-1190.0,-1127.0,-55.0,-1.0,568.0,-280.0,475.0
19:50:40.477000,-331.0,244.0,-1138.0,-1127.0,-55.0,-1.0,555.0,-280.0,483.0
19:50:40.481000,-364.0,256.0,-1073.0,-1118.0,-74.0,-4.0,555.0,-280.0,483.0
19:50:40.486000,-388.0,268.0,-1043.0,-1118.0,-73.0,-5.0,559.0,-285.0,489.0
19:50:40.491000,-399.0,282.0,-1044.0,-1118.0,-53.0,-12.0,559.0,-285.0,489.0
19:50:40.495000,-402.0,290.0,-1039.0,-1099.0,-43.0,-16.0,559.0,-285.0,489.0
19:50:40.500000,-400.0,298.0,-1004.0,-1069.0,-35.0,-17.0,558.0,-280.0,490.0
19:50:40.505000,-403.0,291.0,-961.0,-1054.0,-31.0,-13.0,558.0,-280.0,490.0
19:50:40.510000,-399.0,270.0,-946.0,-1057.0,-31.0,-5.0,537.0,-273.0,496.0
19:50:40.514000,-399.0,270.0,-946.0,-1054.0,-34.0,-9.0,537.0,-273.0,496.0
19:50:40.518000,-392.0,261.0,-966.0,-1026.0,-43.0,-19.0,537.0,-273.0,496.0
19:50:40.523000,-358.0,247.0,-984.0,-984.0,-70.0,-20.0,543.0,-261.0,489.0
19:50:40.528000,-317.0,213.0,-975.0,-948.0,-113.0,-18.0,543.0,-261.0,489.0
19:50:40.533000,-282.0,177.0,-947.0,-920.0,-146.0,-22.0,543.0,-267.0,495.0
19:50:40.538000,-236.0,135.0,-926.0,-904.0,-157.0,-30.0,543.0,-267.0,495.0
19:50:40.542000,-177.0,93.0,-917.0,-897.0,-141.0,-31.0,543.0,-267.0,495.0
19:50:40.547000,-130.0,48.0,-918.0,-901.0,-95.0,-28.0,540.0,-271.0,508.0
19:50:40.552000,-89.0,11.0,-921.0,-912.0,-41.0,-30.0,540.0,-271.0,508.0
19:50:40.556000,-42.0,-20.0,-924.0,-937.0,10.0,-32.0,537.0,-256.0,498.0
19:50:40.561000,-8.0,-44.0,-929.0,-968.0,47.0,-27.0,537.0,-256.0,498.0
19:50:40.565000,-14.0,-52.0,-921.0,-1003.0,87.0,-16.0,537.0,-256.0,498.0
19:50:40.571000,-13.0,-74.0,-912.0,-1044.0,134.0,-17.0,528.0,-259.0,510.0
19:50:40.575000,2.0,-79.0,-915.0,-1078.0,163.0,-22.0,528.0,-259.0,510.0
19:50:40.580000,3.0,-76.0,-904.0,-1078.0,163.0,-22.0,532.0,-253.0,504.0
19:50:40.585000,-13.0,-69.0,-872.0,-1100.0,208.0,-5.0,532.0,-253.0,504.0
19:50:40.589000,-25.0,-61.0,-858.0,-1123.0,208.0,-5.0,532.0,-253.0,504.0
19:50:40.594000,-39.0,-49.0,-863.0,-1147.0,242.0,-2.0,534.0,-244.0,499.0
19:50:40.599000,-54.0,-30.0,-860.0,-1153.0,256.0,0.0,534.0,-244.0,499.0
19:50:40.603000,-75.0,-9.0,-841.0,-1129.0,220.0,6.0,523.0,-238.0,501.0
19:50:40.608000,-88.0,5.0,-820.0,-1129.0,220.0,6.0,523.0,-238.0,501.0
19:50:40.612000,-94.0,16.0,-799.0,-1121.0,202.0,5.0,523.0,-238.0,501.0
19:50:40.618000,-89.0,29.0,-777.0,-1104.0,172.0,2.0,528.0,-229.0,499.0
19:50:40.622000,-84.0,46.0,-754.0,-1080.0,141.0,-3.0,528.0,-229.0,499.0
19:50:40.627000,-68.0,54.0,-741.0,-1059.0,115.0,-4.0,528.0,-232.0,508.0
19:50:40.632000,-39.0,56.0,-734.0,-1039.0,102.0,-6.0,528.0,-232.0,508.0
19:50:40.636000,-39.0,56.0,-734.0,-1013.0,103.0,-10.0,528.0,-232.0,508.0
19:50:40.641000,-5.0,58.0,-754.0,-976.0,113.0,-11.0,522.0,-231.0,508.0
19:50:40.646000,23.0,62.0,-763.0,-942.0,115.0,-6.0,522.0,-231.0,508.0
19:50:40.650000,47.0,60.0,-751.0,-935.0,131.0,0.0,517.0,-225.0,517.0
19:50:40.655000,67.0,61.0,-746.0,-947.0,154.0,8.0,517.0,-225.0,517.0
19:50:40.659000,83.0,58.0,-749.0,-953.0,171.0,15.0,517.0,-225.0,517.0
19:50:40.665000,105.0,56.0,-744.0,-955.0,190.0,20.0,522.0,-219.0,507.0
19:50:40.669000,125.0,54.0,-742.0,-960.0,208.0,26.0,522.0,-219.0,507.0
19:50:40.674000,133.0,64.0,-737.0,-964.0,231.0,35.0,507.0,-204.0,511.0
19:50:40.679000,142.0,68.0,-721.0,-970.0,251.0,45.0,507.0,-204.0,511.0
19:50:40.683000,150.0,80.0,-696.0,-981.0,266.0,55.0,507.0,-204.0,511.0
19:50:40.688000,155.0,93.0,-687.0,-999.0,291.0,68.0,520.0,-207.0,511.0
19:50:40.693000,156.0,105.0,-685.0,-1009.0,317.0,78.0,520.0,-207.0,511.0
19:50:40.697000,156.0,118.0,-681.0,-1011.0,340.0,89.0,511.0,-207.0,511.0
19:50:40.702000,166.0,118.0,-690.0,-1011.0,340.0,89.0,511.0,-207.0,511.0
19:50:40.706000,173.0,126.0,-718.0,-1006.0,362.0,99.0,511.0,-207.0,511.0
19:50:40.712000,189.0,121.0,-721.0,-982.0,372.0,109.0,496.0,-201.0,511.0
19:50:40.716000,200.0,124.0,-685.0,-947.0,371.0,118.0,496.0,-201.0,511.0
19:50:40.721000,196.0,134.0,-655.0,-926.0,371.0,122.0,504.0,-198.0,505.0
19:50:40.726000,186.0,139.0,-637.0,-924.0,378.0,133.0,504.0,-198.0,505.0
19:50:40.730000,186.0,139.0,-637.0,-924.0,393.0,141.0,504.0,-198.0,505.0
19:50:40.735000,198.0,151.0,-632.0,-927.0,407.0,141.0,507.0,-187.0,505.0
