hh:mm:ss.ms,gyroX[mdps],gyroY[mdps],gyroZ[mdps],accX[mg],accY[mg],accZ[mg],magX[mG],magY[mG],magZ[mG]
19:53:33.407000,-139.0,25.0,111.0,-657.0,564.0,7.0,711.0,-508.0,394.0
19:53:33.411000,-139.0,25.0,111.0,-723.0,576.0,-16.0,711.0,-508.0,394.0
19:53:33.417000,-261.0,68.0,119.0,-784.0,558.0,-24.0,709.0,-490.0,406.0
19:53:33.421000,-287.0,88.0,95.0,-759.0,448.0,-20.0,709.0,-490.0,406.0
19:53:33.426000,-287.0,88.0,95.0,-652.0,266.0,-11.0,714.0,-502.0,400.0
19:53:33.431000,-248.0,84.0,59.0,-538.0,91.0,-3.0,714.0,-502.0,400.0
19:53:33.435000,-156.0,58.0,37.0,-493.0,6.0,0.0,714.0,-502.0,400.0
19:53:33.440000,-52.0,24.0,30.0,-534.0,51.0,4.0,715.0,-495.0,408.0
19:53:33.445000,27.0,-1.0,11.0,-617.0,182.0,8.0,715.0,-495.0,408.0
19:53:33.449000,67.0,-21.0,-14.0,-683.0,319.0,13.0,714.0,-505.0,409.0
19:53:33.454000,70.0,-38.0,-22.0,-716.0,422.0,20.0,714.0,-505.0,409.0
19:53:33.458000,46.0,-59.0,-2.0,-726.0,488.0,35.0,714.0,-505.0,409.0
19:53:33.464000,19.0,-94.0,39.0,-741.0,535.0,53.0,702.0,-495.0,403.0
19:53:33.468000,-14.0,-133.0,98.0,-774.0,550.0,73.0,702.0,-495.0,403.0
19:53:33.473000,-56.0,-162.0,175.0,-810.0,501.0,77.0,715.0,-499.0,400.0
19:53:33.478000,-79.0,-175.0,259.0,-844.0,408.0,78.0,715.0,-499.0,400.0
19:53:33.482000,-82.0,-176.0,315.0,-866.0,313.0,102.0,715.0,-499.0,400.0
19:53:33.487000,-63.0,-172.0,338.0,-866.0,225.0,136.0,712.0,-489.0,393.0
19:53:33.492000,-25.0,-168.0,338.0,-830.0,147.0,177.0,712.0,-489.0,393.0
19:53:33.496000,28.0,-167.0,329.0,-830.0,147.0,177.0,715.0,-502.0,397.0
19:53:33.501000,86.0,-171.0,309.0,-801.0,88.0,220.0,715.0,-502.0,397.0
19:53:33.505000,138.0,-175.0,279.0,-788.0,73.0,251.0,715.0,-502.0,397.0
19:53:33.511000,162.0,-177.0,250.0,-800.0,123.0,274.0,705.0,-498.0,390.0
19:53:33.515000,149.0,-186.0,226.0,-836.0,228.0,303.0,705.0,-498.0,390.0
19:53:33.520000,113.0,-198.0,224.0,-886.0,345.0,331.0,708.0,-504.0,393.0
19:53:33.525000,67.0,-196.0,252.0,-965.0,436.0,338.0,708.0,-504.0,393.0
19:53:33.529000,67.0,-196.0,252.0,-1091.0,509.0,330.0,708.0,-504.0,393.0
19:53:33.534000,-38.0,-141.0,295.0,-1241.0,569.0,321.0,714.0,-502.0,394.0
19:53:33.539000,-38.0,-141.0,295.0,-1367.0,582.0,310.0,714.0,-502.0,394.0
19:53:33.543000,-70.0,-93.0,298.0,-1454.0,538.0,290.0,702.0,-499.0,396.0
19:53:33.548000,-68.0,-37.0,304.0,-1516.0,483.0,269.0,702.0,-499.0,396.0
19:53:33.552000,-42.0,19.0,305.0,-1561.0,456.0,248.0,702.0,-499.0,396.0
19:53:33.558000,-3.0,73.0,301.0,-1583.0,466.0,213.0,702.0,-505.0,393.0
19:53:33.562000,30.0,126.0,298.0,-1584.0,524.0,178.0,702.0,-505.0,393.0
19:53:33.567000,35.0,169.0,297.0,-1548.0,603.0,164.0,712.0,-504.0,393.0
19:53:33.572000,-3.0,191.0,315.0,-1454.0,635.0,163.0,712.0,-504.0,393.0
19:53:33.576000,-65.0,189.0,350.0,-1317.0,597.0,151.0,712.0,-504.0,393.0
19:53:33.581000,-120.0,165.0,370.0,-1163.0,508.0,135.0,706.0,-493.0,405.0
19:53:33.586000,-159.0,114.0,368.0,-1017.0,390.0,128.0,706.0,-493.0,405.0
19:53:33.590000,-175.0,35.0,356.0,-1017.0,390.0,128.0,699.0,-505.0,406.0
19:53:33.595000,-168.0,-52.0,341.0,-857.0,168.0,101.0,699.0,-505.0,406.0
19:53:33.599000,-142.0,-134.0,322.0,-857.0,168.0,101.0,699.0,-505.0,406.0
19:53:33.605000,-112.0,-196.0,299.0,-865.0,97.0,76.0,693.0,-505.0,394.0
19:53:33.609000,-89.0,-238.0,278.0,-905.0,54.0,53.0,693.0,-505.0,394.0
19:53:33.614000,-81.0,-268.0,261.0,-949.0,49.0,38.0,691.0,-504.0,393.0
19:53:33.619000,-95.0,-287.0,247.0,-984.0,84.0,27.0,691.0,-504.0,393.0
19:53:33.623000,-130.0,-303.0,245.0,-1009.0,134.0,18.0,691.0,-504.0,393.0
19:53:33.628000,-182.0,-310.0,258.0,-1029.0,156.0,1.0,691.0,-505.0,399.0
19:53:33.633000,-239.0,-305.0,280.0,-1045.0,131.0,-33.0,691.0,-505.0,399.0
19:53:33.637000,-294.0,-290.0,293.0,-1055.0,67.0,-77.0,694.0,-507.0,394.0
19:53:33.642000,-340.0,-265.0,290.0,-1049.0,-29.0,-126.0,694.0,-507.0,394.0
19:53:33.646000,-340.0,-265.0,290.0,-1021.0,-156.0,-179.0,694.0,-507.0,394.0
19:53:33.652000,-368.0,-232.0,268.0,-977.0,-309.0,-235.0,691.0,-493.0,378.0
19:53:33.656000,-369.0,-192.0,230.0,-933.0,-467.0,-284.0,691.0,-493.0,378.0
19:53:33.661000,-336.0,-149.0,188.0,-906.0,-586.0,-321.0,693.0,-502.0,388.0
19:53:33.666000,-277.0,-109.0,143.0,-911.0,-616.0,-347.0,693.0,-502.0,388.0
19:53:33.670000,-208.0,-67.0,98.0,-953.0,-526.0,-363.0,693.0,-502.0,388.0
19:53:33.675000,-163.0,-27.0,50.0,-1017.0,-359.0,-373.0,688.0,-507.0,409.0
19:53:33.680000,-156.0,21.0,1.0,-1073.0,-204.0,-380.0,688.0,-507.0,409.0
19:53:33.684000,-179.0,69.0,-38.0,-1097.0,-104.0,-378.0,690.0,-499.0,403.0
19:53:33.689000,-214.0,105.0,-58.0,-1079.0,-61.0,-361.0,690.0,-499.0,403.0
19:53:33.693000,-247.0,122.0,-50.0,-1034.0,-54.0,-328.0,690.0,-499.0,403.0
19:53:33.699000,-267.0,118.0,-27.0,-991.0,-58.0,-288.0,681.0,-507.0,396.0
19:53:33.703000,-277.0,98.0,9.0,-971.0,-79.0,-246.0,681.0,-507.0,396.0
19:53:33.708000,-283.0,73.0,72.0,-971.0,-79.0,-246.0,693.0,-495.0,391.0
19:53:33.713000,-290.0,48.0,177.0,-1006.0,-202.0,-183.0,693.0,-495.0,391.0
19:53:33.717000,-287.0,28.0,324.0,-1006.0,-202.0,-183.0,693.0,-495.0,391.0
19:53:33.722000,-276.0,18.0,484.0,-1047.0,-287.0,-156.0,684.0,-511.0,394.0
19:53:33.727000,-249.0,11.0,635.0,-1082.0,-372.0,-115.0,684.0,-511.0,394.0
19:53:33.731000,-184.0,3.0,766.0,-1076.0,-486.0,-72.0,681.0,-505.0,394.0
19:53:33.736000,-66.0,-19.0,879.0,-1019.0,-627.0,-36.0,681.0,-505.0,394.0
19:53:33.740000,-66.0,-19.0,879.0,-941.0,-738.0,0.0,681.0,-505.0,394.0
19:53:33.746000,200.0,-96.0,1077.0,-883.0,-734.0,35.0,666.0,-519.0,393.0
19:53:33.750000,261.0,-113.0,1148.0,-864.0,-591.0,76.0,666.0,-519.0,393.0
19:53:33.755000,261.0,-113.0,1148.0,-875.0,-381.0,140.0,661.0,-525.0,402.0
19:53:33.760000,240.0,-112.0,1204.0,-870.0,-217.0,213.0,661.0,-525.0,402.0
19:53:33.764000,169.0,-103.0,1271.0,-813.0,-187.0,251.0,661.0,-525.0,402.0
19:53:33.769000,117.0,-90.0,1365.0,-746.0,-262.0,247.0,648.0,-523.0,409.0
19:53:33.774000,123.0,-77.0,1470.0,-754.0,-315.0,236.0,648.0,-523.0,409.0
19:53:33.778000,150.0,-39.0,1577.0,-861.0,-267.0,254.0,655.0,-537.0,399.0
19:53:33.783000,149.0,31.0,1673.0,-977.0,-200.0,294.0,655.0,-537.0,399.0
19:53:33.787000,144.0,120.0,1784.0,-985.0,-256.0,312.0,655.0,-537.0,399.0
19:53:33.793000,190.0,206.0,1934.0,-872.0,-456.0,294.0,649.0,-537.0,405.0
19:53:33.797000,315.0,272.0,2125.0,-714.0,-678.0,258.0,649.0,-537.0,405.0
19:53:33.801000,494.0,315.0,2340.0,-579.0,-764.0,239.0,634.0,-570.0,420.0
19:53:33.807000,655.0,336.0,2566.0,-483.0,-640.0,248.0,634.0,-570.0,420.0
19:53:33.811000,730.0,349.0,2783.0,-483.0,-640.0,248.0,634.0,-570.0,420.0
19:53:33.816000,690.0,350.0,2965.0,-405.0,-93.0,274.0,634.0,-570.0,420.0
19:53:33.820000,581.0,357.0,3115.0,-309.0,-118.0,284.0,634.0,-570.0,420.0
19:53:33.825000,429.0,353.0,3265.0,-170.0,14.0,279.0,606.0,-597.0,423.0
19:53:33.830000,260.0,347.0,3445.0,-9.0,-7.0,268.0,606.0,-597.0,423.0
19:53:33.835000,93.0,365.0,3639.0,130.0,-147.0,236.0,589.0,-609.0,420.0
19:53:33.840000,-41.0,400.0,3825.0,233.0,-357.0,189.0,589.0,-609.0,420.0
19:53:33.844000,-131.0,463.0,3985.0,328.0,-610.0,126.0,589.0,-609.0,420.0
19:53:33.849000,-174.0,549.0,4112.0,421.0,-864.0,46.0,564.0,-630.0,432.0
19:53:33.854000,-174.0,646.0,4205.0,494.0,-1058.0,-42.0,564.0,-630.0,432.0
19:53:33.858000,-155.0,758.0,4252.0,529.0,-1151.0,-133.0,538.0,-661.0,430.0
19:53:33.863000,-155.0,758.0,4252.0,526.0,-1143.0,-215.0,538.0,-661.0,430.0
19:53:33.867000,-121.0,874.0,4233.0,506.0,-1082.0,-284.0,538.0,-661.0,430.0
19:53:33.872000,-78.0,986.0,4151.0,494.0,-1033.0,-349.0,514.0,-675.0,433.0
19:53:33.877000,-18.0,1086.0,4048.0,495.0,-1012.0,-419.0,514.0,-675.0,433.0
19:53:33.882000,50.0,1176.0,3949.0,490.0,-973.0,-484.0,493.0,-696.0,430.0
19:53:33.887000,128.0,1241.0,3854.0,466.0,-843.0,-526.0,493.0,-696.0,430.0
19:53:33.891000,214.0,1262.0,3754.0,406.0,-557.0,-532.0,493.0,-696.0,430.0
19:53:33.896000,275.0,1234.0,3615.0,301.0,-118.0,-513.0,415.0,-721.0,465.0
19:53:33.901000,276.0,1173.0,3421.0,153.0,361.0,-492.0,415.0,-721.0,465.0
19:53:33.905000,217.0,1096.0,3185.0,-9.0,713.0,-462.0,405.0,-721.0,457.0
19:53:33.910000,133.0,997.0,2970.0,-141.0,838.0,-430.0,405.0,-721.0,457.0
19:53:33.914000,58.0,900.0,2830.0,-220.0,775.0,-391.0,405.0,-721.0,457.0
19:53:33.919000,13.0,795.0,2766.0,-246.0,642.0,-336.0,379.0,-727.0,454.0
19:53:33.924000,2.0,679.0,2742.0,-230.0,558.0,-276.0,379.0,-727.0,454.0
19:53:33.929000,2.0,555.0,2726.0,-230.0,558.0,-276.0,358.0,-732.0,456.0
19:53:33.934000,-17.0,432.0,2707.0,-196.0,568.0,-219.0,358.0,-732.0,456.0
19:53:33.941000,-83.0,330.0,2688.0,-165.0,726.0,-141.0,337.0,-739.0,465.0
19:53:33.943000,-182.0,249.0,2656.0,-165.0,726.0,-141.0,337.0,-739.0,465.0
19:53:33.947000,-293.0,189.0,2580.0,-153.0,774.0,-125.0,337.0,-739.0,465.0
19:53:33.952000,-394.0,142.0,2435.0,-95.0,780.0,-112.0,322.0,-739.0,457.0
19:53:33.957000,-453.0,77.0,2238.0,30.0,751.0,-73.0,322.0,-739.0,457.0
19:53:33.962000,-464.0,-9.0,2039.0,187.0,698.0,-8.0,294.0,-742.0,463.0
19:53:33.966000,-445.0,-91.0,1866.0,270.0,655.0,45.0,294.0,-742.0,463.0
19:53:33.971000,-445.0,-91.0,1866.0,184.0,649.0,67.0,294.0,-742.0,463.0
19:53:33.976000,-412.0,-140.0,1696.0,-40.0,660.0,54.0,279.0,-742.0,462.0
19:53:33.981000,-361.0,-140.0,1526.0,-296.0,644.0,16.0,279.0,-742.0,462.0
19:53:33.985000,-282.0,-105.0,1387.0,-510.0,603.0,-29.0,262.0,-735.0,459.0
19:53:33.990000,-179.0,-43.0,1294.0,-657.0,588.0,-77.0,262.0,-735.0,459.0
19:53:33.994000,-78.0,49.0,1229.0,-728.0,625.0,-105.0,262.0,-735.0,459.0
19:53:33.999000,12.0,149.0,1173.0,-713.0,704.0,-98.0,252.0,-739.0,453.0
19:53:34.004000,75.0,238.0,1125.0,-610.0,814.0,-65.0,252.0,-739.0,453.0
19:53:34.009000,88.0,301.0,1094.0,-451.0,933.0,-21.0,252.0,-735.0,460.0
19:53:34.013000,46.0,335.0,1083.0,-270.0,1008.0,21.0,252.0,-735.0,460.0
19:53:34.018000,-37.0,345.0,1100.0,-92.0,986.0,62.0,252.0,-735.0,460.0
19:53:34.023000,-135.0,330.0,1149.0,61.0,882.0,101.0,240.0,-733.0,462.0
19:53:34.028000,-223.0,284.0,1208.0,166.0,767.0,136.0,240.0,-733.0,462.0
19:53:34.032000,-300.0,214.0,1242.0,166.0,767.0,136.0,234.0,-733.0,462.0
19:53:34.037000,-368.0,140.0,1236.0,204.0,674.0,154.0,234.0,-733.0,462.0
19:53:34.041000,-437.0,82.0,1199.0,171.0,574.0,149.0,234.0,-733.0,462.0
19:53:34.046000,-494.0,46.0,1155.0,87.0,421.0,130.0,232.0,-724.0,460.0
19:53:34.051000,-524.0,34.0,1099.0,-7.0,197.0,98.0,232.0,-724.0,460.0
19:53:34.056000,-520.0,37.0,1026.0,-82.0,-71.0,45.0,217.0,-721.0,466.0
19:53:34.060000,-480.0,45.0,918.0,-133.0,-333.0,-23.0,217.0,-721.0,466.0
19:53:34.065000,-421.0,50.0,769.0,-179.0,-533.0,-75.0,217.0,-721.0,466.0
19:53:34.070000,-366.0,53.0,568.0,-235.0,-632.0,-96.0,216.0,-720.0,456.0
19:53:34.075000,-328.0,56.0,317.0,-286.0,-634.0,-107.0,216.0,-720.0,456.0
19:53:34.079000,-328.0,65.0,32.0,-301.0,-581.0,-131.0,214.0,-721.0,469.0
19:53:34.084000,-328.0,65.0,32.0,-275.0,-491.0,-125.0,214.0,-721.0,469.0
19:53:34.088000,-362.0,40.0,-283.0,-219.0,-401.0,-109.0,214.0,-721.0,469.0
19:53:34.093000,-410.0,-4.0,-611.0,-154.0,-392.0,-131.0,213.0,-709.0,456.0
19:53:34.098000,-433.0,-65.0,-915.0,-112.0,-516.0,-171.0,213.0,-709.0,456.0
19:53:34.103000,-411.0,-144.0,-1175.0,10.0,-805.0,-385.0,211.0,-714.0,456.0
19:53:34.107000,-662.0,54.0,-1321.0,987.0,-2117.0,-345.0,211.0,-714.0,456.0
19:53:34.111000,-345.0,697.0,-1022.0,2432.0,-3418.0,-528.0,211.0,-714.0,456.0
19:53:34.117000,51.0,536.0,2762.0,2390.0,-1499.0,-736.0,219.0,-711.0,456.0
19:53:34.122000,5898.0,-1852.0,-3958.0,-724.0,2297.0,1303.0,219.0,-711.0,456.0
19:53:34.126000,5851.0,-6026.0,-11573.0,-3606.0,3997.0,2045.0,270.0,-670.0,492.0
19:53:34.131000,-2013.0,-4664.0,-11990.0,-3438.0,3030.0,-92.0,270.0,-670.0,492.0
19:53:34.135000,-3424.0,-1060.0,-5119.0,29.0,-324.0,-1531.0,270.0,-670.0,492.0
19:53:34.140000,-3360.0,716.0,819.0,783.0,-3189.0,-108.0,331.0,-679.0,477.0
19:53:34.145000,-831.0,-879.0,2328.0,783.0,-3189.0,-108.0,331.0,-679.0,477.0
19:53:34.150000,-536.0,-126.0,793.0,-2587.0,-3764.0,211.0,334.0,-690.0,472.0
19:53:34.154000,-1178.0,981.0,748.0,-1954.0,-3928.0,-1414.0,334.0,-690.0,472.0
19:53:34.158000,-43.0,73.0,505.0,1236.0,-2985.0,-138.0,334.0,-690.0,472.0
19:53:34.164000,528.0,-644.0,251.0,1236.0,-2985.0,-138.0,315.0,-684.0,462.0
19:53:34.169000,-142.0,-588.0,275.0,884.0,-2708.0,-451.0,315.0,-684.0,462.0
19:53:34.173000,-679.0,-465.0,233.0,192.0,-2545.0,-613.0,324.0,-687.0,471.0
19:53:34.178000,-119.0,-328.0,-1440.0,-599.0,-2237.0,-748.0,324.0,-687.0,471.0
19:53:34.182000,-119.0,-328.0,-1440.0,-689.0,-2632.0,-786.0,324.0,-687.0,471.0
19:53:34.187000,-136.0,-590.0,-144.0,-310.0,-2853.0,-491.0,324.0,-685.0,469.0
19:53:34.192000,-136.0,-590.0,-144.0,-915.0,-2164.0,-458.0,324.0,-685.0,469.0
19:53:34.197000,117.0,-476.0,-1773.0,-1089.0,-2776.0,-765.0,345.0,-669.0,462.0
19:53:34.201000,107.0,-84.0,-1976.0,-493.0,-3289.0,-799.0,345.0,-669.0,462.0
19:53:34.205000,96.0,-208.0,-1175.0,-632.0,-1877.0,-311.0,345.0,-669.0,462.0
19:53:34.211000,769.0,-695.0,-411.0,-629.0,-1701.0,-490.0,342.0,-661.0,460.0
19:53:34.216000,-298.0,-159.0,-576.0,234.0,-2740.0,-508.0,342.0,-661.0,460.0
19:53:34.220000,-457.0,-472.0,-2247.0,685.0,-2635.0,-266.0,352.0,-657.0,468.0
19:53:34.225000,-52.0,-903.0,-2235.0,405.0,-2482.0,-717.0,352.0,-657.0,468.0
19:53:34.229000,97.0,-886.0,-2601.0,-109.0,-2144.0,-722.0,352.0,-657.0,468.0
19:53:34.234000,400.0,-1251.0,-2627.0,-618.0,-2068.0,-617.0,366.0,-646.0,465.0
19:53:34.239000,-20.0,-978.0,-2418.0,-887.0,-2790.0,-776.0,366.0,-646.0,465.0
19:53:34.243000,-266.0,-625.0,-2338.0,-638.0,-3267.0,-1035.0,391.0,-645.0,459.0
19:53:34.248000,349.0,-501.0,-1589.0,590.0,-3414.0,-915.0,391.0,-645.0,459.0
19:53:34.253000,2.0,-541.0,-605.0,590.0,-3414.0,-915.0,375.0,-633.0,471.0
19:53:34.258000,233.0,-839.0,-1722.0,1292.0,-2228.0,-536.0,375.0,-633.0,471.0
19:53:34.262000,-166.0,-1115.0,-3401.0,458.0,-1297.0,-311.0,375.0,-633.0,471.0
19:53:34.267000,-25.0,-1063.0,-3383.0,-68.0,-2209.0,-461.0,399.0,-627.0,456.0
19:53:34.272000,710.0,-1316.0,-2375.0,-795.0,-2539.0,-545.0,399.0,-627.0,456.0
19:53:34.277000,275.0,-966.0,-2111.0,-1301.0,-2286.0,-635.0,429.0,-607.0,454.0
19:53:34.281000,340.0,-706.0,-2373.0,-1103.0,-2425.0,-842.0,429.0,-607.0,454.0
19:53:34.285000,115.0,-398.0,-2085.0,-214.0,-2791.0,-782.0,429.0,-607.0,454.0
19:53:34.291000,-221.0,-845.0,-1466.0,1330.0,-2351.0,-441.0,447.0,-595.0,463.0
19:53:34.295000,-594.0,-1143.0,-1954.0,1351.0,-1827.0,-122.0,447.0,-595.0,463.0
19:53:34.300000,-594.0,-1143.0,-1954.0,-357.0,-2220.0,-466.0,457.0,-585.0,436.0
19:53:34.305000,310.0,-1241.0,-2794.0,-1659.0,-2321.0,-828.0,457.0,-585.0,436.0
19:53:34.309000,361.0,-732.0,-2949.0,-1475.0,-2167.0,-775.0,457.0,-585.0,436.0
19:53:34.314000,-107.0,-323.0,-2295.0,-706.0,-2239.0,-670.0,480.0,-582.0,439.0
19:53:34.319000,112.0,-223.0,-1665.0,256.0,-2211.0,-149.0,480.0,-582.0,439.0
19:53:34.324000,-242.0,-541.0,-1413.0,194.0,-1976.0,-365.0,478.0,-570.0,432.0
19:53:34.328000,-101.0,-442.0,-2280.0,-423.0,-2232.0,-669.0,478.0,-570.0,432.0
19:53:34.332000,283.0,-597.0,-2660.0,-287.0,-2283.0,-334.0,478.0,-570.0,432.0
19:53:34.338000,449.0,-596.0,-2394.0,-80.0,-1644.0,-468.0,490.0,-552.0,433.0
19:53:34.342000,280.0,-592.0,-2190.0,-39.0,-1973.0,-427.0,490.0,-552.0,433.0
19:53:34.347000,149.0,-643.0,-1772.0,-340.0,-2666.0,-584.0,513.0,-537.0,441.0
19:53:34.352000,360.0,-497.0,-1334.0,-855.0,-2414.0,-787.0,513.0,-537.0,441.0
19:53:34.356000,406.0,-149.0,-1466.0,-917.0,-1853.0,-591.0,513.0,-537.0,441.0
19:53:34.361000,436.0,-119.0,-1582.0,-630.0,-1633.0,-355.0,516.0,-532.0,435.0
19:53:34.365000,543.0,-227.0,-1630.0,-312.0,-1594.0,-430.0,516.0,-532.0,435.0
19:53:34.371000,640.0,-376.0,-1713.0,-312.0,-1594.0,-430.0,511.0,-514.0,456.0
19:53:34.375000,371.0,-259.0,-1497.0,-186.0,-1757.0,-433.0,511.0,-514.0,456.0
19:53:34.380000,318.0,-218.0,-1448.0,-494.0,-1832.0,-357.0,516.0,-510.0,435.0
19:53:34.385000,224.0,-266.0,-1448.0,-667.0,-1397.0,-354.0,516.0,-510.0,435.0
19:53:34.389000,-40.0,-60.0,-1177.0,-322.0,-1322.0,-391.0,516.0,-510.0,435.0
19:53:34.394000,150.0,-128.0,-765.0,266.0,-1770.0,-470.0,526.0,-513.0,439.0
19:53:34.399000,132.0,-98.0,-738.0,347.0,-1948.0,-472.0,526.0,-513.0,439.0
19:53:34.403000,135.0,-120.0,-955.0,-5.0,-1896.0,-384.0,526.0,-496.0,432.0
19:53:34.408000,278.0,-72.0,-805.0,-197.0,-1907.0,-492.0,526.0,-496.0,432.0
19:53:34.412000,278.0,-72.0,-805.0,-356.0,-1959.0,-390.0,526.0,-496.0,432.0
19:53:34.418000,191.0,-126.0,-903.0,-488.0,-1944.0,-513.0,532.0,-493.0,438.0
19:53:34.422000,282.0,151.0,-964.0,-572.0,-1943.0,-639.0,532.0,-493.0,438.0
19:53:34.427000,288.0,245.0,-1052.0,-666.0,-1602.0,-483.0,526.0,-477.0,435.0
19:53:34.432000,430.0,288.0,-1341.0,-421.0,-1633.0,-491.0,526.0,-477.0,435.0
19:53:34.436000,370.0,240.0,-1080.0,47.0,-2062.0,-462.0,526.0,-477.0,435.0
19:53:34.441000,373.0,287.0,-625.0,56.0,-1920.0,-396.0,528.0,-481.0,432.0
19:53:34.446000,277.0,212.0,-719.0,-270.0,-1571.0,-343.0,528.0,-481.0,432.0
19:53:34.450000,309.0,206.0,-1066.0,-183.0,-1661.0,-483.0,529.0,-481.0,426.0
19:53:34.455000,436.0,312.0,-953.0,-139.0,-1885.0,-264.0,529.0,-481.0,426.0
19:53:34.459000,373.0,175.0,-754.0,-322.0,-1699.0,-13.0,529.0,-481.0,426.0
19:53:34.465000,196.0,42.0,-688.0,-599.0,-1234.0,-127.0,528.0,-465.0,442.0
19:53:34.469000,154.0,32.0,-1117.0,-911.0,-624.0,-339.0,528.0,-465.0,442.0
19:53:34.474000,130.0,144.0,-1533.0,-911.0,-624.0,-339.0,529.0,-460.0,436.0
19:53:34.479000,36.0,21.0,-1534.0,-670.0,-456.0,-234.0,529.0,-460.0,436.0
19:53:34.483000,-37.0,-59.0,-854.0,77.0,-1174.0,-41.0,529.0,-460.0,436.0
19:53:34.488000,9.0,-88.0,-215.0,359.0,-1877.0,-111.0,529.0,-460.0,439.0
19:53:34.493000,16.0,-30.0,-462.0,-222.0,-1603.0,-161.0,529.0,-460.0,439.0
19:53:34.497000,64.0,14.0,-1155.0,-797.0,-1067.0,-198.0,546.0,-456.0,444.0
19:53:34.502000,6.0,-114.0,-1432.0,-826.0,-1150.0,-82.0,546.0,-456.0,444.0
19:53:34.506000,6.0,-114.0,-1432.0,-428.0,-1415.0,-19.0,546.0,-456.0,444.0
19:53:34.512000,-247.0,-170.0,-881.0,-186.0,-1081.0,-50.0,540.0,-444.0,421.0
19:53:34.516000,-269.0,-317.0,-1059.0,-486.0,-529.0,22.0,540.0,-444.0,421.0
19:53:34.521000,-269.0,-317.0,-1059.0,-976.0,-636.0,-145.0,553.0,-442.0,421.0
19:53:34.526000,-121.0,-197.0,-1229.0,-977.0,-1244.0,-168.0,553.0,-442.0,421.0
19:53:34.530000,-136.0,-177.0,-942.0,-567.0,-1243.0,109.0,553.0,-442.0,421.0
19:53:34.535000,-206.0,-227.0,-621.0,-241.0,-1031.0,29.0,544.0,-436.0,426.0
19:53:34.540000,-252.0,-33.0,-555.0,-184.0,-1274.0,48.0,544.0,-436.0,426.0
19:53:34.544000,-235.0,-258.0,-716.0,-417.0,-1455.0,96.0,541.0,-423.0,426.0
19:53:34.549000,-284.0,-179.0,-900.0,-479.0,-1491.0,-78.0,541.0,-423.0,426.0
19:53:34.553000,-188.0,-165.0,-823.0,-548.0,-1414.0,-38.0,541.0,-423.0,426.0
19:53:34.559000,-219.0,-179.0,-770.0,-884.0,-1259.0,-85.0,540.0,-430.0,432.0
19:53:34.563000,-170.0,-42.0,-958.0,-805.0,-1222.0,-119.0,540.0,-430.0,432.0
19:53:34.568000,-53.0,-135.0,-837.0,-805.0,-1269.0,-119.0,547.0,-424.0,427.0
19:53:34.573000,30.0,-217.0,-726.0,-223.0,-1133.0,-48.0,547.0,-424.0,427.0
19:53:34.577000,42.0,-249.0,-954.0,-456.0,-1051.0,-88.0,547.0,-424.0,427.0
19:53:34.582000,12.0,-228.0,-1110.0,-535.0,-1117.0,-111.0,550.0,-418.0,424.0
19:53:34.587000,-104.0,-242.0,-921.0,-535.0,-1117.0,-111.0,550.0,-418.0,424.0
19:53:34.591000,-96.0,-284.0,-714.0,-415.0,-1015.0,-77.0,558.0,-414.0,423.0
19:53:34.596000,-139.0,-267.0,-900.0,-498.0,-813.0,-100.0,558.0,-414.0,423.0
19:53:34.600000,-52.0,-226.0,-1124.0,-751.0,-952.0,-176.0,558.0,-414.0,423.0
19:53:34.606000,175.0,-218.0,-1351.0,-1028.0,-1562.0,-260.0,549.0,-411.0,421.0
19:53:34.610000,149.0,-191.0,-1117.0,-788.0,-1683.0,-220.0,549.0,-411.0,421.0
19:53:34.615000,166.0,-79.0,-890.0,-388.0,-1251.0,-159.0,555.0,-409.0,418.0
19:53:34.620000,63.0,-88.0,-1010.0,-529.0,-908.0,-128.0,555.0,-409.0,418.0
19:53:34.624000,63.0,-88.0,-1010.0,-804.0,-751.0,-58.0,555.0,-409.0,418.0
19:53:34.629000,60.0,-212.0,-1031.0,-862.0,-840.0,-100.0,553.0,-406.0,418.0
19:53:34.634000,0.0,-210.0,-1029.0,-749.0,-894.0,-221.0,553.0,-406.0,418.0
19:53:34.638000,-77.0,-134.0,-1054.0,-658.0,-750.0,-228.0,547.0,-390.0,409.0
19:53:34.643000,-97.0,-232.0,-1162.0,-610.0,-679.0,-130.0,547.0,-390.0,409.0
19:53:34.647000,-197.0,-363.0,-1026.0,-621.0,-870.0,-199.0,547.0,-390.0,409.0
19:53:34.653000,-246.0,-303.0,-1014.0,-722.0,-924.0,-279.0,562.0,-387.0,418.0
19:53:34.657000,-141.0,-395.0,-1185.0,-788.0,-861.0,-221.0,562.0,-387.0,418.0
19:53:34.662000,-192.0,-394.0,-1210.0,-706.0,-880.0,-295.0,562.0,-382.0,405.0
19:53:34.667000,-189.0,-259.0,-1057.0,-690.0,-994.0,-267.0,562.0,-382.0,405.0
19:53:34.671000,-134.0,-288.0,-974.0,-756.0,-1086.0,-169.0,562.0,-382.0,405.0
19:53:34.676000,-200.0,-253.0,-1012.0,-777.0,-940.0,-111.0,547.0,-379.0,421.0
19:53:34.681000,-273.0,-326.0,-1117.0,-760.0,-676.0,-33.0,547.0,-379.0,421.0
19:53:34.685000,-379.0,-352.0,-1148.0,-760.0,-676.0,-33.0,561.0,-369.0,408.0
19:53:34.690000,-485.0,-247.0,-1087.0,-723.0,-644.0,-131.0,561.0,-369.0,408.0
19:53:34.694000,-424.0,-282.0,-1073.0,-728.0,-644.0,-131.0,561.0,-369.0,408.0
19:53:34.700000,-372.0,-231.0,-872.0,-688.0,-922.0,-118.0,571.0,-366.0,408.0
19:53:34.704000,-298.0,-112.0,-684.0,-609.0,-1106.0,-186.0,571.0,-366.0,408.0
19:53:34.708000,-196.0,-270.0,-777.0,-941.0,-884.0,-26.0,565.0,-361.0,420.0
19:53:34.714000,-235.0,-296.0,-772.0,-941.0,-884.0,-26.0,565.0,-361.0,420.0
19:53:34.718000,-240.0,-189.0,-857.0,-902.0,-738.0,-123.0,565.0,-361.0,420.0
19:53:34.723000,-214.0,-151.0,-1046.0,-921.0,-645.0,-158.0,561.0,-360.0,402.0
19:53:34.728000,-256.0,-163.0,-947.0,-785.0,-728.0,-82.0,561.0,-360.0,402.0
19:53:34.732000,-256.0,-179.0,-676.0,-608.0,-871.0,-57.0,571.0,-355.0,396.0
19:53:34.737000,-136.0,-275.0,-508.0,-628.0,-905.0,-76.0,571.0,-355.0,396.0
19:53:34.741000,-136.0,-275.0,-508.0,-841.0,-956.0,-141.0,571.0,-355.0,396.0
19:53:34.747000,0.0,-239.0,-595.0,-1006.0,-922.0,-197.0,568.0,-336.0,399.0
19:53:34.751000,31.0,-162.0,-613.0,-1078.0,-1006.0,-272.0,568.0,-336.0,399.0
19:53:34.756000,285.0,8.0,-549.0,-1285.0,-1187.0,-174.0,562.0,-342.0,403.0
19:53:34.761000,205.0,-40.0,-702.0,-1101.0,-620.0,-11.0,562.0,-342.0,403.0
19:53:34.765000,100.0,-130.0,-744.0,-575.0,-34.0,-2.0,564.0,-346.0,400.0
19:53:34.770000,-86.0,-156.0,-669.0,-308.0,-167.0,-32.0,564.0,-346.0,400.0
19:53:34.774000,-207.0,-169.0,-491.0,-395.0,-419.0,-34.0,564.0,-346.0,400.0
19:53:34.779000,-221.0,-298.0,-500.0,-585.0,-726.0,-87.0,570.0,-327.0,397.0
19:53:34.784000,-125.0,-301.0,-494.0,-776.0,-915.0,-141.0,570.0,-327.0,397.0
19:53:34.789000,-129.0,-292.0,-371.0,-776.0,-915.0,-141.0,559.0,-346.0,406.0
19:53:34.794000,-108.0,-188.0,-336.0,-1137.0,-523.0,-200.0,559.0,-346.0,406.0
19:53:34.798000,-119.0,-153.0,-390.0,-913.0,-465.0,-115.0,559.0,-346.0,406.0
19:53:34.803000,-159.0,-154.0,-258.0,-913.0,-465.0,-115.0,570.0,-327.0,394.0
19:53:34.808000,-129.0,-158.0,-191.0,-692.0,-543.0,-98.0,570.0,-327.0,394.0
19:53:34.812000,-100.0,-175.0,-351.0,-774.0,-610.0,-107.0,571.0,-336.0,399.0
19:53:34.817000,-23.0,-166.0,-408.0,-906.0,-673.0,-135.0,571.0,-336.0,399.0
19:53:34.821000,302.0,15.0,-172.0,-898.0,-1029.0,-336.0,571.0,-336.0,399.0
19:53:34.826000,130.0,22.0,-211.0,-1098.0,-1179.0,-198.0,567.0,-333.0,390.0
19:53:34.831000,0.0,58.0,-445.0,-1327.0,-681.0,-7.0,567.0,-333.0,390.0
19:53:34.835000,0.0,58.0,-445.0,-1164.0,-119.0,-85.0,568.0,-333.0,403.0
19:53:34.841000,-132.0,36.0,-593.0,-848.0,-21.0,-45.0,568.0,-333.0,403.0
19:53:34.845000,-132.0,36.0,-593.0,-732.0,-269.0,-2.0,568.0,-333.0,403.0
19:53:34.850000,-109.0,-65.0,-596.0,-773.0,-471.0,-11.0,552.0,-331.0,399.0
19:53:34.855000,-156.0,-72.0,-599.0,-826.0,-610.0,-68.0,552.0,-331.0,399.0
19:53:34.859000,-176.0,-36.0,-546.0,-890.0,-679.0,-72.0,567.0,-328.0,400.0
19:53:34.864000,-144.0,-43.0,-485.0,-970.0,-757.0,-80.0,567.0,-328.0,400.0
19:53:34.868000,-66.0,-56.0,-389.0,-1026.0,-823.0,-102.0,567.0,-328.0,400.0
19:53:34.873000,39.0,-54.0,-239.0,-1093.0,-733.0,-106.0,564.0,-322.0,400.0
19:53:34.878000,55.0,0.0,-163.0,-1170.0,-541.0,-141.0,564.0,-322.0,400.0
19:53:34.882000,74.0,81.0,-144.0,-1114.0,-439.0,-143.0,565.0,-319.0,402.0
19:53:34.888000,28.0,124.0,-84.0,-922.0,-417.0,-66.0,565.0,-319.0,402.0
19:53:34.892000,-77.0,105.0,-21.0,-767.0,-417.0,-7.0,565.0,-319.0,402.0
19:53:34.897000,-61.0,70.0,21.0,-807.0,-833.0,-98.0,564.0,-315.0,396.0
19:53:34.902000,0.0,97.0,247.0,-1029.0,-774.0,-49.0,564.0,-315.0,396.0
19:53:34.906000,-32.0,-35.0,-214.0,-1029.0,-774.0,-49.0,570.0,-318.0,400.0
19:53:34.911000,70.0,-46.0,-483.0,-1030.0,-420.0,6.0,570.0,-318.0,400.0
19:53:34.915000,38.0,-34.0,-457.0,-870.0,-527.0,-60.0,570.0,-318.0,400.0
19:53:34.920000,63.0,-23.0,-418.0,-898.0,-540.0,-61.0,571.0,-312.0,403.0
19:53:34.925000,44.0,-35.0,-375.0,-970.0,-523.0,-63.0,571.0,-312.0,403.0
19:53:34.929000,32.0,-58.0,-282.0,-877.0,-666.0,-68.0,550.0,-315.0,414.0
19:53:34.935000,28.0,-33.0,-180.0,-877.0,-666.0,-68.0,550.0,-315.0,414.0
19:53:34.939000,26.0,-116.0,-389.0,-906.0,-582.0,-54.0,550.0,-315.0,414.0
19:53:34.944000,-37.0,-172.0,-384.0,-877.0,-414.0,13.0,550.0,-315.0,414.0
19:53:34.949000,-6.0,-121.0,-49.0,-757.0,-554.0,-90.0,550.0,-315.0,414.0
19:53:34.953000,-6.0,-138.0,-45.0,-926.0,-644.0,-136.0,568.0,-307.0,397.0
19:53:34.958000,-6.0,-138.0,-45.0,-1180.0,-550.0,-82.0,568.0,-307.0,397.0
19:53:34.962000,36.0,-142.0,-296.0,-1129.0,-566.0,-116.0,568.0,-307.0,397.0
19:53:34.967000,74.0,-107.0,-375.0,-939.0,-613.0,-92.0,562.0,-313.0,396.0
19:53:34.972000,62.0,-91.0,-207.0,-881.0,-576.0,-47.0,562.0,-313.0,396.0
19:53:34.977000,38.0,-78.0,-135.0,-955.0,-494.0,-56.0,576.0,-303.0,421.0
19:53:34.982000,47.0,-78.0,-232.0,-1001.0,-480.0,-53.0,576.0,-303.0,421.0
19:53:34.986000,59.0,-91.0,-322.0,-1012.0,-550.0,-35.0,576.0,-303.0,421.0
19:53:34.991000,79.0,-95.0,-296.0,-1040.0,-599.0,-36.0,565.0,-306.0,396.0
19:53:34.996000,68.0,-79.0,-301.0,-1103.0,-541.0,-58.0,565.0,-306.0,396.0
19:53:35.000000,76.0,-39.0,-401.0,-1069.0,-495.0,-49.0,573.0,-312.0,400.0
19:53:35.005000,46.0,-28.0,-398.0,-962.0,-472.0,-16.0,573.0,-312.0,400.0
19:53:35.009000,11.0,-28.0,-305.0,-940.0,-430.0,5.0,573.0,-312.0,400.0
19:53:35.014000,-7.0,-56.0,-271.0,-957.0,-420.0,1.0,553.0,-304.0,403.0
19:53:35.019000,5.0,-73.0,-319.0,-934.0,-462.0,-10.0,553.0,-304.0,403.0
19:53:35.024000,-16.0,-76.0,-312.0,-934.0,-462.0,-10.0,555.0,-306.0,408.0
19:53:35.029000,-45.0,-69.0,-321.0,-938.0,-464.0,-7.0,555.0,-306.0,408.0
19:53:35.033000,-34.0,-71.0,-435.0,-1011.0,-409.0,-21.0,555.0,-303.0,391.0
19:53:35.038000,-2.0,-51.0,-496.0,-1050.0,-430.0,-42.0,555.0,-303.0,391.0
19:53:35.042000,-1.0,-37.0,-469.0,-1033.0,-512.0,-48.0,555.0,-303.0,391.0
19:53:35.047000,-49.0,-31.0,-462.0,-996.0,-506.0,-17.0,570.0,-301.0,396.0
19:53:35.052000,-101.0,-38.0,-473.0,-951.0,-375.0,3.0,570.0,-301.0,396.0
19:53:35.057000,-127.0,-46.0,-422.0,-897.0,-333.0,-17.0,571.0,-300.0,399.0
19:53:35.061000,-123.0,-93.0,-441.0,-896.0,-393.0,-17.0,571.0,-300.0,399.0
19:53:35.066000,-123.0,-93.0,-441.0,-955.0,-422.0,-20.0,571.0,-300.0,399.0
19:53:35.071000,-114.0,-114.0,-537.0,-980.0,-465.0,-50.0,565.0,-294.0,409.0
19:53:35.076000,-107.0,-116.0,-574.0,-988.0,-534.0,-76.0,565.0,-294.0,409.0
19:53:35.080000,-70.0,-108.0,-595.0,-996.0,-599.0,-87.0,562.0,-292.0,397.0
19:53:35.085000,-33.0,-119.0,-605.0,-973.0,-589.0,-105.0,562.0,-292.0,397.0
19:53:35.089000,-13.0,-75.0,-586.0,-916.0,-506.0,-108.0,562.0,-292.0,397.0
19:53:35.094000,-16.0,-56.0,-536.0,-922.0,-428.0,-58.0,562.0,-288.0,399.0
19:53:35.099000,-21.0,-93.0,-595.0,-1018.0,-390.0,-72.0,562.0,-288.0,399.0
19:53:35.104000,-4.0,-87.0,-789.0,-1017.0,-413.0,-112.0,568.0,-276.0,391.0
19:53:35.108000,25.0,-79.0,-860.0,-927.0,-424.0,-110.0,568.0,-276.0,391.0
19:53:35.113000,22.0,-77.0,-763.0,-881.0,-414.0,-95.0,568.0,-276.0,391.0
19:53:35.118000,16.0,-105.0,-660.0,-918.0,-417.0,-106.0,556.0,-289.0,390.0
19:53:35.123000,12.0,-103.0,-683.0,-956.0,-412.0,-139.0,556.0,-289.0,390.0
19:53:35.127000,42.0,-83.0,-728.0,-956.0,-412.0,-139.0,559.0,-271.0,393.0
19:53:35.132000,60.0,-114.0,-746.0,-937.0,-386.0,-120.0,559.0,-271.0,393.0
19:53:35.136000,4.0,-133.0,-724.0,-863.0,-331.0,-70.0,559.0,-271.0,393.0
19:53:35.141000,-37.0,-129.0,-678.0,-797.0,-276.0,-61.0,556.0,-265.0,394.0
19:53:35.146000,-49.0,-102.0,-691.0,-852.0,-248.0,-95.0,556.0,-265.0,394.0
19:53:35.150000,-72.0,-112.0,-721.0,-929.0,-280.0,-99.0,562.0,-267.0,399.0
19:53:35.155000,-63.0,-108.0,-768.0,-973.0,-331.0,-96.0,562.0,-267.0,399.0
19:53:35.160000,-49.0,-101.0,-828.0,-1000.0,-359.0,-116.0,562.0,-267.0,399.0
19:53:35.165000,-21.0,-88.0,-886.0,-981.0,-380.0,-128.0,552.0,-267.0,406.0
19:53:35.170000,15.0,-85.0,-954.0,-930.0,-380.0,-130.0,552.0,-267.0,406.0
19:53:35.174000,75.0,-92.0,-1014.0,-886.0,-393.0,-119.0,555.0,-261.0,403.0
19:53:35.179000,75.0,-92.0,-1014.0,-832.0,-437.0,-113.0,555.0,-261.0,403.0
19:53:35.183000,130.0,-105.0,-1010.0,-800.0,-446.0,-92.0,555.0,-261.0,403.0
19:53:35.188000,141.0,-101.0,-968.0,-831.0,-437.0,-90.0,558.0,-246.0,393.0
19:53:35.193000,110.0,-52.0,-846.0,-909.0,-390.0,-107.0,558.0,-246.0,393.0
19:53:35.198000,135.0,-39.0,-849.0,-925.0,-246.0,-73.0,556.0,-250.0,409.0
19:53:35.202000,128.0,-67.0,-956.0,-893.0,-128.0,-30.0,556.0,-250.0,409.0
19:53:35.207000,95.0,-76.0,-991.0,-859.0,-129.0,-16.0,556.0,-250.0,409.0
19:53:35.212000,68.0,-86.0,-1001.0,-821.0,-126.0,0.0,550.0,-243.0,393.0
19:53:35.217000,0.0,-88.0,-985.0,-851.0,-96.0,26.0,550.0,-243.0,393.0
19:53:35.221000,-61.0,-107.0,-936.0,-866.0,-55.0,30.0,553.0,-234.0,394.0
19:53:35.226000,-114.0,-83.0,-962.0,-866.0,-26.0,24.0,553.0,-234.0,394.0
19:53:35.230000,-140.0,-61.0,-985.0,-872.0,-64.0,58.0,553.0,-234.0,394.0
19:53:35.235000,-153.0,-76.0,-968.0,-852.0,-86.0,72.0,546.0,-235.0,394.0
19:53:35.240000,-155.0,-44.0,-948.0,-830.0,-46.0,77.0,546.0,-235.0,394.0
19:53:35.245000,-147.0,-53.0,-928.0,-830.0,-46.0,77.0,537.0,-225.0,390.0
19:53:35.249000,-154.0,-124.0,-893.0,-801.0,30.0,132.0,537.0,-225.0,390.0
19:53:35.254000,-212.0,-112.0,-701.0,-758.0,71.0,143.0,537.0,-225.0,390.0
19:53:35.259000,-227.0,-119.0,-487.0,-761.0,73.0,120.0,541.0,-220.0,394.0
19:53:35.264000,-195.0,-126.0,-581.0,-837.0,175.0,119.0,541.0,-220.0,394.0
19:53:35.268000,-133.0,-116.0,-674.0,-883.0,286.0,111.0,540.0,-222.0,393.0
19:53:35.273000,-170.0,-65.0,-564.0,-822.0,240.0,103.0,540.0,-222.0,393.0
19:53:35.277000,-170.0,-65.0,-564.0,-805.0,226.0,100.0,540.0,-222.0,393.0
19:53:35.282000,-227.0,-9.0,-322.0,-929.0,322.0,100.0,535.0,-219.0,399.0
19:53:35.287000,-227.0,-9.0,-322.0,-1026.0,358.0,88.0,535.0,-219.0,399.0
19:53:35.292000,-249.0,30.0,-279.0,-1046.0,328.0,58.0,532.0,-223.0,406.0
19:53:35.296000,-235.0,67.0,-306.0,-1018.0,265.0,41.0,532.0,-223.0,406.0
19:53:35.301000,-212.0,94.0,-310.0,-942.0,153.0,29.0,532.0,-223.0,406.0
19:53:35.306000,-168.0,114.0,-273.0,-878.0,76.0,0.0,532.0,-223.0,396.0
19:53:35.311000,-84.0,125.0,-214.0,-833.0,44.0,-14.0,532.0,-223.0,396.0
19:53:35.315000,-14.0,110.0,-141.0,-769.0,21.0,-3.0,538.0,-210.0,409.0
19:53:35.320000,-4.0,95.0,-40.0,-713.0,60.0,-19.0,538.0,-210.0,409.0
19:53:35.324000,24.0,107.0,58.0,-758.0,134.0,-52.0,538.0,-210.0,409.0
19:53:35.329000,45.0,129.0,54.0,-866.0,224.0,-43.0,532.0,-207.0,402.0
19:53:35.334000,42.0,113.0,-39.0,-918.0,309.0,-32.0,532.0,-207.0,402.0
19:53:35.339000,37.0,113.0,-119.0,-918.0,309.0,-32.0,540.0,-214.0,394.0
19:53:35.343000,21.0,103.0,-128.0,-903.0,195.0,-40.0,540.0,-214.0,394.0
19:53:35.348000,14.0,90.0,-145.0,-903.0,195.0,-40.0,540.0,-214.0,394.0
19:53:35.353000,-4.0,89.0,-154.0,-921.0,211.0,-50.0,526.0,-205.0,406.0
19:53:35.358000,-11.0,82.0,-25.0,-912.0,223.0,-63.0,526.0,-205.0,406.0
19:53:35.362000,-53.0,111.0,16.0,-941.0,188.0,-71.0,543.0,-213.0,399.0
19:53:35.367000,-37.0,136.0,-43.0,-1010.0,176.0,-97.0,543.0,-213.0,399.0
19:53:35.371000,-36.0,106.0,-57.0,-996.0,167.0,-94.0,543.0,-213.0,399.0
19:53:35.376000,-35.0,84.0,-28.0,-934.0,140.0,-76.0,535.0,-205.0,420.0
19:53:35.381000,-52.0,84.0,14.0,-920.0,133.0,-94.0,535.0,-205.0,420.0
19:53:35.386000,-38.0,96.0,16.0,-970.0,135.0,-121.0,534.0,-213.0,403.0
19:53:35.390000,-2.0,95.0,-79.0,-1060.0,129.0,-142.0,534.0,-213.0,403.0
19:53:35.395000,-2.0,95.0,-79.0,-1074.0,120.0,-140.0,534.0,-213.0,403.0
19:53:35.400000,22.0,90.0,-133.0,-995.0,90.0,-137.0,544.0,-216.0,406.0
19:53:35.405000,49.0,69.0,-7.0,-956.0,90.0,-136.0,544.0,-216.0,406.0
19:53:35.409000,50.0,71.0,48.0,-961.0,102.0,-128.0,529.0,-217.0,406.0
19:53:35.414000,73.0,51.0,60.0,-967.0,84.0,-135.0,529.0,-217.0,406.0
19:53:35.418000,101.0,49.0,84.0,-961.0,91.0,-127.0,529.0,-217.0,406.0
19:53:35.423000,119.0,23.0,82.0,-950.0,120.0,-101.0,541.0,-219.0,409.0
19:53:35.428000,137.0,-35.0,102.0,-967.0,186.0,-83.0,541.0,-219.0,409.0
19:53:35.433000,114.0,-67.0,48.0,-965.0,274.0,-93.0,516.0,-211.0,417.0
19:53:35.437000,154.0,-67.0,-28.0,-958.0,306.0,-99.0,516.0,-211.0,417.0
19:53:35.442000,186.0,-59.0,38.0,-1040.0,289.0,-74.0,516.0,-211.0,417.0
19:53:35.447000,175.0,-32.0,39.0,-1114.0,282.0,-47.0,537.0,-213.0,406.0
19:53:35.452000,144.0,-30.0,30.0,-1120.0,329.0,-15.0,537.0,-213.0,406.0
19:53:35.456000,155.0,-29.0,-37.0,-1120.0,329.0,-15.0,541.0,-213.0,397.0
19:53:35.461000,171.0,-20.0,-9.0,-1102.0,391.0,-5.0,541.0,-213.0,397.0
19:53:35.465000,88.0,-57.0,70.0,-1099.0,372.0,55.0,541.0,-213.0,397.0
19:53:35.470000,58.0,-67.0,56.0,-1138.0,338.0,86.0,540.0,-213.0,400.0
19:53:35.475000,23.0,-30.0,-25.0,-1154.0,325.0,46.0,540.0,-213.0,400.0
19:53:35.480000,27.0,-14.0,-56.0,-1149.0,280.0,45.0,544.0,-213.0,414.0
19:53:35.484000,15.0,-51.0,-54.0,-1113.0,206.0,79.0,544.0,-213.0,414.0
19:53:35.489000,34.0,-91.0,-45.0,-1059.0,143.0,109.0,544.0,-213.0,414.0
19:53:35.494000,35.0,-83.0,7.0,-983.0,106.0,105.0,538.0,-208.0,405.0
19:53:35.499000,38.0,-53.0,80.0,-948.0,141.0,81.0,538.0,-208.0,405.0
19:53:35.503000,38.0,-53.0,80.0,-986.0,179.0,124.0,541.0,-207.0,399.0
19:53:35.508000,-4.0,-105.0,130.0,-1011.0,219.0,140.0,541.0,-207.0,399.0
19:53:35.512000,25.0,-113.0,85.0,-1010.0,220.0,121.0,541.0,-207.0,399.0
19:53:35.517000,36.0,-108.0,68.0,-1032.0,114.0,130.0,541.0,-211.0,418.0
19:53:35.522000,74.0,-93.0,76.0,-1082.0,47.0,134.0,541.0,-211.0,418.0
19:53:35.527000,58.0,-113.0,59.0,-1121.0,56.0,202.0,541.0,-211.0,418.0
19:53:35.531000,66.0,-252.0,61.0,-1067.0,72.0,203.0,541.0,-211.0,418.0
19:53:35.536000,24.0,-275.0,100.0,-1020.0,126.0,147.0,541.0,-211.0,418.0
19:53:35.541000,-12.0,-289.0,79.0,-1083.0,224.0,119.0,546.0,-208.0,393.0
19:53:35.546000,-23.0,-315.0,-3.0,-1153.0,240.0,62.0,546.0,-208.0,393.0
19:53:35.550000,-37.0,-255.0,-30.0,-1188.0,133.0,-5.0,538.0,-214.0,402.0
19:53:35.555000,-110.0,-155.0,80.0,-1351.0,61.0,25.0,538.0,-214.0,402.0
19:53:35.559000,-119.0,-210.0,73.0,-1432.0,112.0,47.0,538.0,-214.0,402.0
19:53:35.564000,-103.0,-163.0,-111.0,-1250.0,201.0,36.0,552.0,-217.0,396.0
19:53:35.569000,-150.0,-219.0,-305.0,-1250.0,201.0,36.0,552.0,-217.0,396.0
19:53:35.574000,-270.0,-335.0,-473.0,-1057.0,335.0,96.0,531.0,-214.0,408.0
19:53:35.578000,-396.0,-494.0,-427.0,-939.0,413.0,172.0,531.0,-214.0,408.0
19:53:35.583000,-543.0,-618.0,-187.0,-798.0,255.0,160.0,531.0,-214.0,408.0
19:53:35.588000,-587.0,-783.0,-44.0,-766.0,160.0,94.0,550.0,-211.0,405.0
19:53:35.593000,-616.0,-773.0,-71.0,-861.0,208.0,41.0,550.0,-211.0,405.0
19:53:35.597000,-588.0,-871.0,-164.0,-956.0,194.0,25.0,549.0,-214.0,396.0
19:53:35.602000,-660.0,-937.0,-256.0,-1007.0,322.0,96.0,549.0,-214.0,396.0
19:53:35.606000,-660.0,-937.0,-256.0,-997.0,470.0,144.0,549.0,-214.0,396.0
19:53:35.611000,-1007.0,-1243.0,-322.0,-960.0,527.0,223.0,550.0,-219.0,402.0
19:53:35.616000,-1007.0,-1243.0,-322.0,-971.0,554.0,296.0,550.0,-219.0,402.0
19:53:35.621000,-1117.0,-1465.0,-473.0,-991.0,461.0,255.0,564.0,-217.0,384.0
19:53:35.625000,-1204.0,-1582.0,-658.0,-935.0,359.0,228.0,564.0,-217.0,384.0
19:53:35.630000,-1270.0,-1678.0,-641.0,-922.0,233.0,231.0,564.0,-217.0,384.0
19:53:35.635000,-1369.0,-1760.0,-336.0,-906.0,112.0,211.0,558.0,-220.0,388.0
19:53:35.640000,-1481.0,-1783.0,66.0,-1008.0,162.0,264.0,558.0,-220.0,388.0
19:53:35.644000,-1611.0,-1885.0,155.0,-1123.0,332.0,320.0,567.0,-216.0,384.0
19:53:35.649000,-1724.0,-1921.0,-67.0,-1027.0,333.0,402.0,567.0,-216.0,384.0
19:53:35.653000,-1808.0,-2109.0,-150.0,-881.0,173.0,519.0,570.0,-229.0,375.0
19:53:35.658000,-1904.0,-2254.0,-171.0,-757.0,35.0,526.0,570.0,-229.0,375.0
19:53:35.662000,-1990.0,-2314.0,-65.0,-654.0,-111.0,529.0,570.0,-229.0,375.0
19:53:35.667000,-1990.0,-2423.0,156.0,-684.0,-222.0,579.0,562.0,-232.0,372.0
19:53:35.672000,-2023.0,-2494.0,192.0,-843.0,-225.0,645.0,562.0,-232.0,372.0
19:53:35.677000,-2032.0,-2599.0,-81.0,-843.0,-225.0,645.0,583.0,-232.0,366.0
19:53:35.682000,-2077.0,-2626.0,-181.0,-871.0,-201.0,682.0,583.0,-232.0,366.0
19:53:35.686000,-2102.0,-2641.0,-49.0,-739.0,-229.0,699.0,583.0,-232.0,366.0
19:53:35.691000,-2118.0,-2631.0,-9.0,-709.0,-200.0,709.0,591.0,-249.0,348.0
19:53:35.696000,-2138.0,-2624.0,-93.0,-844.0,-138.0,734.0,591.0,-249.0,348.0
19:53:35.701000,-2103.0,-2583.0,-97.0,-987.0,-150.0,724.0,598.0,-246.0,348.0
19:53:35.705000,-2124.0,-2552.0,-73.0,-1060.0,-220.0,718.0,598.0,-246.0,348.0
19:53:35.709000,-2124.0,-2552.0,-73.0,-1050.0,-224.0,742.0,598.0,-246.0,348.0
19:53:35.715000,-2095.0,-2437.0,140.0,-1029.0,-147.0,734.0,615.0,-249.0,321.0
19:53:35.719000,-2071.0,-2366.0,94.0,-1135.0,-83.0,746.0,615.0,-249.0,321.0
19:53:35.724000,-2071.0,-2366.0,94.0,-1243.0,-141.0,766.0,613.0,-264.0,310.0
19:53:35.729000,-2027.0,-2333.0,121.0,-1358.0,-258.0,770.0,613.0,-264.0,310.0
19:53:35.733000,-1979.0,-2267.0,100.0,-1434.0,-344.0,715.0,613.0,-264.0,310.0
19:53:35.738000,-1794.0,-2159.0,81.0,-1397.0,-422.0,670.0,630.0,-262.0,315.0
19:53:35.743000,-1600.0,-2053.0,170.0,-1353.0,-442.0,644.0,630.0,-262.0,315.0
19:53:35.748000,-1403.0,-1902.0,273.0,-1431.0,-428.0,652.0,630.0,-262.0,315.0
19:53:35.752000,-1194.0,-1849.0,289.0,-1564.0,-418.0,699.0,630.0,-262.0,315.0
19:53:35.756000,-989.0,-1817.0,184.0,-1534.0,-442.0,659.0,630.0,-262.0,315.0
19:53:35.762000,-714.0,-1720.0,175.0,-1416.0,-522.0,596.0,633.0,-274.0,273.0
19:53:35.766000,-429.0,-1598.0,245.0,-1311.0,-612.0,538.0,633.0,-274.0,273.0
19:53:35.771000,-87.0,-1414.0,399.0,-1311.0,-690.0,538.0,634.0,-274.0,274.0
19:53:35.776000,212.0,-1302.0,525.0,-1378.0,-716.0,564.0,634.0,-274.0,274.0
19:53:35.780000,436.0,-1171.0,588.0,-1474.0,-705.0,532.0,634.0,-274.0,274.0
19:53:35.785000,753.0,-1026.0,526.0,-1474.0,-705.0,532.0,640.0,-277.0,267.0
19:53:35.790000,1054.0,-978.0,381.0,-1511.0,-792.0,526.0,640.0,-277.0,267.0
19:53:35.795000,1323.0,-896.0,445.0,-1317.0,-977.0,585.0,633.0,-277.0,249.0
19:53:35.799000,1581.0,-819.0,547.0,-1145.0,-1050.0,636.0,633.0,-277.0,249.0
19:53:35.803000,1906.0,-687.0,525.0,-1175.0,-980.0,632.0,633.0,-277.0,249.0
19:53:35.809000,2219.0,-597.0,455.0,-1214.0,-916.0,640.0,654.0,-285.0,243.0
19:53:35.813000,2480.0,-425.0,438.0,-1246.0,-959.0,736.0,654.0,-285.0,243.0
19:53:35.818000,2796.0,-205.0,252.0,-1372.0,-1053.0,708.0,636.0,-286.0,231.0
19:53:35.823000,3103.0,-29.0,-21.0,-1529.0,-1217.0,707.0,636.0,-286.0,231.0
19:53:35.827000,3103.0,-29.0,-21.0,-1563.0,-1495.0,753.0,636.0,-286.0,231.0
19:53:35.832000,3425.0,292.0,-30.0,-1570.0,-1676.0,845.0,652.0,-285.0,220.0
19:53:35.837000,3620.0,522.0,135.0,-1667.0,-1614.0,1008.0,652.0,-285.0,220.0
19:53:35.842000,3725.0,718.0,158.0,-1727.0,-1397.0,1059.0,655.0,-285.0,222.0
19:53:35.846000,3805.0,1063.0,95.0,-1723.0,-1152.0,1096.0,655.0,-285.0,222.0
19:53:35.850000,3895.0,1431.0,42.0,-1797.0,-973.0,1127.0,655.0,-285.0,222.0
19:53:35.856000,3941.0,1838.0,-143.0,-1923.0,-839.0,1139.0,654.0,-283.0,234.0
19:53:35.860000,3968.0,2206.0,-373.0,-1931.0,-670.0,1273.0,654.0,-283.0,234.0
19:53:35.865000,3883.0,2311.0,-509.0,-1813.0,-476.0,1374.0,651.0,-283.0,228.0
19:53:35.870000,3784.0,2410.0,-571.0,-1728.0,-310.0,1326.0,651.0,-283.0,228.0
19:53:35.874000,3692.0,2557.0,-709.0,-1721.0,-259.0,1265.0,651.0,-283.0,228.0
19:53:35.879000,3563.0,2674.0,-881.0,-1713.0,-370.0,1193.0,646.0,-280.0,241.0
19:53:35.884000,3437.0,2837.0,-1005.0,-1794.0,-488.0,1125.0,646.0,-280.0,241.0
19:53:35.889000,3333.0,3021.0,-1173.0,-1794.0,-488.0,1125.0,645.0,-265.0,244.0
19:53:35.893000,3220.0,3119.0,-1346.0,-1930.0,-803.0,1022.0,645.0,-265.0,244.0
19:53:35.897000,3150.0,3246.0,-1446.0,-1865.0,-803.0,1022.0,645.0,-265.0,244.0
19:53:35.903000,3073.0,3377.0,-1544.0,-1657.0,-833.0,966.0,642.0,-249.0,273.0
19:53:35.907000,2962.0,3471.0,-1642.0,-1415.0,-848.0,935.0,642.0,-249.0,273.0
19:53:35.912000,2853.0,3425.0,-1783.0,-1165.0,-826.0,945.0,642.0,-229.0,289.0
19:53:35.917000,2828.0,3219.0,-1904.0,-973.0,-843.0,934.0,642.0,-229.0,289.0
19:53:35.921000,2821.0,3049.0,-1939.0,-705.0,-925.0,881.0,642.0,-229.0,289.0
19:53:35.926000,2774.0,2911.0,-2106.0,-476.0,-979.0,764.0,619.0,-223.0,310.0
19:53:35.931000,2743.0,2755.0,-2375.0,-396.0,-882.0,674.0,619.0,-223.0,310.0
19:53:35.936000,2708.0,2548.0,-2530.0,-311.0,-784.0,613.0,604.0,-204.0,313.0
19:53:35.940000,2655.0,2361.0,-2560.0,-211.0,-717.0,516.0,604.0,-204.0,313.0
19:53:35.948000,2567.0,2107.0,-2506.0,-177.0,-483.0,390.0,607.0,-183.0,324.0
19:53:35.950000,2567.0,2107.0,-2506.0,-177.0,-483.0,390.0,607.0,-183.0,324.0
19:53:35.954000,2400.0,1848.0,-2486.0,-250.0,-288.0,298.0,607.0,-183.0,324.0
19:53:35.959000,2209.0,1633.0,-2600.0,-331.0,-130.0,227.0,598.0,-159.0,318.0
19:53:35.964000,2017.0,1397.0,-2691.0,-349.0,-60.0,153.0,598.0,-159.0,318.0
19:53:35.968000,1814.0,1204.0,-2734.0,-377.0,25.0,105.0,573.0,-141.0,327.0
19:53:35.973000,1563.0,1015.0,-2799.0,-383.0,168.0,61.0,573.0,-141.0,327.0
19:53:35.977000,1317.0,844.0,-2863.0,-362.0,298.0,0.0,573.0,-141.0,327.0
19:53:35.983000,1085.0,666.0,-2928.0,-357.0,313.0,-29.0,543.0,-123.0,319.0
19:53:35.987000,853.0,508.0,-2942.0,-305.0,272.0,-56.0,543.0,-123.0,319.0
19:53:35.991000,623.0,371.0,-2823.0,-295.0,299.0,-78.0,534.0,-97.0,321.0
19:53:35.997000,447.0,200.0,-2706.0,-389.0,340.0,-75.0,534.0,-97.0,321.0
19:53:36.001000,270.0,18.0,-2671.0,-474.0,296.0,-85.0,534.0,-97.0,321.0
19:53:36.006000,72.0,-137.0,-2597.0,-474.0,296.0,-85.0,520.0,-84.0,324.0
19:53:36.011000,-116.0,-282.0,-2519.0,-557.0,239.0,-95.0,520.0,-84.0,324.0
19:53:36.015000,-244.0,-389.0,-2480.0,-616.0,203.0,-117.0,502.0,-75.0,325.0
19:53:36.020000,-296.0,-459.0,-2525.0,-614.0,170.0,-172.0,502.0,-75.0,325.0
19:53:36.024000,-352.0,-541.0,-2685.0,-583.0,163.0,-175.0,502.0,-75.0,325.0
19:53:36.030000,-437.0,-688.0,-2676.0,-492.0,78.0,-135.0,498.0,-63.0,321.0
19:53:36.034000,-471.0,-827.0,-2507.0,-401.0,32.0,-120.0,498.0,-63.0,321.0
19:53:36.039000,-516.0,-919.0,-2396.0,-404.0,102.0,-99.0,484.0,-51.0,333.0
19:53:36.044000,-539.0,-986.0,-2374.0,-481.0,157.0,-93.0,484.0,-51.0,333.0
19:53:36.048000,-547.0,-1071.0,-2401.0,-588.0,261.0,-96.0,471.0,-43.0,321.0
19:53:36.053000,-547.0,-1071.0,-2401.0,-622.0,279.0,-99.0,471.0,-43.0,321.0
19:53:36.057000,-583.0,-1138.0,-2381.0,-560.0,228.0,-109.0,471.0,-43.0,321.0
19:53:36.062000,-620.0,-1187.0,-2287.0,-565.0,210.0,-90.0,444.0,-33.0,316.0
19:53:36.067000,-625.0,-1222.0,-2224.0,-629.0,177.0,-65.0,444.0,-33.0,316.0
19:53:36.072000,-621.0,-1267.0,-2208.0,-667.0,211.0,-67.0,441.0,-21.0,321.0
19:53:36.077000,-623.0,-1311.0,-2221.0,-684.0,333.0,-81.0,441.0,-21.0,321.0
19:53:36.081000,-619.0,-1315.0,-2267.0,-684.0,401.0,-50.0,441.0,-21.0,321.0
19:53:36.086000,-602.0,-1348.0,-2361.0,-616.0,389.0,-30.0,415.0,-19.0,319.0
19:53:36.091000,-585.0,-1389.0,-2385.0,-534.0,404.0,-31.0,415.0,-19.0,319.0
19:53:36.095000,-572.0,-1406.0,-2282.0,-545.0,427.0,-8.0,408.0,-16.0,313.0
19:53:36.100000,-567.0,-1404.0,-2183.0,-585.0,415.0,15.0,408.0,-16.0,313.0
19:53:36.104000,-557.0,-1402.0,-2105.0,-628.0,452.0,23.0,408.0,-16.0,313.0
19:53:36.109000,-546.0,-1389.0,-2028.0,-682.0,491.0,31.0,393.0,-19.0,319.0
19:53:36.114000,-553.0,-1363.0,-2008.0,-682.0,491.0,31.0,393.0,-19.0,319.0
19:53:36.119000,-550.0,-1344.0,-2003.0,-704.0,543.0,67.0,388.0,0.0,319.0
19:53:36.124000,-527.0,-1337.0,-1991.0,-704.0,543.0,67.0,388.0,0.0,319.0
19:53:36.128000,-524.0,-1323.0,-1965.0,-646.0,568.0,80.0,388.0,0.0,319.0
19:53:36.132000,-523.0,-1314.0,-1894.0,-585.0,576.0,89.0,358.0,-6.0,325.0
19:53:36.138000,-522.0,-1311.0,-1823.0,-553.0,617.0,100.0,358.0,-6.0,325.0
19:53:36.142000,-518.0,-1290.0,-1743.0,-553.0,613.0,106.0,354.0,1.0,319.0
19:53:36.147000,-518.0,-1274.0,-1641.0,-541.0,604.0,112.0,354.0,1.0,319.0
19:53:36.151000,-518.0,-1274.0,-1641.0,-536.0,599.0,123.0,354.0,1.0,319.0
19:53:36.156000,-498.0,-1236.0,-1471.0,-542.0,630.0,130.0,343.0,3.0,328.0
19:53:36.161000,-498.0,-1236.0,-1471.0,-538.0,671.0,142.0,343.0,3.0,328.0
19:53:36.166000,-490.0,-1227.0,-1430.0,-517.0,697.0,152.0,339.0,9.0,327.0
19:53:36.171000,-504.0,-1207.0,-1365.0,-490.0,715.0,163.0,339.0,9.0,327.0
19:53:36.175000,-518.0,-1193.0,-1291.0,-473.0,741.0,165.0,339.0,9.0,327.0
19:53:36.180000,-519.0,-1166.0,-1236.0,-465.0,765.0,170.0,333.0,10.0,328.0
19:53:36.185000,-518.0,-1154.0,-1213.0,-445.0,766.0,180.0,333.0,10.0,328.0
19:53:36.189000,-526.0,-1134.0,-1181.0,-411.0,768.0,184.0,324.0,1.0,328.0
19:53:36.194000,-527.0,-1125.0,-1134.0,-393.0,759.0,190.0,324.0,1.0,328.0
19:53:36.198000,-529.0,-1110.0,-1064.0,-377.0,745.0,189.0,324.0,1.0,328.0
19:53:36.203000,-541.0,-1092.0,-987.0,-374.0,732.0,188.0,321.0,3.0,330.0
19:53:36.208000,-554.0,-1072.0,-914.0,-372.0,718.0,182.0,321.0,3.0,330.0
19:53:36.213000,-562.0,-1046.0,-835.0,-372.0,718.0,182.0,306.0,10.0,346.0
19:53:36.218000,-564.0,-1032.0,-755.0,-344.0,678.0,185.0,306.0,10.0,346.0
19:53:36.222000,-555.0,-1012.0,-674.0,-344.0,709.0,185.0,306.0,10.0,346.0
19:53:36.227000,-544.0,-987.0,-592.0,-349.0,690.0,168.0,310.0,4.0,340.0
19:53:36.232000,-534.0,-969.0,-511.0,-341.0,699.0,168.0,310.0,4.0,340.0
19:53:36.236000,-524.0,-954.0,-431.0,-334.0,712.0,182.0,307.0,7.0,345.0
19:53:36.241000,-514.0,-937.0,-352.0,-331.0,739.0,191.0,307.0,7.0,345.0
19:53:36.245000,-508.0,-926.0,-280.0,-341.0,776.0,198.0,307.0,7.0,345.0
19:53:36.250000,-501.0,-914.0,-219.0,-356.0,809.0,205.0,316.0,12.0,348.0
19:53:36.255000,-492.0,-901.0,-158.0,-367.0,829.0,206.0,316.0,12.0,348.0
19:53:36.260000,-476.0,-884.0,-86.0,-368.0,835.0,206.0,313.0,10.0,345.0
19:53:36.265000,-464.0,-852.0,-6.0,-366.0,830.0,201.0,313.0,10.0,345.0
19:53:36.269000,-464.0,-852.0,-6.0,-386.0,824.0,196.0,313.0,10.0,345.0
19:53:36.274000,-457.0,-815.0,69.0,-418.0,828.0,195.0,301.0,3.0,345.0
19:53:36.279000,-456.0,-771.0,138.0,-434.0,836.0,198.0,301.0,3.0,345.0
19:53:36.283000,-452.0,-737.0,207.0,-427.0,844.0,200.0,315.0,7.0,358.0
19:53:36.288000,-447.0,-696.0,277.0,-407.0,848.0,199.0,315.0,7.0,358.0
19:53:36.292000,-448.0,-652.0,352.0,-397.0,857.0,196.0,315.0,7.0,358.0
19:53:36.297000,-445.0,-602.0,411.0,-404.0,869.0,193.0,328.0,3.0,358.0
19:53:36.302000,-451.0,-550.0,452.0,-407.0,874.0,193.0,328.0,3.0,358.0
19:53:36.307000,-452.0,-497.0,480.0,-407.0,877.0,197.0,319.0,7.0,381.0
19:53:36.312000,-433.0,-462.0,490.0,-402.0,851.0,203.0,319.0,7.0,381.0
19:53:36.316000,-417.0,-427.0,513.0,-380.0,806.0,206.0,319.0,7.0,381.0
19:53:36.321000,-401.0,-400.0,548.0,-356.0,781.0,209.0,334.0,1.0,361.0
19:53:36.326000,-378.0,-378.0,588.0,-346.0,777.0,211.0,334.0,1.0,361.0
19:53:36.330000,-361.0,-356.0,616.0,-346.0,777.0,211.0,334.0,3.0,366.0
19:53:36.335000,-343.0,-327.0,631.0,-351.0,791.0,210.0,334.0,3.0,366.0
19:53:36.339000,-324.0,-295.0,662.0,-364.0,797.0,208.0,334.0,3.0,366.0
19:53:36.344000,-308.0,-263.0,686.0,-385.0,792.0,209.0,334.0,4.0,361.0
19:53:36.349000,-294.0,-229.0,705.0,-399.0,801.0,208.0,334.0,4.0,361.0
19:53:36.354000,-284.0,-195.0,727.0,-399.0,801.0,208.0,348.0,-12.0,366.0
19:53:36.359000,-268.0,-165.0,735.0,-395.0,819.0,208.0,348.0,-12.0,366.0
19:53:36.363000,-256.0,-128.0,721.0,-393.0,831.0,205.0,348.0,-12.0,366.0
19:53:36.367000,-256.0,-128.0,721.0,-387.0,826.0,208.0,364.0,-4.0,369.0
19:53:36.373000,-241.0,-81.0,739.0,-377.0,811.0,214.0,364.0,-4.0,369.0
19:53:36.377000,-239.0,-67.0,778.0,-371.0,788.0,216.0,354.0,-9.0,370.0
19:53:36.382000,-239.0,-67.0,778.0,-358.0,763.0,218.0,354.0,-9.0,370.0
19:53:36.386000,-250.0,-53.0,835.0,-342.0,757.0,219.0,354.0,-9.0,370.0
19:53:36.391000,-261.0,-44.0,891.0,-348.0,770.0,216.0,363.0,-3.0,375.0
19:53:36.396000,-260.0,-37.0,913.0,-374.0,790.0,210.0,363.0,-3.0,375.0
19:53:36.401000,-254.0,-25.0,891.0,-388.0,790.0,204.0,376.0,-10.0,372.0
19:53:36.406000,-242.0,-9.0,877.0,-386.0,764.0,205.0,376.0,-10.0,372.0
19:53:36.410000,-232.0,0.0,877.0,-390.0,746.0,204.0,376.0,-10.0,372.0
19:53:36.415000,-221.0,16.0,875.0,-398.0,738.0,202.0,378.0,-12.0,385.0
19:53:36.420000,-223.0,32.0,874.0,-405.0,750.0,208.0,378.0,-12.0,385.0
19:53:36.424000,-228.0,38.0,859.0,-397.0,769.0,207.0,400.0,-13.0,384.0
19:53:36.429000,-221.0,44.0,849.0,-389.0,758.0,203.0,400.0,-13.0,384.0
19:53:36.433000,-221.0,51.0,845.0,-392.0,744.0,203.0,400.0,-13.0,384.0
19:53:36.438000,-212.0,53.0,828.0,-395.0,732.0,201.0,396.0,-12.0,379.0
19:53:36.443000,-200.0,53.0,821.0,-400.0,716.0,200.0,396.0,-12.0,379.0
19:53:36.448000,-197.0,57.0,825.0,-400.0,716.0,200.0,397.0,-30.0,403.0
19:53:36.453000,-189.0,63.0,830.0,-413.0,715.0,197.0,397.0,-30.0,403.0
19:53:36.457000,-180.0,68.0,844.0,-427.0,709.0,194.0,397.0,-30.0,403.0
19:53:36.462000,-172.0,76.0,851.0,-442.0,692.0,192.0,405.0,-22.0,381.0
19:53:36.467000,-160.0,83.0,844.0,-460.0,690.0,189.0,405.0,-22.0,381.0
19:53:36.471000,-144.0,91.0,855.0,-467.0,684.0,187.0,418.0,-22.0,387.0
19:53:36.476000,-132.0,102.0,879.0,-470.0,666.0,184.0,418.0,-22.0,387.0
19:53:36.480000,-132.0,102.0,879.0,-478.0,661.0,180.0,418.0,-22.0,387.0
19:53:36.485000,-116.0,116.0,919.0,-472.0,659.0,175.0,421.0,-24.0,387.0
