hh:mm:ss.ms,gyroX[mdps],gyroY[mdps],gyroZ[mdps],accX[mg],accY[mg],accZ[mg],magX[mG],magY[mG],magZ[mG]
19:48:11.050000,43.0,-60.0,-118.0,-860.0,-32.0,-18.0,708.0,-585.0,334.0
19:48:11.054000,28.0,-65.0,-107.0,-888.0,-6.0,-16.0,711.0,-591.0,334.0
19:48:11.059000,11.0,-70.0,-91.0,-927.0,15.0,-17.0,711.0,-591.0,334.0
19:48:11.063000,11.0,-70.0,-91.0,-978.0,40.0,-22.0,711.0,-591.0,334.0
19:48:11.068000,-9.0,-67.0,-63.0,-1040.0,67.0,-33.0,708.0,-586.0,324.0
19:48:11.073000,-35.0,-59.0,-18.0,-1112.0,97.0,-48.0,708.0,-586.0,324.0
19:48:11.078000,-66.0,-44.0,32.0,-1182.0,117.0,-66.0,721.0,-588.0,337.0
19:48:11.082000,-98.0,-23.0,80.0,-1238.0,110.0,-88.0,721.0,-588.0,337.0
19:48:11.087000,-125.0,2.0,123.0,-1268.0,75.0,-111.0,721.0,-588.0,337.0
19:48:11.091000,-142.0,30.0,155.0,-1267.0,18.0,-136.0,714.0,-583.0,327.0
19:48:11.097000,-144.0,53.0,174.0,-1232.0,-51.0,-157.0,714.0,-583.0,327.0
19:48:11.101000,-131.0,70.0,187.0,-1169.0,-127.0,-169.0,711.0,-583.0,328.0
19:48:11.106000,-102.0,76.0,196.0,-1091.0,-194.0,-172.0,711.0,-583.0,328.0
19:48:11.110000,-63.0,70.0,195.0,-1010.0,-236.0,-172.0,711.0,-583.0,328.0
19:48:11.115000,-22.0,55.0,179.0,-940.0,-236.0,-171.0,711.0,-579.0,334.0
19:48:11.120000,8.0,30.0,158.0,-906.0,-180.0,-170.0,711.0,-579.0,334.0
19:48:11.125000,22.0,1.0,137.0,-906.0,-180.0,-170.0,717.0,-586.0,328.0
19:48:11.129000,16.0,-37.0,119.0,-916.0,-79.0,-158.0,717.0,-586.0,328.0
19:48:11.134000,0.0,-88.0,105.0,-949.0,26.0,-131.0,717.0,-586.0,328.0
19:48:11.139000,-11.0,-147.0,100.0,-966.0,79.0,-98.0,705.0,-591.0,330.0
19:48:11.144000,-8.0,-203.0,116.0,-954.0,47.0,-72.0,705.0,-591.0,330.0
19:48:11.148000,11.0,-248.0,140.0,-950.0,-32.0,-58.0,714.0,-595.0,334.0
19:48:11.153000,35.0,-273.0,151.0,-1007.0,-78.0,-51.0,714.0,-595.0,334.0
19:48:11.157000,49.0,-280.0,144.0,-1133.0,-50.0,-39.0,714.0,-595.0,334.0
19:48:11.162000,46.0,-273.0,130.0,-1283.0,25.0,-23.0,706.0,-589.0,325.0
19:48:11.167000,25.0,-252.0,119.0,-1403.0,102.0,-9.0,706.0,-589.0,325.0
19:48:11.172000,-3.0,-223.0,114.0,-1468.0,149.0,0.0,697.0,-586.0,340.0
19:48:11.176000,-3.0,-223.0,114.0,-1476.0,163.0,3.0,697.0,-586.0,340.0
19:48:11.181000,-34.0,-189.0,111.0,-1439.0,150.0,-2.0,697.0,-586.0,340.0
19:48:11.186000,-60.0,-154.0,106.0,-1379.0,124.0,-18.0,708.0,-595.0,330.0
19:48:11.191000,-73.0,-121.0,98.0,-1316.0,98.0,-38.0,708.0,-595.0,330.0
19:48:11.195000,-74.0,-95.0,85.0,-1257.0,74.0,-56.0,718.0,-591.0,330.0
19:48:11.200000,-64.0,-83.0,67.0,-1195.0,52.0,-65.0,718.0,-591.0,330.0
19:48:11.204000,-42.0,-84.0,49.0,-1124.0,33.0,-70.0,718.0,-591.0,330.0
19:48:11.209000,-11.0,-100.0,30.0,-1052.0,20.0,-75.0,708.0,-594.0,330.0
19:48:11.214000,23.0,-121.0,16.0,-998.0,34.0,-79.0,708.0,-594.0,330.0
19:48:11.219000,55.0,-147.0,5.0,-976.0,93.0,-74.0,708.0,-585.0,321.0
19:48:11.223000,73.0,-177.0,-10.0,-977.0,186.0,-61.0,708.0,-585.0,321.0
19:48:11.228000,75.0,-210.0,-33.0,-974.0,280.0,-46.0,708.0,-585.0,321.0
19:48:11.233000,64.0,-240.0,-53.0,-960.0,356.0,-27.0,714.0,-586.0,327.0
19:48:11.238000,42.0,-270.0,-67.0,-960.0,356.0,-27.0,714.0,-586.0,327.0
19:48:11.242000,16.0,-298.0,-81.0,-944.0,410.0,-3.0,708.0,-594.0,315.0
19:48:11.247000,-11.0,-321.0,-93.0,-928.0,439.0,27.0,708.0,-594.0,315.0
19:48:11.251000,-34.0,-340.0,-92.0,-903.0,428.0,65.0,708.0,-594.0,315.0
19:48:11.256000,-44.0,-354.0,-78.0,-865.0,367.0,110.0,717.0,-580.0,325.0
19:48:11.261000,-37.0,-355.0,-64.0,-822.0,272.0,147.0,717.0,-580.0,325.0
19:48:11.266000,-19.0,-343.0,-63.0,-803.0,183.0,172.0,720.0,-579.0,315.0
19:48:11.270000,0.0,-315.0,-77.0,-824.0,135.0,187.0,720.0,-579.0,315.0
19:48:11.275000,0.0,-315.0,-77.0,-883.0,138.0,187.0,720.0,-579.0,315.0
19:48:11.280000,16.0,-217.0,-111.0,-969.0,185.0,173.0,717.0,-586.0,315.0
19:48:11.285000,16.0,-217.0,-111.0,-1065.0,263.0,148.0,717.0,-586.0,315.0
19:48:11.289000,5.0,-152.0,-129.0,-1149.0,352.0,122.0,720.0,-579.0,310.0
19:48:11.294000,-16.0,-93.0,-147.0,-1198.0,430.0,99.0,720.0,-579.0,310.0
19:48:11.298000,-43.0,-44.0,-149.0,-1194.0,470.0,78.0,720.0,-579.0,310.0
19:48:11.303000,-67.0,-10.0,-126.0,-1146.0,469.0,56.0,717.0,-577.0,312.0
19:48:11.308000,-81.0,11.0,-87.0,-1098.0,452.0,33.0,717.0,-577.0,312.0
19:48:11.313000,-83.0,15.0,-55.0,-1082.0,453.0,17.0,705.0,-568.0,331.0
19:48:11.317000,-77.0,2.0,-42.0,-1094.0,476.0,21.0,705.0,-568.0,331.0
19:48:11.322000,-65.0,-33.0,-39.0,-1103.0,491.0,51.0,705.0,-568.0,331.0
19:48:11.326000,-46.0,-91.0,-28.0,-1080.0,465.0,101.0,717.0,-573.0,307.0
19:48:11.332000,-18.0,-161.0,-4.0,-1022.0,396.0,159.0,717.0,-573.0,307.0
19:48:11.336000,22.0,-225.0,18.0,-1022.0,396.0,159.0,724.0,-564.0,318.0
19:48:11.341000,70.0,-273.0,32.0,-944.0,238.0,277.0,724.0,-564.0,318.0
19:48:11.345000,114.0,-292.0,28.0,-998.0,215.0,328.0,724.0,-564.0,318.0
19:48:11.350000,140.0,-276.0,5.0,-998.0,215.0,328.0,721.0,-562.0,316.0
19:48:11.355000,142.0,-222.0,-21.0,-1108.0,239.0,368.0,721.0,-562.0,316.0
19:48:11.360000,126.0,-135.0,-47.0,-1233.0,289.0,394.0,723.0,-562.0,313.0
19:48:11.364000,102.0,-19.0,-71.0,-1345.0,340.0,399.0,723.0,-562.0,313.0
19:48:11.369000,81.0,117.0,-88.0,-1443.0,379.0,387.0,723.0,-562.0,313.0
19:48:11.374000,71.0,262.0,-85.0,-1536.0,399.0,371.0,721.0,-568.0,315.0
19:48:11.379000,91.0,400.0,-39.0,-1611.0,386.0,347.0,721.0,-568.0,315.0
19:48:11.383000,139.0,516.0,32.0,-1652.0,353.0,320.0,723.0,-564.0,316.0
19:48:11.388000,205.0,614.0,95.0,-1663.0,345.0,295.0,723.0,-564.0,316.0
19:48:11.395000,272.0,690.0,148.0,-1557.0,441.0,259.0,715.0,-556.0,312.0
19:48:11.397000,272.0,690.0,148.0,-1557.0,441.0,259.0,715.0,-556.0,312.0
19:48:11.401000,322.0,739.0,203.0,-1469.0,558.0,251.0,715.0,-556.0,312.0
19:48:11.407000,343.0,752.0,247.0,-1402.0,736.0,246.0,696.0,-550.0,340.0
19:48:11.411000,329.0,745.0,262.0,-1356.0,925.0,237.0,696.0,-550.0,340.0
19:48:11.416000,278.0,723.0,251.0,-1318.0,1057.0,210.0,699.0,-556.0,345.0
19:48:11.421000,201.0,696.0,227.0,-1290.0,1099.0,160.0,699.0,-556.0,345.0
19:48:11.425000,112.0,662.0,205.0,-1281.0,1059.0,97.0,699.0,-556.0,345.0
19:48:11.430000,28.0,621.0,188.0,-1293.0,969.0,19.0,711.0,-558.0,352.0
19:48:11.435000,-39.0,578.0,170.0,-1321.0,858.0,-70.0,711.0,-558.0,352.0
19:48:11.439000,-88.0,541.0,154.0,-1360.0,750.0,-166.0,693.0,-550.0,354.0
19:48:11.444000,-121.0,513.0,132.0,-1392.0,650.0,-256.0,693.0,-550.0,354.0
19:48:11.448000,-140.0,490.0,100.0,-1385.0,553.0,-332.0,693.0,-550.0,354.0
19:48:11.454000,-146.0,463.0,61.0,-1318.0,453.0,-395.0,697.0,-553.0,354.0
19:48:11.458000,-141.0,433.0,30.0,-1318.0,453.0,-395.0,697.0,-553.0,354.0
19:48:11.463000,-126.0,396.0,4.0,-1197.0,348.0,-450.0,696.0,-552.0,360.0
19:48:11.468000,-102.0,357.0,-31.0,-1052.0,248.0,-501.0,696.0,-552.0,360.0
19:48:11.472000,-75.0,311.0,-95.0,-906.0,159.0,-547.0,696.0,-552.0,360.0
19:48:11.477000,-50.0,266.0,-175.0,-760.0,73.0,-589.0,700.0,-550.0,364.0
19:48:11.482000,-35.0,220.0,-221.0,-594.0,-31.0,-633.0,700.0,-550.0,364.0
19:48:11.487000,-31.0,177.0,-213.0,-412.0,-141.0,-669.0,679.0,-547.0,370.0
19:48:11.491000,-42.0,126.0,-176.0,-259.0,-197.0,-686.0,679.0,-547.0,370.0
19:48:11.495000,-42.0,126.0,-176.0,-156.0,-175.0,-685.0,679.0,-547.0,370.0
19:48:11.501000,-95.0,7.0,-87.0,-83.0,-122.0,-671.0,688.0,-541.0,378.0
19:48:11.505000,-95.0,7.0,-87.0,-15.0,-108.0,-651.0,688.0,-541.0,378.0
19:48:11.510000,-127.0,-51.0,-21.0,45.0,-159.0,-627.0,682.0,-547.0,376.0
19:48:11.515000,-155.0,-104.0,55.0,72.0,-233.0,-594.0,682.0,-547.0,376.0
19:48:11.519000,-166.0,-154.0,127.0,39.0,-280.0,-558.0,682.0,-547.0,376.0
19:48:11.524000,-157.0,-202.0,189.0,-69.0,-270.0,-519.0,672.0,-534.0,375.0
19:48:11.529000,-132.0,-254.0,239.0,-256.0,-193.0,-471.0,672.0,-534.0,375.0
19:48:11.534000,-102.0,-312.0,275.0,-491.0,-72.0,-417.0,684.0,-541.0,379.0
19:48:11.538000,-77.0,-374.0,313.0,-721.0,59.0,-358.0,684.0,-541.0,379.0
19:48:11.542000,-72.0,-436.0,392.0,-925.0,184.0,-285.0,684.0,-541.0,379.0
19:48:11.548000,-105.0,-491.0,534.0,-1107.0,289.0,-199.0,685.0,-543.0,376.0
19:48:11.552000,-184.0,-535.0,739.0,-1261.0,331.0,-109.0,685.0,-543.0,376.0
19:48:11.557000,-301.0,-557.0,1003.0,-1261.0,331.0,-109.0,678.0,-547.0,373.0
19:48:11.562000,-427.0,-555.0,1323.0,-1353.0,235.0,-25.0,678.0,-547.0,373.0
19:48:11.566000,-503.0,-529.0,1682.0,-1365.0,-53.0,37.0,678.0,-547.0,373.0
19:48:11.571000,-482.0,-485.0,2021.0,-1328.0,-1005.0,75.0,676.0,-565.0,364.0
19:48:11.576000,-357.0,-426.0,2249.0,-1315.0,-1005.0,75.0,676.0,-565.0,364.0
19:48:11.581000,-168.0,-357.0,2300.0,-1372.0,-1439.0,80.0,651.0,-586.0,361.0
19:48:11.585000,37.0,-275.0,2217.0,-1465.0,-1716.0,103.0,651.0,-586.0,361.0
19:48:11.589000,204.0,-189.0,2111.0,-1534.0,-1756.0,147.0,651.0,-586.0,361.0
19:48:11.595000,305.0,-119.0,2033.0,-1555.0,-1491.0,208.0,651.0,-591.0,364.0
19:48:11.599000,332.0,-78.0,1957.0,-1532.0,-988.0,278.0,651.0,-591.0,364.0
19:48:11.604000,300.0,-84.0,1892.0,-1458.0,-448.0,371.0,642.0,-603.0,366.0
19:48:11.609000,232.0,-137.0,1899.0,-1276.0,-88.0,488.0,642.0,-603.0,366.0
19:48:11.613000,232.0,-137.0,1899.0,-962.0,-10.0,599.0,642.0,-603.0,366.0
19:48:11.618000,147.0,-217.0,2013.0,-599.0,-120.0,684.0,634.0,-621.0,364.0
19:48:11.623000,62.0,-310.0,2193.0,-310.0,-224.0,749.0,634.0,-621.0,364.0
19:48:11.628000,-29.0,-410.0,2374.0,-148.0,-210.0,796.0,615.0,-633.0,367.0
19:48:11.632000,-135.0,-517.0,2527.0,-88.0,-122.0,806.0,615.0,-633.0,367.0
19:48:11.636000,-251.0,-627.0,2660.0,-78.0,-86.0,770.0,615.0,-633.0,367.0
19:48:11.642000,-355.0,-737.0,2798.0,-72.0,-187.0,702.0,594.0,-658.0,366.0
19:48:11.646000,-428.0,-842.0,2944.0,-44.0,-398.0,619.0,594.0,-658.0,366.0
19:48:11.651000,-459.0,-936.0,3092.0,14.0,-634.0,554.0,591.0,-682.0,346.0
19:48:11.656000,-466.0,-1016.0,3237.0,112.0,-822.0,531.0,591.0,-682.0,346.0
19:48:11.663000,-466.0,-1145.0,3567.0,429.0,-1036.0,607.0,570.0,-696.0,345.0
19:48:11.665000,-466.0,-1145.0,3567.0,429.0,-1036.0,607.0,570.0,-696.0,345.0
19:48:11.669000,-469.0,-1185.0,3768.0,586.0,-1121.0,691.0,570.0,-696.0,345.0
19:48:11.675000,-467.0,-1194.0,3952.0,586.0,-1121.0,691.0,546.0,-718.0,333.0
19:48:11.679000,-445.0,-1162.0,4088.0,719.0,-1245.0,778.0,546.0,-718.0,333.0
19:48:11.684000,-386.0,-1078.0,4167.0,844.0,-1442.0,840.0,525.0,-732.0,339.0
19:48:11.689000,-294.0,-945.0,4183.0,944.0,-1676.0,856.0,525.0,-732.0,339.0
19:48:11.693000,-176.0,-763.0,4132.0,974.0,-1856.0,806.0,525.0,-732.0,339.0
19:48:11.698000,-44.0,-553.0,4029.0,913.0,-1914.0,681.0,502.0,-763.0,331.0
19:48:11.703000,91.0,-343.0,3883.0,774.0,-1839.0,507.0,502.0,-763.0,331.0
19:48:11.708000,216.0,-159.0,3710.0,612.0,-1644.0,315.0,436.0,-787.0,324.0
19:48:11.712000,317.0,-15.0,3525.0,476.0,-1348.0,128.0,436.0,-787.0,324.0
19:48:11.716000,317.0,-15.0,3525.0,368.0,-967.0,-48.0,436.0,-787.0,324.0
19:48:11.722000,401.0,84.0,3322.0,257.0,-536.0,-213.0,418.0,-793.0,331.0
19:48:11.726000,478.0,139.0,3105.0,105.0,-107.0,-364.0,418.0,-793.0,331.0
19:48:11.731000,539.0,156.0,2873.0,-107.0,274.0,-489.0,397.0,-798.0,328.0
19:48:11.736000,569.0,152.0,2657.0,-327.0,558.0,-585.0,397.0,-798.0,328.0
19:48:11.740000,576.0,122.0,2518.0,-499.0,736.0,-639.0,397.0,-798.0,328.0
19:48:11.745000,567.0,71.0,2469.0,-622.0,858.0,-626.0,381.0,-808.0,328.0
19:48:11.750000,529.0,6.0,2439.0,-657.0,970.0,-563.0,381.0,-808.0,328.0
19:48:11.755000,459.0,-58.0,2375.0,-536.0,1054.0,-483.0,346.0,-805.0,345.0
19:48:11.759000,354.0,-112.0,2296.0,-272.0,1066.0,-412.0,346.0,-805.0,345.0
19:48:11.763000,221.0,-135.0,2230.0,18.0,1012.0,-413.0,346.0,-805.0,345.0
19:48:11.769000,79.0,-132.0,2164.0,181.0,994.0,-467.0,337.0,-811.0,346.0
19:48:11.773000,-49.0,-154.0,2020.0,160.0,1090.0,-505.0,337.0,-811.0,346.0
19:48:11.778000,-159.0,-217.0,1764.0,160.0,1090.0,-505.0,318.0,-816.0,349.0
19:48:11.783000,-253.0,-283.0,1507.0,77.0,1206.0,-625.0,318.0,-816.0,349.0
19:48:11.787000,-350.0,-323.0,1381.0,47.0,1206.0,-625.0,318.0,-816.0,349.0
19:48:11.791000,-466.0,-343.0,1409.0,-1.0,1138.0,-687.0,294.0,-807.0,349.0
19:48:11.797000,-591.0,-357.0,1534.0,-178.0,1087.0,-735.0,294.0,-807.0,349.0
19:48:11.802000,-689.0,-382.0,1715.0,-453.0,1019.0,-763.0,285.0,-817.0,349.0
19:48:11.806000,-728.0,-410.0,1906.0,-673.0,845.0,-762.0,285.0,-817.0,349.0
19:48:11.810000,-694.0,-431.0,2039.0,-723.0,582.0,-731.0,285.0,-817.0,349.0
19:48:11.816000,-590.0,-441.0,2048.0,-609.0,345.0,-664.0,259.0,-816.0,349.0
19:48:11.820000,-440.0,-445.0,1923.0,-405.0,195.0,-554.0,259.0,-816.0,349.0
19:48:11.825000,-261.0,-436.0,1709.0,-195.0,105.0,-422.0,255.0,-816.0,348.0
19:48:11.830000,-74.0,-413.0,1470.0,-44.0,57.0,-298.0,255.0,-816.0,348.0
19:48:11.837000,103.0,-370.0,1255.0,-50.0,186.0,-82.0,243.0,-814.0,339.0
19:48:11.839000,103.0,-370.0,1255.0,-50.0,186.0,-82.0,243.0,-814.0,339.0
19:48:11.843000,249.0,-307.0,1080.0,-188.0,345.0,-4.0,243.0,-814.0,339.0
19:48:11.848000,354.0,-221.0,958.0,-349.0,491.0,43.0,232.0,-811.0,351.0
19:48:11.853000,420.0,-118.0,894.0,-466.0,596.0,55.0,232.0,-811.0,351.0
19:48:11.858000,446.0,-8.0,882.0,-481.0,662.0,31.0,226.0,-820.0,354.0
19:48:11.863000,438.0,99.0,911.0,-385.0,695.0,-19.0,226.0,-820.0,354.0
19:48:11.867000,397.0,185.0,968.0,-226.0,709.0,-82.0,226.0,-820.0,354.0
19:48:11.872000,332.0,231.0,1031.0,-58.0,715.0,-150.0,213.0,-807.0,360.0
19:48:11.877000,247.0,235.0,1078.0,96.0,706.0,-212.0,213.0,-807.0,360.0
19:48:11.881000,150.0,205.0,1100.0,259.0,641.0,-263.0,202.0,-793.0,372.0
19:48:11.886000,59.0,153.0,1103.0,451.0,479.0,-302.0,202.0,-793.0,372.0
19:48:11.890000,-9.0,84.0,1094.0,648.0,238.0,-335.0,202.0,-793.0,372.0
19:48:11.895000,-45.0,9.0,1070.0,648.0,238.0,-335.0,202.0,-793.0,381.0
19:48:11.900000,-48.0,-57.0,1020.0,783.0,-24.0,-356.0,202.0,-793.0,381.0
19:48:11.905000,-16.0,-108.0,949.0,801.0,-270.0,-357.0,183.0,-789.0,376.0
19:48:11.910000,47.0,-142.0,855.0,688.0,-489.0,-336.0,183.0,-789.0,376.0
19:48:11.914000,137.0,-161.0,734.0,476.0,-683.0,-297.0,183.0,-789.0,376.0
19:48:11.919000,252.0,-166.0,583.0,224.0,-857.0,-241.0,186.0,-783.0,375.0
19:48:11.924000,385.0,-158.0,416.0,1.0,-1035.0,-176.0,186.0,-783.0,375.0
19:48:11.928000,529.0,-141.0,249.0,-144.0,-1233.0,-105.0,169.0,-775.0,381.0
19:48:11.933000,677.0,-112.0,91.0,-215.0,-1409.0,-32.0,169.0,-775.0,381.0
19:48:11.937000,677.0,-112.0,91.0,-245.0,-1492.0,45.0,169.0,-775.0,381.0
19:48:11.942000,811.0,-79.0,-65.0,-249.0,-1458.0,138.0,192.0,-774.0,402.0
19:48:11.947000,919.0,-36.0,-228.0,-201.0,-1368.0,220.0,192.0,-774.0,402.0
19:48:11.952000,992.0,22.0,-382.0,-107.0,-1275.0,244.0,187.0,-757.0,403.0
19:48:11.957000,1045.0,91.0,-511.0,-73.0,-1133.0,230.0,187.0,-757.0,403.0
19:48:11.961000,1089.0,167.0,-654.0,-209.0,-908.0,228.0,187.0,-757.0,403.0
19:48:11.966000,1126.0,248.0,-861.0,-469.0,-683.0,256.0,184.0,-754.0,411.0
19:48:11.971000,1163.0,321.0,-1131.0,-680.0,-590.0,315.0,184.0,-754.0,411.0
19:48:11.975000,1182.0,392.0,-1401.0,-680.0,-683.0,397.0,196.0,-754.0,432.0
19:48:11.980000,1256.0,448.0,-1604.0,-203.0,-1459.0,73.0,196.0,-754.0,432.0
19:48:11.984000,1480.0,877.0,-1559.0,1952.0,-3030.0,149.0,196.0,-754.0,432.0
19:48:11.989000,-534.0,1024.0,1691.0,3177.0,-2299.0,494.0,204.0,-738.0,427.0
19:48:11.994000,2816.0,-3471.0,-629.0,-627.0,1654.0,1403.0,204.0,-738.0,427.0
19:48:11.999000,5649.0,-5247.0,-11251.0,-627.0,1654.0,1403.0,196.0,-739.0,436.0
19:48:12.004000,2754.0,697.0,-10636.0,-3428.0,3994.0,260.0,196.0,-739.0,436.0
19:48:12.008000,-701.0,532.0,-4181.0,-1468.0,2484.0,19.0,196.0,-739.0,436.0
19:48:12.013000,-3154.0,-884.0,999.0,554.0,-1474.0,2391.0,291.0,-699.0,459.0
19:48:12.018000,-1520.0,-29.0,1666.0,411.0,-3754.0,665.0,291.0,-699.0,459.0
19:48:12.022000,-350.0,671.0,263.0,-677.0,-3326.0,-941.0,282.0,-712.0,453.0
19:48:12.027000,-417.0,561.0,-110.0,-431.0,-3300.0,24.0,282.0,-712.0,453.0
19:48:12.031000,-555.0,-202.0,417.0,387.0,-3374.0,607.0,282.0,-712.0,453.0
19:48:12.036000,-525.0,-473.0,390.0,300.0,-2445.0,474.0,292.0,-703.0,442.0
19:48:12.041000,-497.0,-448.0,60.0,-174.0,-1614.0,82.0,292.0,-703.0,442.0
19:48:12.046000,-532.0,-330.0,-392.0,-570.0,-1614.0,23.0,288.0,-700.0,448.0
19:48:12.051000,-532.0,-330.0,-392.0,-821.0,-1856.0,-40.0,288.0,-700.0,448.0
19:48:12.055000,-462.0,-47.0,-710.0,-754.0,-2341.0,26.0,288.0,-700.0,448.0
19:48:12.060000,-472.0,149.0,-817.0,-545.0,-2888.0,216.0,288.0,-694.0,445.0
19:48:12.065000,-403.0,296.0,-762.0,-480.0,-2992.0,186.0,288.0,-694.0,445.0
19:48:12.069000,-107.0,422.0,-1036.0,-324.0,-2885.0,360.0,289.0,-705.0,442.0
19:48:12.074000,-65.0,212.0,-1019.0,-261.0,-2837.0,454.0,289.0,-705.0,442.0
19:48:12.078000,-143.0,149.0,-1060.0,-307.0,-2521.0,258.0,289.0,-705.0,442.0
19:48:12.083000,-114.0,70.0,-1221.0,-293.0,-2364.0,268.0,288.0,-705.0,439.0
19:48:12.088000,-191.0,198.0,-1425.0,-354.0,-2544.0,171.0,288.0,-705.0,439.0
19:48:12.093000,-110.0,307.0,-1650.0,-203.0,-2658.0,121.0,316.0,-682.0,444.0
19:48:12.098000,-231.0,331.0,-1777.0,-124.0,-2761.0,368.0,316.0,-682.0,444.0
19:48:12.102000,-98.0,209.0,-1974.0,-108.0,-3094.0,461.0,316.0,-682.0,444.0
19:48:12.107000,-144.0,331.0,-1922.0,53.0,-3256.0,209.0,304.0,-694.0,450.0
19:48:12.112000,-30.0,436.0,-1916.0,53.0,-3256.0,209.0,304.0,-694.0,450.0
19:48:12.116000,23.0,408.0,-2148.0,91.0,-2988.0,174.0,331.0,-685.0,436.0
19:48:12.121000,-32.0,304.0,-2125.0,130.0,-2738.0,366.0,331.0,-685.0,436.0
19:48:12.125000,-149.0,46.0,-2009.0,245.0,-2937.0,597.0,331.0,-685.0,436.0
19:48:12.130000,8.0,110.0,-2250.0,124.0,-2918.0,402.0,334.0,-673.0,447.0
19:48:12.135000,-233.0,286.0,-2114.0,-44.0,-2655.0,241.0,334.0,-673.0,447.0
19:48:12.140000,-178.0,262.0,-2179.0,61.0,-2483.0,388.0,346.0,-678.0,451.0
19:48:12.145000,-176.0,162.0,-2384.0,75.0,-2480.0,369.0,346.0,-678.0,451.0
19:48:12.149000,-176.0,162.0,-2384.0,28.0,-2780.0,431.0,346.0,-678.0,451.0
19:48:12.154000,-315.0,205.0,-2165.0,-75.0,-2923.0,249.0,342.0,-667.0,448.0
19:48:12.159000,-315.0,205.0,-2165.0,-106.0,-2886.0,147.0,342.0,-667.0,448.0
19:48:12.163000,-322.0,344.0,-2171.0,30.0,-2950.0,241.0,372.0,-670.0,448.0
19:48:12.168000,-328.0,231.0,-2195.0,70.0,-2937.0,292.0,372.0,-670.0,448.0
19:48:12.172000,-360.0,115.0,-2269.0,-59.0,-2817.0,392.0,372.0,-670.0,448.0
19:48:12.177000,-504.0,85.0,-2177.0,-158.0,-2840.0,185.0,378.0,-657.0,447.0
19:48:12.182000,-403.0,158.0,-2168.0,-174.0,-2755.0,2.0,378.0,-657.0,447.0
19:48:12.187000,-461.0,270.0,-2219.0,-148.0,-2771.0,77.0,394.0,-649.0,459.0
19:48:12.192000,-455.0,382.0,-2221.0,-30.0,-2876.0,130.0,394.0,-649.0,459.0
19:48:12.196000,-438.0,330.0,-2336.0,50.0,-2850.0,166.0,394.0,-640.0,442.0
19:48:12.201000,-462.0,305.0,-2380.0,48.0,-2706.0,177.0,394.0,-640.0,442.0
19:48:12.205000,-473.0,323.0,-2342.0,101.0,-2724.0,271.0,394.0,-640.0,442.0
19:48:12.210000,-434.0,282.0,-2158.0,83.0,-2742.0,95.0,406.0,-637.0,439.0
19:48:12.215000,-354.0,378.0,-2129.0,43.0,-2645.0,10.0,406.0,-637.0,439.0
19:48:12.220000,-340.0,350.0,-2013.0,43.0,-2645.0,10.0,421.0,-640.0,439.0
19:48:12.224000,-257.0,399.0,-1722.0,188.0,-2859.0,98.0,421.0,-640.0,439.0
19:48:12.229000,-170.0,364.0,-1670.0,122.0,-2346.0,173.0,421.0,-640.0,439.0
19:48:12.234000,-109.0,312.0,-1762.0,122.0,-2346.0,173.0,423.0,-630.0,435.0
19:48:12.239000,-138.0,296.0,-1511.0,84.0,-2310.0,171.0,423.0,-630.0,435.0
19:48:12.243000,-254.0,276.0,-1243.0,94.0,-2335.0,191.0,441.0,-624.0,442.0
19:48:12.248000,-149.0,317.0,-1362.0,5.0,-2262.0,169.0,441.0,-624.0,442.0
19:48:12.252000,-149.0,335.0,-1433.0,-94.0,-2173.0,177.0,441.0,-624.0,442.0
19:48:12.257000,-149.0,335.0,-1433.0,-74.0,-2284.0,136.0,439.0,-616.0,445.0
19:48:12.262000,-145.0,286.0,-1292.0,-51.0,-2274.0,150.0,439.0,-616.0,445.0
19:48:12.267000,-157.0,235.0,-1341.0,-83.0,-1870.0,240.0,445.0,-610.0,439.0
19:48:12.271000,-157.0,235.0,-1341.0,-43.0,-1610.0,281.0,445.0,-610.0,439.0
19:48:12.276000,-226.0,109.0,-1337.0,92.0,-1763.0,282.0,445.0,-610.0,439.0
19:48:12.281000,-257.0,127.0,-1003.0,1.0,-1838.0,289.0,435.0,-610.0,457.0
19:48:12.286000,-331.0,105.0,-861.0,-198.0,-1595.0,241.0,435.0,-610.0,457.0
19:48:12.290000,-298.0,120.0,-1030.0,-266.0,-1420.0,300.0,454.0,-604.0,444.0
19:48:12.295000,-410.0,13.0,-1158.0,-315.0,-1378.0,347.0,454.0,-604.0,444.0
19:48:12.299000,-406.0,33.0,-1040.0,-461.0,-1440.0,286.0,454.0,-604.0,444.0
19:48:12.304000,-485.0,133.0,-1047.0,-450.0,-1533.0,219.0,462.0,-604.0,435.0
19:48:12.309000,-389.0,363.0,-1042.0,-290.0,-1833.0,328.0,462.0,-604.0,435.0
19:48:12.314000,-480.0,252.0,-915.0,-256.0,-2064.0,452.0,465.0,-594.0,445.0
19:48:12.318000,-361.0,184.0,-835.0,-409.0,-1956.0,246.0,465.0,-594.0,445.0
19:48:12.323000,-113.0,261.0,-1057.0,-511.0,-1707.0,139.0,465.0,-594.0,445.0
19:48:12.328000,9.0,431.0,-1404.0,-360.0,-1519.0,229.0,469.0,-612.0,438.0
19:48:12.333000,78.0,492.0,-1273.0,-360.0,-1519.0,229.0,469.0,-612.0,438.0
19:48:12.337000,175.0,621.0,-1215.0,-175.0,-1546.0,209.0,465.0,-592.0,444.0
19:48:12.342000,304.0,580.0,-1291.0,-135.0,-1849.0,114.0,465.0,-592.0,444.0
19:48:12.346000,386.0,546.0,-1358.0,-155.0,-1982.0,178.0,465.0,-592.0,444.0
19:48:12.351000,536.0,604.0,-1195.0,-188.0,-1795.0,30.0,469.0,-586.0,441.0
19:48:12.355000,437.0,543.0,-955.0,-204.0,-1739.0,29.0,469.0,-586.0,441.0
19:48:12.361000,440.0,660.0,-956.0,-247.0,-1555.0,-9.0,481.0,-573.0,451.0
19:48:12.365000,632.0,707.0,-1066.0,-230.0,-1176.0,-194.0,481.0,-573.0,451.0
19:48:12.370000,805.0,602.0,-1231.0,-70.0,-1138.0,-144.0,486.0,-570.0,457.0
19:48:12.375000,819.0,566.0,-1323.0,32.0,-1348.0,-196.0,486.0,-570.0,457.0
19:48:12.379000,819.0,566.0,-1323.0,-75.0,-1254.0,-114.0,486.0,-570.0,457.0
19:48:12.384000,682.0,371.0,-1342.0,-259.0,-739.0,-3.0,475.0,-571.0,462.0
19:48:12.389000,665.0,299.0,-1501.0,-145.0,-430.0,-229.0,475.0,-571.0,462.0
19:48:12.394000,602.0,427.0,-1467.0,167.0,-726.0,-294.0,487.0,-549.0,468.0
19:48:12.398000,514.0,277.0,-1190.0,127.0,-1032.0,-111.0,487.0,-549.0,468.0
19:48:12.402000,450.0,98.0,-996.0,-55.0,-1138.0,-129.0,487.0,-549.0,468.0
19:48:12.408000,413.0,69.0,-865.0,-295.0,-1061.0,-241.0,478.0,-546.0,486.0
19:48:12.412000,503.0,71.0,-926.0,-464.0,-1120.0,-223.0,478.0,-546.0,486.0
19:48:12.417000,504.0,32.0,-858.0,-419.0,-1313.0,-189.0,489.0,-538.0,465.0
19:48:12.422000,552.0,0.0,-672.0,-294.0,-1388.0,-189.0,489.0,-538.0,465.0
19:48:12.426000,730.0,-105.0,-620.0,-191.0,-1254.0,-105.0,489.0,-538.0,465.0
19:48:12.431000,909.0,-288.0,-844.0,-317.0,-779.0,-46.0,490.0,-543.0,478.0
19:48:12.436000,885.0,-257.0,-1089.0,-462.0,-563.0,-30.0,490.0,-543.0,478.0
19:48:12.441000,751.0,-254.0,-1143.0,-462.0,-563.0,-30.0,490.0,-523.0,477.0
19:48:12.445000,606.0,-189.0,-1236.0,-783.0,-306.0,17.0,490.0,-523.0,477.0
19:48:12.449000,541.0,-123.0,-1427.0,-783.0,-306.0,17.0,490.0,-523.0,477.0
19:48:12.455000,368.0,-54.0,-1540.0,-765.0,-394.0,27.0,499.0,-513.0,483.0
19:48:12.459000,363.0,-46.0,-1456.0,-614.0,-719.0,42.0,499.0,-513.0,483.0
19:48:12.464000,361.0,-11.0,-1367.0,-478.0,-936.0,17.0,505.0,-505.0,478.0
19:48:12.469000,310.0,-57.0,-1416.0,-483.0,-907.0,63.0,505.0,-505.0,478.0
19:48:12.473000,310.0,-57.0,-1416.0,-468.0,-760.0,-25.0,505.0,-505.0,478.0
19:48:12.478000,440.0,7.0,-1352.0,-404.0,-859.0,-39.0,501.0,-489.0,475.0
19:48:12.483000,517.0,2.0,-1437.0,-286.0,-931.0,34.0,501.0,-489.0,475.0
19:48:12.487000,517.0,2.0,-1437.0,-224.0,-615.0,62.0,514.0,-489.0,475.0
19:48:12.492000,400.0,-79.0,-1790.0,-156.0,-231.0,127.0,514.0,-489.0,475.0
19:48:12.497000,335.0,-133.0,-1980.0,-152.0,-189.0,60.0,523.0,-483.0,472.0
19:48:12.502000,316.0,-144.0,-2034.0,-452.0,-206.0,-2.0,523.0,-483.0,472.0
19:48:12.506000,364.0,-137.0,-2291.0,-674.0,-263.0,-66.0,523.0,-483.0,472.0
19:48:12.511000,378.0,-120.0,-2256.0,-712.0,-435.0,-54.0,529.0,-471.0,481.0
19:48:12.516000,292.0,-114.0,-2205.0,-735.0,-541.0,-17.0,529.0,-471.0,481.0
19:48:12.521000,244.0,-176.0,-2230.0,-622.0,-664.0,-36.0,525.0,-451.0,483.0
19:48:12.525000,212.0,-196.0,-2144.0,-577.0,-721.0,-47.0,525.0,-451.0,483.0
19:48:12.529000,201.0,-213.0,-2058.0,-697.0,-726.0,-37.0,525.0,-451.0,483.0
19:48:12.535000,191.0,-224.0,-1999.0,-724.0,-680.0,-10.0,534.0,-436.0,499.0
19:48:12.539000,152.0,-219.0,-1914.0,-634.0,-656.0,4.0,534.0,-436.0,499.0
19:48:12.544000,100.0,-225.0,-1708.0,-634.0,-656.0,4.0,534.0,-436.0,499.0
19:48:12.549000,4.0,-266.0,-1524.0,-542.0,-683.0,28.0,534.0,-436.0,499.0
19:48:12.553000,-114.0,-273.0,-1440.0,-513.0,-683.0,70.0,534.0,-436.0,499.0
19:48:12.558000,-226.0,-287.0,-1431.0,-584.0,-722.0,98.0,537.0,-415.0,483.0
19:48:12.563000,-302.0,-293.0,-1495.0,-614.0,-685.0,119.0,537.0,-415.0,483.0
19:48:12.568000,-312.0,-288.0,-1525.0,-619.0,-688.0,99.0,553.0,-415.0,484.0
19:48:12.572000,-271.0,-291.0,-1453.0,-769.0,-828.0,73.0,553.0,-415.0,484.0
19:48:12.576000,-224.0,-280.0,-1362.0,-975.0,-828.0,47.0,553.0,-415.0,484.0
19:48:12.582000,-183.0,-225.0,-1281.0,-1091.0,-725.0,9.0,537.0,-402.0,477.0
19:48:12.586000,-185.0,-286.0,-1310.0,-1114.0,-680.0,46.0,537.0,-402.0,477.0
19:48:12.591000,-179.0,-359.0,-1412.0,-1032.0,-644.0,99.0,537.0,-403.0,472.0
19:48:12.596000,-179.0,-359.0,-1412.0,-886.0,-625.0,72.0,537.0,-403.0,472.0
19:48:12.600000,-206.0,-321.0,-1358.0,-843.0,-627.0,45.0,537.0,-403.0,472.0
19:48:12.605000,-214.0,-297.0,-1113.0,-957.0,-694.0,106.0,550.0,-396.0,471.0
19:48:12.610000,-250.0,-350.0,-1094.0,-954.0,-684.0,82.0,550.0,-396.0,471.0
19:48:12.615000,-215.0,-338.0,-1092.0,-821.0,-632.0,24.0,547.0,-396.0,474.0
19:48:12.619000,-210.0,-326.0,-926.0,-849.0,-604.0,50.0,547.0,-396.0,474.0
19:48:12.623000,-210.0,-334.0,-810.0,-968.0,-585.0,33.0,547.0,-396.0,474.0
19:48:12.629000,-194.0,-310.0,-757.0,-1050.0,-674.0,10.0,549.0,-385.0,472.0
19:48:12.633000,-128.0,-279.0,-663.0,-1144.0,-768.0,-11.0,549.0,-385.0,472.0
19:48:12.638000,-75.0,-215.0,-574.0,-1201.0,-752.0,0.0,559.0,-375.0,477.0
19:48:12.643000,-67.0,-183.0,-639.0,-1093.0,-695.0,20.0,559.0,-375.0,477.0
19:48:12.647000,-60.0,-175.0,-668.0,-909.0,-656.0,25.0,559.0,-375.0,477.0
19:48:12.652000,-65.0,-191.0,-592.0,-818.0,-635.0,59.0,559.0,-376.0,469.0
19:48:12.657000,-107.0,-218.0,-488.0,-850.0,-655.0,41.0,559.0,-376.0,469.0
19:48:12.662000,-92.0,-174.0,-429.0,-922.0,-721.0,-65.0,553.0,-384.0,462.0
19:48:12.666000,-31.0,-31.0,-364.0,-922.0,-721.0,-65.0,553.0,-384.0,462.0
19:48:12.670000,-17.0,32.0,-368.0,-1011.0,-688.0,-65.0,553.0,-384.0,462.0
19:48:12.676000,-10.0,73.0,-424.0,-1044.0,-513.0,-28.0,543.0,-375.0,465.0
19:48:12.680000,-23.0,65.0,-290.0,-930.0,-499.0,-28.0,543.0,-375.0,465.0
19:48:12.685000,-7.0,88.0,-79.0,-800.0,-595.0,-16.0,546.0,-373.0,463.0
19:48:12.690000,16.0,620.0,1168.0,-794.0,-616.0,-52.0,546.0,-373.0,463.0
19:48:12.694000,16.0,620.0,1168.0,219.0,-2013.0,-525.0,546.0,-373.0,463.0
19:48:12.699000,-30.0,1029.0,6608.0,-825.0,-2938.0,-168.0,550.0,-394.0,472.0
19:48:12.704000,235.0,700.0,1008.0,-3449.0,-68.0,239.0,550.0,-394.0,472.0
19:48:12.709000,235.0,700.0,1008.0,-3334.0,2367.0,-140.0,543.0,-406.0,468.0
19:48:12.713000,569.0,684.0,-1573.0,-1212.0,1081.0,-14.0,543.0,-406.0,468.0
19:48:12.717000,345.0,742.0,-48.0,376.0,-214.0,212.0,543.0,-406.0,468.0
19:48:12.722000,18.0,539.0,1140.0,4.0,252.0,206.0,540.0,-400.0,483.0
19:48:12.727000,-56.0,401.0,332.0,-592.0,579.0,50.0,540.0,-400.0,483.0
19:48:12.732000,64.0,259.0,-564.0,-585.0,54.0,-56.0,535.0,-408.0,486.0
19:48:12.737000,76.0,288.0,-587.0,-482.0,-573.0,-44.0,535.0,-408.0,486.0
19:48:12.741000,9.0,206.0,-232.0,-576.0,-782.0,-57.0,535.0,-408.0,486.0
19:48:12.746000,-2.0,181.0,-65.0,-767.0,-683.0,-62.0,537.0,-402.0,489.0
19:48:12.751000,-1.0,-20.0,-114.0,-863.0,-464.0,-57.0,537.0,-402.0,489.0
19:48:12.755000,98.0,-91.0,-256.0,-822.0,-298.0,-97.0,508.0,-400.0,504.0
19:48:12.760000,74.0,-134.0,-445.0,-765.0,-253.0,-68.0,508.0,-400.0,504.0
19:48:12.765000,-30.0,-104.0,-569.0,-765.0,-253.0,-68.0,508.0,-400.0,504.0
19:48:12.770000,-96.0,-136.0,-483.0,-740.0,-327.0,-44.0,508.0,-400.0,504.0
19:48:12.774000,-88.0,-163.0,-299.0,-728.0,-476.0,-20.0,508.0,-400.0,504.0
19:48:12.779000,-72.0,-184.0,-315.0,-768.0,-509.0,-30.0,532.0,-396.0,484.0
19:48:12.784000,-84.0,-123.0,-333.0,-853.0,-468.0,-39.0,532.0,-396.0,484.0
19:48:12.788000,-114.0,-77.0,-228.0,-949.0,-500.0,-41.0,537.0,-399.0,480.0
19:48:12.793000,-130.0,-71.0,-212.0,-1095.0,-524.0,-18.0,537.0,-399.0,480.0
19:48:12.797000,-91.0,-64.0,-273.0,-1129.0,-498.0,-27.0,537.0,-399.0,480.0
19:48:12.803000,-99.0,-22.0,-246.0,-1039.0,-523.0,-44.0,532.0,-409.0,492.0
19:48:12.807000,-108.0,-11.0,-131.0,-910.0,-615.0,-46.0,532.0,-409.0,492.0
19:48:12.812000,-63.0,8.0,-225.0,-866.0,-652.0,-63.0,552.0,-391.0,486.0
19:48:12.817000,-63.0,8.0,-225.0,-876.0,-619.0,-101.0,552.0,-391.0,486.0
19:48:12.821000,-3.0,35.0,-233.0,-815.0,-613.0,-108.0,552.0,-391.0,486.0
19:48:12.826000,-14.0,71.0,-42.0,-849.0,-504.0,-77.0,535.0,-400.0,481.0
19:48:12.831000,-61.0,61.0,-8.0,-934.0,-308.0,-57.0,535.0,-400.0,481.0
19:48:12.835000,-112.0,44.0,-165.0,-911.0,-235.0,-85.0,538.0,-403.0,486.0
19:48:12.840000,-51.0,59.0,-298.0,-793.0,-354.0,-101.0,538.0,-403.0,486.0
19:48:12.844000,19.0,56.0,-221.0,-698.0,-540.0,-111.0,538.0,-403.0,486.0
19:48:12.850000,32.0,114.0,16.0,-826.0,-572.0,-108.0,534.0,-405.0,475.0
19:48:12.854000,33.0,96.0,-10.0,-1007.0,-382.0,-91.0,534.0,-405.0,475.0
19:48:12.859000,-14.0,118.0,-210.0,-979.0,-245.0,-74.0,535.0,-399.0,481.0
19:48:12.864000,-7.0,73.0,-184.0,-893.0,-315.0,-35.0,535.0,-399.0,481.0
19:48:12.868000,-1.0,-21.0,-107.0,-869.0,-434.0,-49.0,535.0,-399.0,481.0
19:48:12.873000,-11.0,-74.0,-148.0,-818.0,-478.0,-110.0,531.0,-400.0,487.0
19:48:12.878000,-15.0,-30.0,-240.0,-818.0,-478.0,-110.0,531.0,-400.0,487.0
19:48:12.882000,-4.0,5.0,-325.0,-801.0,-492.0,-137.0,538.0,-408.0,489.0
19:48:12.887000,10.0,-2.0,-294.0,-797.0,-606.0,-116.0,538.0,-408.0,489.0
19:48:12.891000,16.0,23.0,-231.0,-797.0,-606.0,-116.0,538.0,-408.0,489.0
19:48:12.897000,-17.0,95.0,-284.0,-808.0,-465.0,-131.0,540.0,-397.0,511.0
19:48:12.901000,-55.0,54.0,-359.0,-852.0,-302.0,-98.0,540.0,-397.0,511.0
19:48:12.906000,-8.0,26.0,-287.0,-800.0,-237.0,-81.0,535.0,-402.0,487.0
19:48:12.911000,49.0,24.0,-161.0,-735.0,-319.0,-121.0,535.0,-402.0,487.0
19:48:12.915000,49.0,24.0,-161.0,-843.0,-372.0,-138.0,535.0,-402.0,487.0
19:48:12.920000,102.0,-13.0,-525.0,-1000.0,-304.0,-129.0,547.0,-391.0,483.0
19:48:12.925000,102.0,-13.0,-525.0,-957.0,-340.0,-99.0,547.0,-391.0,483.0
19:48:12.929000,146.0,-80.0,-520.0,-795.0,-464.0,-73.0,535.0,-388.0,495.0
19:48:12.934000,60.0,-95.0,-359.0,-751.0,-455.0,-89.0,535.0,-388.0,495.0
19:48:12.938000,-21.0,-16.0,-235.0,-882.0,-371.0,-122.0,535.0,-388.0,495.0
19:48:12.944000,27.0,28.0,-258.0,-1056.0,-376.0,-113.0,537.0,-382.0,484.0
19:48:12.948000,101.0,1.0,-358.0,-1054.0,-439.0,-79.0,537.0,-382.0,484.0
19:48:12.953000,124.0,-57.0,-320.0,-878.0,-461.0,-51.0,538.0,-387.0,486.0
19:48:12.958000,172.0,-141.0,-214.0,-736.0,-418.0,-57.0,538.0,-387.0,486.0
19:48:12.962000,151.0,-169.0,-214.0,-717.0,-299.0,-81.0,538.0,-387.0,486.0
19:48:12.967000,52.0,-114.0,-343.0,-813.0,-179.0,-67.0,535.0,-388.0,493.0
19:48:12.972000,21.0,-106.0,-493.0,-826.0,-219.0,-26.0,535.0,-388.0,493.0
19:48:12.976000,28.0,-179.0,-443.0,-715.0,-338.0,-12.0,543.0,-391.0,496.0
19:48:12.981000,-14.0,-185.0,-318.0,-726.0,-353.0,-26.0,543.0,-391.0,496.0
19:48:12.985000,-63.0,-159.0,-297.0,-726.0,-274.0,-18.0,543.0,-391.0,496.0
19:48:12.991000,-50.0,-143.0,-331.0,-855.0,-274.0,-18.0,528.0,-384.0,501.0
19:48:12.995000,-36.0,-172.0,-275.0,-938.0,-211.0,0.0,528.0,-384.0,501.0
19:48:13.000000,-81.0,-182.0,-95.0,-913.0,-244.0,18.0,535.0,-379.0,486.0
19:48:13.005000,-162.0,-111.0,-31.0,-928.0,-294.0,-5.0,535.0,-379.0,486.0
19:48:13.009000,-156.0,-124.0,-164.0,-1048.0,-289.0,-23.0,535.0,-379.0,486.0
19:48:13.014000,-109.0,-62.0,-230.0,-1064.0,-306.0,-31.0,543.0,-384.0,484.0
19:48:13.019000,-98.0,-71.0,-237.0,-976.0,-337.0,-26.0,543.0,-384.0,484.0
19:48:13.023000,-98.0,-71.0,-237.0,-893.0,-303.0,20.0,546.0,-385.0,481.0
19:48:13.028000,-218.0,-51.0,-103.0,-779.0,-281.0,19.0,546.0,-385.0,481.0
19:48:13.032000,-218.0,-51.0,-103.0,-765.0,-282.0,-9.0,546.0,-385.0,481.0
19:48:13.038000,-211.0,-11.0,23.0,-992.0,-268.0,-13.0,547.0,-378.0,481.0
19:48:13.042000,-177.0,0.0,-64.0,-1188.0,-321.0,-14.0,547.0,-378.0,481.0
19:48:13.047000,-125.0,-4.0,-222.0,-1136.0,-457.0,-39.0,544.0,-378.0,489.0
19:48:13.052000,-81.0,28.0,-155.0,-1059.0,-450.0,-35.0,544.0,-378.0,489.0
19:48:13.056000,-89.0,67.0,-144.0,-1043.0,-334.0,-1.0,544.0,-378.0,489.0
19:48:13.061000,-42.0,42.0,-191.0,-1005.0,-312.0,12.0,550.0,-387.0,483.0
19:48:13.065000,7.0,16.0,-213.0,-998.0,-318.0,-18.0,550.0,-387.0,483.0
19:48:13.070000,80.0,53.0,-270.0,-1057.0,-377.0,-37.0,550.0,-372.0,486.0
19:48:13.075000,118.0,37.0,-360.0,-1056.0,-490.0,-28.0,550.0,-372.0,486.0
19:48:13.080000,59.0,32.0,-305.0,-984.0,-490.0,-30.0,547.0,-375.0,492.0
19:48:13.085000,30.0,6.0,-214.0,-962.0,-364.0,-72.0,547.0,-375.0,492.0
19:48:13.089000,95.0,44.0,-163.0,-1010.0,-245.0,-96.0,547.0,-375.0,492.0
19:48:13.094000,147.0,46.0,-233.0,-1052.0,-235.0,-66.0,552.0,-376.0,483.0
19:48:13.099000,179.0,41.0,-317.0,-1052.0,-235.0,-66.0,552.0,-376.0,483.0
19:48:13.103000,133.0,43.0,-325.0,-1027.0,-342.0,-64.0,544.0,-379.0,481.0
19:48:13.108000,117.0,14.0,-345.0,-1007.0,-366.0,-62.0,544.0,-379.0,481.0
19:48:13.112000,151.0,8.0,-365.0,-1052.0,-339.0,-55.0,544.0,-379.0,481.0
19:48:13.117000,85.0,-22.0,-324.0,-1052.0,-339.0,-55.0,549.0,-375.0,487.0
19:48:13.122000,31.0,-45.0,-301.0,-1042.0,-323.0,-39.0,549.0,-375.0,487.0
19:48:13.127000,37.0,-60.0,-193.0,-984.0,-242.0,-54.0,546.0,-367.0,498.0
19:48:13.132000,4.0,-42.0,-56.0,-944.0,-231.0,-67.0,546.0,-367.0,498.0
19:48:13.136000,4.0,-42.0,-56.0,-1019.0,-205.0,-81.0,546.0,-367.0,498.0
19:48:13.141000,-51.0,28.0,-185.0,-1135.0,-155.0,-82.0,546.0,-360.0,492.0
19:48:13.146000,-51.0,28.0,-185.0,-1153.0,-185.0,-69.0,546.0,-360.0,492.0
19:48:13.150000,-24.0,-11.0,-226.0,-1042.0,-285.0,-50.0,546.0,-363.0,481.0
19:48:13.155000,-2.0,-64.0,-169.0,-890.0,-354.0,-36.0,546.0,-363.0,481.0
19:48:13.159000,-31.0,-67.0,-91.0,-816.0,-326.0,-54.0,546.0,-363.0,481.0
19:48:13.164000,-81.0,16.0,-4.0,-902.0,-260.0,-52.0,547.0,-361.0,483.0
19:48:13.169000,-92.0,21.0,6.0,-1045.0,-259.0,-22.0,547.0,-361.0,483.0
19:48:13.174000,-132.0,-9.0,-2.0,-1053.0,-240.0,-19.0,552.0,-363.0,475.0
19:48:13.179000,-107.0,-42.0,-5.0,-929.0,-221.0,-30.0,552.0,-363.0,475.0
19:48:13.183000,-77.0,-42.0,138.0,-860.0,-223.0,-54.0,552.0,-363.0,475.0
19:48:13.187000,-44.0,-9.0,285.0,-934.0,-232.0,-60.0,553.0,-369.0,483.0
19:48:13.193000,-28.0,-23.0,377.0,-1029.0,-264.0,-54.0,553.0,-369.0,483.0
19:48:13.197000,-45.0,-18.0,374.0,-1029.0,-264.0,-54.0,555.0,-378.0,483.0
19:48:13.202000,-36.0,-17.0,316.0,-1057.0,-212.0,-36.0,555.0,-378.0,483.0
19:48:13.206000,-15.0,-61.0,309.0,-1057.0,-212.0,-36.0,555.0,-378.0,483.0
19:48:13.211000,-75.0,-39.0,369.0,-966.0,-173.0,-17.0,558.0,-370.0,492.0
19:48:13.216000,-126.0,-6.0,394.0,-931.0,-134.0,-25.0,558.0,-370.0,492.0
19:48:13.221000,-154.0,-25.0,378.0,-968.0,-122.0,-1.0,546.0,-367.0,490.0
19:48:13.226000,-151.0,-50.0,393.0,-978.0,-196.0,15.0,546.0,-367.0,490.0
19:48:13.230000,-167.0,-65.0,460.0,-919.0,-289.0,11.0,546.0,-367.0,490.0
19:48:13.235000,-191.0,-55.0,562.0,-859.0,-350.0,9.0,552.0,-372.0,492.0
19:48:13.240000,-200.0,-15.0,602.0,-888.0,-346.0,-13.0,552.0,-372.0,492.0
19:48:13.244000,-151.0,-6.0,558.0,-986.0,-294.0,-34.0,547.0,-391.0,490.0
19:48:13.249000,-105.0,-4.0,527.0,-1045.0,-270.0,-28.0,547.0,-391.0,490.0
19:48:13.253000,-105.0,-4.0,527.0,-1059.0,-325.0,-40.0,547.0,-391.0,490.0
19:48:13.258000,-90.0,34.0,537.0,-1079.0,-416.0,-75.0,553.0,-384.0,493.0
19:48:13.263000,-32.0,68.0,523.0,-1084.0,-473.0,-59.0,553.0,-384.0,493.0
19:48:13.268000,3.0,46.0,518.0,-1033.0,-471.0,-27.0,553.0,-390.0,486.0
19:48:13.273000,4.0,26.0,518.0,-983.0,-381.0,-23.0,553.0,-390.0,486.0
19:48:13.277000,-18.0,43.0,466.0,-944.0,-307.0,-27.0,553.0,-390.0,486.0
19:48:13.282000,0.0,53.0,456.0,-915.0,-325.0,-25.0,552.0,-400.0,489.0
19:48:13.287000,-14.0,60.0,480.0,-926.0,-362.0,-10.0,552.0,-400.0,489.0
19:48:13.291000,-4.0,45.0,487.0,-904.0,-395.0,-5.0,552.0,-394.0,504.0
19:48:13.296000,3.0,28.0,529.0,-856.0,-421.0,-17.0,552.0,-394.0,504.0
19:48:13.300000,17.0,35.0,583.0,-830.0,-447.0,-20.0,552.0,-394.0,504.0
19:48:13.305000,8.0,24.0,620.0,-836.0,-465.0,-39.0,561.0,-396.0,490.0
19:48:13.310000,37.0,34.0,616.0,-863.0,-481.0,-51.0,561.0,-396.0,490.0
19:48:13.315000,8.0,24.0,611.0,-863.0,-481.0,-51.0,550.0,-396.0,489.0
19:48:13.320000,-9.0,29.0,588.0,-860.0,-467.0,-30.0,550.0,-396.0,489.0
19:48:13.324000,7.0,42.0,585.0,-832.0,-440.0,-37.0,550.0,-396.0,489.0
19:48:13.329000,61.0,34.0,589.0,-817.0,-461.0,-46.0,558.0,-396.0,496.0
19:48:13.334000,126.0,-2.0,527.0,-839.0,-509.0,-41.0,558.0,-396.0,496.0
19:48:13.338000,126.0,-32.0,455.0,-850.0,-553.0,-24.0,552.0,-403.0,492.0
19:48:13.343000,106.0,-48.0,445.0,-812.0,-572.0,-2.0,552.0,-403.0,492.0
19:48:13.347000,106.0,-48.0,445.0,-780.0,-582.0,3.0,552.0,-403.0,492.0
19:48:13.352000,25.0,-65.0,543.0,-797.0,-600.0,16.0,564.0,-412.0,489.0
19:48:13.357000,29.0,-76.0,508.0,-836.0,-596.0,23.0,564.0,-412.0,489.0
19:48:13.362000,29.0,-76.0,508.0,-859.0,-585.0,18.0,543.0,-418.0,484.0
19:48:13.367000,42.0,-80.0,420.0,-851.0,-611.0,23.0,543.0,-418.0,484.0
19:48:13.371000,53.0,-70.0,351.0,-819.0,-623.0,21.0,543.0,-418.0,484.0
19:48:13.376000,71.0,-54.0,299.0,-786.0,-601.0,31.0,553.0,-423.0,483.0
19:48:13.381000,70.0,-47.0,266.0,-764.0,-570.0,40.0,553.0,-423.0,483.0
19:48:13.385000,64.0,-32.0,235.0,-766.0,-540.0,34.0,555.0,-423.0,484.0
19:48:13.390000,91.0,-23.0,178.0,-770.0,-533.0,22.0,555.0,-423.0,484.0
19:48:13.394000,144.0,-36.0,120.0,-743.0,-523.0,20.0,555.0,-423.0,484.0
19:48:13.399000,171.0,-44.0,75.0,-700.0,-471.0,26.0,546.0,-414.0,501.0
19:48:13.404000,180.0,-44.0,42.0,-663.0,-410.0,25.0,546.0,-414.0,501.0
19:48:13.409000,180.0,-33.0,56.0,-657.0,-374.0,19.0,561.0,-415.0,487.0
19:48:13.414000,162.0,-14.0,101.0,-702.0,-348.0,23.0,561.0,-415.0,487.0
19:48:13.418000,125.0,1.0,115.0,-772.0,-320.0,33.0,561.0,-415.0,487.0
19:48:13.422000,92.0,11.0,93.0,-772.0,-303.0,41.0,568.0,-414.0,486.0
19:48:13.428000,67.0,14.0,49.0,-829.0,-303.0,41.0,568.0,-414.0,486.0
19:48:13.432000,52.0,23.0,7.0,-845.0,-308.0,49.0,561.0,-417.0,487.0
19:48:13.437000,42.0,42.0,-28.0,-784.0,-386.0,72.0,561.0,-417.0,487.0
19:48:13.441000,36.0,53.0,-67.0,-784.0,-386.0,72.0,561.0,-417.0,487.0
19:48:13.446000,18.0,67.0,-100.0,-727.0,-432.0,87.0,565.0,-414.0,493.0
19:48:13.451000,7.0,86.0,-139.0,-662.0,-454.0,94.0,565.0,-414.0,493.0
19:48:13.456000,25.0,99.0,-198.0,-616.0,-445.0,82.0,555.0,-417.0,489.0
19:48:13.460000,65.0,103.0,-267.0,-589.0,-423.0,54.0,555.0,-417.0,489.0
19:48:13.465000,65.0,103.0,-267.0,-560.0,-386.0,17.0,555.0,-417.0,489.0
19:48:13.470000,136.0,106.0,-367.0,-538.0,-325.0,-19.0,565.0,-429.0,486.0
19:48:13.475000,136.0,112.0,-367.0,-540.0,-241.0,-54.0,565.0,-429.0,486.0
19:48:13.479000,159.0,112.0,-388.0,-572.0,-150.0,-91.0,555.0,-403.0,486.0
19:48:13.483000,186.0,101.0,-390.0,-633.0,-68.0,-122.0,555.0,-403.0,486.0
19:48:13.488000,208.0,85.0,-373.0,-721.0,4.0,-138.0,555.0,-403.0,486.0
19:48:13.493000,210.0,70.0,-361.0,-822.0,61.0,-142.0,561.0,-411.0,489.0
19:48:13.498000,202.0,50.0,-349.0,-904.0,84.0,-146.0,561.0,-411.0,489.0
19:48:13.503000,191.0,34.0,-315.0,-953.0,71.0,-144.0,549.0,-414.0,490.0
19:48:13.507000,179.0,11.0,-250.0,-978.0,52.0,-135.0,549.0,-414.0,490.0
19:48:13.512000,163.0,-13.0,-191.0,-991.0,42.0,-129.0,549.0,-414.0,490.0
19:48:13.517000,133.0,-21.0,-166.0,-998.0,44.0,-127.0,553.0,-396.0,495.0
19:48:13.522000,105.0,-22.0,-169.0,-1005.0,46.0,-125.0,553.0,-396.0,495.0
19:48:13.526000,87.0,-23.0,-204.0,-1011.0,41.0,-120.0,561.0,-397.0,490.0
19:48:13.531000,72.0,-21.0,-259.0,-1009.0,29.0,-110.0,561.0,-397.0,490.0
19:48:13.535000,66.0,-18.0,-313.0,-1009.0,29.0,-110.0,561.0,-397.0,490.0
19:48:13.540000,69.0,-6.0,-376.0,-1006.0,12.0,-104.0,556.0,-405.0,486.0
19:48:13.545000,79.0,11.0,-458.0,-1013.0,-5.0,-100.0,556.0,-405.0,486.0
19:48:13.550000,99.0,25.0,-562.0,-1030.0,-12.0,-94.0,558.0,-396.0,495.0
19:48:13.554000,134.0,34.0,-685.0,-1053.0,6.0,-87.0,558.0,-396.0,495.0
19:48:13.559000,162.0,48.0,-814.0,-1083.0,47.0,-79.0,558.0,-396.0,495.0
19:48:13.564000,161.0,58.0,-931.0,-1118.0,103.0,-64.0,558.0,-406.0,498.0
19:48:13.569000,157.0,67.0,-1006.0,-1134.0,157.0,-49.0,558.0,-406.0,498.0
19:48:13.573000,157.0,67.0,-1006.0,-1142.0,185.0,-46.0,559.0,-393.0,514.0
19:48:13.578000,177.0,103.0,-1039.0,-1158.0,168.0,-47.0,559.0,-393.0,514.0
19:48:13.582000,177.0,103.0,-1039.0,-1198.0,113.0,-44.0,559.0,-393.0,514.0
19:48:13.587000,140.0,137.0,-998.0,-1260.0,63.0,-40.0,567.0,-384.0,487.0
19:48:13.592000,66.0,177.0,-919.0,-1304.0,35.0,-39.0,567.0,-384.0,487.0
19:48:13.597000,-5.0,206.0,-832.0,-1307.0,12.0,-45.0,553.0,-378.0,504.0
19:48:13.601000,-51.0,240.0,-768.0,-1286.0,-30.0,-55.0,553.0,-378.0,504.0
19:48:13.606000,-79.0,263.0,-739.0,-1253.0,-99.0,-53.0,553.0,-378.0,504.0
19:48:13.611000,-91.0,268.0,-742.0,-1197.0,-163.0,-45.0,562.0,-369.0,490.0
19:48:13.616000,-104.0,291.0,-761.0,-1115.0,-219.0,-33.0,562.0,-369.0,490.0
19:48:13.620000,-114.0,319.0,-755.0,-1042.0,-295.0,-16.0,550.0,-363.0,492.0
19:48:13.625000,-106.0,329.0,-749.0,-986.0,-414.0,-7.0,550.0,-363.0,492.0
19:48:13.629000,-82.0,331.0,-729.0,-929.0,-517.0,7.0,550.0,-363.0,492.0
19:48:13.634000,-35.0,318.0,-736.0,-873.0,-545.0,13.0,561.0,-373.0,504.0
19:48:13.639000,21.0,333.0,-764.0,-832.0,-566.0,20.0,561.0,-373.0,504.0
19:48:13.644000,56.0,335.0,-735.0,-832.0,-566.0,20.0,546.0,-364.0,501.0
19:48:13.648000,87.0,302.0,-735.0,-832.0,-575.0,45.0,546.0,-364.0,501.0
19:48:13.653000,124.0,284.0,-830.0,-854.0,-524.0,55.0,546.0,-364.0,501.0
19:48:13.657000,165.0,291.0,-868.0,-844.0,-498.0,46.0,546.0,-352.0,510.0
19:48:13.663000,207.0,256.0,-854.0,-824.0,-520.0,45.0,546.0,-352.0,510.0
19:48:13.667000,308.0,189.0,-882.0,-839.0,-491.0,45.0,531.0,-352.0,519.0
19:48:13.672000,407.0,150.0,-842.0,-831.0,-453.0,24.0,531.0,-352.0,519.0
19:48:13.676000,407.0,150.0,-842.0,-825.0,-424.0,14.0,531.0,-352.0,519.0
19:48:13.681000,558.0,103.0,-709.0,-895.0,-351.0,7.0,540.0,-354.0,504.0
19:48:13.686000,518.0,161.0,-590.0,-1016.0,-370.0,-23.0,540.0,-354.0,504.0
19:48:13.691000,518.0,161.0,-590.0,-1178.0,-352.0,-29.0,544.0,-343.0,507.0
19:48:13.695000,420.0,196.0,-560.0,-1307.0,-175.0,-4.0,544.0,-343.0,507.0
19:48:13.700000,337.0,189.0,-647.0,-1323.0,-25.0,8.0,544.0,-343.0,507.0
19:48:13.705000,306.0,153.0,-749.0,-1255.0,66.0,21.0,547.0,-325.0,504.0
19:48:13.709000,290.0,107.0,-837.0,-1138.0,72.0,13.0,547.0,-325.0,504.0
19:48:13.714000,246.0,119.0,-863.0,-1070.0,9.0,-12.0,547.0,-331.0,513.0
19:48:13.719000,178.0,168.0,-886.0,-1093.0,-79.0,-31.0,547.0,-331.0,513.0
19:48:13.724000,78.0,244.0,-863.0,-1136.0,-185.0,-38.0,540.0,-322.0,508.0
19:48:13.728000,-2.0,267.0,-774.0,-1166.0,-241.0,-16.0,540.0,-322.0,508.0
19:48:13.732000,-46.0,247.0,-723.0,-1156.0,-252.0,-39.0,540.0,-322.0,508.0
19:48:13.738000,-63.0,277.0,-693.0,-1138.0,-227.0,-73.0,541.0,-316.0,508.0
19:48:13.742000,-36.0,275.0,-700.0,-1118.0,-181.0,-52.0,541.0,-316.0,508.0
19:48:13.747000,33.0,215.0,-705.0,-1118.0,-181.0,-52.0,537.0,-304.0,519.0
19:48:13.752000,84.0,168.0,-649.0,-1025.0,-200.0,-52.0,537.0,-304.0,519.0
19:48:13.756000,119.0,106.0,-590.0,-1025.0,-200.0,-52.0,537.0,-304.0,519.0
19:48:13.761000,165.0,30.0,-589.0,-1010.0,-174.0,-47.0,516.0,-310.0,520.0
19:48:13.766000,180.0,-9.0,-609.0,-987.0,-124.0,-54.0,516.0,-310.0,520.0
19:48:13.771000,163.0,-14.0,-610.0,-958.0,-93.0,-70.0,540.0,-310.0,514.0
19:48:13.775000,175.0,-19.0,-606.0,-963.0,-66.0,-84.0,540.0,-310.0,514.0
19:48:13.779000,200.0,-52.0,-578.0,-989.0,-48.0,-90.0,540.0,-310.0,514.0
19:48:13.785000,197.0,-84.0,-569.0,-1019.0,-35.0,-78.0,540.0,-300.0,516.0
19:48:13.789000,165.0,-87.0,-602.0,-1053.0,0.0,-72.0,540.0,-300.0,516.0
19:48:13.794000,134.0,-76.0,-581.0,-1063.0,25.0,-78.0,531.0,-298.0,517.0
19:48:13.799000,134.0,-76.0,-581.0,-1067.0,7.0,-76.0,531.0,-298.0,517.0
19:48:13.803000,96.0,-67.0,-502.0,-1115.0,3.0,-64.0,531.0,-298.0,517.0
19:48:13.808000,60.0,-72.0,-474.0,-1174.0,18.0,-62.0,532.0,-288.0,525.0
19:48:13.813000,34.0,-70.0,-491.0,-1185.0,-2.0,-68.0,532.0,-288.0,525.0
19:48:13.818000,28.0,-76.0,-486.0,-1179.0,-44.0,-64.0,531.0,-283.0,519.0
19:48:13.822000,16.0,-76.0,-457.0,-1179.0,-80.0,-54.0,531.0,-283.0,519.0
19:48:13.826000,-32.0,-55.0,-412.0,-1193.0,-86.0,-44.0,531.0,-283.0,519.0
19:48:13.832000,-83.0,-38.0,-378.0,-1205.0,-71.0,-40.0,537.0,-286.0,523.0
19:48:13.836000,-114.0,-35.0,-343.0,-1207.0,-58.0,-40.0,537.0,-286.0,523.0
19:48:13.841000,-147.0,-24.0,-338.0,-1208.0,-44.0,-45.0,543.0,-286.0,525.0
19:48:13.845000,-168.0,-5.0,-374.0,-1192.0,-40.0,-59.0,543.0,-286.0,525.0
19:48:13.850000,-162.0,8.0,-410.0,-1149.0,-66.0,-69.0,543.0,-286.0,525.0
19:48:13.855000,-157.0,23.0,-417.0,-1102.0,-99.0,-67.0,534.0,-283.0,532.0
19:48:13.860000,-155.0,34.0,-420.0,-1102.0,-104.0,-62.0,534.0,-283.0,532.0
19:48:13.865000,-147.0,39.0,-425.0,-1067.0,-104.0,-62.0,540.0,-282.0,513.0
19:48:13.869000,-137.0,52.0,-430.0,-1049.0,-99.0,-69.0,540.0,-282.0,513.0
19:48:13.873000,-114.0,66.0,-457.0,-1065.0,-96.0,-86.0,540.0,-282.0,513.0
19:48:13.879000,-93.0,72.0,-497.0,-1092.0,-92.0,-92.0,528.0,-282.0,523.0
19:48:13.883000,-72.0,85.0,-509.0,-1090.0,-102.0,-98.0,528.0,-282.0,523.0
19:48:13.888000,-54.0,96.0,-516.0,-1070.0,-118.0,-111.0,535.0,-277.0,523.0
19:48:13.893000,-46.0,104.0,-540.0,-1063.0,-108.0,-118.0,535.0,-277.0,523.0
19:48:13.897000,-46.0,104.0,-540.0,-1063.0,-74.0,-117.0,535.0,-277.0,523.0
19:48:13.902000,-67.0,112.0,-609.0,-1064.0,-44.0,-116.0,534.0,-268.0,514.0
19:48:13.907000,-67.0,110.0,-625.0,-1052.0,-30.0,-123.0,534.0,-268.0,514.0
19:48:13.912000,-67.0,110.0,-625.0,-1029.0,-31.0,-125.0,534.0,-274.0,523.0
19:48:13.916000,-66.0,109.0,-627.0,-1004.0,-30.0,-130.0,534.0,-274.0,523.0
19:48:13.920000,-59.0,109.0,-627.0,-976.0,-14.0,-139.0,534.0,-274.0,523.0
19:48:13.926000,-44.0,109.0,-627.0,-960.0,21.0,-143.0,522.0,-273.0,522.0
19:48:13.930000,-24.0,107.0,-629.0,-963.0,55.0,-141.0,522.0,-273.0,522.0
19:48:13.935000,-21.0,111.0,-641.0,-976.0,64.0,-137.0,526.0,-268.0,517.0
19:48:13.940000,-18.0,111.0,-664.0,-992.0,57.0,-137.0,526.0,-268.0,517.0
19:48:13.944000,-14.0,107.0,-693.0,-1010.0,37.0,-136.0,526.0,-268.0,517.0
19:48:13.949000,-4.0,98.0,-711.0,-1012.0,21.0,-129.0,532.0,-255.0,522.0
19:48:13.954000,5.0,91.0,-707.0,-1007.0,23.0,-129.0,532.0,-255.0,522.0
19:48:13.959000,11.0,90.0,-686.0,-1007.0,23.0,-129.0,516.0,-256.0,525.0
19:48:13.963000,17.0,94.0,-653.0,-1036.0,60.0,-140.0,516.0,-256.0,525.0
19:48:13.967000,20.0,91.0,-630.0,-1058.0,103.0,-135.0,516.0,-256.0,525.0
19:48:13.973000,14.0,92.0,-632.0,-1058.0,103.0,-135.0,526.0,-253.0,522.0
19:48:13.977000,-4.0,103.0,-651.0,-1114.0,188.0,-135.0,526.0,-253.0,522.0
19:48:13.982000,-25.0,118.0,-673.0,-1114.0,188.0,-135.0,516.0,-253.0,531.0
19:48:13.987000,-44.0,137.0,-680.0,-1118.0,198.0,-137.0,516.0,-253.0,531.0
19:48:13.991000,-59.0,148.0,-681.0,-1139.0,194.0,-132.0,516.0,-253.0,531.0
19:48:13.996000,-65.0,162.0,-681.0,-1156.0,161.0,-137.0,513.0,-256.0,531.0
19:48:14.001000,-70.0,179.0,-683.0,-1129.0,138.0,-151.0,513.0,-256.0,531.0
19:48:14.006000,-65.0,190.0,-698.0,-1142.0,109.0,-156.0,511.0,-247.0,526.0
19:48:14.010000,-56.0,204.0,-702.0,-1114.0,78.0,-162.0,511.0,-247.0,526.0
19:48:14.014000,-56.0,204.0,-702.0,-1048.0,96.0,-167.0,511.0,-247.0,526.0
19:48:14.020000,-52.0,221.0,-715.0,-1070.0,79.0,-172.0,513.0,-247.0,537.0
19:48:14.024000,-33.0,233.0,-740.0,-1026.0,73.0,-163.0,513.0,-247.0,537.0
19:48:14.029000,-20.0,237.0,-741.0,-991.0,84.0,-157.0,499.0,-231.0,534.0
19:48:14.034000,4.0,230.0,-753.0,-980.0,65.0,-158.0,499.0,-231.0,534.0
19:48:14.038000,30.0,227.0,-748.0,-898.0,97.0,-149.0,499.0,-231.0,534.0
19:48:14.043000,55.0,217.0,-740.0,-942.0,139.0,-140.0,520.0,-232.0,540.0
19:48:14.048000,94.0,189.0,-751.0,-958.0,190.0,-118.0,520.0,-232.0,540.0
19:48:14.053000,126.0,156.0,-769.0,-896.0,237.0,-108.0,513.0,-229.0,531.0
19:48:14.057000,159.0,145.0,-791.0,-831.0,231.0,-128.0,513.0,-229.0,531.0
19:48:14.061000,203.0,150.0,-792.0,-771.0,249.0,-88.0,513.0,-229.0,531.0
19:48:14.067000,210.0,121.0,-762.0,-638.0,220.0,-70.0,504.0,-229.0,535.0
19:48:14.071000,216.0,124.0,-744.0,-599.0,268.0,-167.0,504.0,-229.0,535.0
19:48:14.076000,153.0,181.0,-706.0,-599.0,268.0,-167.0,490.0,-222.0,553.0
19:48:14.081000,175.0,150.0,-737.0,-840.0,350.0,-171.0,490.0,-222.0,553.0
19:48:14.085000,120.0,206.0,-776.0,-882.0,341.0,-181.0,490.0,-222.0,553.0
19:48:14.090000,111.0,181.0,-764.0,-1080.0,365.0,-213.0,501.0,-207.0,538.0
19:48:14.095000,102.0,202.0,-746.0,-1288.0,330.0,-215.0,501.0,-207.0,538.0
19:48:14.100000,87.0,170.0,-743.0,-1337.0,354.0,-194.0,495.0,-207.0,540.0
19:48:14.104000,92.0,196.0,-734.0,-1282.0,378.0,-229.0,495.0,-207.0,540.0
19:48:14.108000,70.0,184.0,-669.0,-1071.0,269.0,-259.0,495.0,-207.0,540.0
19:48:14.114000,79.0,185.0,-595.0,-1044.0,240.0,-223.0,490.0,-208.0,540.0
19:48:14.118000,70.0,200.0,-550.0,-951.0,261.0,-255.0,490.0,-208.0,540.0
19:48:14.123000,67.0,209.0,-513.0,-870.0,237.0,-253.0,490.0,-210.0,538.0
19:48:14.128000,67.0,209.0,-513.0,-945.0,307.0,-230.0,490.0,-210.0,538.0
