hh:mm:ss.ms,gyroX[mdps],gyroY[mdps],gyroZ[mdps],accX[mg],accY[mg],accZ[mg],magX[mG],magY[mG],magZ[mG]
19:52:28.114000,-51.0,179.0,182.0,-1005.0,392.0,-23.0,712.0,-519.0,343.0
19:52:28.119000,-34.0,139.0,189.0,-994.0,396.0,-2.0,712.0,-519.0,343.0
19:52:28.123000,-34.0,139.0,189.0,-996.0,383.0,24.0,712.0,-519.0,343.0
19:52:28.128000,70.0,38.0,214.0,-1026.0,370.0,49.0,711.0,-508.0,360.0
19:52:28.133000,70.0,38.0,214.0,-1086.0,371.0,72.0,711.0,-508.0,360.0
19:52:28.138000,131.0,-2.0,238.0,-1153.0,388.0,93.0,714.0,-519.0,355.0
19:52:28.142000,179.0,-33.0,268.0,-1197.0,405.0,113.0,714.0,-519.0,355.0
19:52:28.150000,218.0,-68.0,338.0,-1168.0,440.0,141.0,718.0,-519.0,358.0
19:52:28.152000,218.0,-68.0,338.0,-1168.0,440.0,141.0,718.0,-519.0,358.0
19:52:28.156000,196.0,-80.0,368.0,-1121.0,488.0,162.0,718.0,-519.0,358.0
19:52:28.161000,130.0,-89.0,378.0,-1062.0,532.0,181.0,720.0,-525.0,361.0
19:52:28.166000,39.0,-101.0,364.0,-986.0,523.0,197.0,720.0,-525.0,361.0
19:52:28.171000,-49.0,-119.0,329.0,-905.0,444.0,203.0,720.0,-517.0,360.0
19:52:28.175000,-115.0,-142.0,287.0,-856.0,336.0,192.0,720.0,-517.0,360.0
19:52:28.179000,-150.0,-164.0,235.0,-855.0,245.0,165.0,720.0,-517.0,360.0
19:52:28.185000,-160.0,-177.0,177.0,-900.0,191.0,130.0,706.0,-505.0,367.0
19:52:28.189000,-160.0,-175.0,127.0,-975.0,178.0,94.0,706.0,-505.0,367.0
19:52:28.193000,-164.0,-154.0,86.0,-1052.0,184.0,56.0,714.0,-522.0,348.0
19:52:28.199000,-172.0,-119.0,63.0,-1052.0,184.0,56.0,714.0,-522.0,348.0
19:52:28.203000,-182.0,-71.0,53.0,-1101.0,176.0,15.0,714.0,-522.0,348.0
19:52:28.208000,-195.0,-16.0,65.0,-1107.0,145.0,-29.0,711.0,-522.0,357.0
19:52:28.213000,-219.0,38.0,88.0,-1073.0,103.0,-74.0,711.0,-522.0,357.0
19:52:28.218000,-262.0,91.0,116.0,-1005.0,62.0,-113.0,705.0,-516.0,357.0
19:52:28.222000,-322.0,136.0,135.0,-912.0,15.0,-140.0,705.0,-516.0,357.0
19:52:28.226000,-322.0,136.0,135.0,-797.0,-57.0,-152.0,705.0,-516.0,357.0
19:52:28.232000,-407.0,182.0,128.0,-671.0,-183.0,-150.0,700.0,-513.0,358.0
19:52:28.236000,-388.0,175.0,118.0,-556.0,-355.0,-140.0,700.0,-513.0,358.0
19:52:28.240000,-388.0,175.0,118.0,-472.0,-520.0,-131.0,694.0,-511.0,372.0
19:52:28.246000,-327.0,152.0,117.0,-443.0,-620.0,-130.0,694.0,-511.0,372.0
19:52:28.250000,-233.0,123.0,124.0,-490.0,-611.0,-134.0,694.0,-511.0,372.0
19:52:28.255000,-138.0,99.0,127.0,-613.0,-492.0,-136.0,699.0,-522.0,360.0
19:52:28.260000,-71.0,89.0,114.0,-768.0,-329.0,-141.0,699.0,-522.0,360.0
19:52:28.265000,-33.0,94.0,86.0,-909.0,-208.0,-153.0,696.0,-514.0,360.0
19:52:28.269000,-8.0,110.0,74.0,-1016.0,-157.0,-169.0,696.0,-514.0,360.0
19:52:28.273000,19.0,128.0,93.0,-1099.0,-156.0,-187.0,696.0,-514.0,360.0
19:52:28.279000,61.0,140.0,147.0,-1173.0,-157.0,-209.0,702.0,-513.0,361.0
19:52:28.283000,98.0,155.0,224.0,-1259.0,-119.0,-233.0,702.0,-513.0,361.0
19:52:28.288000,98.0,183.0,294.0,-1326.0,-70.0,-256.0,702.0,-510.0,367.0
19:52:28.293000,64.0,219.0,369.0,-1327.0,-69.0,-272.0,702.0,-510.0,367.0
19:52:28.297000,18.0,241.0,476.0,-1327.0,-69.0,-272.0,684.0,-516.0,373.0
19:52:28.302000,-26.0,234.0,600.0,-1250.0,-149.0,-239.0,684.0,-516.0,373.0
19:52:28.306000,-65.0,191.0,720.0,-1120.0,-149.0,-246.0,684.0,-516.0,373.0
19:52:28.312000,-102.0,116.0,820.0,-978.0,-160.0,-203.0,684.0,-517.0,372.0
19:52:28.316000,-135.0,18.0,936.0,-830.0,-191.0,-146.0,684.0,-517.0,372.0
19:52:28.321000,-140.0,-92.0,1077.0,-691.0,-276.0,-92.0,673.0,-526.0,381.0
19:52:28.326000,-122.0,-197.0,1213.0,-622.0,-365.0,-53.0,673.0,-526.0,381.0
19:52:28.330000,-107.0,-278.0,1315.0,-661.0,-384.0,-4.0,673.0,-526.0,381.0
19:52:28.335000,-128.0,-326.0,1381.0,-776.0,-329.0,67.0,679.0,-529.0,390.0
19:52:28.340000,-149.0,-350.0,1453.0,-859.0,-306.0,123.0,679.0,-529.0,390.0
19:52:28.344000,-126.0,-348.0,1575.0,-857.0,-390.0,123.0,661.0,-547.0,376.0
19:52:28.349000,-126.0,-348.0,1575.0,-841.0,-502.0,95.0,661.0,-547.0,376.0
19:52:28.353000,-81.0,-324.0,1732.0,-898.0,-517.0,84.0,661.0,-547.0,376.0
19:52:28.359000,-55.0,-271.0,1870.0,-996.0,-440.0,95.0,658.0,-552.0,369.0
19:52:28.363000,-53.0,-202.0,1978.0,-1035.0,-394.0,91.0,658.0,-552.0,369.0
19:52:28.368000,-54.0,-119.0,2102.0,-973.0,-448.0,58.0,667.0,-562.0,372.0
19:52:28.373000,-39.0,-28.0,2265.0,-844.0,-553.0,21.0,667.0,-562.0,372.0
19:52:28.377000,-6.0,48.0,2444.0,-694.0,-610.0,-3.0,667.0,-562.0,372.0
19:52:28.382000,26.0,105.0,2605.0,-536.0,-584.0,-7.0,645.0,-579.0,369.0
19:52:28.387000,35.0,137.0,2750.0,-380.0,-498.0,0.0,645.0,-579.0,369.0
19:52:28.391000,23.0,142.0,2865.0,-238.0,-410.0,9.0,607.0,-619.0,381.0
19:52:28.396000,5.0,128.0,2955.0,-113.0,-382.0,18.0,607.0,-619.0,381.0
19:52:28.400000,-4.0,97.0,3036.0,-17.0,-420.0,21.0,607.0,-619.0,381.0
19:52:28.406000,4.0,61.0,3119.0,46.0,-491.0,16.0,604.0,-631.0,382.0
19:52:28.410000,30.0,34.0,3215.0,73.0,-540.0,8.0,604.0,-631.0,382.0
19:52:28.415000,59.0,17.0,3325.0,73.0,-540.0,8.0,597.0,-646.0,382.0
19:52:28.420000,75.0,16.0,3437.0,36.0,-462.0,24.0,597.0,-646.0,382.0
19:52:28.424000,58.0,36.0,3537.0,36.0,-462.0,24.0,597.0,-646.0,382.0
19:52:28.429000,21.0,76.0,3615.0,9.0,-385.0,48.0,555.0,-667.0,397.0
19:52:28.434000,-19.0,137.0,3680.0,18.0,-366.0,65.0,555.0,-667.0,397.0
19:52:28.438000,-39.0,212.0,3752.0,75.0,-446.0,64.0,552.0,-684.0,376.0
19:52:28.443000,-14.0,295.0,3837.0,175.0,-608.0,42.0,552.0,-684.0,376.0
19:52:28.447000,-14.0,295.0,3837.0,287.0,-782.0,0.0,552.0,-684.0,376.0
19:52:28.453000,137.0,457.0,3973.0,389.0,-900.0,-59.0,526.0,-699.0,378.0
19:52:28.457000,242.0,521.0,4004.0,480.0,-946.0,-121.0,526.0,-699.0,378.0
19:52:28.462000,242.0,521.0,4004.0,554.0,-930.0,-173.0,472.0,-736.0,382.0
19:52:28.467000,341.0,568.0,4015.0,608.0,-867.0,-215.0,472.0,-736.0,382.0
19:52:28.471000,431.0,598.0,3999.0,645.0,-778.0,-253.0,472.0,-736.0,382.0
19:52:28.476000,524.0,609.0,3948.0,654.0,-664.0,-285.0,454.0,-747.0,399.0
19:52:28.481000,632.0,590.0,3861.0,611.0,-468.0,-299.0,454.0,-747.0,399.0
19:52:28.485000,739.0,540.0,3726.0,484.0,-136.0,-288.0,406.0,-762.0,400.0
19:52:28.490000,800.0,466.0,3515.0,286.0,282.0,-259.0,406.0,-762.0,400.0
19:52:28.494000,788.0,392.0,3227.0,77.0,641.0,-216.0,406.0,-762.0,400.0
19:52:28.499000,725.0,312.0,2932.0,-88.0,830.0,-162.0,388.0,-762.0,411.0
19:52:28.504000,643.0,232.0,2702.0,-201.0,860.0,-108.0,388.0,-762.0,411.0
19:52:28.509000,553.0,162.0,2550.0,-201.0,813.0,-108.0,378.0,-756.0,415.0
19:52:28.514000,479.0,103.0,2441.0,-293.0,751.0,-19.0,378.0,-756.0,415.0
19:52:28.518000,441.0,53.0,2350.0,-269.0,726.0,18.0,378.0,-756.0,415.0
19:52:28.523000,409.0,11.0,2264.0,-269.0,726.0,18.0,349.0,-762.0,415.0
19:52:28.528000,345.0,-21.0,2172.0,-224.0,782.0,66.0,349.0,-762.0,415.0
19:52:28.532000,249.0,-51.0,2086.0,-182.0,885.0,124.0,331.0,-769.0,421.0
19:52:28.537000,143.0,-66.0,2020.0,-155.0,948.0,162.0,331.0,-769.0,421.0
19:52:28.541000,45.0,-50.0,1983.0,-154.0,925.0,144.0,331.0,-769.0,421.0
19:52:28.546000,-21.0,-11.0,1957.0,-203.0,830.0,88.0,315.0,-771.0,424.0
19:52:28.551000,-58.0,49.0,1898.0,-312.0,743.0,22.0,315.0,-771.0,424.0
19:52:28.555000,-58.0,49.0,1898.0,-427.0,714.0,-39.0,288.0,-762.0,427.0
19:52:28.561000,-147.0,214.0,1755.0,-484.0,718.0,-75.0,288.0,-762.0,427.0
19:52:28.565000,-193.0,278.0,1714.0,-464.0,724.0,-83.0,291.0,-769.0,426.0
19:52:28.570000,-193.0,278.0,1714.0,-370.0,723.0,-73.0,291.0,-769.0,426.0
19:52:28.574000,-227.0,313.0,1662.0,-220.0,697.0,-57.0,291.0,-769.0,426.0
19:52:28.579000,-246.0,324.0,1600.0,-49.0,631.0,-39.0,270.0,-754.0,427.0
19:52:28.584000,-246.0,314.0,1550.0,98.0,547.0,-18.0,270.0,-754.0,427.0
19:52:28.589000,-226.0,280.0,1508.0,182.0,490.0,2.0,258.0,-753.0,438.0
19:52:28.593000,-194.0,231.0,1467.0,180.0,479.0,10.0,258.0,-753.0,438.0
19:52:28.598000,-163.0,189.0,1421.0,100.0,482.0,-4.0,258.0,-753.0,438.0
19:52:28.603000,-146.0,172.0,1378.0,-6.0,434.0,-38.0,237.0,-760.0,444.0
19:52:28.608000,-121.0,179.0,1351.0,-88.0,303.0,-78.0,237.0,-760.0,444.0
19:52:28.612000,-70.0,193.0,1346.0,-126.0,138.0,-111.0,228.0,-753.0,442.0
19:52:28.617000,1.0,210.0,1365.0,-131.0,20.0,-127.0,228.0,-753.0,442.0
19:52:28.621000,74.0,222.0,1380.0,-118.0,-26.0,-127.0,228.0,-753.0,442.0
19:52:28.626000,123.0,232.0,1377.0,-88.0,-51.0,-122.0,214.0,-751.0,438.0
19:52:28.631000,155.0,231.0,1361.0,-88.0,-51.0,-122.0,214.0,-751.0,438.0
19:52:28.636000,177.0,218.0,1324.0,-48.0,-89.0,-114.0,210.0,-741.0,435.0
19:52:28.640000,195.0,191.0,1268.0,-14.0,-146.0,-107.0,210.0,-741.0,435.0
19:52:28.645000,214.0,158.0,1187.0,2.0,-207.0,-98.0,210.0,-741.0,435.0
19:52:28.650000,215.0,133.0,1061.0,-14.0,-241.0,-93.0,202.0,-741.0,441.0
19:52:28.655000,196.0,113.0,892.0,-48.0,-249.0,-91.0,202.0,-741.0,441.0
19:52:28.659000,162.0,91.0,706.0,-52.0,-281.0,-95.0,184.0,-733.0,432.0
19:52:28.664000,116.0,71.0,528.0,-20.0,-351.0,-116.0,184.0,-733.0,432.0
19:52:28.668000,116.0,71.0,528.0,12.0,-419.0,-131.0,184.0,-733.0,432.0
19:52:28.673000,-12.0,17.0,158.0,29.0,-461.0,-120.0,196.0,-735.0,442.0
19:52:28.678000,-12.0,17.0,158.0,44.0,-511.0,-108.0,196.0,-735.0,442.0
19:52:28.683000,-56.0,-23.0,-48.0,37.0,-562.0,-109.0,196.0,-727.0,451.0
19:52:28.687000,-63.0,-81.0,-290.0,-47.0,-569.0,-116.0,196.0,-727.0,451.0
19:52:28.692000,-63.0,-129.0,-591.0,-196.0,-573.0,-125.0,196.0,-727.0,451.0
19:52:28.697000,-64.0,-149.0,-903.0,-342.0,-675.0,-126.0,202.0,-717.0,448.0
19:52:28.702000,-40.0,-144.0,-1167.0,-435.0,-903.0,-126.0,202.0,-717.0,448.0
19:52:28.706000,92.0,-70.0,-1362.0,-492.0,-1247.0,-254.0,213.0,-709.0,454.0
19:52:28.711000,301.0,151.0,-1448.0,-16.0,-2174.0,-331.0,213.0,-709.0,454.0
19:52:28.715000,368.0,842.0,-1372.0,1458.0,-3322.0,-390.0,213.0,-709.0,454.0
19:52:28.720000,123.0,931.0,3180.0,3214.0,-2765.0,536.0,219.0,-703.0,450.0
19:52:28.725000,3695.0,-1518.0,338.0,1836.0,1094.0,1152.0,219.0,-703.0,450.0
19:52:28.730000,8507.0,-4918.0,-17003.0,1836.0,1094.0,1152.0,208.0,-697.0,477.0
19:52:28.734000,2396.0,-7168.0,-16626.0,-2158.0,3985.0,1690.0,208.0,-697.0,477.0
19:52:28.739000,-2247.0,-1808.0,-6314.0,-3316.0,1056.0,-1788.0,208.0,-697.0,477.0
19:52:28.744000,-1341.0,503.0,1330.0,-3316.0,1056.0,-1788.0,327.0,-663.0,487.0
19:52:28.749000,-431.0,590.0,2314.0,-1311.0,-2450.0,-1532.0,327.0,-663.0,487.0
19:52:28.753000,214.0,-34.0,637.0,-1060.0,-2152.0,-220.0,342.0,-661.0,486.0
19:52:28.758000,-1005.0,714.0,553.0,-1038.0,-2473.0,-395.0,342.0,-661.0,486.0
19:52:28.762000,-1304.0,702.0,1553.0,372.0,-3829.0,-609.0,342.0,-661.0,486.0
19:52:28.767000,-680.0,438.0,2189.0,781.0,-3993.0,-523.0,331.0,-661.0,477.0
19:52:28.772000,-996.0,768.0,749.0,883.0,-3843.0,-741.0,331.0,-661.0,477.0
19:52:28.776000,-996.0,768.0,749.0,217.0,-2382.0,-443.0,312.0,-658.0,478.0
19:52:28.781000,1435.0,-423.0,-1874.0,82.0,-2086.0,-402.0,312.0,-658.0,478.0
19:52:28.786000,1435.0,-423.0,-1874.0,-345.0,-2799.0,-420.0,312.0,-658.0,478.0
19:52:28.791000,953.0,-543.0,-3318.0,-988.0,-2524.0,-461.0,327.0,-652.0,483.0
19:52:28.796000,200.0,-82.0,-2861.0,-1064.0,-2784.0,-695.0,327.0,-652.0,483.0
19:52:28.800000,441.0,19.0,-1523.0,-1334.0,-3313.0,-548.0,340.0,-639.0,490.0
19:52:28.805000,143.0,331.0,-634.0,0.0,-3109.0,-663.0,340.0,-639.0,490.0
19:52:28.809000,371.0,317.0,-527.0,1170.0,-2219.0,-148.0,340.0,-639.0,490.0
19:52:28.814000,942.0,-637.0,-2565.0,389.0,-1755.0,98.0,351.0,-639.0,483.0
19:52:28.819000,1037.0,-1059.0,-4180.0,-566.0,-2334.0,-307.0,351.0,-639.0,483.0
19:52:28.823000,825.0,-1191.0,-3019.0,-619.0,-2762.0,-633.0,376.0,-610.0,513.0
19:52:28.828000,-6.0,-441.0,-1833.0,-186.0,-2257.0,-506.0,376.0,-610.0,513.0
19:52:28.833000,-434.0,-448.0,-1308.0,237.0,-2183.0,-322.0,376.0,-610.0,513.0
19:52:28.838000,-44.0,-792.0,-1529.0,197.0,-2557.0,-421.0,376.0,-603.0,487.0
19:52:28.843000,-655.0,-674.0,-2499.0,27.0,-2430.0,-350.0,376.0,-603.0,487.0
19:52:28.847000,-782.0,-693.0,-3443.0,27.0,-2430.0,-350.0,388.0,-610.0,483.0
19:52:28.852000,368.0,-966.0,-3175.0,-24.0,-2386.0,-541.0,388.0,-610.0,483.0
19:52:28.856000,827.0,-1000.0,-1476.0,-178.0,-3025.0,-556.0,388.0,-610.0,483.0
19:52:28.861000,-380.0,-529.0,-1561.0,-549.0,-3025.0,-330.0,412.0,-591.0,480.0
19:52:28.866000,-14.0,-149.0,-2605.0,-525.0,-2424.0,-656.0,412.0,-591.0,480.0
19:52:28.871000,792.0,-737.0,-3708.0,-310.0,-2560.0,-402.0,412.0,-588.0,475.0
19:52:28.875000,1316.0,-653.0,-3631.0,-159.0,-2891.0,-308.0,412.0,-588.0,475.0
19:52:28.880000,375.0,-528.0,-2840.0,-127.0,-2627.0,-397.0,412.0,-588.0,475.0
19:52:28.885000,130.0,-340.0,-2228.0,-361.0,-2102.0,-246.0,432.0,-571.0,489.0
19:52:28.890000,373.0,-85.0,-859.0,-611.0,-2422.0,-656.0,432.0,-571.0,489.0
19:52:28.894000,-50.0,170.0,-1253.0,-784.0,-2510.0,-639.0,436.0,-562.0,480.0
19:52:28.899000,-50.0,170.0,-1253.0,-42.0,-1743.0,-612.0,436.0,-562.0,480.0
19:52:28.903000,287.0,-258.0,-2763.0,543.0,-1966.0,-293.0,439.0,-543.0,499.0
19:52:28.908000,130.0,-407.0,-2918.0,157.0,-2683.0,-222.0,439.0,-543.0,499.0
19:52:28.912000,264.0,-422.0,-1939.0,-339.0,-2422.0,-416.0,439.0,-543.0,499.0
19:52:28.918000,440.0,-576.0,-1599.0,-1008.0,-1571.0,-606.0,468.0,-526.0,477.0
19:52:28.922000,255.0,-223.0,-2705.0,-830.0,-1544.0,-329.0,468.0,-526.0,477.0
19:52:28.927000,-263.0,-525.0,-2889.0,-298.0,-2089.0,-551.0,469.0,-523.0,483.0
19:52:28.932000,248.0,-307.0,-2440.0,-1133.0,-2631.0,-928.0,469.0,-523.0,483.0
19:52:28.936000,345.0,-18.0,-2070.0,-1598.0,-2439.0,-544.0,469.0,-523.0,483.0
19:52:28.941000,-87.0,193.0,-1604.0,-899.0,-1839.0,-253.0,460.0,-513.0,481.0
19:52:28.946000,-128.0,-94.0,-639.0,329.0,-1871.0,-577.0,460.0,-513.0,481.0
19:52:28.951000,-989.0,950.0,373.0,329.0,-1871.0,-577.0,471.0,-495.0,493.0
19:52:28.955000,-2386.0,1430.0,-114.0,555.0,-2407.0,-289.0,471.0,-495.0,493.0
19:52:28.959000,-1955.0,823.0,-1311.0,555.0,-2407.0,-289.0,471.0,-495.0,493.0
19:52:28.964000,-44.0,749.0,-2021.0,423.0,-1527.0,-332.0,478.0,-522.0,486.0
19:52:28.969000,1446.0,-291.0,-1328.0,554.0,-1180.0,-61.0,478.0,-522.0,486.0
19:52:28.974000,1747.0,-1011.0,-1834.0,77.0,-1159.0,451.0,465.0,-520.0,486.0
19:52:28.979000,747.0,-881.0,-2006.0,-728.0,-1314.0,57.0,465.0,-520.0,486.0
19:52:28.983000,-278.0,-567.0,-1880.0,-909.0,-1659.0,-423.0,465.0,-520.0,486.0
19:52:28.988000,-186.0,-611.0,-1187.0,-794.0,-1767.0,-456.0,483.0,-493.0,484.0
19:52:28.993000,223.0,-532.0,-786.0,-402.0,-1689.0,-419.0,483.0,-493.0,484.0
19:52:28.998000,78.0,22.0,-680.0,-197.0,-1789.0,-702.0,499.0,-489.0,486.0
19:52:29.002000,-95.0,-398.0,-832.0,-270.0,-1986.0,-437.0,499.0,-489.0,486.0
19:52:29.006000,-95.0,-398.0,-832.0,-229.0,-2121.0,-86.0,499.0,-489.0,486.0
19:52:29.012000,-492.0,-455.0,-915.0,-253.0,-1990.0,-705.0,475.0,-481.0,477.0
19:52:29.016000,-1145.0,434.0,-1138.0,-77.0,-1987.0,-1135.0,475.0,-481.0,477.0
19:52:29.021000,-714.0,951.0,-709.0,367.0,-1932.0,-567.0,487.0,-478.0,478.0
19:52:29.026000,294.0,625.0,-644.0,244.0,-1365.0,-131.0,487.0,-478.0,478.0
19:52:29.030000,723.0,330.0,-1106.0,33.0,-1364.0,69.0,487.0,-478.0,478.0
19:52:29.035000,514.0,-347.0,-802.0,-374.0,-1266.0,256.0,495.0,-475.0,474.0
19:52:29.040000,358.0,-772.0,-1337.0,-734.0,-1078.0,-88.0,495.0,-475.0,474.0
19:52:29.045000,729.0,-933.0,-1747.0,-545.0,-1670.0,-490.0,492.0,-471.0,480.0
19:52:29.049000,441.0,-466.0,-1572.0,-14.0,-1927.0,-781.0,492.0,-471.0,480.0
19:52:29.053000,-167.0,264.0,-1492.0,101.0,-1394.0,-318.0,492.0,-471.0,480.0
19:52:29.059000,44.0,-156.0,-1550.0,-6.0,-938.0,68.0,504.0,-460.0,474.0
19:52:29.063000,315.0,-474.0,-1471.0,-42.0,-841.0,-109.0,504.0,-460.0,474.0
19:52:29.068000,-13.0,-578.0,-1182.0,-42.0,-841.0,-109.0,505.0,-450.0,478.0
19:52:29.073000,49.0,-394.0,-627.0,-549.0,-884.0,-814.0,505.0,-450.0,478.0
19:52:29.077000,374.0,134.0,-472.0,-549.0,-884.0,-814.0,505.0,-450.0,478.0
19:52:29.082000,-163.0,-308.0,-273.0,-664.0,-1356.0,-294.0,492.0,-448.0,475.0
19:52:29.087000,-119.0,-646.0,-263.0,-759.0,-1356.0,362.0,492.0,-448.0,475.0
19:52:29.092000,-228.0,-440.0,-394.0,-584.0,-1101.0,-128.0,505.0,-447.0,474.0
19:52:29.096000,-303.0,-578.0,-537.0,-555.0,-1176.0,-184.0,505.0,-447.0,474.0
19:52:29.100000,-303.0,-578.0,-537.0,-529.0,-1213.0,26.0,505.0,-447.0,474.0
19:52:29.106000,-376.0,-737.0,-849.0,-533.0,-1372.0,-142.0,508.0,-453.0,465.0
19:52:29.110000,-365.0,-525.0,-1009.0,-680.0,-1556.0,-332.0,508.0,-453.0,465.0
19:52:29.115000,-365.0,-525.0,-1009.0,-675.0,-1400.0,-268.0,517.0,-448.0,471.0
19:52:29.120000,-524.0,-378.0,-976.0,-518.0,-871.0,-229.0,517.0,-448.0,471.0
19:52:29.124000,-541.0,-359.0,-955.0,-341.0,-543.0,-237.0,517.0,-448.0,471.0
19:52:29.129000,-553.0,-368.0,-804.0,-261.0,-512.0,-161.0,499.0,-441.0,468.0
19:52:29.134000,-715.0,-394.0,-597.0,-322.0,-626.0,-95.0,499.0,-441.0,468.0
19:52:29.139000,-645.0,-567.0,-564.0,-435.0,-881.0,-14.0,534.0,-444.0,454.0
19:52:29.143000,-755.0,-727.0,-840.0,-488.0,-983.0,-73.0,534.0,-444.0,454.0
19:52:29.147000,-721.0,-767.0,-993.0,-538.0,-1051.0,-146.0,534.0,-444.0,454.0
19:52:29.153000,-793.0,-869.0,-1134.0,-593.0,-984.0,-217.0,526.0,-439.0,457.0
19:52:29.157000,-592.0,-865.0,-1295.0,-516.0,-924.0,-356.0,526.0,-439.0,457.0
19:52:29.162000,-426.0,-847.0,-1271.0,-388.0,-931.0,-329.0,520.0,-435.0,462.0
19:52:29.167000,-301.0,-831.0,-1234.0,-333.0,-1069.0,-273.0,520.0,-435.0,462.0
19:52:29.172000,-298.0,-835.0,-1080.0,-333.0,-1069.0,-273.0,546.0,-427.0,454.0
19:52:29.176000,-310.0,-823.0,-595.0,-297.0,-1246.0,-153.0,546.0,-427.0,454.0
19:52:29.180000,-428.0,-842.0,-286.0,-297.0,-1246.0,-153.0,546.0,-427.0,454.0
19:52:29.186000,-399.0,-784.0,-763.0,-736.0,-1077.0,-144.0,546.0,-427.0,448.0
19:52:29.190000,-280.0,-841.0,-1192.0,-945.0,-785.0,-219.0,546.0,-427.0,448.0
19:52:29.195000,-335.0,-774.0,-1022.0,-758.0,-1059.0,-197.0,541.0,-427.0,447.0
19:52:29.200000,-344.0,-770.0,-871.0,-643.0,-1345.0,-178.0,541.0,-427.0,447.0
19:52:29.204000,-369.0,-702.0,-697.0,-571.0,-1263.0,-210.0,541.0,-427.0,447.0
19:52:29.209000,-368.0,-705.0,-503.0,-540.0,-1177.0,-212.0,559.0,-421.0,433.0
19:52:29.214000,-398.0,-643.0,-389.0,-596.0,-1165.0,-186.0,559.0,-421.0,433.0
19:52:29.219000,-455.0,-592.0,-450.0,-753.0,-1066.0,-179.0,556.0,-418.0,432.0
19:52:29.223000,-539.0,-595.0,-390.0,-862.0,-942.0,-90.0,556.0,-418.0,432.0
19:52:29.227000,-539.0,-595.0,-390.0,-879.0,-979.0,-72.0,556.0,-418.0,432.0
19:52:29.233000,-604.0,-564.0,-316.0,-944.0,-1141.0,-231.0,562.0,-417.0,427.0
19:52:29.237000,-437.0,-414.0,-322.0,-1045.0,-1534.0,-365.0,562.0,-417.0,427.0
19:52:29.242000,-167.0,-280.0,-154.0,-1125.0,-1581.0,-201.0,571.0,-424.0,426.0
19:52:29.247000,44.0,-164.0,207.0,-1419.0,-2126.0,-740.0,571.0,-424.0,426.0
19:52:29.251000,1105.0,700.0,3456.0,-2757.0,-2987.0,-589.0,571.0,-424.0,426.0
19:52:29.256000,1014.0,739.0,3867.0,-3604.0,-1092.0,465.0,550.0,-426.0,426.0
19:52:29.261000,438.0,347.0,303.0,-2261.0,1214.0,344.0,550.0,-426.0,426.0
19:52:29.266000,162.0,317.0,-1836.0,24.0,1201.0,31.0,558.0,-426.0,427.0
19:52:29.270000,-102.0,291.0,-1750.0,1070.0,501.0,300.0,558.0,-426.0,427.0
19:52:29.274000,-663.0,49.0,-875.0,647.0,1.0,221.0,558.0,-426.0,427.0
19:52:29.280000,-814.0,91.0,-467.0,-35.0,-254.0,-65.0,553.0,-427.0,423.0
19:52:29.284000,-660.0,68.0,-711.0,-441.0,-766.0,-120.0,553.0,-427.0,423.0
19:52:29.289000,-520.0,134.0,-599.0,-441.0,-766.0,-120.0,553.0,-417.0,435.0
19:52:29.294000,-656.0,23.0,-468.0,-542.0,-1237.0,-27.0,553.0,-417.0,435.0
19:52:29.298000,-450.0,1.0,-571.0,-650.0,-1277.0,-17.0,556.0,-423.0,424.0
19:52:29.303000,-348.0,-68.0,-409.0,-673.0,-1432.0,-132.0,556.0,-423.0,424.0
19:52:29.307000,-415.0,-60.0,-646.0,-758.0,-1280.0,-96.0,556.0,-423.0,424.0
19:52:29.313000,-567.0,-191.0,-1208.0,-978.0,-822.0,-33.0,555.0,-418.0,432.0
19:52:29.317000,-534.0,-130.0,-1162.0,-777.0,-823.0,-74.0,555.0,-418.0,432.0
19:52:29.322000,-526.0,-135.0,-691.0,-487.0,-1115.0,-192.0,555.0,-420.0,429.0
19:52:29.327000,-781.0,-165.0,-659.0,-656.0,-1170.0,-116.0,555.0,-420.0,429.0
19:52:29.331000,-781.0,-165.0,-659.0,-739.0,-1021.0,-93.0,555.0,-420.0,429.0
19:52:29.336000,-873.0,-193.0,-631.0,-618.0,-982.0,-139.0,549.0,-414.0,447.0
19:52:29.341000,-730.0,-255.0,-448.0,-497.0,-924.0,-225.0,549.0,-414.0,447.0
19:52:29.345000,-532.0,-205.0,-259.0,-514.0,-877.0,-215.0,562.0,-418.0,430.0
19:52:29.350000,-457.0,-235.0,93.0,-717.0,-737.0,-153.0,562.0,-418.0,430.0
19:52:29.354000,-515.0,-197.0,194.0,-913.0,-479.0,-187.0,562.0,-418.0,430.0
19:52:29.360000,-455.0,-123.0,-266.0,-985.0,-467.0,-204.0,553.0,-412.0,433.0
19:52:29.364000,-274.0,-90.0,-616.0,-828.0,-717.0,-130.0,553.0,-412.0,433.0
19:52:29.368000,-256.0,-205.0,-400.0,-542.0,-824.0,-131.0,558.0,-414.0,427.0
19:52:29.374000,-71.0,-144.0,-3.0,-563.0,-779.0,-265.0,558.0,-414.0,427.0
19:52:29.378000,112.0,34.0,-60.0,-858.0,-692.0,-243.0,558.0,-414.0,427.0
19:52:29.383000,4.0,72.0,-632.0,-900.0,-849.0,-105.0,555.0,-415.0,423.0
19:52:29.388000,-45.0,-11.0,-644.0,-720.0,-1123.0,-117.0,555.0,-415.0,423.0
19:52:29.392000,-63.0,8.0,-260.0,-720.0,-1123.0,-117.0,561.0,-420.0,427.0
19:52:29.397000,-139.0,63.0,-375.0,-666.0,-920.0,-196.0,561.0,-420.0,427.0
19:52:29.401000,-184.0,14.0,-652.0,-761.0,-641.0,-171.0,561.0,-420.0,427.0
19:52:29.407000,-179.0,-44.0,-555.0,-686.0,-839.0,-125.0,562.0,-406.0,429.0
19:52:29.411000,-84.0,72.0,-522.0,-578.0,-982.0,-237.0,562.0,-406.0,429.0
19:52:29.415000,67.0,6.0,-561.0,-749.0,-804.0,-169.0,562.0,-409.0,427.0
19:52:29.421000,105.0,23.0,-405.0,-897.0,-804.0,-169.0,562.0,-409.0,427.0
19:52:29.425000,39.0,82.0,-271.0,-840.0,-987.0,-183.0,562.0,-409.0,427.0
19:52:29.429000,39.0,82.0,-271.0,-899.0,-935.0,-228.0,540.0,-409.0,433.0
19:52:29.435000,219.0,70.0,-994.0,-970.0,-758.0,-165.0,540.0,-409.0,433.0
19:52:29.439000,291.0,-16.0,-850.0,-671.0,-775.0,-99.0,561.0,-412.0,427.0
19:52:29.444000,291.0,-16.0,-850.0,-392.0,-834.0,-98.0,561.0,-412.0,427.0
19:52:29.448000,184.0,-126.0,-472.0,-550.0,-650.0,-135.0,561.0,-412.0,427.0
19:52:29.454000,322.0,-74.0,-336.0,-973.0,-518.0,-238.0,555.0,-406.0,432.0
19:52:29.458000,310.0,35.0,-415.0,-1197.0,-651.0,-225.0,555.0,-406.0,432.0
19:52:29.463000,297.0,101.0,-259.0,-1103.0,-692.0,-203.0,555.0,-390.0,435.0
19:52:29.468000,322.0,147.0,-353.0,-945.0,-542.0,-175.0,555.0,-390.0,435.0
19:52:29.472000,354.0,181.0,-627.0,-685.0,-631.0,-110.0,561.0,-391.0,429.0
19:52:29.477000,359.0,118.0,-485.0,-463.0,-695.0,-69.0,561.0,-391.0,429.0
19:52:29.481000,319.0,25.0,-360.0,-469.0,-475.0,-80.0,561.0,-391.0,429.0
19:52:29.486000,326.0,-49.0,-517.0,-528.0,-509.0,-83.0,562.0,-391.0,429.0
19:52:29.491000,219.0,-80.0,-493.0,-660.0,-617.0,-98.0,562.0,-391.0,429.0
19:52:29.496000,212.0,-84.0,-549.0,-660.0,-617.0,-98.0,559.0,-388.0,433.0
19:52:29.501000,81.0,-86.0,-478.0,-820.0,-495.0,-105.0,559.0,-388.0,433.0
19:52:29.505000,30.0,-105.0,-613.0,-774.0,-300.0,-102.0,559.0,-388.0,433.0
19:52:29.510000,46.0,-89.0,-700.0,-774.0,-300.0,-102.0,561.0,-391.0,427.0
19:52:29.515000,28.0,-70.0,-582.0,-723.0,-496.0,-114.0,561.0,-391.0,427.0
19:52:29.519000,52.0,-105.0,-445.0,-770.0,-674.0,-84.0,567.0,-387.0,429.0
19:52:29.524000,104.0,-109.0,-426.0,-846.0,-677.0,-77.0,567.0,-387.0,429.0
19:52:29.528000,14.0,-18.0,-448.0,-881.0,-695.0,-100.0,567.0,-387.0,429.0
19:52:29.533000,132.0,51.0,-450.0,-932.0,-626.0,-114.0,562.0,-370.0,435.0
19:52:29.538000,178.0,70.0,-399.0,-959.0,-493.0,-91.0,562.0,-370.0,435.0
19:52:29.543000,82.0,-19.0,-344.0,-982.0,-564.0,0.0,559.0,-376.0,441.0
19:52:29.548000,-26.0,37.0,-439.0,-931.0,-579.0,-22.0,559.0,-376.0,441.0
19:52:29.552000,-26.0,37.0,-439.0,-817.0,-405.0,-105.0,559.0,-376.0,441.0
19:52:29.557000,40.0,89.0,-579.0,-788.0,-488.0,-82.0,550.0,-367.0,430.0
19:52:29.562000,13.0,96.0,-529.0,-800.0,-686.0,-56.0,550.0,-367.0,430.0
19:52:29.566000,12.0,72.0,-416.0,-785.0,-729.0,-45.0,564.0,-373.0,433.0
19:52:29.571000,214.0,-11.0,-324.0,-805.0,-740.0,-25.0,564.0,-373.0,433.0
19:52:29.575000,233.0,-51.0,-424.0,-778.0,-757.0,-45.0,564.0,-373.0,433.0
19:52:29.580000,85.0,9.0,-338.0,-773.0,-578.0,-42.0,564.0,-361.0,430.0
19:52:29.585000,119.0,-21.0,-361.0,-861.0,-423.0,-33.0,564.0,-361.0,430.0
19:52:29.590000,98.0,-11.0,-452.0,-846.0,-442.0,-61.0,553.0,-369.0,433.0
19:52:29.594000,91.0,26.0,-554.0,-777.0,-609.0,-65.0,553.0,-369.0,433.0
19:52:29.599000,135.0,44.0,-324.0,-811.0,-736.0,-66.0,553.0,-369.0,433.0
19:52:29.604000,203.0,41.0,-281.0,-929.0,-627.0,-61.0,568.0,-364.0,444.0
19:52:29.609000,341.0,2.0,-541.0,-912.0,-690.0,-18.0,568.0,-364.0,444.0
19:52:29.613000,326.0,2.0,-520.0,-912.0,-690.0,-18.0,565.0,-354.0,432.0
19:52:29.618000,250.0,50.0,-338.0,-814.0,-740.0,-32.0,565.0,-354.0,432.0
19:52:29.622000,163.0,53.0,-371.0,-845.0,-531.0,-50.0,565.0,-354.0,432.0
19:52:29.627000,55.0,91.0,-693.0,-900.0,-307.0,-26.0,559.0,-360.0,430.0
19:52:29.632000,41.0,101.0,-763.0,-810.0,-293.0,-58.0,559.0,-360.0,430.0
19:52:29.637000,60.0,0.0,-610.0,-708.0,-470.0,-20.0,559.0,-349.0,441.0
19:52:29.642000,88.0,-3.0,-581.0,-750.0,-585.0,-14.0,559.0,-349.0,441.0
19:52:29.646000,69.0,6.0,-571.0,-815.0,-616.0,-62.0,559.0,-349.0,441.0
19:52:29.651000,35.0,8.0,-599.0,-811.0,-565.0,-48.0,555.0,-345.0,439.0
19:52:29.656000,32.0,6.0,-609.0,-805.0,-472.0,-67.0,555.0,-345.0,439.0
19:52:29.660000,0.0,-38.0,-497.0,-776.0,-481.0,-53.0,553.0,-346.0,429.0
19:52:29.665000,0.0,-38.0,-497.0,-777.0,-478.0,-45.0,553.0,-346.0,429.0
19:52:29.669000,-1.0,-33.0,-338.0,-879.0,-353.0,-48.0,553.0,-346.0,429.0
19:52:29.674000,-23.0,-58.0,-374.0,-1000.0,-241.0,-35.0,559.0,-334.0,441.0
19:52:29.679000,-52.0,-45.0,-568.0,-971.0,-264.0,-56.0,559.0,-334.0,441.0
19:52:29.683000,-32.0,-31.0,-625.0,-867.0,-355.0,-34.0,561.0,-337.0,436.0
19:52:29.689000,-46.0,-66.0,-597.0,-855.0,-348.0,-31.0,561.0,-337.0,436.0
19:52:29.693000,-30.0,-68.0,-697.0,-852.0,-323.0,-65.0,561.0,-337.0,436.0
19:52:29.698000,-31.0,-39.0,-845.0,-799.0,-399.0,-26.0,558.0,-331.0,427.0
19:52:29.703000,40.0,-107.0,-767.0,-770.0,-484.0,15.0,558.0,-331.0,427.0
19:52:29.707000,51.0,-139.0,-539.0,-822.0,-458.0,-1.0,546.0,-330.0,429.0
19:52:29.712000,19.0,-135.0,-358.0,-902.0,-340.0,-1.0,546.0,-330.0,429.0
19:52:29.716000,-45.0,-153.0,-242.0,-927.0,-256.0,7.0,546.0,-330.0,429.0
19:52:29.721000,-81.0,-155.0,-163.0,-913.0,-270.0,-2.0,564.0,-327.0,427.0
19:52:29.726000,-102.0,-144.0,-79.0,-913.0,-270.0,-2.0,564.0,-327.0,427.0
19:52:29.730000,-131.0,-121.0,25.0,-986.0,-269.0,-2.0,547.0,-325.0,448.0
19:52:29.736000,-57.0,-91.0,-11.0,-986.0,-269.0,-2.0,547.0,-325.0,448.0
19:52:29.740000,25.0,-77.0,-111.0,-1066.0,-242.0,1.0,547.0,-325.0,448.0
19:52:29.745000,30.0,-52.0,-200.0,-1047.0,-285.0,6.0,562.0,-322.0,438.0
19:52:29.750000,28.0,-4.0,-275.0,-989.0,-288.0,-7.0,562.0,-322.0,438.0
19:52:29.754000,7.0,32.0,-247.0,-918.0,-239.0,-7.0,555.0,-327.0,447.0
19:52:29.759000,-5.0,9.0,-172.0,-844.0,-240.0,30.0,555.0,-327.0,447.0
19:52:29.763000,-5.0,9.0,-172.0,-823.0,-265.0,69.0,555.0,-327.0,447.0
19:52:29.768000,52.0,-39.0,-371.0,-822.0,-278.0,62.0,559.0,-324.0,435.0
19:52:29.773000,52.0,-39.0,-371.0,-835.0,-354.0,40.0,559.0,-324.0,435.0
19:52:29.777000,75.0,-28.0,-573.0,-866.0,-425.0,61.0,558.0,-316.0,433.0
19:52:29.783000,87.0,-34.0,-693.0,-848.0,-461.0,42.0,558.0,-316.0,433.0
19:52:29.787000,172.0,-4.0,-522.0,-762.0,-430.0,64.0,558.0,-316.0,433.0
19:52:29.792000,54.0,-13.0,-255.0,-771.0,-231.0,82.0,555.0,-316.0,441.0
19:52:29.797000,84.0,-11.0,-131.0,-828.0,-80.0,24.0,555.0,-316.0,441.0
19:52:29.801000,144.0,35.0,-99.0,-881.0,-159.0,53.0,553.0,-330.0,439.0
19:52:29.806000,149.0,16.0,-21.0,-996.0,-189.0,89.0,553.0,-330.0,439.0
19:52:29.810000,86.0,15.0,-137.0,-992.0,-148.0,74.0,553.0,-330.0,439.0
19:52:29.815000,54.0,37.0,-219.0,-846.0,-150.0,59.0,555.0,-321.0,433.0
19:52:29.820000,111.0,24.0,-97.0,-748.0,-173.0,68.0,555.0,-321.0,433.0
19:52:29.824000,0.0,30.0,124.0,-837.0,-68.0,80.0,561.0,-315.0,438.0
19:52:29.830000,-35.0,21.0,84.0,-983.0,28.0,33.0,561.0,-315.0,438.0
19:52:29.834000,-19.0,70.0,-104.0,-983.0,28.0,33.0,561.0,-315.0,438.0
19:52:29.839000,-18.0,142.0,-340.0,-1064.0,-108.0,-5.0,552.0,-313.0,435.0
19:52:29.844000,34.0,159.0,-394.0,-1043.0,-263.0,-4.0,552.0,-313.0,435.0
19:52:29.848000,33.0,112.0,-219.0,-888.0,-306.0,35.0,559.0,-310.0,433.0
19:52:29.853000,49.0,89.0,-98.0,-781.0,-255.0,49.0,559.0,-310.0,433.0
19:52:29.857000,94.0,42.0,-238.0,-814.0,-173.0,17.0,559.0,-310.0,433.0
19:52:29.862000,83.0,-22.0,-70.0,-799.0,-233.0,29.0,561.0,-315.0,436.0
19:52:29.867000,9.0,-19.0,53.0,-751.0,-303.0,23.0,561.0,-315.0,436.0
19:52:29.871000,9.0,-19.0,53.0,-905.0,-187.0,30.0,541.0,-310.0,471.0
19:52:29.877000,9.0,0.0,-306.0,-1022.0,-51.0,-25.0,541.0,-310.0,471.0
19:52:29.881000,9.0,0.0,-306.0,-1023.0,-81.0,-71.0,541.0,-310.0,471.0
19:52:29.886000,32.0,23.0,-361.0,-1034.0,-164.0,-11.0,556.0,-304.0,439.0
19:52:29.891000,-12.0,42.0,-373.0,-944.0,-138.0,-30.0,556.0,-304.0,439.0
19:52:29.895000,-14.0,112.0,-181.0,-915.0,-100.0,-30.0,550.0,-301.0,439.0
19:52:29.900000,14.0,83.0,-80.0,-965.0,-91.0,-3.0,550.0,-301.0,439.0
19:52:29.904000,-11.0,86.0,-26.0,-996.0,-100.0,-18.0,550.0,-301.0,439.0
19:52:29.909000,-21.0,100.0,-88.0,-1038.0,-109.0,-37.0,549.0,-306.0,442.0
19:52:29.914000,-30.0,134.0,-218.0,-1075.0,-127.0,-58.0,549.0,-306.0,442.0
19:52:29.918000,-28.0,172.0,-307.0,-1072.0,-163.0,-51.0,559.0,-313.0,444.0
19:52:29.924000,-18.0,186.0,-246.0,-1024.0,-210.0,-95.0,559.0,-313.0,444.0
19:52:29.928000,49.0,261.0,-167.0,-1038.0,-228.0,-82.0,559.0,-313.0,444.0
19:52:29.933000,97.0,242.0,-178.0,-1030.0,-166.0,-61.0,552.0,-309.0,444.0
19:52:29.938000,121.0,268.0,-268.0,-967.0,-156.0,-94.0,552.0,-309.0,444.0
19:52:29.942000,174.0,259.0,-283.0,-967.0,-156.0,-94.0,558.0,-307.0,445.0
19:52:29.947000,163.0,198.0,-187.0,-932.0,-203.0,-32.0,558.0,-307.0,445.0
19:52:29.951000,198.0,220.0,-176.0,-952.0,-94.0,-61.0,558.0,-307.0,445.0
19:52:29.956000,197.0,200.0,-284.0,-1069.0,39.0,-106.0,561.0,-309.0,441.0
19:52:29.960000,88.0,170.0,-317.0,-984.0,65.0,-80.0,561.0,-309.0,441.0
19:52:29.966000,78.0,231.0,-207.0,-984.0,65.0,-80.0,528.0,-298.0,460.0
19:52:29.971000,93.0,281.0,-73.0,-986.0,66.0,-151.0,528.0,-298.0,460.0
19:52:29.975000,-50.0,232.0,46.0,-1091.0,19.0,-63.0,547.0,-307.0,456.0
19:52:29.980000,-67.0,315.0,95.0,-1119.0,37.0,-52.0,547.0,-307.0,456.0
19:52:29.984000,-67.0,315.0,95.0,-1131.0,2.0,-133.0,547.0,-307.0,456.0
19:52:29.989000,-87.0,349.0,-134.0,-1195.0,-68.0,-36.0,544.0,-300.0,448.0
19:52:29.994000,-87.0,266.0,-134.0,-1135.0,-113.0,-11.0,544.0,-300.0,448.0
19:52:29.999000,-95.0,278.0,-277.0,-980.0,-169.0,-41.0,544.0,-291.0,448.0
19:52:30.003000,-165.0,245.0,-396.0,-800.0,-146.0,-12.0,544.0,-291.0,448.0
19:52:30.007000,-74.0,144.0,-377.0,-629.0,-143.0,-35.0,544.0,-291.0,448.0
19:52:30.013000,-53.0,86.0,-231.0,-642.0,-174.0,-46.0,535.0,-297.0,454.0
19:52:30.018000,-127.0,53.0,-121.0,-723.0,-190.0,-10.0,535.0,-297.0,454.0
19:52:30.022000,-163.0,-35.0,-29.0,-784.0,-181.0,-76.0,532.0,-300.0,454.0
19:52:30.027000,-86.0,-48.0,87.0,-873.0,-197.0,-82.0,532.0,-300.0,454.0
19:52:30.031000,-198.0,-133.0,77.0,-945.0,-159.0,-21.0,532.0,-300.0,454.0
19:52:30.036000,-200.0,-160.0,-27.0,-960.0,-73.0,-58.0,546.0,-297.0,457.0
19:52:30.041000,-141.0,-169.0,-42.0,-960.0,-42.0,-44.0,546.0,-297.0,457.0
19:52:30.046000,-176.0,-163.0,42.0,-960.0,-42.0,-44.0,549.0,-298.0,457.0
19:52:30.050000,-179.0,-153.0,80.0,-1077.0,0.0,-4.0,549.0,-298.0,457.0
19:52:30.058000,-270.0,-177.0,-7.0,-1091.0,-12.0,13.0,543.0,-300.0,469.0
19:52:30.060000,-273.0,-186.0,-98.0,-1091.0,-12.0,13.0,543.0,-300.0,469.0
19:52:30.064000,-243.0,-163.0,-79.0,-1076.0,-87.0,-33.0,543.0,-300.0,469.0
19:52:30.069000,-287.0,-192.0,-203.0,-1176.0,-233.0,7.0,546.0,-304.0,448.0
19:52:30.074000,-229.0,-70.0,-177.0,-1201.0,-327.0,-28.0,546.0,-304.0,448.0
19:52:30.079000,-147.0,-12.0,-31.0,-1156.0,-368.0,-106.0,550.0,-301.0,451.0
19:52:30.083000,-81.0,110.0,151.0,-1198.0,-391.0,-103.0,550.0,-301.0,451.0
19:52:30.087000,-81.0,110.0,151.0,-1233.0,-458.0,-118.0,550.0,-301.0,451.0
19:52:30.093000,39.0,212.0,15.0,-1256.0,-429.0,-127.0,532.0,-300.0,453.0
19:52:30.097000,83.0,210.0,-245.0,-1186.0,-375.0,-123.0,532.0,-300.0,453.0
19:52:30.102000,83.0,210.0,-245.0,-1047.0,-425.0,-86.0,546.0,-309.0,450.0
19:52:30.107000,60.0,209.0,-387.0,-906.0,-463.0,-61.0,546.0,-309.0,450.0
19:52:30.111000,72.0,147.0,-370.0,-847.0,-409.0,-53.0,546.0,-309.0,450.0
19:52:30.116000,160.0,100.0,-298.0,-853.0,-349.0,-98.0,546.0,-301.0,453.0
19:52:30.121000,252.0,80.0,-258.0,-819.0,-286.0,-71.0,546.0,-301.0,453.0
19:52:30.126000,239.0,-18.0,-287.0,-846.0,-201.0,-72.0,541.0,-294.0,460.0
19:52:30.130000,282.0,-56.0,-436.0,-884.0,-207.0,-96.0,541.0,-294.0,460.0
19:52:30.134000,321.0,-95.0,-513.0,-906.0,-226.0,-83.0,541.0,-294.0,460.0
19:52:30.140000,257.0,-83.0,-644.0,-964.0,-180.0,-119.0,532.0,-295.0,445.0
19:52:30.144000,196.0,-2.0,-944.0,-942.0,-193.0,-119.0,532.0,-295.0,445.0
19:52:30.149000,202.0,2.0,-958.0,-942.0,-193.0,-119.0,529.0,-283.0,480.0
19:52:30.154000,201.0,-24.0,-562.0,-778.0,-299.0,-76.0,529.0,-283.0,480.0
19:52:30.158000,242.0,-55.0,-149.0,-1008.0,-199.0,20.0,529.0,-283.0,480.0
19:52:30.163000,72.0,-191.0,-339.0,-1008.0,-199.0,20.0,544.0,-291.0,456.0
19:52:30.168000,101.0,-40.0,-732.0,-1175.0,-127.0,-31.0,544.0,-291.0,456.0
19:52:30.173000,151.0,-144.0,-705.0,-1031.0,-279.0,-84.0,535.0,-279.0,462.0
19:52:30.177000,93.0,-300.0,-378.0,-766.0,-383.0,74.0,535.0,-279.0,462.0
19:52:30.181000,-24.0,-321.0,-142.0,-663.0,-253.0,64.0,535.0,-279.0,462.0
19:52:30.187000,-65.0,-298.0,-331.0,-879.0,-40.0,-2.0,534.0,-277.0,466.0
19:52:30.191000,-77.0,-221.0,-440.0,-1095.0,0.0,-30.0,534.0,-277.0,466.0
19:52:30.196000,-24.0,-148.0,-443.0,-1160.0,-197.0,-61.0,538.0,-276.0,466.0
19:52:30.201000,-39.0,-151.0,-501.0,-1155.0,-296.0,-18.0,538.0,-276.0,466.0
19:52:30.205000,-39.0,-151.0,-501.0,-1053.0,-266.0,31.0,538.0,-276.0,466.0
19:52:30.210000,-40.0,-133.0,-510.0,-828.0,-309.0,15.0,547.0,-276.0,448.0
19:52:30.215000,-58.0,-152.0,-298.0,-698.0,-371.0,102.0,547.0,-276.0,448.0
19:52:30.220000,-170.0,-326.0,-198.0,-651.0,-322.0,170.0,541.0,-264.0,453.0
19:52:30.224000,-183.0,-434.0,-105.0,-712.0,-217.0,66.0,541.0,-264.0,453.0
19:52:30.228000,-133.0,-394.0,-78.0,-939.0,-190.0,-22.0,541.0,-264.0,453.0
19:52:30.234000,-19.0,-385.0,-191.0,-1108.0,-347.0,60.0,555.0,-277.0,450.0
19:52:30.238000,-54.0,-484.0,-434.0,-1032.0,-474.0,69.0,555.0,-277.0,450.0
19:52:30.243000,-76.0,-444.0,-506.0,-882.0,-384.0,-41.0,543.0,-271.0,445.0
19:52:30.248000,44.0,-354.0,-455.0,-974.0,-217.0,-37.0,543.0,-271.0,445.0
19:52:30.252000,79.0,-336.0,-546.0,-1108.0,-55.0,55.0,543.0,-271.0,445.0
19:52:30.257000,21.0,-387.0,-698.0,-1159.0,-1.0,122.0,552.0,-270.0,451.0
19:52:30.262000,-100.0,-411.0,-744.0,-1177.0,-44.0,0.0,552.0,-270.0,451.0
19:52:30.267000,-186.0,-199.0,-662.0,-1177.0,-44.0,0.0,541.0,-265.0,451.0
19:52:30.271000,-176.0,-140.0,-515.0,-1175.0,-59.0,-54.0,541.0,-265.0,451.0
19:52:30.279000,-177.0,-185.0,-480.0,-1046.0,-128.0,35.0,549.0,-262.0,462.0
19:52:30.281000,-231.0,-123.0,-443.0,-1046.0,-128.0,35.0,549.0,-262.0,462.0
19:52:30.285000,-140.0,-90.0,-262.0,-921.0,-218.0,-1.0,549.0,-262.0,462.0
19:52:30.290000,-144.0,-148.0,-326.0,-1030.0,-281.0,25.0,543.0,-270.0,444.0
19:52:30.295000,-158.0,-193.0,-449.0,-1211.0,-328.0,70.0,543.0,-270.0,444.0
19:52:30.299000,-134.0,-184.0,-415.0,-1231.0,-402.0,45.0,552.0,-261.0,447.0
19:52:30.304000,-19.0,-181.0,-254.0,-1150.0,-393.0,3.0,552.0,-261.0,447.0
19:52:30.308000,-19.0,-181.0,-254.0,-1076.0,-280.0,24.0,552.0,-261.0,447.0
19:52:30.314000,-59.0,-167.0,-183.0,-1089.0,-54.0,35.0,546.0,-265.0,450.0
19:52:30.318000,-59.0,-167.0,-183.0,-1080.0,128.0,28.0,546.0,-265.0,450.0
19:52:30.323000,-148.0,-95.0,-493.0,-973.0,23.0,46.0,544.0,-267.0,450.0
19:52:30.328000,-196.0,-63.0,-571.0,-913.0,-171.0,61.0,544.0,-267.0,450.0
19:52:30.332000,-205.0,-70.0,-537.0,-938.0,-268.0,38.0,544.0,-267.0,450.0
19:52:30.337000,-162.0,-34.0,-410.0,-1011.0,-312.0,-17.0,552.0,-255.0,447.0
19:52:30.342000,-128.0,16.0,-272.0,-1061.0,-324.0,-6.0,552.0,-255.0,447.0
19:52:30.346000,-37.0,1.0,-134.0,-1086.0,-283.0,10.0,550.0,-253.0,448.0
19:52:30.351000,69.0,-13.0,-23.0,-1091.0,-259.0,11.0,550.0,-253.0,448.0
19:52:30.355000,65.0,-31.0,92.0,-1111.0,-215.0,37.0,550.0,-253.0,448.0
19:52:30.360000,1.0,-88.0,93.0,-1143.0,-122.0,47.0,538.0,-256.0,447.0
19:52:30.365000,-56.0,-107.0,-64.0,-1084.0,-57.0,-3.0,538.0,-256.0,447.0
19:52:30.370000,16.0,-72.0,-210.0,-1084.0,-57.0,-3.0,541.0,-261.0,459.0
19:52:30.375000,-52.0,-109.0,-236.0,-958.0,-174.0,24.0,541.0,-261.0,459.0
19:52:30.379000,-175.0,-46.0,-366.0,-926.0,-170.0,5.0,541.0,-261.0,459.0
19:52:30.384000,-123.0,-42.0,-374.0,-926.0,-170.0,5.0,552.0,-256.0,447.0
19:52:30.389000,-55.0,-9.0,-312.0,-994.0,-175.0,-17.0,552.0,-256.0,447.0
19:52:30.393000,-45.0,14.0,-380.0,-1133.0,-121.0,-19.0,547.0,-250.0,442.0
19:52:30.398000,-77.0,42.0,-588.0,-1282.0,-64.0,3.0,547.0,-250.0,442.0
19:52:30.402000,-88.0,51.0,-677.0,-1264.0,-119.0,8.0,547.0,-250.0,442.0
19:52:30.408000,-140.0,49.0,-566.0,-1060.0,-266.0,26.0,550.0,-244.0,465.0
19:52:30.412000,-65.0,42.0,-460.0,-913.0,-251.0,20.0,550.0,-244.0,465.0
19:52:30.417000,13.0,7.0,-363.0,-897.0,-165.0,4.0,550.0,-262.0,451.0
19:52:30.422000,-55.0,1.0,-245.0,-884.0,-175.0,15.0,550.0,-262.0,451.0
19:52:30.426000,-55.0,1.0,-245.0,-981.0,-102.0,8.0,550.0,-262.0,451.0
19:52:30.431000,-76.0,5.0,-315.0,-1089.0,-47.0,-7.0,538.0,-246.0,456.0
19:52:30.436000,-51.0,-4.0,-455.0,-1003.0,-141.0,-4.0,538.0,-246.0,456.0
19:52:30.440000,-30.0,-34.0,-431.0,-905.0,-184.0,11.0,550.0,-246.0,451.0
19:52:30.445000,-49.0,-73.0,-357.0,-952.0,-111.0,23.0,550.0,-246.0,451.0
19:52:30.449000,-88.0,-80.0,-416.0,-1044.0,-43.0,-12.0,550.0,-246.0,451.0
19:52:30.455000,-67.0,-60.0,-518.0,-1046.0,-82.0,-20.0,541.0,-241.0,459.0
19:52:30.459000,-27.0,-77.0,-490.0,-992.0,-195.0,10.0,541.0,-241.0,459.0
19:52:30.464000,-42.0,-85.0,-358.0,-1004.0,-207.0,16.0,525.0,-249.0,448.0
19:52:30.469000,-43.0,-107.0,-393.0,-1015.0,-133.0,6.0,525.0,-249.0,448.0
19:52:30.473000,-23.0,-103.0,-454.0,-989.0,-118.0,-1.0,525.0,-249.0,448.0
19:52:30.478000,-42.0,-78.0,-417.0,-1032.0,-112.0,8.0,549.0,-238.0,454.0
19:52:30.483000,-59.0,-83.0,-408.0,-1114.0,-59.0,34.0,549.0,-238.0,454.0
19:52:30.487000,-29.0,-130.0,-506.0,-1114.0,-59.0,34.0,546.0,-231.0,453.0
19:52:30.492000,-7.0,-107.0,-592.0,-1149.0,-30.0,23.0,546.0,-231.0,453.0
19:52:30.496000,-35.0,-85.0,-667.0,-1166.0,-51.0,14.0,546.0,-231.0,453.0
19:52:30.502000,-53.0,-68.0,-712.0,-1175.0,-49.0,25.0,543.0,-232.0,454.0
19:52:30.506000,-5.0,-57.0,-662.0,-1112.0,-10.0,7.0,543.0,-232.0,454.0
19:52:30.511000,50.0,-40.0,-526.0,-1021.0,13.0,-10.0,544.0,-226.0,453.0
19:52:30.516000,-18.0,-68.0,-501.0,-1014.0,14.0,37.0,544.0,-226.0,453.0
19:52:30.520000,-100.0,-66.0,-611.0,-1083.0,69.0,51.0,544.0,-226.0,453.0
19:52:30.525000,-210.0,-64.0,-645.0,-1061.0,96.0,42.0,546.0,-217.0,459.0
19:52:30.530000,-102.0,30.0,-491.0,-1014.0,67.0,-17.0,546.0,-217.0,459.0
19:52:30.534000,-16.0,17.0,-278.0,-1090.0,-22.0,-69.0,532.0,-223.0,451.0
19:52:30.539000,-16.0,17.0,-278.0,-1209.0,-99.0,-12.0,532.0,-223.0,451.0
19:52:30.543000,-31.0,-1.0,-278.0,-1266.0,-64.0,-16.0,532.0,-223.0,451.0
19:52:30.549000,-41.0,34.0,-372.0,-1239.0,-15.0,-32.0,537.0,-226.0,478.0
19:52:30.553000,-39.0,42.0,-506.0,-1149.0,-16.0,-18.0,537.0,-226.0,478.0
19:52:30.558000,-54.0,42.0,-530.0,-1066.0,-82.0,-15.0,537.0,-226.0,478.0
19:52:30.563000,-58.0,37.0,-490.0,-1048.0,-137.0,-7.0,537.0,-226.0,478.0
19:52:30.567000,-63.0,13.0,-513.0,-1025.0,-150.0,-18.0,537.0,-226.0,478.0
19:52:30.572000,-23.0,1.0,-537.0,-990.0,-113.0,-23.0,540.0,-210.0,456.0
19:52:30.577000,20.0,-37.0,-530.0,-976.0,-64.0,-21.0,540.0,-210.0,456.0
19:52:30.581000,58.0,-35.0,-462.0,-1016.0,-35.0,-36.0,532.0,-214.0,459.0
19:52:30.586000,59.0,-15.0,-421.0,-1091.0,0.0,-27.0,532.0,-214.0,459.0
19:52:30.590000,62.0,-9.0,-463.0,-1129.0,15.0,-16.0,532.0,-214.0,459.0
19:52:30.595000,39.0,6.0,-518.0,-1131.0,23.0,-16.0,534.0,-210.0,450.0
19:52:30.600000,39.0,11.0,-574.0,-1131.0,23.0,-16.0,534.0,-210.0,450.0
19:52:30.605000,42.0,-6.0,-600.0,-1123.0,29.0,-9.0,523.0,-199.0,459.0
19:52:30.610000,29.0,-4.0,-611.0,-1104.0,26.0,-8.0,523.0,-199.0,459.0
19:52:30.614000,18.0,-2.0,-613.0,-1085.0,43.0,-20.0,523.0,-199.0,459.0
19:52:30.619000,0.0,-12.0,-626.0,-1090.0,80.0,-17.0,541.0,-199.0,456.0
19:52:30.624000,-33.0,-17.0,-639.0,-1103.0,105.0,-10.0,541.0,-199.0,456.0
19:52:30.628000,-44.0,-17.0,-642.0,-1110.0,111.0,-18.0,528.0,-199.0,459.0
19:52:30.633000,-43.0,-18.0,-639.0,-1120.0,92.0,-29.0,528.0,-199.0,459.0
19:52:30.640000,-51.0,-22.0,-651.0,-1121.0,33.0,-27.0,528.0,-192.0,475.0
19:52:30.643000,-44.0,-25.0,-679.0,-1121.0,33.0,-27.0,528.0,-192.0,475.0
19:52:30.647000,-44.0,-25.0,-679.0,-1095.0,36.0,-27.0,528.0,-192.0,475.0
19:52:30.652000,-32.0,-30.0,-688.0,-1066.0,26.0,-26.0,531.0,-186.0,465.0
19:52:30.657000,-44.0,-24.0,-657.0,-1057.0,23.0,-31.0,531.0,-186.0,465.0
19:52:30.661000,-68.0,-6.0,-648.0,-1064.0,48.0,-30.0,520.0,-184.0,465.0
19:52:30.666000,-78.0,-3.0,-662.0,-1057.0,73.0,-25.0,520.0,-184.0,465.0
19:52:30.670000,-72.0,-16.0,-674.0,-1042.0,86.0,-24.0,520.0,-184.0,465.0
19:52:30.675000,-66.0,-37.0,-690.0,-1025.0,90.0,-24.0,526.0,-183.0,448.0
19:52:30.680000,-69.0,-49.0,-690.0,-1003.0,92.0,-32.0,526.0,-183.0,448.0
19:52:30.684000,-88.0,-44.0,-666.0,-1011.0,116.0,-36.0,520.0,-186.0,465.0
19:52:30.690000,-98.0,-45.0,-661.0,-1048.0,151.0,-32.0,520.0,-186.0,465.0
19:52:30.694000,-99.0,-54.0,-686.0,-1059.0,164.0,-29.0,520.0,-186.0,465.0
19:52:30.699000,-95.0,-64.0,-707.0,-1036.0,164.0,-31.0,516.0,-184.0,457.0
19:52:30.704000,-102.0,-64.0,-722.0,-1016.0,172.0,-29.0,516.0,-184.0,457.0
19:52:30.708000,-114.0,-72.0,-732.0,-1016.0,172.0,-29.0,516.0,-189.0,460.0
19:52:30.713000,-118.0,-93.0,-722.0,-1009.0,176.0,-21.0,516.0,-189.0,460.0
19:52:30.717000,-114.0,-109.0,-711.0,-1006.0,176.0,-20.0,516.0,-189.0,460.0
19:52:30.722000,-119.0,-121.0,-721.0,-1010.0,189.0,-25.0,520.0,-168.0,475.0
19:52:30.727000,-132.0,-120.0,-732.0,-1020.0,196.0,-27.0,520.0,-168.0,475.0
19:52:30.732000,-151.0,-114.0,-713.0,-1020.0,196.0,-27.0,502.0,-169.0,481.0
19:52:30.737000,-163.0,-114.0,-701.0,-1021.0,194.0,-25.0,502.0,-169.0,481.0
19:52:30.741000,-169.0,-119.0,-723.0,-1024.0,205.0,-24.0,502.0,-169.0,481.0
19:52:30.746000,-175.0,-119.0,-741.0,-1015.0,209.0,-28.0,505.0,-169.0,465.0
19:52:30.751000,-174.0,-122.0,-733.0,-991.0,195.0,-31.0,505.0,-169.0,465.0
19:52:30.755000,-174.0,-122.0,-733.0,-974.0,184.0,-31.0,511.0,-171.0,463.0
19:52:30.760000,-157.0,-129.0,-742.0,-969.0,192.0,-30.0,511.0,-171.0,463.0
19:52:30.764000,-140.0,-134.0,-761.0,-965.0,201.0,-28.0,511.0,-171.0,463.0
19:52:30.769000,-133.0,-133.0,-763.0,-961.0,208.0,-22.0,505.0,-156.0,462.0
19:52:30.774000,-124.0,-140.0,-749.0,-962.0,209.0,-17.0,505.0,-156.0,462.0
19:52:30.779000,-116.0,-149.0,-723.0,-967.0,204.0,-17.0,493.0,-157.0,478.0
19:52:30.784000,-105.0,-156.0,-696.0,-976.0,209.0,-16.0,493.0,-157.0,478.0
19:52:30.788000,-84.0,-166.0,-688.0,-985.0,218.0,-13.0,493.0,-157.0,478.0
19:52:30.793000,-63.0,-173.0,-702.0,-985.0,232.0,-10.0,505.0,-151.0,460.0
19:52:30.798000,-48.0,-175.0,-718.0,-986.0,266.0,-8.0,505.0,-151.0,460.0
19:52:30.802000,-31.0,-177.0,-742.0,-989.0,313.0,-4.0,501.0,-150.0,460.0
19:52:30.807000,-23.0,-182.0,-773.0,-976.0,338.0,2.0,501.0,-150.0,460.0
19:52:30.811000,-25.0,-185.0,-785.0,-962.0,344.0,8.0,501.0,-150.0,460.0
19:52:30.816000,-33.0,-190.0,-767.0,-960.0,342.0,11.0,510.0,-147.0,469.0
19:52:30.821000,-48.0,-191.0,-720.0,-960.0,342.0,11.0,510.0,-147.0,469.0
19:52:30.826000,-58.0,-196.0,-680.0,-972.0,340.0,14.0,495.0,-136.0,465.0
19:52:30.831000,-69.0,-198.0,-655.0,-988.0,349.0,16.0,495.0,-136.0,465.0
19:52:30.835000,-86.0,-197.0,-618.0,-986.0,351.0,17.0,495.0,-136.0,465.0
19:52:30.840000,-104.0,-197.0,-572.0,-972.0,353.0,20.0,493.0,-141.0,465.0
19:52:30.845000,-114.0,-193.0,-546.0,-970.0,365.0,23.0,493.0,-141.0,465.0
19:52:30.849000,-119.0,-191.0,-550.0,-983.0,391.0,26.0,495.0,-130.0,468.0
19:52:30.854000,-124.0,-186.0,-562.0,-987.0,401.0,28.0,495.0,-130.0,468.0
19:52:30.858000,-124.0,-186.0,-562.0,-974.0,386.0,33.0,495.0,-130.0,468.0
19:52:30.863000,-133.0,-183.0,-534.0,-958.0,375.0,39.0,490.0,-133.0,466.0
19:52:30.868000,-133.0,-183.0,-534.0,-946.0,374.0,43.0,490.0,-133.0,466.0
19:52:30.873000,-130.0,-185.0,-505.0,-949.0,391.0,45.0,496.0,-132.0,466.0
19:52:30.878000,-133.0,-180.0,-492.0,-954.0,404.0,47.0,496.0,-132.0,466.0
19:52:30.882000,-145.0,-173.0,-482.0,-951.0,405.0,52.0,496.0,-132.0,466.0
19:52:30.887000,-158.0,-165.0,-459.0,-946.0,403.0,55.0,495.0,-123.0,463.0
19:52:30.892000,-165.0,-163.0,-434.0,-941.0,397.0,59.0,495.0,-123.0,463.0
19:52:30.896000,-170.0,-161.0,-409.0,-938.0,402.0,61.0,505.0,-130.0,468.0
19:52:30.901000,-175.0,-161.0,-396.0,-934.0,415.0,62.0,505.0,-130.0,468.0
19:52:30.905000,-178.0,-156.0,-393.0,-927.0,424.0,59.0,505.0,-130.0,468.0
19:52:30.910000,-179.0,-154.0,-385.0,-923.0,423.0,58.0,489.0,-124.0,462.0
19:52:30.915000,-182.0,-149.0,-368.0,-921.0,415.0,59.0,489.0,-124.0,462.0
19:52:30.920000,-182.0,-149.0,-344.0,-921.0,415.0,59.0,486.0,-138.0,466.0
19:52:30.925000,-181.0,-149.0,-317.0,-917.0,407.0,60.0,486.0,-138.0,466.0
19:52:30.929000,-176.0,-151.0,-294.0,-917.0,407.0,60.0,486.0,-138.0,466.0
19:52:30.934000,-173.0,-149.0,-270.0,-909.0,399.0,59.0,499.0,-126.0,466.0
19:52:30.939000,-172.0,-144.0,-235.0,-901.0,386.0,57.0,499.0,-126.0,466.0
19:52:30.943000,-170.0,-140.0,-197.0,-895.0,375.0,58.0,493.0,-109.0,465.0
19:52:30.948000,-165.0,-133.0,-163.0,-898.0,374.0,58.0,493.0,-109.0,465.0
19:52:30.955000,-158.0,-127.0,-138.0,-903.0,381.0,60.0,490.0,-120.0,472.0
19:52:30.957000,-149.0,-119.0,-122.0,-903.0,381.0,60.0,490.0,-120.0,472.0
19:52:30.962000,-149.0,-119.0,-122.0,-898.0,381.0,61.0,490.0,-120.0,472.0
19:52:30.967000,-125.0,-105.0,-115.0,-893.0,378.0,64.0,498.0,-114.0,463.0
19:52:30.972000,-114.0,-101.0,-116.0,-888.0,372.0,66.0,498.0,-114.0,463.0
19:52:30.976000,-114.0,-101.0,-116.0,-882.0,376.0,69.0,493.0,-124.0,462.0
19:52:30.981000,-102.0,-96.0,-118.0,-878.0,386.0,70.0,493.0,-124.0,462.0
19:52:30.985000,-91.0,-91.0,-126.0,-870.0,392.0,73.0,493.0,-124.0,462.0
19:52:30.990000,-80.0,-93.0,-127.0,-856.0,385.0,76.0,489.0,-121.0,465.0
19:52:30.995000,-72.0,-91.0,-119.0,-844.0,370.0,78.0,489.0,-121.0,465.0
19:52:31.000000,-63.0,-91.0,-102.0,-842.0,363.0,79.0,498.0,-121.0,466.0
19:52:31.004000,-52.0,-94.0,-88.0,-844.0,359.0,79.0,498.0,-121.0,466.0
19:52:31.009000,-38.0,-98.0,-79.0,-842.0,358.0,80.0,498.0,-121.0,466.0
19:52:31.014000,-27.0,-102.0,-65.0,-839.0,355.0,82.0,501.0,-130.0,474.0
19:52:31.019000,-16.0,-105.0,-46.0,-836.0,352.0,80.0,501.0,-130.0,474.0
19:52:31.023000,-8.0,-103.0,-28.0,-836.0,352.0,80.0,498.0,-115.0,468.0
19:52:31.028000,-1.0,-100.0,-16.0,-848.0,361.0,78.0,498.0,-115.0,468.0
19:52:31.032000,1.0,-97.0,-11.0,-849.0,363.0,78.0,498.0,-115.0,468.0
19:52:31.037000,1.0,-92.0,-7.0,-849.0,363.0,78.0,498.0,-120.0,471.0
19:52:31.042000,0.0,-91.0,-11.0,-830.0,369.0,83.0,498.0,-120.0,471.0
19:52:31.047000,0.0,-94.0,-14.0,-830.0,369.0,83.0,498.0,-117.0,477.0
19:52:31.051000,2.0,-98.0,-11.0,-810.0,371.0,87.0,498.0,-117.0,477.0
19:52:31.056000,0.0,-99.0,-16.0,-798.0,375.0,86.0,498.0,-117.0,477.0
19:52:31.060000,0.0,-100.0,-29.0,-798.0,387.0,85.0,504.0,-120.0,468.0
19:52:31.066000,0.0,-104.0,-44.0,-803.0,396.0,86.0,504.0,-120.0,468.0
19:52:31.070000,0.0,-108.0,-53.0,-801.0,392.0,87.0,502.0,-114.0,465.0
19:52:31.075000,0.0,-115.0,-56.0,-793.0,381.0,87.0,502.0,-114.0,465.0
19:52:31.079000,0.0,-115.0,-56.0,-786.0,373.0,88.0,502.0,-114.0,465.0
19:52:31.084000,5.0,-123.0,-60.0,-784.0,364.0,85.0,507.0,-114.0,457.0
19:52:31.089000,9.0,-121.0,-65.0,-785.0,356.0,81.0,507.0,-114.0,457.0
19:52:31.094000,11.0,-120.0,-73.0,-787.0,354.0,83.0,499.0,-118.0,468.0
19:52:31.098000,16.0,-120.0,-84.0,-784.0,358.0,90.0,499.0,-118.0,468.0
19:52:31.103000,18.0,-122.0,-98.0,-776.0,371.0,95.0,499.0,-118.0,468.0
19:52:31.108000,22.0,-126.0,-116.0,-766.0,387.0,99.0,507.0,-109.0,460.0
19:52:31.113000,23.0,-127.0,-137.0,-762.0,402.0,102.0,507.0,-109.0,460.0
19:52:31.117000,25.0,-130.0,-163.0,-761.0,412.0,107.0,499.0,-106.0,466.0
19:52:31.122000,27.0,-135.0,-188.0,-758.0,413.0,110.0,499.0,-106.0,466.0
19:52:31.126000,27.0,-136.0,-212.0,-751.0,408.0,110.0,499.0,-106.0,466.0
19:52:31.131000,29.0,-139.0,-232.0,-747.0,407.0,109.0,501.0,-115.0,459.0
19:52:31.136000,32.0,-142.0,-256.0,-750.0,414.0,110.0,501.0,-115.0,459.0
19:52:31.141000,32.0,-145.0,-283.0,-750.0,414.0,110.0,505.0,-106.0,457.0
19:52:31.145000,28.0,-146.0,-305.0,-752.0,433.0,109.0,505.0,-106.0,457.0
19:52:31.150000,23.0,-142.0,-322.0,-751.0,433.0,109.0,505.0,-106.0,457.0
19:52:31.155000,16.0,-139.0,-337.0,-755.0,441.0,108.0,498.0,-103.0,456.0
19:52:31.160000,4.0,-133.0,-352.0,-763.0,450.0,110.0,498.0,-103.0,456.0
19:52:31.164000,-15.0,-122.0,-362.0,-770.0,459.0,111.0,502.0,-108.0,459.0
19:52:31.169000,-39.0,-114.0,-371.0,-775.0,465.0,112.0,502.0,-108.0,459.0
19:52:31.173000,-67.0,-102.0,-382.0,-773.0,474.0,113.0,502.0,-108.0,459.0
19:52:31.178000,-97.0,-88.0,-394.0,-765.0,486.0,113.0,505.0,-99.0,451.0
19:52:31.183000,-123.0,-70.0,-394.0,-752.0,497.0,109.0,505.0,-99.0,451.0
19:52:31.188000,-149.0,-54.0,-387.0,-737.0,503.0,108.0,492.0,-103.0,487.0
19:52:31.192000,-149.0,-54.0,-387.0,-718.0,505.0,110.0,492.0,-103.0,487.0
