hh:mm:ss.ms,gyroX[mdps],gyroY[mdps],gyroZ[mdps],accX[mg],accY[mg],accZ[mg],magX[mG],magY[mG],magZ[mG]
19:48:33.096000,78.0,45.0,-10.0,-1042.0,889.0,-61.0,712.0,-495.0,379.0
19:48:33.103000,85.0,45.0,-5.0,-1186.0,1070.0,-82.0,709.0,-493.0,399.0
19:48:33.105000,86.0,30.0,0.0,-1186.0,1070.0,-82.0,709.0,-493.0,399.0
19:48:33.109000,84.0,9.0,41.0,-1319.0,1213.0,-90.0,709.0,-493.0,399.0
19:48:33.115000,79.0,-16.0,126.0,-1390.0,1251.0,-85.0,702.0,-481.0,385.0
19:48:33.119000,79.0,-44.0,221.0,-1388.0,1182.0,-65.0,702.0,-481.0,385.0
19:48:33.124000,90.0,-70.0,308.0,-1319.0,1031.0,-34.0,714.0,-480.0,385.0
19:48:33.129000,107.0,-93.0,382.0,-1216.0,839.0,0.0,714.0,-480.0,385.0
19:48:33.133000,122.0,-113.0,434.0,-1121.0,663.0,42.0,714.0,-480.0,385.0
19:48:33.138000,130.0,-135.0,455.0,-1051.0,528.0,87.0,709.0,-486.0,393.0
19:48:33.143000,130.0,-151.0,448.0,-988.0,422.0,127.0,709.0,-486.0,393.0
19:48:33.147000,130.0,-151.0,448.0,-921.0,323.0,152.0,714.0,-489.0,393.0
19:48:33.152000,116.0,-160.0,437.0,-875.0,235.0,163.0,714.0,-489.0,393.0
19:48:33.156000,89.0,-164.0,439.0,-882.0,197.0,158.0,714.0,-489.0,393.0
19:48:33.162000,51.0,-165.0,443.0,-945.0,215.0,136.0,696.0,-480.0,385.0
19:48:33.166000,2.0,-163.0,441.0,-1030.0,234.0,103.0,696.0,-480.0,385.0
19:48:33.171000,-47.0,-154.0,451.0,-1097.0,199.0,64.0,700.0,-490.0,382.0
19:48:33.176000,-90.0,-144.0,487.0,-1135.0,103.0,28.0,700.0,-490.0,382.0
19:48:33.180000,-115.0,-140.0,540.0,-1148.0,-25.0,2.0,700.0,-490.0,382.0
19:48:33.185000,-122.0,-143.0,599.0,-1140.0,-166.0,-18.0,699.0,-495.0,387.0
19:48:33.190000,-119.0,-150.0,655.0,-1108.0,-306.0,-34.0,699.0,-495.0,387.0
19:48:33.194000,-119.0,-158.0,703.0,-1065.0,-422.0,-49.0,700.0,-501.0,391.0
19:48:33.199000,-126.0,-168.0,735.0,-1029.0,-494.0,-62.0,700.0,-501.0,391.0
19:48:33.203000,-153.0,-172.0,740.0,-1008.0,-527.0,-75.0,700.0,-501.0,391.0
19:48:33.209000,-196.0,-171.0,714.0,-987.0,-560.0,-87.0,697.0,-508.0,394.0
19:48:33.213000,-245.0,-168.0,654.0,-987.0,-560.0,-87.0,697.0,-508.0,394.0
19:48:33.218000,-278.0,-167.0,567.0,-946.0,-629.0,-98.0,687.0,-507.0,382.0
19:48:33.223000,-282.0,-164.0,471.0,-889.0,-737.0,-118.0,687.0,-507.0,382.0
19:48:33.227000,-254.0,-156.0,394.0,-860.0,-838.0,-155.0,687.0,-507.0,382.0
19:48:33.232000,-200.0,-143.0,337.0,-918.0,-869.0,-205.0,696.0,-516.0,382.0
19:48:33.236000,-126.0,-130.0,275.0,-1071.0,-813.0,-252.0,696.0,-516.0,382.0
19:48:33.242000,-39.0,-121.0,197.0,-1258.0,-720.0,-284.0,685.0,-520.0,390.0
19:48:33.246000,51.0,-114.0,142.0,-1392.0,-654.0,-300.0,685.0,-520.0,390.0
19:48:33.251000,135.0,-109.0,147.0,-1439.0,-628.0,-301.0,684.0,-525.0,384.0
19:48:33.256000,194.0,-105.0,206.0,-1423.0,-591.0,-280.0,684.0,-525.0,384.0
19:48:33.260000,194.0,-105.0,206.0,-1373.0,-501.0,-234.0,684.0,-525.0,384.0
19:48:33.265000,223.0,-109.0,289.0,-1301.0,-364.0,-176.0,682.0,-528.0,390.0
19:48:33.270000,219.0,-119.0,374.0,-1220.0,-205.0,-125.0,682.0,-528.0,390.0
19:48:33.274000,179.0,-128.0,464.0,-1168.0,-42.0,-92.0,673.0,-525.0,387.0
19:48:33.279000,106.0,-137.0,564.0,-1165.0,104.0,-65.0,673.0,-525.0,387.0
19:48:33.283000,16.0,-159.0,675.0,-1162.0,168.0,-12.0,673.0,-525.0,387.0
19:48:33.289000,-56.0,-217.0,809.0,-1043.0,57.0,60.0,657.0,-534.0,402.0
19:48:33.293000,-90.0,-310.0,979.0,-774.0,-196.0,94.0,657.0,-534.0,402.0
19:48:33.298000,-81.0,-409.0,1155.0,-484.0,-404.0,74.0,673.0,-526.0,393.0
19:48:33.303000,-61.0,-496.0,1302.0,-364.0,-350.0,39.0,673.0,-526.0,393.0
19:48:33.307000,-72.0,-571.0,1424.0,-491.0,0.0,23.0,673.0,-526.0,393.0
19:48:33.312000,-143.0,-634.0,1528.0,-738.0,437.0,33.0,669.0,-541.0,385.0
19:48:33.317000,-273.0,-686.0,1658.0,-884.0,689.0,56.0,669.0,-541.0,385.0
19:48:33.321000,-438.0,-718.0,1901.0,-884.0,689.0,56.0,661.0,-552.0,387.0
19:48:33.326000,-599.0,-732.0,2260.0,-578.0,324.0,81.0,661.0,-552.0,387.0
19:48:33.330000,-711.0,-737.0,2632.0,-578.0,324.0,81.0,661.0,-552.0,387.0
19:48:33.336000,-762.0,-738.0,2931.0,-294.0,-35.0,80.0,648.0,-583.0,370.0
19:48:33.340000,-763.0,-737.0,3147.0,-52.0,-324.0,78.0,648.0,-583.0,370.0
19:48:33.345000,-737.0,-735.0,3302.0,110.0,-509.0,73.0,637.0,-604.0,361.0
19:48:33.350000,-699.0,-739.0,3418.0,199.0,-594.0,72.0,637.0,-604.0,361.0
19:48:33.354000,-662.0,-745.0,3512.0,249.0,-601.0,78.0,637.0,-604.0,361.0
19:48:33.359000,-638.0,-748.0,3605.0,301.0,-569.0,93.0,618.0,-633.0,357.0
19:48:33.364000,-629.0,-739.0,3720.0,372.0,-545.0,118.0,618.0,-633.0,357.0
19:48:33.368000,-629.0,-739.0,3720.0,457.0,-552.0,150.0,598.0,-652.0,348.0
19:48:33.373000,-634.0,-714.0,3863.0,532.0,-587.0,188.0,598.0,-652.0,348.0
19:48:33.377000,-654.0,-669.0,4015.0,599.0,-660.0,229.0,598.0,-652.0,348.0
19:48:33.383000,-681.0,-599.0,4165.0,682.0,-788.0,261.0,583.0,-685.0,346.0
19:48:33.387000,-705.0,-502.0,4314.0,793.0,-945.0,278.0,583.0,-685.0,346.0
19:48:33.392000,-725.0,-387.0,4435.0,924.0,-1070.0,274.0,561.0,-703.0,343.0
19:48:33.397000,-730.0,-264.0,4490.0,1073.0,-1122.0,244.0,561.0,-703.0,343.0
19:48:33.401000,-715.0,-147.0,4469.0,1218.0,-1106.0,195.0,561.0,-703.0,343.0
19:48:33.406000,-679.0,-49.0,4405.0,1313.0,-1039.0,137.0,505.0,-753.0,331.0
19:48:33.411000,-630.0,25.0,4330.0,1313.0,-935.0,60.0,505.0,-753.0,331.0
19:48:33.415000,-571.0,77.0,4253.0,1190.0,-803.0,-40.0,474.0,-771.0,327.0
19:48:33.420000,-506.0,114.0,4172.0,936.0,-615.0,-157.0,474.0,-771.0,327.0
19:48:33.424000,-442.0,135.0,4054.0,598.0,-366.0,-268.0,474.0,-771.0,327.0
19:48:33.430000,-397.0,140.0,3871.0,297.0,-136.0,-363.0,441.0,-784.0,324.0
19:48:33.434000,-361.0,118.0,3679.0,297.0,-136.0,-363.0,441.0,-784.0,324.0
19:48:33.439000,-334.0,62.0,3574.0,150.0,-20.0,-444.0,415.0,-798.0,324.0
19:48:33.444000,-310.0,-34.0,3569.0,149.0,-4.0,-480.0,415.0,-798.0,324.0
19:48:33.448000,-275.0,-172.0,3608.0,216.0,-25.0,-467.0,415.0,-798.0,324.0
19:48:33.452000,-223.0,-341.0,3651.0,306.0,-76.0,-424.0,393.0,-801.0,321.0
19:48:33.458000,-158.0,-519.0,3679.0,390.0,-157.0,-369.0,393.0,-801.0,321.0
19:48:33.462000,-106.0,-676.0,3680.0,407.0,-203.0,-307.0,354.0,-813.0,322.0
19:48:33.467000,-93.0,-788.0,3630.0,291.0,-139.0,-236.0,354.0,-813.0,322.0
19:48:33.471000,-93.0,-788.0,3630.0,54.0,35.0,-168.0,354.0,-813.0,322.0
19:48:33.477000,-232.0,-853.0,3313.0,-215.0,247.0,-129.0,307.0,-828.0,321.0
19:48:33.481000,-232.0,-853.0,3313.0,-451.0,429.0,-128.0,307.0,-828.0,321.0
19:48:33.486000,-361.0,-803.0,3086.0,-645.0,570.0,-152.0,289.0,-820.0,321.0
19:48:33.491000,-504.0,-718.0,2821.0,-796.0,661.0,-189.0,289.0,-820.0,321.0
19:48:33.495000,-629.0,-623.0,2528.0,-877.0,652.0,-234.0,289.0,-820.0,321.0
19:48:33.500000,-707.0,-532.0,2255.0,-873.0,518.0,-276.0,262.0,-825.0,324.0
19:48:33.505000,-703.0,-483.0,2035.0,-798.0,298.0,-300.0,262.0,-825.0,324.0
19:48:33.509000,-600.0,-489.0,1852.0,-653.0,69.0,-294.0,249.0,-826.0,310.0
19:48:33.514000,-417.0,-534.0,1673.0,-438.0,-105.0,-258.0,249.0,-826.0,310.0
19:48:33.518000,-191.0,-578.0,1516.0,-232.0,-175.0,-211.0,249.0,-826.0,310.0
19:48:33.524000,29.0,-597.0,1438.0,-198.0,-78.0,-172.0,238.0,-822.0,318.0
19:48:33.528000,190.0,-578.0,1428.0,-417.0,187.0,-158.0,238.0,-822.0,318.0
19:48:33.533000,270.0,-522.0,1404.0,-417.0,187.0,-158.0,222.0,-823.0,324.0
19:48:33.538000,286.0,-435.0,1350.0,-1086.0,778.0,-207.0,222.0,-823.0,324.0
19:48:33.542000,258.0,-338.0,1311.0,-1239.0,903.0,-241.0,222.0,-823.0,324.0
19:48:33.547000,207.0,-248.0,1316.0,-1239.0,903.0,-241.0,196.0,-820.0,340.0
19:48:33.552000,147.0,-182.0,1337.0,-1191.0,891.0,-271.0,196.0,-820.0,340.0
19:48:33.556000,96.0,-156.0,1321.0,-964.0,798.0,-290.0,192.0,-807.0,327.0
19:48:33.561000,62.0,-166.0,1269.0,-634.0,676.0,-300.0,192.0,-807.0,327.0
19:48:33.565000,40.0,-203.0,1218.0,-290.0,540.0,-298.0,192.0,-807.0,327.0
19:48:33.571000,38.0,-260.0,1181.0,-5.0,376.0,-290.0,189.0,-816.0,339.0
19:48:33.575000,60.0,-331.0,1136.0,184.0,187.0,-283.0,189.0,-816.0,339.0
19:48:33.580000,101.0,-401.0,1054.0,281.0,-4.0,-268.0,181.0,-805.0,336.0
19:48:33.585000,144.0,-452.0,931.0,308.0,-149.0,-243.0,181.0,-805.0,336.0
19:48:33.592000,177.0,-480.0,788.0,234.0,-192.0,-182.0,178.0,-802.0,343.0
19:48:33.594000,177.0,-480.0,788.0,234.0,-192.0,-182.0,178.0,-802.0,343.0
19:48:33.598000,189.0,-490.0,648.0,146.0,-150.0,-143.0,178.0,-802.0,343.0
19:48:33.603000,182.0,-469.0,511.0,28.0,-142.0,-103.0,165.0,-795.0,352.0
19:48:33.608000,170.0,-423.0,368.0,-107.0,-201.0,-65.0,165.0,-795.0,352.0
19:48:33.613000,172.0,-351.0,216.0,-245.0,-323.0,-39.0,175.0,-793.0,358.0
19:48:33.618000,196.0,-261.0,64.0,-384.0,-475.0,-33.0,175.0,-793.0,358.0
19:48:33.622000,247.0,-161.0,-88.0,-524.0,-600.0,-49.0,175.0,-793.0,358.0
19:48:33.627000,315.0,-51.0,-254.0,-645.0,-666.0,-78.0,181.0,-784.0,363.0
19:48:33.632000,384.0,53.0,-423.0,-700.0,-689.0,-110.0,181.0,-784.0,363.0
19:48:33.636000,451.0,137.0,-594.0,-700.0,-720.0,-110.0,157.0,-780.0,375.0
19:48:33.641000,516.0,191.0,-749.0,-307.0,-827.0,-129.0,157.0,-780.0,375.0
19:48:33.645000,599.0,219.0,-865.0,70.0,-960.0,-150.0,157.0,-780.0,375.0
19:48:33.650000,699.0,212.0,-931.0,70.0,-960.0,-150.0,183.0,-781.0,376.0
19:48:33.655000,797.0,187.0,-980.0,332.0,-1005.0,-161.0,183.0,-781.0,376.0
19:48:33.660000,873.0,151.0,-1086.0,355.0,-881.0,-152.0,186.0,-778.0,379.0
19:48:33.665000,933.0,107.0,-1281.0,211.0,-673.0,-116.0,186.0,-778.0,379.0
19:48:33.669000,966.0,61.0,-1484.0,119.0,-572.0,-48.0,186.0,-778.0,379.0
19:48:33.674000,1347.0,-7.0,-1536.0,256.0,-777.0,52.0,196.0,-766.0,393.0
19:48:33.679000,2512.0,569.0,445.0,1661.0,-2270.0,-917.0,196.0,-766.0,393.0
19:48:33.683000,-1054.0,-238.0,5342.0,3462.0,-3778.0,-132.0,205.0,-763.0,405.0
19:48:33.688000,5376.0,-8184.0,-11015.0,1191.0,-769.0,559.0,205.0,-763.0,405.0
19:48:33.692000,5376.0,-8184.0,-11015.0,-2804.0,3226.0,-383.0,205.0,-763.0,405.0
19:48:33.697000,10949.0,-5576.0,-21343.0,-3024.0,2619.0,289.0,183.0,-747.0,405.0
19:48:33.702000,1240.0,-1684.0,-9440.0,850.0,-1248.0,1563.0,183.0,-747.0,405.0
19:48:33.707000,-5622.0,-58.0,3803.0,2243.0,-2720.0,500.0,333.0,-714.0,433.0
19:48:33.712000,-2421.0,-1139.0,4074.0,-1349.0,-1703.0,-408.0,333.0,-714.0,433.0
19:48:33.716000,-1625.0,-626.0,463.0,-2153.0,-2680.0,-181.0,333.0,-714.0,433.0
19:48:33.721000,-1065.0,913.0,52.0,123.0,-3825.0,-280.0,333.0,-709.0,441.0
19:48:33.726000,-477.0,959.0,1565.0,723.0,-3995.0,643.0,333.0,-709.0,441.0
19:48:33.730000,-326.0,224.0,1831.0,-29.0,-3738.0,828.0,322.0,-715.0,433.0
19:48:33.735000,-359.0,-541.0,1102.0,-592.0,-2644.0,572.0,322.0,-715.0,433.0
19:48:33.739000,-338.0,-809.0,566.0,-813.0,-1836.0,153.0,322.0,-715.0,433.0
19:48:33.744000,-609.0,-217.0,324.0,-906.0,-2150.0,-45.0,324.0,-715.0,427.0
19:48:33.749000,-507.0,121.0,-149.0,-1022.0,-2917.0,91.0,324.0,-715.0,427.0
19:48:33.754000,-352.0,361.0,-778.0,-1022.0,-2917.0,91.0,316.0,-721.0,435.0
19:48:33.759000,-218.0,413.0,-1010.0,-786.0,-3278.0,288.0,316.0,-721.0,435.0
19:48:33.763000,-213.0,346.0,-982.0,-436.0,-3126.0,294.0,316.0,-721.0,435.0
19:48:33.768000,-9.0,249.0,-1270.0,-436.0,-3126.0,294.0,312.0,-715.0,427.0
19:48:33.773000,-75.0,126.0,-1477.0,-366.0,-2916.0,189.0,312.0,-715.0,427.0
19:48:33.777000,-251.0,348.0,-1607.0,-396.0,-2625.0,289.0,333.0,-702.0,432.0
19:48:33.782000,-93.0,462.0,-1682.0,-447.0,-2186.0,143.0,333.0,-702.0,432.0
19:48:33.786000,-394.0,541.0,-1735.0,-94.0,-2184.0,157.0,333.0,-702.0,432.0
19:48:33.791000,-310.0,249.0,-2212.0,211.0,-2549.0,513.0,340.0,-702.0,430.0
19:48:33.796000,-83.0,385.0,-2376.0,210.0,-2763.0,295.0,340.0,-702.0,430.0
19:48:33.801000,-215.0,415.0,-2168.0,251.0,-2935.0,164.0,349.0,-691.0,429.0
19:48:33.806000,-309.0,415.0,-1989.0,461.0,-2712.0,380.0,349.0,-691.0,429.0
19:48:33.810000,-309.0,402.0,-2096.0,437.0,-2404.0,320.0,349.0,-691.0,429.0
19:48:33.815000,-298.0,327.0,-2293.0,187.0,-2519.0,198.0,336.0,-679.0,442.0
19:48:33.820000,-140.0,452.0,-2396.0,396.0,-2526.0,203.0,336.0,-679.0,442.0
19:48:33.824000,-173.0,534.0,-2421.0,578.0,-2496.0,394.0,373.0,-682.0,426.0
19:48:33.829000,-44.0,361.0,-2297.0,487.0,-2556.0,185.0,373.0,-682.0,426.0
19:48:33.833000,42.0,380.0,-2311.0,430.0,-2577.0,118.0,373.0,-682.0,426.0
19:48:33.838000,3.0,264.0,-2206.0,408.0,-2303.0,162.0,376.0,-669.0,429.0
19:48:33.843000,-41.0,353.0,-2140.0,477.0,-2105.0,-78.0,376.0,-669.0,429.0
19:48:33.847000,-127.0,379.0,-1925.0,446.0,-2282.0,214.0,391.0,-663.0,439.0
19:48:33.853000,-338.0,-40.0,-1728.0,207.0,-2302.0,191.0,391.0,-663.0,439.0
19:48:33.857000,-56.0,22.0,-1878.0,253.0,-2544.0,-152.0,391.0,-663.0,439.0
19:48:33.862000,-65.0,188.0,-1831.0,302.0,-2675.0,-61.0,402.0,-663.0,427.0
19:48:33.867000,20.0,35.0,-1711.0,291.0,-2407.0,269.0,402.0,-663.0,427.0
19:48:33.871000,-131.0,-345.0,-1635.0,291.0,-2407.0,269.0,414.0,-648.0,429.0
19:48:33.876000,-146.0,-82.0,-1485.0,228.0,-1883.0,90.0,414.0,-648.0,429.0
19:48:33.880000,-117.0,-56.0,-1344.0,145.0,-1904.0,-231.0,414.0,-648.0,429.0
19:48:33.885000,-274.0,-317.0,-1459.0,-102.0,-2439.0,109.0,420.0,-649.0,436.0
19:48:33.890000,-141.0,-213.0,-1661.0,-169.0,-2028.0,-147.0,420.0,-649.0,436.0
19:48:33.895000,-25.0,64.0,-1346.0,-169.0,-2028.0,-147.0,424.0,-639.0,427.0
19:48:33.900000,-2.0,168.0,-1040.0,19.0,-2185.0,-91.0,424.0,-639.0,427.0
19:48:33.904000,-175.0,-186.0,-1433.0,-159.0,-2259.0,292.0,438.0,-645.0,421.0
19:48:33.909000,-119.0,-179.0,-1821.0,-371.0,-1796.0,351.0,438.0,-645.0,421.0
19:48:33.913000,-119.0,-179.0,-1821.0,-318.0,-1524.0,117.0,438.0,-645.0,421.0
19:48:33.918000,-159.0,-37.0,-1645.0,-139.0,-1813.0,222.0,436.0,-625.0,421.0
19:48:33.923000,-350.0,-7.0,-1090.0,-230.0,-2295.0,522.0,436.0,-625.0,421.0
19:48:33.928000,-614.0,-196.0,-796.0,-391.0,-2121.0,82.0,448.0,-624.0,420.0
19:48:33.932000,-189.0,651.0,-1407.0,-306.0,-1688.0,-677.0,448.0,-624.0,420.0
19:48:33.937000,338.0,1366.0,-1494.0,-9.0,-2244.0,261.0,448.0,-624.0,420.0
19:48:33.942000,-4.0,753.0,-1003.0,140.0,-2498.0,894.0,460.0,-618.0,426.0
19:48:33.947000,131.0,421.0,-898.0,282.0,-1792.0,526.0,460.0,-618.0,426.0
19:48:33.951000,80.0,284.0,-1526.0,212.0,-1434.0,580.0,459.0,-616.0,432.0
19:48:33.956000,-223.0,155.0,-1880.0,-13.0,-1809.0,313.0,459.0,-616.0,432.0
19:48:33.960000,-80.0,207.0,-1299.0,4.0,-1961.0,310.0,459.0,-616.0,432.0
19:48:33.965000,-302.0,102.0,-1031.0,320.0,-1501.0,476.0,462.0,-612.0,430.0
19:48:33.970000,-270.0,87.0,-914.0,479.0,-1502.0,-6.0,462.0,-612.0,430.0
19:48:33.975000,101.0,434.0,-891.0,479.0,-1502.0,-6.0,471.0,-601.0,423.0
19:48:33.979000,-35.0,194.0,-1248.0,226.0,-1919.0,666.0,471.0,-601.0,423.0
19:48:33.984000,-240.0,-319.0,-1378.0,226.0,-1919.0,666.0,471.0,-601.0,423.0
19:48:33.989000,-82.0,-227.0,-1271.0,4.0,-1781.0,369.0,468.0,-607.0,433.0
19:48:33.994000,92.0,14.0,-1330.0,-99.0,-1303.0,-22.0,468.0,-607.0,433.0
19:48:33.998000,263.0,509.0,-1115.0,18.0,-1202.0,-205.0,484.0,-594.0,436.0
19:48:34.003000,256.0,684.0,-695.0,162.0,-1602.0,-161.0,484.0,-594.0,436.0
19:48:34.007000,39.0,396.0,-381.0,344.0,-1956.0,333.0,484.0,-594.0,436.0
19:48:34.012000,11.0,128.0,-923.0,157.0,-1807.0,486.0,478.0,-586.0,429.0
19:48:34.017000,178.0,152.0,-1418.0,-181.0,-1484.0,184.0,478.0,-586.0,429.0
19:48:34.021000,178.0,152.0,-1418.0,-193.0,-1509.0,227.0,496.0,-583.0,433.0
19:48:34.026000,145.0,-63.0,-1276.0,-152.0,-1725.0,274.0,496.0,-583.0,433.0
19:48:34.031000,-35.0,76.0,-715.0,-221.0,-1797.0,125.0,496.0,-583.0,433.0
19:48:34.036000,-11.0,111.0,-317.0,-253.0,-1540.0,202.0,490.0,-576.0,430.0
19:48:34.041000,133.0,-93.0,-354.0,-394.0,-1168.0,161.0,490.0,-576.0,430.0
19:48:34.045000,127.0,46.0,-635.0,-486.0,-1161.0,-120.0,492.0,-585.0,430.0
19:48:34.050000,364.0,372.0,-628.0,-320.0,-1603.0,-20.0,492.0,-585.0,430.0
19:48:34.054000,294.0,265.0,-243.0,-282.0,-1849.0,334.0,492.0,-585.0,430.0
19:48:34.059000,16.0,146.0,-163.0,-429.0,-1626.0,215.0,492.0,-571.0,438.0
19:48:34.064000,-38.0,219.0,-513.0,-633.0,-1323.0,116.0,492.0,-571.0,438.0
19:48:34.069000,-31.0,255.0,-833.0,-628.0,-1128.0,12.0,484.0,-561.0,439.0
19:48:34.073000,88.0,354.0,-926.0,-397.0,-1083.0,96.0,484.0,-561.0,439.0
19:48:34.078000,102.0,185.0,-756.0,-283.0,-1247.0,183.0,484.0,-561.0,439.0
19:48:34.083000,145.0,212.0,-640.0,-340.0,-1211.0,-119.0,492.0,-564.0,438.0
19:48:34.088000,167.0,478.0,-787.0,-340.0,-1211.0,-119.0,492.0,-564.0,438.0
19:48:34.092000,-109.0,521.0,-886.0,-392.0,-1211.0,-2.0,490.0,-556.0,439.0
19:48:34.097000,-282.0,756.0,-954.0,-285.0,-1285.0,36.0,490.0,-556.0,439.0
19:48:34.101000,198.0,655.0,-969.0,-225.0,-1175.0,-66.0,490.0,-556.0,439.0
19:48:34.106000,310.0,464.0,-1053.0,-324.0,-1138.0,93.0,499.0,-567.0,444.0
19:48:34.111000,-58.0,515.0,-758.0,-260.0,-1276.0,145.0,499.0,-567.0,444.0
19:48:34.116000,-261.0,354.0,-664.0,-89.0,-1305.0,204.0,493.0,-556.0,439.0
19:48:34.120000,-123.0,74.0,-851.0,-82.0,-1106.0,250.0,493.0,-556.0,439.0
19:48:34.125000,-123.0,74.0,-851.0,-137.0,-1051.0,219.0,493.0,-556.0,439.0
19:48:34.130000,39.0,68.0,-609.0,-211.0,-1227.0,28.0,490.0,-546.0,439.0
19:48:34.135000,39.0,68.0,-609.0,-427.0,-1397.0,-87.0,490.0,-546.0,439.0
19:48:34.139000,24.0,233.0,-453.0,-728.0,-1331.0,-37.0,496.0,-547.0,454.0
19:48:34.144000,-21.0,347.0,-744.0,-688.0,-1096.0,-40.0,496.0,-547.0,454.0
19:48:34.148000,175.0,276.0,-1015.0,-422.0,-1161.0,86.0,496.0,-547.0,454.0
19:48:34.153000,210.0,139.0,-922.0,-298.0,-1254.0,39.0,493.0,-547.0,447.0
19:48:34.158000,234.0,254.0,-676.0,-346.0,-1150.0,-59.0,493.0,-547.0,447.0
19:48:34.163000,195.0,322.0,-583.0,-330.0,-1042.0,26.0,502.0,-549.0,445.0
19:48:34.167000,238.0,240.0,-733.0,-200.0,-1077.0,-7.0,502.0,-549.0,445.0
19:48:34.171000,324.0,246.0,-579.0,-185.0,-1180.0,-25.0,502.0,-549.0,445.0
19:48:34.177000,290.0,212.0,-552.0,-362.0,-999.0,53.0,501.0,-540.0,447.0
19:48:34.182000,191.0,128.0,-705.0,-289.0,-871.0,37.0,501.0,-540.0,447.0
19:48:34.186000,32.0,208.0,-725.0,-289.0,-871.0,37.0,493.0,-520.0,460.0
19:48:34.191000,93.0,155.0,-605.0,-97.0,-1136.0,-6.0,493.0,-520.0,460.0
19:48:34.195000,35.0,160.0,-525.0,-97.0,-1040.0,-38.0,493.0,-520.0,460.0
19:48:34.200000,125.0,146.0,-609.0,-346.0,-986.0,-63.0,501.0,-534.0,474.0
19:48:34.205000,217.0,123.0,-676.0,-346.0,-986.0,-63.0,501.0,-534.0,474.0
19:48:34.210000,206.0,154.0,-665.0,-305.0,-1227.0,-93.0,501.0,-534.0,474.0
19:48:34.214000,182.0,139.0,-718.0,-307.0,-1337.0,-102.0,501.0,-534.0,474.0
19:48:34.218000,194.0,83.0,-650.0,-315.0,-1120.0,-75.0,501.0,-534.0,474.0
19:48:34.224000,207.0,59.0,-569.0,-296.0,-864.0,-65.0,499.0,-510.0,463.0
19:48:34.229000,216.0,74.0,-579.0,-264.0,-762.0,-87.0,499.0,-510.0,463.0
19:48:34.233000,263.0,100.0,-592.0,-301.0,-798.0,-140.0,505.0,-517.0,456.0
19:48:34.238000,187.0,83.0,-595.0,-403.0,-865.0,-109.0,505.0,-517.0,456.0
19:48:34.242000,187.0,83.0,-595.0,-433.0,-859.0,-37.0,510.0,-511.0,471.0
19:48:34.247000,135.0,49.0,-557.0,-333.0,-766.0,-40.0,510.0,-511.0,471.0
19:48:34.251000,81.0,14.0,-604.0,-249.0,-704.0,-30.0,510.0,-511.0,471.0
19:48:34.257000,29.0,27.0,-683.0,-304.0,-781.0,-22.0,507.0,-501.0,454.0
19:48:34.261000,-19.0,-15.0,-625.0,-390.0,-913.0,14.0,507.0,-501.0,454.0
19:48:34.266000,-158.0,-105.0,-364.0,-461.0,-930.0,-23.0,505.0,-502.0,459.0
19:48:34.271000,-197.0,-36.0,-154.0,-593.0,-1017.0,-95.0,505.0,-502.0,459.0
19:48:34.275000,-216.0,44.0,-87.0,-726.0,-1051.0,-83.0,505.0,-502.0,459.0
19:48:34.280000,-193.0,66.0,-193.0,-707.0,-854.0,-86.0,516.0,-499.0,457.0
19:48:34.285000,-193.0,80.0,-233.0,-629.0,-745.0,-67.0,516.0,-499.0,457.0
19:48:34.289000,-170.0,46.0,-217.0,-622.0,-804.0,-70.0,510.0,-508.0,450.0
19:48:34.294000,-103.0,66.0,-228.0,-627.0,-914.0,-93.0,510.0,-508.0,450.0
19:48:34.298000,-49.0,100.0,-310.0,-620.0,-941.0,-87.0,510.0,-508.0,450.0
19:48:34.304000,-66.0,121.0,-403.0,-571.0,-803.0,-69.0,516.0,-499.0,460.0
19:48:34.308000,-50.0,109.0,-355.0,-571.0,-803.0,-69.0,516.0,-499.0,460.0
19:48:34.313000,13.0,95.0,-386.0,-519.0,-631.0,-71.0,510.0,-504.0,459.0
19:48:34.318000,-36.0,67.0,-558.0,-507.0,-620.0,-58.0,510.0,-504.0,459.0
19:48:34.322000,-119.0,42.0,-576.0,-431.0,-761.0,-39.0,510.0,-504.0,459.0
19:48:34.327000,-83.0,26.0,-425.0,-333.0,-839.0,-43.0,513.0,-507.0,459.0
19:48:34.332000,-48.0,48.0,-385.0,-391.0,-806.0,-69.0,513.0,-507.0,459.0
19:48:34.336000,-126.0,1.0,-574.0,-533.0,-736.0,-55.0,505.0,-501.0,471.0
19:48:34.341000,-122.0,13.0,-634.0,-522.0,-762.0,-57.0,505.0,-501.0,471.0
19:48:34.345000,-122.0,13.0,-634.0,-410.0,-874.0,-68.0,505.0,-501.0,471.0
19:48:34.351000,-32.0,-73.0,-581.0,-385.0,-959.0,-37.0,511.0,-499.0,447.0
19:48:34.355000,-32.0,-73.0,-581.0,-429.0,-983.0,-57.0,511.0,-499.0,447.0
19:48:34.360000,-46.0,-83.0,-553.0,-535.0,-849.0,-58.0,514.0,-483.0,460.0
19:48:34.365000,-74.0,-89.0,-647.0,-627.0,-728.0,-28.0,514.0,-483.0,460.0
19:48:34.369000,-98.0,-72.0,-695.0,-625.0,-788.0,-14.0,514.0,-483.0,460.0
19:48:34.374000,-102.0,-61.0,-597.0,-570.0,-868.0,-11.0,514.0,-492.0,456.0
19:48:34.378000,-51.0,-79.0,-479.0,-570.0,-870.0,-8.0,514.0,-492.0,456.0
19:48:34.383000,-67.0,-65.0,-414.0,-689.0,-787.0,-19.0,507.0,-486.0,463.0
19:48:34.388000,-83.0,13.0,-480.0,-809.0,-687.0,-25.0,507.0,-486.0,463.0
19:48:34.393000,-32.0,51.0,-628.0,-771.0,-708.0,17.0,523.0,-489.0,456.0
19:48:34.398000,-9.0,49.0,-609.0,-595.0,-836.0,61.0,523.0,-489.0,456.0
19:48:34.402000,23.0,20.0,-405.0,-517.0,-853.0,61.0,523.0,-489.0,456.0
19:48:34.407000,53.0,21.0,-371.0,-637.0,-665.0,14.0,517.0,-481.0,459.0
19:48:34.412000,95.0,110.0,-576.0,-751.0,-597.0,50.0,517.0,-481.0,459.0
19:48:34.416000,55.0,106.0,-708.0,-751.0,-597.0,50.0,525.0,-487.0,460.0
19:48:34.421000,18.0,93.0,-559.0,-662.0,-797.0,116.0,525.0,-487.0,460.0
19:48:34.425000,5.0,84.0,-386.0,-787.0,-943.0,68.0,525.0,-487.0,460.0
19:48:34.431000,51.0,91.0,-427.0,-787.0,-943.0,68.0,520.0,-481.0,462.0
19:48:34.435000,67.0,96.0,-506.0,-940.0,-820.0,38.0,520.0,-481.0,462.0
19:48:34.440000,67.0,105.0,-431.0,-862.0,-819.0,50.0,513.0,-469.0,460.0
19:48:34.445000,79.0,84.0,-307.0,-728.0,-874.0,74.0,513.0,-469.0,460.0
19:48:34.449000,79.0,84.0,-307.0,-709.0,-853.0,74.0,513.0,-469.0,460.0
19:48:34.454000,140.0,88.0,-508.0,-789.0,-763.0,47.0,520.0,-472.0,454.0
19:48:34.459000,132.0,53.0,-455.0,-776.0,-776.0,66.0,520.0,-472.0,454.0
19:48:34.463000,132.0,53.0,-455.0,-651.0,-819.0,86.0,511.0,-469.0,465.0
19:48:34.468000,117.0,47.0,-383.0,-646.0,-733.0,64.0,511.0,-469.0,465.0
19:48:34.476000,114.0,71.0,-534.0,-747.0,-681.0,65.0,513.0,-472.0,477.0
19:48:34.478000,114.0,71.0,-534.0,-747.0,-681.0,65.0,513.0,-472.0,477.0
19:48:34.482000,65.0,67.0,-509.0,-694.0,-711.0,84.0,513.0,-472.0,477.0
19:48:34.487000,-1.0,88.0,-438.0,-663.0,-641.0,76.0,516.0,-469.0,460.0
19:48:34.492000,-14.0,73.0,-495.0,-695.0,-589.0,83.0,516.0,-469.0,460.0
19:48:34.496000,-13.0,56.0,-567.0,-753.0,-630.0,72.0,510.0,-457.0,463.0
19:48:34.501000,-23.0,77.0,-532.0,-838.0,-705.0,61.0,510.0,-457.0,463.0
19:48:34.505000,-42.0,74.0,-429.0,-873.0,-751.0,60.0,510.0,-457.0,463.0
19:48:34.510000,-49.0,67.0,-453.0,-856.0,-747.0,35.0,519.0,-462.0,463.0
19:48:34.515000,-16.0,72.0,-605.0,-816.0,-763.0,39.0,519.0,-462.0,463.0
19:48:34.520000,16.0,53.0,-746.0,-816.0,-763.0,39.0,520.0,-460.0,457.0
19:48:34.525000,64.0,38.0,-796.0,-784.0,-787.0,53.0,520.0,-460.0,457.0
19:48:34.529000,85.0,28.0,-653.0,-754.0,-820.0,42.0,520.0,-460.0,457.0
19:48:34.534000,88.0,42.0,-521.0,-734.0,-837.0,27.0,516.0,-454.0,463.0
19:48:34.539000,85.0,74.0,-557.0,-790.0,-816.0,12.0,516.0,-454.0,463.0
19:48:34.543000,129.0,80.0,-708.0,-901.0,-790.0,3.0,520.0,-447.0,469.0
19:48:34.548000,127.0,91.0,-726.0,-956.0,-804.0,-4.0,520.0,-447.0,469.0
19:48:34.552000,94.0,72.0,-569.0,-888.0,-835.0,2.0,520.0,-447.0,469.0
19:48:34.557000,74.0,57.0,-512.0,-809.0,-736.0,1.0,514.0,-442.0,466.0
19:48:34.562000,62.0,77.0,-549.0,-780.0,-610.0,-18.0,514.0,-442.0,466.0
19:48:34.567000,48.0,60.0,-676.0,-826.0,-553.0,7.0,510.0,-448.0,487.0
19:48:34.572000,48.0,60.0,-676.0,-904.0,-578.0,7.0,510.0,-448.0,487.0
19:48:34.576000,72.0,100.0,-779.0,-909.0,-700.0,-15.0,510.0,-448.0,487.0
19:48:34.581000,111.0,106.0,-760.0,-870.0,-784.0,11.0,519.0,-433.0,469.0
19:48:34.586000,131.0,88.0,-726.0,-796.0,-783.0,40.0,519.0,-433.0,469.0
19:48:34.590000,119.0,65.0,-712.0,-755.0,-725.0,40.0,528.0,-435.0,480.0
19:48:34.595000,97.0,102.0,-667.0,-826.0,-664.0,11.0,528.0,-435.0,480.0
19:48:34.599000,81.0,137.0,-626.0,-946.0,-595.0,27.0,528.0,-435.0,480.0
19:48:34.604000,53.0,128.0,-711.0,-957.0,-549.0,21.0,525.0,-429.0,477.0
19:48:34.609000,72.0,148.0,-746.0,-863.0,-626.0,-10.0,525.0,-429.0,477.0
19:48:34.614000,105.0,152.0,-721.0,-805.0,-698.0,-9.0,511.0,-427.0,468.0
19:48:34.619000,121.0,140.0,-725.0,-793.0,-682.0,15.0,511.0,-427.0,468.0
19:48:34.623000,100.0,109.0,-707.0,-801.0,-622.0,4.0,511.0,-427.0,468.0
19:48:34.628000,97.0,130.0,-684.0,-818.0,-543.0,-21.0,523.0,-435.0,463.0
19:48:34.633000,84.0,124.0,-662.0,-810.0,-494.0,-17.0,523.0,-435.0,463.0
19:48:34.637000,81.0,114.0,-658.0,-810.0,-494.0,-17.0,519.0,-420.0,475.0
19:48:34.642000,121.0,128.0,-646.0,-785.0,-515.0,-51.0,519.0,-420.0,475.0
19:48:34.646000,123.0,119.0,-635.0,-799.0,-573.0,-58.0,519.0,-420.0,475.0
19:48:34.651000,88.0,116.0,-634.0,-860.0,-549.0,-43.0,522.0,-418.0,472.0
19:48:34.656000,55.0,109.0,-641.0,-917.0,-475.0,-43.0,522.0,-418.0,472.0
19:48:34.661000,42.0,108.0,-567.0,-894.0,-479.0,-53.0,522.0,-411.0,477.0
19:48:34.666000,28.0,100.0,-466.0,-829.0,-533.0,-63.0,522.0,-411.0,477.0
19:48:34.670000,28.0,100.0,-466.0,-827.0,-531.0,-59.0,522.0,-411.0,477.0
19:48:34.675000,16.0,100.0,-521.0,-856.0,-491.0,-65.0,507.0,-417.0,477.0
19:48:34.680000,32.0,106.0,-545.0,-895.0,-488.0,-73.0,507.0,-417.0,477.0
19:48:34.684000,32.0,106.0,-545.0,-924.0,-533.0,-43.0,520.0,-406.0,474.0
19:48:34.689000,-9.0,86.0,-528.0,-899.0,-572.0,-22.0,520.0,-406.0,474.0
19:48:34.693000,-24.0,77.0,-485.0,-859.0,-560.0,-41.0,520.0,-406.0,474.0
19:48:34.698000,-27.0,84.0,-469.0,-843.0,-511.0,-44.0,522.0,-396.0,483.0
19:48:34.703000,-26.0,70.0,-498.0,-824.0,-493.0,-43.0,522.0,-396.0,483.0
19:48:34.708000,-16.0,51.0,-482.0,-815.0,-490.0,-45.0,505.0,-417.0,504.0
19:48:34.713000,7.0,16.0,-506.0,-793.0,-475.0,-47.0,505.0,-417.0,504.0
19:48:34.717000,15.0,2.0,-495.0,-765.0,-461.0,-35.0,505.0,-417.0,504.0
19:48:34.722000,-19.0,2.0,-415.0,-823.0,-421.0,-31.0,523.0,-405.0,477.0
19:48:34.727000,-56.0,27.0,-382.0,-923.0,-403.0,-39.0,523.0,-405.0,477.0
19:48:34.731000,-56.0,11.0,-418.0,-923.0,-403.0,-39.0,525.0,-396.0,483.0
19:48:34.736000,-50.0,-4.0,-471.0,-863.0,-453.0,-51.0,525.0,-396.0,483.0
19:48:34.740000,-42.0,-7.0,-429.0,-799.0,-441.0,-69.0,525.0,-396.0,483.0
19:48:34.745000,-36.0,30.0,-336.0,-842.0,-407.0,-73.0,516.0,-400.0,495.0
19:48:34.750000,-35.0,30.0,-265.0,-842.0,-407.0,-73.0,516.0,-400.0,495.0
19:48:34.755000,-51.0,43.0,-270.0,-922.0,-366.0,-54.0,511.0,-394.0,487.0
19:48:34.760000,-62.0,46.0,-301.0,-953.0,-334.0,-49.0,511.0,-394.0,487.0
19:48:34.764000,-74.0,40.0,-277.0,-921.0,-358.0,-34.0,511.0,-394.0,487.0
19:48:34.769000,-63.0,43.0,-239.0,-874.0,-376.0,-33.0,516.0,-393.0,490.0
19:48:34.774000,-51.0,39.0,-239.0,-879.0,-378.0,-44.0,516.0,-393.0,490.0
19:48:34.778000,-63.0,36.0,-282.0,-915.0,-390.0,-46.0,522.0,-397.0,483.0
19:48:34.783000,-80.0,29.0,-282.0,-895.0,-399.0,-41.0,522.0,-397.0,483.0
19:48:34.787000,-80.0,29.0,-282.0,-824.0,-432.0,-53.0,522.0,-397.0,483.0
19:48:34.792000,-70.0,37.0,-234.0,-786.0,-478.0,-59.0,519.0,-402.0,484.0
19:48:34.797000,-59.0,22.0,-177.0,-813.0,-500.0,-55.0,519.0,-402.0,484.0
19:48:34.802000,-74.0,35.0,-149.0,-881.0,-453.0,-61.0,508.0,-396.0,480.0
19:48:34.807000,-70.0,37.0,-159.0,-913.0,-387.0,-46.0,508.0,-396.0,480.0
19:48:34.811000,-63.0,9.0,-183.0,-885.0,-358.0,-42.0,508.0,-396.0,480.0
19:48:34.816000,-61.0,-9.0,-216.0,-853.0,-340.0,-47.0,513.0,-400.0,484.0
19:48:34.821000,-67.0,-28.0,-255.0,-822.0,-309.0,-51.0,513.0,-400.0,484.0
19:48:34.825000,-77.0,-36.0,-277.0,-781.0,-289.0,-47.0,514.0,-394.0,489.0
19:48:34.830000,-74.0,-46.0,-259.0,-762.0,-327.0,-52.0,514.0,-394.0,489.0
19:48:34.834000,-56.0,-40.0,-197.0,-813.0,-381.0,-55.0,514.0,-394.0,489.0
19:48:34.839000,-51.0,-39.0,-147.0,-905.0,-372.0,-48.0,511.0,-393.0,483.0
19:48:34.844000,-55.0,-24.0,-135.0,-971.0,-337.0,-42.0,511.0,-393.0,483.0
19:48:34.849000,-48.0,-18.0,-109.0,-971.0,-337.0,-42.0,516.0,-397.0,480.0
19:48:34.854000,-51.0,-19.0,-100.0,-990.0,-324.0,-23.0,516.0,-397.0,480.0
19:48:34.858000,-61.0,-18.0,-135.0,-960.0,-325.0,-17.0,516.0,-397.0,480.0
19:48:34.863000,-70.0,-22.0,-160.0,-904.0,-343.0,-17.0,510.0,-387.0,486.0
19:48:34.868000,-70.0,-16.0,-154.0,-846.0,-350.0,-24.0,510.0,-387.0,486.0
19:48:34.872000,-88.0,-16.0,-156.0,-828.0,-329.0,-30.0,525.0,-396.0,486.0
19:48:34.877000,-59.0,1.0,-144.0,-842.0,-334.0,-49.0,525.0,-396.0,486.0
19:48:34.881000,-32.0,-8.0,-93.0,-869.0,-407.0,-57.0,525.0,-396.0,486.0
19:48:34.886000,-37.0,-38.0,-57.0,-897.0,-478.0,-35.0,525.0,-397.0,483.0
19:48:34.891000,-57.0,-49.0,-50.0,-901.0,-476.0,-35.0,525.0,-397.0,483.0
19:48:34.896000,-56.0,-46.0,-61.0,-908.0,-430.0,-46.0,519.0,-388.0,487.0
19:48:34.901000,-56.0,-46.0,-61.0,-928.0,-382.0,-56.0,519.0,-388.0,487.0
19:48:34.905000,-47.0,-43.0,-46.0,-944.0,-342.0,-50.0,519.0,-388.0,487.0
19:48:34.910000,-45.0,-55.0,-23.0,-951.0,-314.0,-40.0,522.0,-394.0,478.0
19:48:34.915000,-86.0,-51.0,-38.0,-950.0,-292.0,-41.0,522.0,-394.0,478.0
19:48:34.919000,-116.0,-59.0,-97.0,-912.0,-293.0,-45.0,526.0,-396.0,489.0
19:48:34.924000,-137.0,-68.0,-119.0,-850.0,-335.0,-39.0,526.0,-396.0,489.0
19:48:34.931000,-175.0,-113.0,-116.0,-836.0,-322.0,-62.0,519.0,-387.0,484.0
19:48:34.933000,-175.0,-113.0,-116.0,-836.0,-322.0,-62.0,519.0,-387.0,484.0
19:48:34.938000,-190.0,-133.0,-172.0,-830.0,-338.0,-61.0,519.0,-387.0,484.0
19:48:34.943000,-179.0,-145.0,-186.0,-832.0,-371.0,-60.0,526.0,-396.0,486.0
19:48:34.948000,-176.0,-151.0,-165.0,-862.0,-388.0,-44.0,526.0,-396.0,486.0
19:48:34.952000,-198.0,-154.0,-141.0,-862.0,-388.0,-44.0,528.0,-387.0,481.0
19:48:34.957000,-204.0,-152.0,-128.0,-949.0,-344.0,-32.0,528.0,-387.0,481.0
19:48:34.961000,-208.0,-171.0,-157.0,-949.0,-325.0,-32.0,528.0,-387.0,481.0
19:48:34.966000,-188.0,-172.0,-200.0,-977.0,-325.0,-31.0,525.0,-394.0,492.0
19:48:34.970000,-194.0,-184.0,-190.0,-910.0,-351.0,-27.0,525.0,-394.0,492.0
19:48:34.976000,-210.0,-172.0,-136.0,-910.0,-351.0,-27.0,523.0,-394.0,481.0
19:48:34.980000,-228.0,-163.0,-91.0,-943.0,-360.0,-42.0,523.0,-394.0,481.0
19:48:34.985000,-228.0,-162.0,-121.0,-1013.0,-361.0,-51.0,523.0,-394.0,481.0
19:48:34.990000,-235.0,-170.0,-166.0,-1022.0,-359.0,-53.0,528.0,-397.0,474.0
19:48:34.995000,-204.0,-165.0,-179.0,-965.0,-376.0,-60.0,528.0,-397.0,474.0
19:48:34.999000,-168.0,-161.0,-171.0,-915.0,-384.0,-76.0,526.0,-397.0,478.0
19:48:35.004000,-163.0,-164.0,-148.0,-894.0,-379.0,-65.0,526.0,-397.0,478.0
19:48:35.008000,-163.0,-164.0,-148.0,-908.0,-365.0,-51.0,526.0,-397.0,478.0
19:48:35.013000,-177.0,-161.0,-161.0,-928.0,-351.0,-47.0,531.0,-397.0,481.0
19:48:35.018000,-188.0,-161.0,-194.0,-925.0,-353.0,-43.0,531.0,-397.0,481.0
19:48:35.023000,-184.0,-170.0,-200.0,-915.0,-360.0,-44.0,528.0,-397.0,480.0
19:48:35.027000,-186.0,-165.0,-179.0,-911.0,-355.0,-36.0,528.0,-397.0,480.0
19:48:35.032000,-196.0,-181.0,-148.0,-916.0,-348.0,-36.0,528.0,-397.0,480.0
19:48:35.037000,-204.0,-182.0,-117.0,-928.0,-354.0,-35.0,537.0,-403.0,481.0
19:48:35.042000,-205.0,-199.0,-105.0,-928.0,-376.0,-34.0,537.0,-403.0,481.0
19:48:35.046000,-214.0,-193.0,-120.0,-919.0,-394.0,-43.0,532.0,-400.0,472.0
19:48:35.051000,-207.0,-188.0,-145.0,-928.0,-380.0,-44.0,532.0,-400.0,472.0
19:48:35.055000,-178.0,-177.0,-168.0,-952.0,-358.0,-44.0,532.0,-400.0,472.0
19:48:35.060000,-158.0,-170.0,-161.0,-990.0,-354.0,-34.0,517.0,-400.0,496.0
19:48:35.065000,-169.0,-156.0,-146.0,-1042.0,-353.0,-31.0,517.0,-400.0,496.0
19:48:35.070000,-161.0,-143.0,-184.0,-1042.0,-353.0,-31.0,534.0,-405.0,477.0
19:48:35.074000,-141.0,-133.0,-210.0,-1071.0,-370.0,-37.0,534.0,-405.0,477.0
19:48:35.079000,-119.0,-119.0,-193.0,-1060.0,-418.0,-43.0,534.0,-405.0,477.0
19:48:35.083000,-102.0,-106.0,-197.0,-1051.0,-441.0,-43.0,528.0,-397.0,477.0
19:48:35.089000,-89.0,-75.0,-205.0,-1054.0,-431.0,-43.0,528.0,-397.0,477.0
19:48:35.093000,-60.0,-52.0,-207.0,-1057.0,-418.0,-49.0,528.0,-397.0,469.0
19:48:35.098000,-33.0,-40.0,-221.0,-1056.0,-420.0,-45.0,528.0,-397.0,469.0
19:48:35.102000,-19.0,-31.0,-255.0,-1058.0,-428.0,-40.0,528.0,-397.0,469.0
19:48:35.107000,-24.0,-13.0,-275.0,-1046.0,-433.0,-42.0,541.0,-393.0,495.0
19:48:35.112000,-16.0,3.0,-269.0,-1023.0,-446.0,-44.0,541.0,-393.0,495.0
19:48:35.117000,7.0,16.0,-256.0,-1019.0,-463.0,-50.0,541.0,-393.0,471.0
19:48:35.121000,7.0,16.0,-256.0,-1031.0,-468.0,-52.0,541.0,-393.0,471.0
19:48:35.126000,23.0,25.0,-282.0,-1026.0,-459.0,-49.0,541.0,-393.0,471.0
19:48:35.131000,49.0,31.0,-316.0,-994.0,-465.0,-41.0,543.0,-391.0,478.0
19:48:35.136000,61.0,35.0,-333.0,-960.0,-463.0,-29.0,543.0,-391.0,478.0
19:48:35.140000,58.0,40.0,-356.0,-937.0,-432.0,-26.0,540.0,-391.0,486.0
19:48:35.145000,71.0,42.0,-383.0,-926.0,-395.0,-22.0,540.0,-391.0,486.0
19:48:35.149000,79.0,42.0,-409.0,-932.0,-357.0,-20.0,540.0,-391.0,486.0
19:48:35.154000,95.0,47.0,-445.0,-956.0,-319.0,-21.0,535.0,-382.0,472.0
19:48:35.159000,109.0,51.0,-485.0,-986.0,-273.0,-22.0,535.0,-382.0,472.0
19:48:35.164000,122.0,53.0,-537.0,-1002.0,-233.0,-22.0,544.0,-385.0,475.0
19:48:35.168000,101.0,61.0,-570.0,-1007.0,-214.0,-12.0,544.0,-385.0,475.0
19:48:35.173000,65.0,65.0,-572.0,-1021.0,-197.0,-1.0,544.0,-385.0,475.0
19:48:35.178000,27.0,63.0,-574.0,-1037.0,-187.0,0.0,535.0,-388.0,477.0
19:48:35.183000,7.0,62.0,-577.0,-1037.0,-187.0,0.0,535.0,-388.0,477.0
19:48:35.187000,3.0,64.0,-566.0,-1036.0,-190.0,-2.0,540.0,-391.0,480.0
19:48:35.192000,-2.0,70.0,-560.0,-1010.0,-212.0,1.0,540.0,-391.0,480.0
19:48:35.196000,-1.0,72.0,-558.0,-1010.0,-212.0,1.0,540.0,-391.0,480.0
19:48:35.201000,6.0,88.0,-546.0,-997.0,-225.0,-2.0,529.0,-382.0,481.0
19:48:35.206000,-2.0,102.0,-511.0,-988.0,-240.0,-2.0,529.0,-382.0,481.0
19:48:35.211000,-28.0,122.0,-457.0,-990.0,-252.0,8.0,534.0,-366.0,487.0
19:48:35.215000,-64.0,168.0,-368.0,-997.0,-270.0,3.0,534.0,-366.0,487.0
19:48:35.220000,-64.0,168.0,-368.0,-1029.0,-275.0,6.0,534.0,-366.0,487.0
19:48:35.225000,-25.0,170.0,-429.0,-1044.0,-223.0,11.0,534.0,-373.0,484.0
19:48:35.230000,-25.0,170.0,-429.0,-993.0,-176.0,3.0,534.0,-373.0,484.0
19:48:35.234000,15.0,171.0,-502.0,-923.0,-190.0,5.0,537.0,-370.0,477.0
19:48:35.239000,33.0,188.0,-527.0,-899.0,-209.0,7.0,537.0,-370.0,477.0
19:48:35.243000,53.0,199.0,-539.0,-925.0,-203.0,7.0,537.0,-370.0,477.0
19:48:35.248000,93.0,196.0,-546.0,-954.0,-211.0,4.0,543.0,-369.0,501.0
19:48:35.253000,128.0,187.0,-534.0,-975.0,-217.0,0.0,543.0,-369.0,501.0
19:48:35.258000,157.0,179.0,-529.0,-992.0,-198.0,-1.0,532.0,-367.0,475.0
19:48:35.262000,178.0,168.0,-535.0,-991.0,-152.0,-2.0,532.0,-367.0,475.0
19:48:35.267000,205.0,154.0,-556.0,-972.0,-105.0,-2.0,532.0,-367.0,475.0
19:48:35.272000,217.0,135.0,-565.0,-941.0,-88.0,3.0,526.0,-352.0,487.0
19:48:35.277000,207.0,116.0,-527.0,-931.0,-70.0,0.0,526.0,-352.0,487.0
19:48:35.281000,184.0,108.0,-460.0,-931.0,-70.0,0.0,535.0,-352.0,486.0
19:48:35.286000,135.0,103.0,-404.0,-1018.0,25.0,-12.0,535.0,-352.0,486.0
19:48:35.290000,71.0,113.0,-365.0,-1018.0,25.0,-12.0,535.0,-352.0,486.0
19:48:35.295000,16.0,129.0,-354.0,-1072.0,69.0,-22.0,526.0,-351.0,498.0
19:48:35.300000,-21.0,153.0,-368.0,-1120.0,80.0,-32.0,526.0,-351.0,498.0
19:48:35.305000,-53.0,178.0,-370.0,-1148.0,49.0,-35.0,531.0,-351.0,492.0
19:48:35.309000,-72.0,206.0,-343.0,-1156.0,-6.0,-39.0,531.0,-351.0,492.0
19:48:35.314000,-86.0,233.0,-315.0,-1160.0,-52.0,-47.0,531.0,-351.0,492.0
19:48:35.318000,-94.0,261.0,-310.0,-1163.0,-49.0,-48.0,531.0,-339.0,490.0
19:48:35.324000,-92.0,288.0,-310.0,-1149.0,-18.0,-46.0,531.0,-339.0,490.0
19:48:35.328000,-92.0,288.0,-310.0,-1114.0,-18.0,-48.0,532.0,-348.0,493.0
19:48:35.333000,-74.0,321.0,-266.0,-1065.0,-59.0,-51.0,532.0,-348.0,493.0
19:48:35.337000,-74.0,321.0,-266.0,-1019.0,-99.0,-54.0,532.0,-348.0,493.0
19:48:35.342000,-55.0,324.0,-245.0,-973.0,-128.0,-60.0,511.0,-352.0,508.0
19:48:35.347000,-28.0,322.0,-215.0,-939.0,-135.0,-64.0,511.0,-352.0,508.0
19:48:35.352000,7.0,310.0,-198.0,-930.0,-107.0,-68.0,525.0,-340.0,505.0
19:48:35.356000,52.0,294.0,-189.0,-938.0,-73.0,-75.0,525.0,-340.0,505.0
19:48:35.361000,98.0,277.0,-196.0,-966.0,-46.0,-77.0,525.0,-340.0,505.0
19:48:35.366000,126.0,259.0,-226.0,-986.0,-29.0,-77.0,529.0,-337.0,508.0
19:48:35.371000,132.0,240.0,-240.0,-995.0,-12.0,-81.0,529.0,-337.0,508.0
19:48:35.375000,133.0,226.0,-230.0,-1025.0,9.0,-84.0,519.0,-345.0,498.0
19:48:35.380000,123.0,227.0,-231.0,-1070.0,9.0,-78.0,519.0,-345.0,498.0
19:48:35.384000,109.0,235.0,-235.0,-1093.0,-26.0,-73.0,519.0,-345.0,498.0
19:48:35.389000,94.0,243.0,-224.0,-1100.0,-65.0,-65.0,520.0,-340.0,496.0
19:48:35.394000,88.0,247.0,-233.0,-1109.0,-87.0,-60.0,520.0,-340.0,496.0
19:48:35.399000,100.0,254.0,-305.0,-1109.0,-87.0,-60.0,526.0,-345.0,501.0
19:48:35.403000,118.0,249.0,-376.0,-1095.0,-118.0,-56.0,526.0,-345.0,501.0
19:48:35.408000,134.0,245.0,-410.0,-1045.0,-144.0,-49.0,526.0,-345.0,501.0
19:48:35.413000,143.0,243.0,-431.0,-997.0,-151.0,-48.0,519.0,-334.0,507.0
19:48:35.417000,157.0,238.0,-442.0,-964.0,-139.0,-49.0,519.0,-334.0,507.0
19:48:35.422000,182.0,220.0,-470.0,-948.0,-110.0,-49.0,510.0,-336.0,516.0
19:48:35.427000,202.0,212.0,-496.0,-947.0,-80.0,-49.0,510.0,-336.0,516.0
19:48:35.432000,204.0,211.0,-512.0,-945.0,-64.0,-52.0,523.0,-330.0,511.0
19:48:35.436000,202.0,210.0,-535.0,-953.0,-49.0,-50.0,523.0,-330.0,511.0
19:48:35.440000,202.0,210.0,-535.0,-958.0,-27.0,-53.0,523.0,-330.0,511.0
19:48:35.446000,209.0,201.0,-561.0,-951.0,-13.0,-57.0,517.0,-330.0,511.0
19:48:35.450000,231.0,188.0,-581.0,-935.0,-12.0,-65.0,517.0,-330.0,511.0
19:48:35.455000,253.0,178.0,-577.0,-935.0,-21.0,-69.0,513.0,-327.0,513.0
19:48:35.460000,257.0,172.0,-548.0,-966.0,-5.0,-63.0,513.0,-327.0,513.0
19:48:35.464000,254.0,164.0,-543.0,-1007.0,29.0,-63.0,513.0,-327.0,513.0
19:48:35.469000,258.0,156.0,-557.0,-1024.0,31.0,-65.0,508.0,-316.0,516.0
19:48:35.474000,270.0,141.0,-569.0,-1019.0,14.0,-64.0,508.0,-316.0,516.0
19:48:35.479000,268.0,135.0,-588.0,-997.0,9.0,-54.0,510.0,-312.0,507.0
19:48:35.483000,245.0,127.0,-576.0,-974.0,18.0,-43.0,510.0,-312.0,507.0
19:48:35.487000,224.0,115.0,-560.0,-963.0,34.0,-40.0,510.0,-312.0,507.0
19:48:35.493000,216.0,98.0,-552.0,-956.0,35.0,-37.0,508.0,-304.0,510.0
19:48:35.497000,207.0,85.0,-548.0,-961.0,28.0,-39.0,508.0,-304.0,510.0
19:48:35.502000,207.0,75.0,-559.0,-961.0,28.0,-39.0,516.0,-307.0,513.0
19:48:35.507000,205.0,72.0,-576.0,-971.0,23.0,-42.0,516.0,-307.0,513.0
19:48:35.514000,206.0,84.0,-582.0,-990.0,19.0,-41.0,504.0,-304.0,528.0
19:48:35.516000,206.0,90.0,-571.0,-990.0,19.0,-41.0,504.0,-304.0,528.0
19:48:35.520000,193.0,88.0,-594.0,-1016.0,33.0,-30.0,504.0,-304.0,528.0
19:48:35.526000,180.0,95.0,-630.0,-1027.0,77.0,-25.0,502.0,-292.0,510.0
19:48:35.530000,172.0,104.0,-640.0,-1008.0,99.0,-32.0,502.0,-292.0,510.0
19:48:35.535000,167.0,108.0,-662.0,-997.0,110.0,-31.0,510.0,-292.0,516.0
19:48:35.540000,189.0,113.0,-674.0,-1001.0,120.0,-35.0,510.0,-292.0,516.0
19:48:35.544000,189.0,113.0,-674.0,-992.0,106.0,-47.0,510.0,-292.0,516.0
19:48:35.549000,208.0,121.0,-651.0,-993.0,93.0,-44.0,517.0,-288.0,517.0
19:48:35.554000,136.0,168.0,-596.0,-1010.0,106.0,-44.0,517.0,-288.0,517.0
19:48:35.559000,136.0,168.0,-596.0,-1033.0,142.0,-57.0,496.0,-286.0,517.0
19:48:35.563000,114.0,189.0,-579.0,-1055.0,183.0,-66.0,496.0,-286.0,517.0
19:48:35.567000,100.0,204.0,-577.0,-1065.0,208.0,-75.0,496.0,-286.0,517.0
19:48:35.573000,93.0,225.0,-567.0,-1083.0,242.0,-87.0,496.0,-280.0,523.0
19:48:35.577000,84.0,254.0,-589.0,-1092.0,255.0,-93.0,496.0,-280.0,523.0
19:48:35.582000,60.0,284.0,-581.0,-1081.0,217.0,-88.0,499.0,-280.0,526.0
19:48:35.587000,35.0,303.0,-527.0,-1082.0,182.0,-84.0,499.0,-280.0,526.0
19:48:35.591000,23.0,316.0,-515.0,-1084.0,162.0,-86.0,499.0,-280.0,526.0
19:48:35.596000,30.0,315.0,-529.0,-1051.0,132.0,-85.0,496.0,-280.0,526.0
19:48:35.601000,37.0,308.0,-511.0,-1000.0,106.0,-85.0,496.0,-280.0,526.0
19:48:35.606000,56.0,293.0,-472.0,-1000.0,106.0,-85.0,483.0,-271.0,544.0
19:48:35.610000,96.0,260.0,-471.0,-929.0,120.0,-89.0,483.0,-271.0,544.0
19:48:35.614000,136.0,239.0,-480.0,-889.0,136.0,-88.0,483.0,-271.0,544.0
19:48:35.620000,178.0,200.0,-486.0,-889.0,136.0,-88.0,493.0,-265.0,534.0
19:48:35.624000,229.0,158.0,-518.0,-870.0,167.0,-80.0,493.0,-265.0,534.0
19:48:35.629000,265.0,142.0,-557.0,-858.0,191.0,-85.0,493.0,-265.0,525.0
19:48:35.634000,258.0,131.0,-534.0,-838.0,189.0,-80.0,493.0,-265.0,525.0
19:48:35.638000,235.0,112.0,-478.0,-833.0,182.0,-64.0,493.0,-265.0,525.0
19:48:35.643000,249.0,79.0,-477.0,-861.0,220.0,-69.0,487.0,-267.0,538.0
19:48:35.648000,241.0,82.0,-539.0,-903.0,302.0,-85.0,487.0,-267.0,538.0
19:48:35.653000,216.0,102.0,-559.0,-938.0,376.0,-92.0,489.0,-261.0,534.0
19:48:35.657000,207.0,104.0,-522.0,-988.0,427.0,-96.0,489.0,-261.0,534.0
19:48:35.661000,207.0,104.0,-522.0,-1059.0,470.0,-101.0,489.0,-261.0,534.0
19:48:35.667000,191.0,103.0,-520.0,-1109.0,502.0,-106.0,477.0,-253.0,535.0
19:48:35.671000,149.0,126.0,-559.0,-1115.0,493.0,-111.0,477.0,-253.0,535.0
19:48:35.676000,93.0,152.0,-536.0,-1111.0,456.0,-128.0,489.0,-253.0,529.0
19:48:35.681000,76.0,170.0,-497.0,-1128.0,433.0,-149.0,489.0,-253.0,529.0
19:48:35.685000,72.0,188.0,-519.0,-1119.0,384.0,-154.0,489.0,-253.0,529.0
19:48:35.690000,53.0,196.0,-484.0,-1089.0,343.0,-161.0,486.0,-250.0,531.0
19:48:35.694000,35.0,204.0,-434.0,-1091.0,374.0,-181.0,486.0,-250.0,531.0
19:48:35.700000,33.0,210.0,-413.0,-1110.0,434.0,-198.0,484.0,-249.0,538.0
19:48:35.704000,56.0,203.0,-414.0,-1118.0,470.0,-204.0,484.0,-249.0,538.0
19:48:35.708000,70.0,189.0,-389.0,-1122.0,473.0,-205.0,484.0,-249.0,538.0
19:48:35.714000,87.0,170.0,-357.0,-1126.0,464.0,-213.0,483.0,-249.0,531.0
19:48:35.718000,86.0,180.0,-360.0,-1110.0,451.0,-208.0,483.0,-249.0,531.0
19:48:35.723000,74.0,184.0,-363.0,-1110.0,451.0,-208.0,483.0,-240.0,537.0
19:48:35.728000,65.0,203.0,-368.0,-1090.0,448.0,-195.0,483.0,-240.0,537.0
19:48:35.732000,64.0,225.0,-336.0,-1088.0,437.0,-200.0,483.0,-240.0,537.0
19:48:35.737000,67.0,226.0,-284.0,-1104.0,401.0,-195.0,474.0,-247.0,544.0
19:48:35.742000,59.0,257.0,-276.0,-1133.0,381.0,-194.0,474.0,-247.0,544.0
19:48:35.747000,65.0,304.0,-343.0,-1174.0,405.0,-213.0,478.0,-235.0,534.0
19:48:35.751000,102.0,353.0,-385.0,-1202.0,420.0,-234.0,478.0,-235.0,534.0
19:48:35.755000,134.0,362.0,-342.0,-1192.0,360.0,-238.0,478.0,-235.0,534.0
19:48:35.761000,141.0,344.0,-322.0,-1162.0,305.0,-226.0,471.0,-231.0,544.0
19:48:35.765000,155.0,373.0,-347.0,-1130.0,300.0,-245.0,471.0,-231.0,544.0
19:48:35.770000,167.0,403.0,-376.0,-1103.0,286.0,-275.0,465.0,-232.0,544.0
19:48:35.775000,167.0,403.0,-376.0,-1089.0,277.0,-272.0,465.0,-232.0,544.0
19:48:35.779000,180.0,382.0,-369.0,-1057.0,270.0,-255.0,465.0,-232.0,544.0
19:48:35.783000,186.0,338.0,-308.0,-1006.0,255.0,-255.0,466.0,-232.0,555.0
19:48:35.789000,186.0,308.0,-253.0,-972.0,254.0,-260.0,466.0,-232.0,555.0
19:48:35.794000,210.0,263.0,-231.0,-956.0,264.0,-259.0,462.0,-225.0,541.0
19:48:35.798000,230.0,221.0,-231.0,-945.0,265.0,-255.0,462.0,-225.0,541.0
19:48:35.802000,241.0,170.0,-248.0,-934.0,256.0,-247.0,462.0,-225.0,541.0
19:48:35.808000,235.0,144.0,-276.0,-947.0,256.0,-249.0,460.0,-214.0,544.0
19:48:35.812000,224.0,123.0,-301.0,-971.0,242.0,-227.0,460.0,-214.0,544.0
19:48:35.817000,214.0,62.0,-289.0,-974.0,253.0,-203.0,459.0,-222.0,547.0
19:48:35.822000,172.0,21.0,-310.0,-950.0,276.0,-208.0,459.0,-222.0,547.0
19:48:35.829000,102.0,13.0,-382.0,-921.0,294.0,-230.0,460.0,-213.0,552.0
19:48:35.831000,102.0,13.0,-382.0,-921.0,294.0,-230.0,460.0,-213.0,552.0
19:48:35.835000,72.0,2.0,-413.0,-921.0,278.0,-223.0,460.0,-213.0,552.0
19:48:35.841000,13.0,15.0,-416.0,-929.0,278.0,-223.0,456.0,-220.0,543.0
19:48:35.845000,-44.0,-2.0,-395.0,-962.0,228.0,-216.0,456.0,-220.0,543.0
19:48:35.850000,-84.0,-32.0,-404.0,-1001.0,197.0,-204.0,466.0,-217.0,553.0
19:48:35.855000,-115.0,-37.0,-427.0,-1006.0,210.0,-225.0,466.0,-217.0,553.0
19:48:35.859000,-169.0,-14.0,-479.0,-985.0,243.0,-252.0,466.0,-217.0,553.0
19:48:35.864000,-200.0,4.0,-519.0,-950.0,258.0,-263.0,462.0,-223.0,550.0
19:48:35.869000,-228.0,31.0,-533.0,-924.0,222.0,-272.0,462.0,-223.0,550.0
19:48:35.873000,-252.0,22.0,-485.0,-934.0,143.0,-266.0,456.0,-216.0,553.0
19:48:35.878000,-254.0,7.0,-474.0,-963.0,89.0,-267.0,456.0,-216.0,553.0
19:48:35.882000,-254.0,7.0,-474.0,-989.0,87.0,-290.0,456.0,-216.0,553.0
19:48:35.888000,-256.0,26.0,-510.0,-986.0,96.0,-296.0,462.0,-210.0,547.0
19:48:35.892000,-244.0,28.0,-501.0,-958.0,71.0,-287.0,462.0,-210.0,547.0
19:48:35.897000,-229.0,20.0,-433.0,-945.0,29.0,-279.0,451.0,-201.0,555.0
19:48:35.902000,-203.0,-7.0,-420.0,-938.0,-3.0,-272.0,451.0,-201.0,555.0
19:48:35.906000,-186.0,-17.0,-443.0,-926.0,-22.0,-274.0,451.0,-201.0,555.0
19:48:35.911000,-131.0,-38.0,-458.0,-932.0,-25.0,-286.0,460.0,-207.0,556.0
19:48:35.916000,-74.0,-47.0,-424.0,-967.0,-5.0,-293.0,460.0,-207.0,556.0
19:48:35.920000,-5.0,-60.0,-404.0,-1013.0,34.0,-297.0,454.0,-207.0,568.0
19:48:35.925000,32.0,-56.0,-403.0,-1043.0,77.0,-288.0,454.0,-207.0,568.0
19:48:35.929000,59.0,-68.0,-435.0,-1072.0,116.0,-271.0,454.0,-207.0,568.0
19:48:35.934000,81.0,-79.0,-469.0,-1067.0,128.0,-257.0,450.0,-205.0,558.0
19:48:35.939000,102.0,-93.0,-459.0,-1020.0,112.0,-243.0,450.0,-205.0,558.0
19:48:35.944000,120.0,-114.0,-407.0,-1020.0,112.0,-243.0,453.0,-201.0,550.0
19:48:35.949000,128.0,-119.0,-381.0,-981.0,96.0,-241.0,453.0,-201.0,550.0
19:48:35.953000,144.0,-149.0,-406.0,-969.0,132.0,-218.0,453.0,-201.0,550.0
19:48:35.958000,140.0,-170.0,-420.0,-926.0,164.0,-190.0,454.0,-195.0,559.0
19:48:35.963000,129.0,-203.0,-406.0,-811.0,211.0,-166.0,454.0,-195.0,559.0
19:48:35.967000,112.0,-218.0,-410.0,-811.0,211.0,-166.0,439.0,-196.0,561.0
19:48:35.972000,83.0,-238.0,-413.0,-804.0,260.0,-157.0,439.0,-196.0,561.0
19:48:35.976000,55.0,-253.0,-421.0,-822.0,287.0,-145.0,439.0,-196.0,561.0
19:48:35.981000,13.0,-268.0,-431.0,-852.0,286.0,-133.0,448.0,-192.0,555.0
19:48:35.986000,-23.0,-273.0,-439.0,-880.0,258.0,-125.0,448.0,-192.0,555.0
19:48:35.991000,-34.0,-271.0,-419.0,-895.0,221.0,-133.0,457.0,-192.0,562.0
19:48:35.996000,-34.0,-271.0,-419.0,-882.0,154.0,-131.0,457.0,-192.0,562.0
19:48:36.000000,-30.0,-279.0,-380.0,-877.0,105.0,-126.0,457.0,-192.0,562.0
19:48:36.005000,-14.0,-277.0,-350.0,-911.0,103.0,-123.0,469.0,-189.0,555.0
19:48:36.010000,19.0,-274.0,-347.0,-963.0,113.0,-114.0,469.0,-189.0,555.0
19:48:36.014000,51.0,-266.0,-385.0,-979.0,122.0,-108.0,450.0,-189.0,570.0
19:48:36.019000,72.0,-247.0,-406.0,-971.0,162.0,-90.0,450.0,-189.0,570.0
19:48:36.023000,86.0,-246.0,-413.0,-949.0,218.0,-67.0,450.0,-189.0,570.0
19:48:36.028000,102.0,-252.0,-442.0,-893.0,240.0,-62.0,468.0,-187.0,559.0
19:48:36.033000,114.0,-248.0,-459.0,-848.0,250.0,-71.0,468.0,-187.0,559.0
19:48:36.038000,125.0,-229.0,-456.0,-840.0,241.0,-73.0,469.0,-183.0,556.0
19:48:36.043000,122.0,-214.0,-438.0,-846.0,193.0,-65.0,469.0,-183.0,556.0
19:48:36.047000,108.0,-200.0,-424.0,-844.0,132.0,-71.0,469.0,-183.0,556.0
19:48:36.052000,89.0,-189.0,-403.0,-867.0,136.0,-68.0,459.0,-180.0,555.0
19:48:36.057000,60.0,-159.0,-360.0,-867.0,136.0,-68.0,459.0,-180.0,555.0
19:48:36.061000,20.0,-133.0,-318.0,-952.0,284.0,-49.0,471.0,-172.0,555.0
19:48:36.066000,30.0,-146.0,-359.0,-966.0,322.0,-37.0,471.0,-172.0,555.0
19:48:36.070000,12.0,-126.0,-372.0,-904.0,210.0,-32.0,471.0,-172.0,555.0
19:48:36.075000,13.0,-110.0,-375.0,-860.0,222.0,-41.0,462.0,-169.0,546.0
19:48:36.080000,51.0,-104.0,-394.0,-803.0,171.0,-53.0,462.0,-169.0,546.0
19:48:36.085000,4.0,-65.0,-351.0,-795.0,107.0,-49.0,475.0,-171.0,550.0
19:48:36.090000,-17.0,-67.0,-282.0,-810.0,185.0,-51.0,475.0,-171.0,550.0
19:48:36.097000,-6.0,-74.0,-266.0,-893.0,341.0,-46.0,465.0,-168.0,543.0
19:48:36.099000,-21.0,-50.0,-294.0,-893.0,341.0,-46.0,465.0,-168.0,543.0
19:48:36.103000,-21.0,-50.0,-294.0,-913.0,350.0,-71.0,465.0,-168.0,543.0
19:48:36.108000,-9.0,-45.0,-305.0,-899.0,228.0,-36.0,448.0,-168.0,556.0
19:48:36.113000,-67.0,-32.0,-277.0,-870.0,270.0,-19.0,448.0,-168.0,556.0
19:48:36.118000,-126.0,-11.0,-242.0,-777.0,306.0,-49.0,456.0,-171.0,541.0
19:48:36.122000,-91.0,-43.0,-250.0,-701.0,360.0,-38.0,456.0,-171.0,541.0
19:48:36.127000,-83.0,-49.0,-327.0,-670.0,475.0,-51.0,456.0,-171.0,541.0
19:48:36.132000,-117.0,-30.0,-385.0,-624.0,419.0,-87.0,471.0,-162.0,546.0
19:48:36.137000,-158.0,-15.0,-365.0,-638.0,388.0,-69.0,471.0,-162.0,546.0
19:48:36.141000,-203.0,-18.0,-259.0,-749.0,457.0,-56.0,472.0,-172.0,546.0
19:48:36.146000,-247.0,-37.0,-190.0,-823.0,457.0,-107.0,472.0,-172.0,546.0
19:48:36.150000,-247.0,-46.0,-214.0,-879.0,391.0,-120.0,472.0,-172.0,546.0
19:48:36.155000,-221.0,-56.0,-287.0,-876.0,377.0,-112.0,469.0,-172.0,535.0
19:48:36.160000,-245.0,-29.0,-301.0,-768.0,387.0,-159.0,469.0,-172.0,535.0
19:48:36.165000,-260.0,-4.0,-252.0,-768.0,387.0,-159.0,466.0,-168.0,555.0
19:48:36.169000,-257.0,-4.0,-210.0,-752.0,363.0,-158.0,466.0,-168.0,555.0
19:48:36.174000,-251.0,-7.0,-177.0,-809.0,343.0,-145.0,466.0,-168.0,555.0
