hh:mm:ss.ms,gyroX[mdps],gyroY[mdps],gyroZ[mdps],accX[mg],accY[mg],accZ[mg],magX[mG],magY[mG],magZ[mG]
19:50:16.526000,-68.0,-35.0,-136.0,-716.0,225.0,-185.0,679.0,-607.0,361.0
19:50:16.531000,-70.0,-74.0,-131.0,-716.0,225.0,-185.0,694.0,-603.0,358.0
19:50:16.536000,-69.0,-110.0,-123.0,-747.0,222.0,-179.0,694.0,-603.0,358.0
19:50:16.541000,-66.0,-141.0,-116.0,-846.0,221.0,-171.0,676.0,-594.0,360.0
19:50:16.546000,-61.0,-161.0,-113.0,-846.0,221.0,-171.0,676.0,-594.0,360.0
19:50:16.550000,-58.0,-173.0,-107.0,-894.0,219.0,-172.0,676.0,-594.0,360.0
19:50:16.555000,-63.0,-173.0,-101.0,-940.0,224.0,-173.0,678.0,-601.0,364.0
19:50:16.560000,-73.0,-163.0,-110.0,-985.0,241.0,-171.0,678.0,-601.0,364.0
19:50:16.565000,-80.0,-151.0,-137.0,-1014.0,254.0,-159.0,682.0,-597.0,360.0
19:50:16.569000,-79.0,-139.0,-171.0,-1006.0,243.0,-140.0,682.0,-597.0,360.0
19:50:16.573000,-79.0,-139.0,-171.0,-963.0,211.0,-122.0,682.0,-597.0,360.0
19:50:16.579000,-71.0,-126.0,-189.0,-917.0,182.0,-105.0,690.0,-591.0,360.0
19:50:16.583000,-63.0,-111.0,-182.0,-903.0,192.0,-94.0,690.0,-591.0,360.0
19:50:16.588000,-66.0,-93.0,-175.0,-920.0,252.0,-88.0,684.0,-585.0,376.0
19:50:16.593000,-78.0,-76.0,-189.0,-945.0,326.0,-80.0,684.0,-585.0,376.0
19:50:16.598000,-98.0,-65.0,-211.0,-955.0,371.0,-70.0,687.0,-582.0,358.0
19:50:16.602000,-117.0,-61.0,-220.0,-956.0,376.0,-60.0,687.0,-582.0,358.0
19:50:16.606000,-123.0,-67.0,-204.0,-972.0,357.0,-57.0,687.0,-582.0,358.0
19:50:16.612000,-113.0,-72.0,-163.0,-1020.0,327.0,-65.0,699.0,-585.0,354.0
19:50:16.616000,-87.0,-71.0,-105.0,-1092.0,305.0,-74.0,699.0,-585.0,354.0
19:50:16.621000,-52.0,-68.0,-43.0,-1163.0,294.0,-77.0,690.0,-580.0,361.0
19:50:16.625000,-11.0,-63.0,12.0,-1215.0,296.0,-65.0,690.0,-580.0,361.0
19:50:16.630000,35.0,-65.0,60.0,-1241.0,310.0,-36.0,690.0,-580.0,361.0
19:50:16.635000,81.0,-80.0,102.0,-1250.0,340.0,-6.0,693.0,-576.0,360.0
19:50:16.640000,119.0,-100.0,144.0,-1250.0,403.0,-6.0,693.0,-576.0,360.0
19:50:16.645000,133.0,-119.0,182.0,-1261.0,388.0,16.0,706.0,-588.0,361.0
19:50:16.649000,123.0,-141.0,203.0,-1275.0,438.0,45.0,706.0,-588.0,361.0
19:50:16.653000,103.0,-171.0,202.0,-1266.0,467.0,81.0,706.0,-588.0,361.0
19:50:16.659000,85.0,-207.0,184.0,-1226.0,482.0,116.0,687.0,-574.0,361.0
19:50:16.663000,65.0,-244.0,166.0,-1206.0,508.0,146.0,687.0,-574.0,361.0
19:50:16.668000,46.0,-274.0,146.0,-1260.0,551.0,172.0,694.0,-570.0,358.0
19:50:16.673000,35.0,-289.0,116.0,-1369.0,583.0,186.0,694.0,-570.0,358.0
19:50:16.677000,35.0,-289.0,116.0,-1476.0,569.0,180.0,694.0,-570.0,358.0
19:50:16.682000,43.0,-252.0,107.0,-1550.0,503.0,162.0,676.0,-571.0,366.0
19:50:16.687000,43.0,-252.0,107.0,-1591.0,422.0,146.0,676.0,-571.0,366.0
19:50:16.692000,51.0,-209.0,144.0,-1590.0,354.0,132.0,685.0,-580.0,373.0
19:50:16.696000,63.0,-161.0,185.0,-1538.0,303.0,117.0,685.0,-580.0,373.0
19:50:16.700000,82.0,-120.0,217.0,-1449.0,273.0,105.0,685.0,-580.0,373.0
19:50:16.706000,104.0,-90.0,235.0,-1354.0,275.0,96.0,690.0,-583.0,352.0
19:50:16.710000,116.0,-79.0,240.0,-1276.0,311.0,90.0,690.0,-583.0,352.0
19:50:16.715000,107.0,-81.0,234.0,-1208.0,359.0,78.0,682.0,-565.0,367.0
19:50:16.720000,71.0,-91.0,224.0,-1148.0,393.0,59.0,682.0,-565.0,367.0
19:50:16.724000,11.0,-107.0,214.0,-1100.0,398.0,40.0,682.0,-565.0,367.0
19:50:16.729000,-65.0,-119.0,215.0,-1068.0,356.0,19.0,682.0,-571.0,364.0
19:50:16.734000,-143.0,-129.0,224.0,-1052.0,267.0,-3.0,682.0,-571.0,364.0
19:50:16.739000,-200.0,-131.0,228.0,-1052.0,267.0,-3.0,684.0,-583.0,355.0
19:50:16.743000,-226.0,-123.0,216.0,-1013.0,-21.0,-40.0,684.0,-583.0,355.0
19:50:16.747000,-215.0,-107.0,203.0,-963.0,-215.0,-53.0,684.0,-583.0,355.0
19:50:16.753000,-175.0,-79.0,207.0,-963.0,-215.0,-53.0,687.0,-576.0,358.0
19:50:16.757000,-116.0,-38.0,224.0,-907.0,-399.0,-64.0,687.0,-576.0,358.0
19:50:16.761000,-56.0,7.0,235.0,-829.0,-553.0,-67.0,679.0,-571.0,358.0
19:50:16.767000,-3.0,47.0,231.0,-829.0,-553.0,-67.0,679.0,-571.0,358.0
19:50:16.771000,29.0,75.0,219.0,-797.0,-522.0,-55.0,679.0,-571.0,358.0
19:50:16.776000,46.0,81.0,204.0,-766.0,-460.0,-32.0,664.0,-571.0,372.0
19:50:16.781000,57.0,63.0,198.0,-732.0,-399.0,-11.0,664.0,-571.0,372.0
19:50:16.786000,60.0,34.0,213.0,-701.0,-349.0,-2.0,672.0,-576.0,364.0
19:50:16.790000,49.0,1.0,246.0,-704.0,-293.0,-6.0,672.0,-576.0,364.0
19:50:16.794000,49.0,1.0,246.0,-755.0,-213.0,-13.0,672.0,-576.0,364.0
19:50:16.800000,18.0,-36.0,276.0,-828.0,-135.0,-19.0,672.0,-571.0,367.0
19:50:16.804000,-24.0,-77.0,306.0,-886.0,-112.0,-28.0,672.0,-571.0,367.0
19:50:16.809000,-63.0,-116.0,361.0,-922.0,-163.0,-38.0,664.0,-576.0,366.0
19:50:16.814000,-81.0,-153.0,444.0,-960.0,-247.0,-62.0,664.0,-576.0,366.0
19:50:16.818000,-69.0,-184.0,536.0,-1017.0,-316.0,-95.0,664.0,-576.0,366.0
19:50:16.823000,-39.0,-211.0,624.0,-1084.0,-368.0,-119.0,651.0,-580.0,373.0
19:50:16.828000,0.0,-238.0,725.0,-1128.0,-448.0,-132.0,651.0,-580.0,373.0
19:50:16.833000,49.0,-257.0,868.0,-1115.0,-583.0,-147.0,648.0,-594.0,361.0
19:50:16.837000,116.0,-266.0,1049.0,-1038.0,-716.0,-167.0,648.0,-594.0,361.0
19:50:16.841000,194.0,-266.0,1229.0,-922.0,-757.0,-171.0,648.0,-594.0,361.0
19:50:16.847000,259.0,-282.0,1376.0,-799.0,-660.0,-148.0,660.0,-579.0,363.0
19:50:16.851000,284.0,-324.0,1477.0,-704.0,-461.0,-107.0,660.0,-579.0,363.0
19:50:16.855000,252.0,-380.0,1539.0,-649.0,-259.0,-49.0,631.0,-600.0,375.0
19:50:16.861000,170.0,-447.0,1590.0,-649.0,-259.0,-49.0,631.0,-600.0,375.0
19:50:16.865000,71.0,-526.0,1651.0,-602.0,-163.0,26.0,631.0,-600.0,375.0
19:50:16.870000,0.0,-604.0,1734.0,-510.0,-222.0,83.0,619.0,-610.0,361.0
19:50:16.875000,-15.0,-669.0,1852.0,-380.0,-378.0,102.0,619.0,-610.0,361.0
19:50:16.880000,1.0,-709.0,1998.0,-305.0,-502.0,117.0,624.0,-628.0,357.0
19:50:16.884000,14.0,-732.0,2139.0,-373.0,-518.0,154.0,624.0,-628.0,357.0
19:50:16.888000,36.0,-718.0,2256.0,-539.0,-500.0,182.0,624.0,-628.0,357.0
19:50:16.894000,95.0,-670.0,2381.0,-671.0,-602.0,167.0,609.0,-631.0,364.0
19:50:16.898000,214.0,-598.0,2536.0,-686.0,-864.0,117.0,609.0,-631.0,364.0
19:50:16.903000,383.0,-515.0,2706.0,-598.0,-1153.0,52.0,598.0,-645.0,366.0
19:50:16.908000,383.0,-515.0,2706.0,-471.0,-1293.0,5.0,598.0,-645.0,366.0
19:50:16.912000,553.0,-450.0,2859.0,-346.0,-1218.0,-2.0,598.0,-645.0,366.0
19:50:16.917000,677.0,-413.0,2972.0,-218.0,-1012.0,16.0,586.0,-664.0,355.0
19:50:16.922000,737.0,-408.0,3045.0,-73.0,-817.0,46.0,586.0,-664.0,355.0
19:50:16.927000,746.0,-429.0,3096.0,89.0,-722.0,74.0,568.0,-679.0,349.0
19:50:16.931000,731.0,-466.0,3150.0,249.0,-737.0,93.0,568.0,-679.0,349.0
19:50:16.935000,714.0,-507.0,3224.0,369.0,-799.0,100.0,568.0,-679.0,349.0
19:50:16.941000,707.0,-535.0,3317.0,413.0,-838.0,88.0,535.0,-706.0,364.0
19:50:16.945000,700.0,-536.0,3407.0,375.0,-834.0,68.0,535.0,-706.0,364.0
19:50:16.950000,681.0,-503.0,3472.0,297.0,-829.0,45.0,508.0,-714.0,381.0
19:50:16.955000,660.0,-431.0,3498.0,254.0,-869.0,9.0,508.0,-714.0,381.0
19:50:16.959000,652.0,-329.0,3504.0,278.0,-940.0,-32.0,508.0,-714.0,381.0
19:50:16.964000,659.0,-212.0,3516.0,357.0,-977.0,-61.0,498.0,-732.0,370.0
19:50:16.969000,673.0,-107.0,3520.0,357.0,-977.0,-61.0,498.0,-732.0,370.0
19:50:16.973000,678.0,-25.0,3501.0,456.0,-928.0,-74.0,474.0,-745.0,369.0
19:50:16.978000,668.0,28.0,3469.0,549.0,-813.0,-77.0,474.0,-745.0,369.0
19:50:16.982000,651.0,60.0,3440.0,612.0,-685.0,-82.0,474.0,-745.0,369.0
19:50:16.988000,634.0,77.0,3404.0,614.0,-549.0,-99.0,430.0,-754.0,411.0
19:50:16.992000,618.0,80.0,3336.0,532.0,-364.0,-120.0,430.0,-754.0,411.0
19:50:16.997000,562.0,72.0,3210.0,359.0,-86.0,-127.0,430.0,-754.0,411.0
19:50:17.002000,450.0,48.0,3029.0,140.0,246.0,-109.0,430.0,-754.0,411.0
19:50:17.006000,450.0,48.0,3029.0,-30.0,516.0,-76.0,430.0,-754.0,411.0
19:50:17.011000,198.0,-70.0,2729.0,-110.0,639.0,-34.0,384.0,-769.0,396.0
19:50:17.016000,198.0,-70.0,2729.0,-139.0,650.0,5.0,384.0,-769.0,396.0
19:50:17.020000,90.0,-133.0,2651.0,-191.0,632.0,30.0,364.0,-777.0,393.0
19:50:17.025000,-2.0,-178.0,2578.0,-289.0,633.0,43.0,364.0,-777.0,393.0
19:50:17.029000,-87.0,-203.0,2480.0,-394.0,649.0,46.0,364.0,-777.0,393.0
19:50:17.035000,-174.0,-199.0,2377.0,-479.0,677.0,26.0,346.0,-778.0,397.0
19:50:17.039000,-277.0,-151.0,2291.0,-573.0,759.0,-26.0,346.0,-778.0,397.0
19:50:17.044000,-403.0,-53.0,2183.0,-692.0,901.0,-92.0,324.0,-778.0,391.0
19:50:17.049000,-555.0,59.0,2011.0,-793.0,1026.0,-154.0,324.0,-778.0,391.0
19:50:17.053000,-700.0,154.0,1782.0,-789.0,1020.0,-213.0,324.0,-778.0,391.0
19:50:17.058000,-777.0,207.0,1552.0,-627.0,835.0,-267.0,319.0,-784.0,385.0
19:50:17.063000,-737.0,209.0,1361.0,-362.0,570.0,-306.0,319.0,-784.0,385.0
19:50:17.067000,-590.0,190.0,1191.0,-362.0,570.0,-306.0,312.0,-787.0,390.0
19:50:17.072000,-387.0,166.0,1045.0,27.0,383.0,-311.0,312.0,-787.0,390.0
19:50:17.076000,-205.0,141.0,968.0,27.0,518.0,-311.0,312.0,-787.0,390.0
19:50:17.082000,-92.0,121.0,966.0,-73.0,710.0,-272.0,282.0,-793.0,387.0
19:50:17.086000,-49.0,117.0,998.0,-73.0,710.0,-272.0,282.0,-793.0,387.0
19:50:17.091000,-52.0,129.0,1015.0,-212.0,905.0,-284.0,282.0,-790.0,384.0
19:50:17.096000,-97.0,148.0,1016.0,-358.0,1078.0,-306.0,282.0,-790.0,384.0
19:50:17.100000,-165.0,162.0,1022.0,-468.0,1198.0,-312.0,282.0,-790.0,384.0
19:50:17.105000,-240.0,157.0,1045.0,-497.0,1240.0,-290.0,271.0,-790.0,400.0
19:50:17.110000,-302.0,132.0,1086.0,-404.0,1183.0,-249.0,271.0,-790.0,400.0
19:50:17.114000,-326.0,84.0,1130.0,-211.0,1042.0,-200.0,258.0,-778.0,390.0
19:50:17.119000,-324.0,28.0,1187.0,7.0,863.0,-148.0,258.0,-778.0,390.0
19:50:17.127000,-303.0,-25.0,1258.0,205.0,598.0,-40.0,261.0,-783.0,384.0
19:50:17.129000,-303.0,-25.0,1258.0,205.0,598.0,-40.0,261.0,-783.0,384.0
19:50:17.133000,-277.0,-73.0,1320.0,146.0,548.0,6.0,261.0,-783.0,384.0
19:50:17.138000,-261.0,-105.0,1359.0,58.0,491.0,37.0,246.0,-786.0,396.0
19:50:17.143000,-248.0,-112.0,1371.0,-5.0,385.0,60.0,246.0,-786.0,396.0
19:50:17.147000,-228.0,-100.0,1357.0,-38.0,239.0,73.0,231.0,-775.0,382.0
19:50:17.152000,-189.0,-67.0,1323.0,-57.0,113.0,90.0,231.0,-775.0,382.0
19:50:17.156000,-159.0,-25.0,1272.0,-66.0,36.0,115.0,231.0,-775.0,382.0
19:50:17.161000,-137.0,16.0,1203.0,-49.0,-8.0,131.0,219.0,-771.0,403.0
19:50:17.166000,-119.0,52.0,1092.0,3.0,-57.0,133.0,219.0,-771.0,403.0
19:50:17.170000,-107.0,95.0,953.0,67.0,-131.0,124.0,216.0,-769.0,405.0
19:50:17.176000,-107.0,144.0,809.0,92.0,-187.0,110.0,216.0,-769.0,405.0
19:50:17.180000,-51.0,217.0,669.0,83.0,-222.0,-94.0,216.0,-769.0,405.0
19:50:17.185000,334.0,378.0,576.0,83.0,-222.0,-94.0,211.0,-754.0,402.0
19:50:17.190000,406.0,456.0,406.0,-1.0,-296.0,-134.0,211.0,-754.0,402.0
19:50:17.194000,457.0,508.0,98.0,-98.0,-235.0,-27.0,201.0,-753.0,402.0
19:50:17.199000,595.0,516.0,-301.0,-123.0,-94.0,-111.0,201.0,-753.0,402.0
19:50:17.203000,781.0,532.0,-705.0,-111.0,-177.0,-193.0,201.0,-753.0,402.0
19:50:17.208000,1032.0,584.0,-971.0,-93.0,-588.0,-317.0,210.0,-748.0,406.0
19:50:17.213000,1551.0,704.0,-948.0,70.0,-1598.0,-577.0,210.0,-748.0,406.0
19:50:17.217000,1593.0,1546.0,1277.0,1332.0,-3146.0,-1099.0,208.0,-747.0,415.0
19:50:17.223000,795.0,213.0,5544.0,3214.0,-3949.0,674.0,208.0,-747.0,415.0
19:50:17.227000,795.0,213.0,5544.0,3100.0,-275.0,1922.0,208.0,-747.0,415.0
19:50:17.231000,5007.0,-6104.0,-7905.0,-868.0,3680.0,2219.0,237.0,-718.0,448.0
19:50:17.237000,3528.0,-9107.0,-15507.0,-3810.0,3788.0,1298.0,237.0,-718.0,448.0
19:50:17.241000,-318.0,-4000.0,-9240.0,-2369.0,463.0,-1515.0,334.0,-703.0,456.0
19:50:17.246000,-4727.0,952.0,1623.0,-1077.0,-3260.0,-1064.0,334.0,-703.0,456.0
19:50:17.250000,-4489.0,1186.0,4138.0,-1437.0,-3883.0,-550.0,334.0,-703.0,456.0
19:50:17.255000,-1533.0,1176.0,2046.0,-386.0,-3945.0,-1452.0,312.0,-717.0,426.0
19:50:17.260000,-485.0,1882.0,1077.0,935.0,-3994.0,-633.0,312.0,-717.0,426.0
19:50:17.265000,-75.0,1129.0,1218.0,1041.0,-3893.0,421.0,298.0,-711.0,447.0
19:50:17.270000,-340.0,627.0,1590.0,846.0,-3338.0,66.0,298.0,-711.0,447.0
19:50:17.274000,259.0,263.0,1054.0,82.0,-2855.0,-17.0,298.0,-711.0,447.0
19:50:17.279000,387.0,-163.0,-608.0,-806.0,-2691.0,56.0,280.0,-715.0,436.0
19:50:17.284000,419.0,-268.0,-1598.0,-1235.0,-2956.0,-384.0,280.0,-715.0,436.0
19:50:17.288000,249.0,237.0,-691.0,-1235.0,-2956.0,-384.0,274.0,-703.0,432.0
19:50:17.293000,-476.0,824.0,1241.0,132.0,-3655.0,-133.0,274.0,-703.0,432.0
19:50:17.297000,-613.0,863.0,1486.0,132.0,-3655.0,-133.0,274.0,-703.0,432.0
19:50:17.302000,928.0,169.0,-1911.0,-295.0,-1081.0,225.0,279.0,-706.0,442.0
19:50:17.307000,1642.0,-599.0,-4048.0,-386.0,-1081.0,237.0,279.0,-706.0,442.0
19:50:17.312000,579.0,6.0,-2254.0,28.0,-2453.0,159.0,291.0,-690.0,451.0
19:50:17.317000,-392.0,249.0,-2300.0,279.0,-2735.0,5.0,291.0,-690.0,451.0
19:50:17.321000,-340.0,-49.0,-2686.0,138.0,-1601.0,194.0,291.0,-690.0,451.0
19:50:17.326000,-366.0,-2.0,-2069.0,122.0,-2106.0,-61.0,310.0,-696.0,445.0
19:50:17.331000,-62.0,109.0,-1670.0,204.0,-2990.0,-243.0,310.0,-696.0,445.0
19:50:17.335000,157.0,93.0,-1877.0,212.0,-3142.0,-177.0,316.0,-688.0,445.0
19:50:17.340000,144.0,34.0,-2193.0,327.0,-2821.0,-4.0,316.0,-688.0,445.0
19:50:17.344000,144.0,34.0,-2193.0,538.0,-2250.0,166.0,316.0,-688.0,445.0
19:50:17.349000,264.0,-171.0,-2121.0,439.0,-2458.0,175.0,327.0,-682.0,432.0
19:50:17.354000,16.0,-224.0,-2275.0,195.0,-2847.0,6.0,327.0,-682.0,432.0
19:50:17.359000,285.0,-91.0,-2270.0,-26.0,-2656.0,-91.0,345.0,-672.0,444.0
19:50:17.364000,336.0,-49.0,-2041.0,23.0,-2631.0,-28.0,345.0,-672.0,444.0
19:50:17.368000,-7.0,175.0,-1760.0,204.0,-2174.0,28.0,345.0,-672.0,444.0
19:50:17.373000,-161.0,253.0,-2636.0,328.0,-1795.0,45.0,355.0,-669.0,438.0
19:50:17.378000,178.0,-12.0,-2828.0,538.0,-2155.0,360.0,355.0,-669.0,438.0
19:50:17.382000,154.0,-161.0,-2779.0,500.0,-2058.0,149.0,373.0,-651.0,451.0
19:50:17.387000,155.0,-23.0,-2727.0,231.0,-1976.0,73.0,373.0,-651.0,451.0
19:50:17.391000,155.0,-285.0,-2903.0,194.0,-2505.0,341.0,373.0,-651.0,451.0
19:50:17.396000,29.0,-240.0,-2465.0,260.0,-2525.0,-1.0,373.0,-642.0,445.0
19:50:17.401000,-310.0,-71.0,-2839.0,92.0,-2376.0,52.0,373.0,-642.0,445.0
19:50:17.406000,-224.0,-224.0,-2635.0,92.0,-2376.0,52.0,406.0,-643.0,444.0
19:50:17.411000,132.0,-338.0,-2363.0,258.0,-2412.0,-4.0,406.0,-643.0,444.0
19:50:17.415000,35.0,-478.0,-2521.0,78.0,-2379.0,49.0,406.0,-643.0,444.0
19:50:17.420000,172.0,-482.0,-2327.0,-191.0,-2336.0,9.0,415.0,-622.0,445.0
19:50:17.425000,81.0,-548.0,-1994.0,39.0,-2406.0,-125.0,415.0,-622.0,445.0
19:50:17.429000,113.0,-356.0,-2487.0,-126.0,-2326.0,-202.0,426.0,-619.0,444.0
19:50:17.434000,-112.0,-396.0,-2513.0,-405.0,-2348.0,-46.0,426.0,-619.0,444.0
19:50:17.438000,-112.0,-396.0,-2513.0,-110.0,-2673.0,-5.0,426.0,-619.0,444.0
19:50:17.443000,358.0,-373.0,-2300.0,-17.0,-2374.0,-308.0,435.0,-609.0,444.0
19:50:17.448000,436.0,-677.0,-2807.0,-284.0,-2146.0,-54.0,435.0,-609.0,444.0
19:50:17.453000,436.0,-677.0,-2807.0,-94.0,-2550.0,2.0,451.0,-592.0,439.0
19:50:17.458000,33.0,-388.0,-2418.0,85.0,-2698.0,-365.0,451.0,-592.0,439.0
19:50:17.462000,367.0,-143.0,-2043.0,-28.0,-2588.0,-451.0,451.0,-592.0,439.0
19:50:17.466000,444.0,-81.0,-1806.0,-117.0,-2404.0,72.0,472.0,-585.0,448.0
19:50:17.472000,98.0,-235.0,-2320.0,-86.0,-2100.0,147.0,472.0,-585.0,448.0
19:50:17.476000,230.0,-363.0,-2650.0,-274.0,-1991.0,-104.0,469.0,-570.0,439.0
19:50:17.481000,441.0,-521.0,-2601.0,-446.0,-2268.0,-113.0,469.0,-570.0,439.0
19:50:17.485000,251.0,-338.0,-2635.0,-173.0,-2353.0,-412.0,469.0,-570.0,439.0
19:50:17.490000,187.0,95.0,-2805.0,166.0,-2046.0,-443.0,493.0,-559.0,444.0
19:50:17.495000,608.0,81.0,-2216.0,375.0,-1847.0,-263.0,493.0,-559.0,444.0
19:50:17.500000,465.0,225.0,-1614.0,51.0,-1825.0,78.0,504.0,-550.0,442.0
19:50:17.505000,88.0,46.0,-1466.0,-329.0,-1652.0,119.0,504.0,-550.0,442.0
19:50:17.509000,221.0,-39.0,-2052.0,-283.0,-1690.0,0.0,504.0,-550.0,442.0
19:50:17.514000,380.0,-347.0,-2303.0,-283.0,-2019.0,183.0,496.0,-546.0,448.0
19:50:17.518000,358.0,-615.0,-2304.0,-293.0,-1903.0,-20.0,496.0,-546.0,448.0
19:50:17.523000,191.0,-446.0,-2424.0,-293.0,-1903.0,-20.0,511.0,-534.0,442.0
19:50:17.528000,55.0,-261.0,-1896.0,-331.0,-1945.0,-242.0,511.0,-534.0,442.0
19:50:17.533000,-119.0,-240.0,-1582.0,-374.0,-1859.0,-167.0,525.0,-508.0,456.0
19:50:17.537000,-203.0,-73.0,-1288.0,-282.0,-1493.0,-71.0,525.0,-508.0,456.0
19:50:17.542000,-44.0,86.0,-1204.0,-174.0,-1567.0,-264.0,525.0,-508.0,456.0
19:50:17.547000,7.0,-72.0,-2230.0,-705.0,-1462.0,-100.0,532.0,-505.0,441.0
19:50:17.552000,300.0,-36.0,-2765.0,-821.0,-1229.0,12.0,532.0,-505.0,441.0
19:50:17.556000,473.0,-130.0,-2137.0,-198.0,-1649.0,-82.0,532.0,-499.0,441.0
19:50:17.561000,473.0,-130.0,-2137.0,-79.0,-1759.0,222.0,532.0,-499.0,441.0
19:50:17.565000,-77.0,-224.0,-1575.0,-358.0,-1454.0,243.0,532.0,-499.0,441.0
19:50:17.570000,-108.0,-329.0,-1369.0,-582.0,-1248.0,-36.0,526.0,-486.0,463.0
19:50:17.575000,224.0,-324.0,-1544.0,-744.0,-1298.0,-242.0,526.0,-486.0,463.0
19:50:17.580000,357.0,-76.0,-1165.0,-648.0,-1568.0,-281.0,538.0,-472.0,441.0
19:50:17.584000,186.0,266.0,-668.0,-609.0,-1707.0,-79.0,538.0,-472.0,441.0
19:50:17.589000,-67.0,315.0,-497.0,-716.0,-1436.0,21.0,538.0,-472.0,441.0
19:50:17.594000,-160.0,243.0,-836.0,-513.0,-833.0,163.0,546.0,-465.0,442.0
19:50:17.599000,-159.0,-160.0,-1151.0,-176.0,-831.0,123.0,546.0,-465.0,442.0
19:50:17.603000,-110.0,-163.0,-1077.0,-166.0,-1408.0,-136.0,541.0,-471.0,453.0
19:50:17.608000,-58.0,-109.0,-883.0,-668.0,-1495.0,-74.0,541.0,-471.0,453.0
19:50:17.612000,-8.0,-277.0,-1341.0,-913.0,-1003.0,-3.0,541.0,-471.0,453.0
19:50:17.617000,137.0,-408.0,-1605.0,-627.0,-781.0,21.0,543.0,-465.0,436.0
19:50:17.622000,-29.0,-444.0,-1537.0,-377.0,-710.0,-11.0,543.0,-465.0,436.0
19:50:17.627000,-168.0,-343.0,-1602.0,-377.0,-710.0,-11.0,543.0,-438.0,436.0
19:50:17.631000,-186.0,-259.0,-1587.0,-212.0,-802.0,-60.0,543.0,-438.0,436.0
19:50:17.636000,-147.0,-136.0,-1465.0,-162.0,-1182.0,-132.0,543.0,-438.0,436.0
19:50:17.641000,-395.0,-296.0,-1280.0,-278.0,-1349.0,34.0,549.0,-438.0,439.0
19:50:17.646000,-713.0,-144.0,-1100.0,-429.0,-1026.0,140.0,549.0,-438.0,439.0
19:50:17.650000,-715.0,-324.0,-1115.0,-520.0,-765.0,97.0,559.0,-439.0,441.0
19:50:17.655000,-597.0,-343.0,-1138.0,-571.0,-972.0,83.0,559.0,-439.0,441.0
19:50:17.659000,-597.0,-343.0,-1138.0,-626.0,-1303.0,-95.0,559.0,-439.0,441.0
19:50:17.664000,445.0,184.0,-128.0,-664.0,-1969.0,-433.0,552.0,-429.0,429.0
19:50:17.669000,518.0,422.0,724.0,-1007.0,-2621.0,-468.0,552.0,-429.0,429.0
19:50:17.674000,518.0,422.0,724.0,-1522.0,-1812.0,-3.0,562.0,-430.0,433.0
19:50:17.678000,204.0,347.0,130.0,-1451.0,-441.0,33.0,562.0,-430.0,433.0
19:50:17.683000,429.0,289.0,-704.0,-996.0,-119.0,-151.0,562.0,-430.0,433.0
19:50:17.688000,673.0,287.0,-1183.0,-598.0,-542.0,-69.0,555.0,-426.0,439.0
19:50:17.693000,477.0,283.0,-972.0,-371.0,-936.0,29.0,555.0,-426.0,439.0
19:50:17.697000,290.0,218.0,-480.0,-440.0,-878.0,-27.0,558.0,-411.0,436.0
19:50:17.702000,208.0,170.0,-255.0,-611.0,-657.0,-91.0,558.0,-411.0,436.0
19:50:17.706000,35.0,198.0,-417.0,-537.0,-549.0,-88.0,558.0,-411.0,436.0
19:50:17.711000,4.0,136.0,-750.0,-289.0,-877.0,-117.0,556.0,-412.0,441.0
19:50:17.716000,56.0,107.0,-774.0,-129.0,-1384.0,-73.0,556.0,-412.0,441.0
19:50:17.721000,-153.0,72.0,-447.0,-129.0,-1384.0,-73.0,568.0,-411.0,444.0
19:50:17.725000,-227.0,-28.0,-342.0,-511.0,-829.0,-142.0,568.0,-411.0,444.0
19:50:17.730000,-94.0,-53.0,-515.0,-572.0,-657.0,-141.0,568.0,-411.0,444.0
19:50:17.735000,-81.0,-106.0,-627.0,-434.0,-747.0,-90.0,553.0,-412.0,456.0
19:50:17.740000,-154.0,-72.0,-377.0,-434.0,-747.0,-90.0,553.0,-412.0,456.0
19:50:17.744000,-343.0,-141.0,-155.0,-501.0,-782.0,-75.0,561.0,-397.0,448.0
19:50:17.749000,-539.0,-106.0,-220.0,-780.0,-683.0,-8.0,561.0,-397.0,448.0
19:50:17.753000,-478.0,31.0,-473.0,-988.0,-647.0,-125.0,561.0,-397.0,448.0
19:50:17.758000,-253.0,-7.0,-652.0,-1024.0,-679.0,-214.0,555.0,-411.0,444.0
19:50:17.763000,-212.0,-31.0,-590.0,-815.0,-857.0,-140.0,555.0,-411.0,444.0
19:50:17.768000,-211.0,-16.0,-424.0,-564.0,-925.0,-99.0,556.0,-405.0,441.0
19:50:17.772000,-273.0,39.0,-338.0,-513.0,-734.0,-92.0,556.0,-405.0,441.0
19:50:17.777000,-273.0,39.0,-338.0,-645.0,-625.0,-129.0,556.0,-405.0,441.0
19:50:17.782000,-163.0,74.0,-392.0,-829.0,-670.0,-114.0,564.0,-412.0,435.0
19:50:17.787000,-144.0,53.0,-427.0,-896.0,-711.0,-83.0,564.0,-412.0,435.0
19:50:17.791000,-122.0,72.0,-421.0,-876.0,-776.0,-131.0,564.0,-406.0,444.0
19:50:17.796000,-68.0,112.0,-396.0,-843.0,-894.0,-170.0,564.0,-406.0,444.0
19:50:17.800000,0.0,196.0,-387.0,-821.0,-934.0,-118.0,564.0,-406.0,444.0
19:50:17.805000,44.0,136.0,-324.0,-703.0,-947.0,-61.0,565.0,-399.0,435.0
19:50:17.810000,29.0,140.0,-136.0,-650.0,-895.0,-43.0,565.0,-399.0,435.0
19:50:17.815000,76.0,98.0,-121.0,-773.0,-780.0,-47.0,555.0,-405.0,441.0
19:50:17.819000,68.0,98.0,-217.0,-879.0,-692.0,-70.0,555.0,-405.0,441.0
19:50:17.824000,54.0,92.0,-251.0,-842.0,-628.0,-63.0,555.0,-405.0,441.0
19:50:17.829000,45.0,139.0,-255.0,-695.0,-628.0,-47.0,564.0,-406.0,444.0
19:50:17.834000,18.0,95.0,-294.0,-675.0,-656.0,-56.0,564.0,-406.0,444.0
19:50:17.838000,44.0,105.0,-354.0,-675.0,-656.0,-56.0,556.0,-397.0,456.0
19:50:17.843000,-17.0,107.0,-345.0,-740.0,-723.0,-56.0,556.0,-397.0,456.0
19:50:17.847000,8.0,117.0,-231.0,-730.0,-765.0,-39.0,556.0,-397.0,456.0
19:50:17.852000,-31.0,161.0,-307.0,-778.0,-698.0,-67.0,567.0,-393.0,448.0
19:50:17.857000,-79.0,155.0,-403.0,-838.0,-546.0,-52.0,567.0,-393.0,448.0
19:50:17.862000,-142.0,40.0,-200.0,-727.0,-563.0,27.0,567.0,-394.0,445.0
19:50:17.866000,-171.0,114.0,-170.0,-681.0,-582.0,4.0,567.0,-394.0,445.0
19:50:17.871000,-182.0,102.0,-277.0,-770.0,-497.0,-53.0,567.0,-394.0,445.0
19:50:17.876000,-245.0,49.0,-308.0,-778.0,-590.0,-14.0,567.0,-394.0,450.0
19:50:17.881000,-277.0,24.0,-317.0,-716.0,-631.0,-15.0,567.0,-394.0,450.0
19:50:17.885000,-263.0,14.0,-259.0,-685.0,-557.0,-32.0,564.0,-397.0,441.0
19:50:17.890000,-263.0,14.0,-259.0,-710.0,-526.0,-49.0,564.0,-397.0,441.0
19:50:17.894000,-238.0,16.0,-250.0,-774.0,-598.0,-99.0,564.0,-397.0,441.0
19:50:17.899000,-270.0,115.0,-209.0,-791.0,-690.0,-27.0,558.0,-394.0,450.0
19:50:17.904000,-333.0,15.0,-239.0,-734.0,-641.0,2.0,558.0,-394.0,450.0
19:50:17.909000,-304.0,-8.0,-227.0,-657.0,-633.0,-61.0,561.0,-400.0,447.0
19:50:17.913000,-257.0,-62.0,-109.0,-603.0,-678.0,-34.0,561.0,-400.0,447.0
19:50:17.918000,-250.0,-81.0,-22.0,-644.0,-680.0,-33.0,561.0,-400.0,447.0
19:50:17.923000,-292.0,-51.0,22.0,-751.0,-697.0,-74.0,544.0,-402.0,456.0
19:50:17.928000,-280.0,6.0,24.0,-813.0,-717.0,-86.0,544.0,-402.0,456.0
19:50:17.932000,-207.0,5.0,-46.0,-807.0,-704.0,-25.0,564.0,-393.0,445.0
19:50:17.937000,-237.0,-1.0,-140.0,-713.0,-706.0,2.0,564.0,-393.0,445.0
19:50:17.941000,-303.0,-16.0,-73.0,-670.0,-724.0,-18.0,564.0,-393.0,445.0
19:50:17.946000,-297.0,-38.0,-23.0,-762.0,-715.0,-59.0,562.0,-400.0,453.0
19:50:17.951000,-224.0,-21.0,-35.0,-762.0,-661.0,-80.0,562.0,-400.0,453.0
19:50:17.955000,-191.0,5.0,-226.0,-956.0,-619.0,-46.0,559.0,-393.0,460.0
19:50:17.960000,-105.0,-16.0,-371.0,-956.0,-619.0,-46.0,559.0,-393.0,460.0
19:50:17.965000,-51.0,5.0,-331.0,-809.0,-649.0,-34.0,559.0,-393.0,460.0
19:50:17.970000,-98.0,-19.0,-204.0,-723.0,-670.0,3.0,553.0,-405.0,453.0
19:50:17.975000,-115.0,-57.0,-44.0,-695.0,-665.0,50.0,553.0,-405.0,453.0
19:50:17.979000,-128.0,-35.0,67.0,-694.0,-691.0,18.0,559.0,-403.0,447.0
19:50:17.984000,-89.0,37.0,-53.0,-802.0,-613.0,-38.0,559.0,-403.0,447.0
19:50:17.988000,-89.0,37.0,-53.0,-902.0,-535.0,-68.0,559.0,-403.0,447.0
19:50:17.993000,-137.0,135.0,40.0,-912.0,-611.0,-34.0,565.0,-402.0,451.0
19:50:17.998000,-236.0,130.0,-14.0,-923.0,-604.0,20.0,565.0,-402.0,451.0
19:50:18.002000,-236.0,130.0,-14.0,-907.0,-514.0,7.0,555.0,-400.0,444.0
19:50:18.007000,-195.0,114.0,-238.0,-818.0,-547.0,-29.0,555.0,-400.0,444.0
19:50:18.012000,-116.0,135.0,-243.0,-803.0,-602.0,-53.0,555.0,-400.0,444.0
19:50:18.017000,-73.0,184.0,-221.0,-861.0,-671.0,-40.0,550.0,-393.0,456.0
19:50:18.022000,-86.0,154.0,-61.0,-865.0,-772.0,20.0,550.0,-393.0,456.0
19:50:18.026000,-73.0,72.0,155.0,-826.0,-675.0,32.0,559.0,-397.0,450.0
19:50:18.031000,-125.0,43.0,59.0,-769.0,-509.0,-4.0,559.0,-397.0,450.0
19:50:18.035000,-119.0,20.0,-175.0,-684.0,-503.0,-46.0,559.0,-397.0,450.0
19:50:18.040000,-95.0,46.0,-186.0,-676.0,-564.0,-31.0,556.0,-391.0,448.0
19:50:18.045000,-129.0,17.0,-41.0,-825.0,-575.0,5.0,556.0,-391.0,448.0
19:50:18.049000,-222.0,-16.0,-63.0,-941.0,-531.0,-16.0,562.0,-396.0,451.0
19:50:18.054000,-265.0,18.0,-275.0,-882.0,-583.0,-60.0,562.0,-396.0,451.0
19:50:18.059000,-193.0,34.0,-367.0,-882.0,-583.0,-60.0,558.0,-405.0,465.0
19:50:18.064000,-107.0,7.0,-287.0,-767.0,-716.0,-58.0,558.0,-405.0,465.0
19:50:18.068000,-58.0,6.0,-215.0,-761.0,-766.0,-38.0,558.0,-405.0,465.0
19:50:18.073000,33.0,21.0,-136.0,-867.0,-776.0,-75.0,556.0,-400.0,441.0
19:50:18.078000,7.0,-17.0,-57.0,-928.0,-755.0,-49.0,556.0,-400.0,441.0
19:50:18.083000,-171.0,-4.0,-163.0,-913.0,-650.0,15.0,559.0,-399.0,448.0
19:50:18.087000,-180.0,-18.0,-515.0,-910.0,-442.0,-16.0,559.0,-399.0,448.0
19:50:18.091000,-114.0,-88.0,-703.0,-853.0,-359.0,-42.0,559.0,-399.0,448.0
19:50:18.097000,-94.0,-102.0,-393.0,-672.0,-574.0,-57.0,565.0,-399.0,451.0
19:50:18.101000,-184.0,-130.0,-156.0,-670.0,-749.0,-59.0,565.0,-399.0,451.0
19:50:18.106000,-278.0,-202.0,-224.0,-853.0,-646.0,-19.0,547.0,-396.0,444.0
19:50:18.111000,-278.0,-202.0,-224.0,-932.0,-490.0,-44.0,547.0,-396.0,444.0
19:50:18.115000,-351.0,-203.0,-464.0,-888.0,-453.0,-54.0,547.0,-396.0,444.0
19:50:18.120000,-385.0,-262.0,-620.0,-798.0,-477.0,-52.0,565.0,-406.0,453.0
19:50:18.125000,-351.0,-308.0,-602.0,-729.0,-519.0,-52.0,565.0,-406.0,453.0
19:50:18.130000,-448.0,-342.0,-487.0,-728.0,-438.0,-39.0,561.0,-388.0,447.0
19:50:18.134000,-504.0,-370.0,-436.0,-808.0,-313.0,-15.0,561.0,-388.0,447.0
19:50:18.138000,-567.0,-478.0,-366.0,-842.0,-299.0,43.0,561.0,-388.0,447.0
19:50:18.144000,-718.0,-580.0,-277.0,-806.0,-240.0,62.0,544.0,-388.0,441.0
19:50:18.148000,-851.0,-645.0,-313.0,-776.0,-204.0,27.0,544.0,-388.0,441.0
19:50:18.153000,-871.0,-683.0,-437.0,-738.0,-300.0,22.0,568.0,-397.0,445.0
19:50:18.158000,-906.0,-776.0,-469.0,-646.0,-367.0,61.0,568.0,-397.0,445.0
19:50:18.162000,-991.0,-877.0,-443.0,-558.0,-350.0,83.0,568.0,-397.0,445.0
19:50:18.167000,-1122.0,-964.0,-405.0,-567.0,-287.0,126.0,568.0,-400.0,438.0
19:50:18.172000,-1257.0,-1061.0,-446.0,-567.0,-287.0,126.0,568.0,-400.0,438.0
19:50:18.177000,-1344.0,-1150.0,-557.0,-644.0,-204.0,158.0,577.0,-397.0,427.0
19:50:18.181000,-1372.0,-1235.0,-602.0,-678.0,-331.0,188.0,577.0,-397.0,427.0
19:50:18.185000,-1412.0,-1319.0,-559.0,-678.0,-331.0,188.0,577.0,-397.0,427.0
19:50:18.191000,-1435.0,-1383.0,-526.0,-682.0,-406.0,195.0,595.0,-408.0,426.0
19:50:18.195000,-1414.0,-1446.0,-525.0,-734.0,-405.0,195.0,595.0,-408.0,426.0
19:50:18.200000,-1459.0,-1528.0,-485.0,-705.0,-402.0,212.0,591.0,-414.0,417.0
19:50:18.205000,-1528.0,-1636.0,-523.0,-646.0,-354.0,264.0,591.0,-414.0,417.0
19:50:18.209000,-1528.0,-1636.0,-523.0,-664.0,-252.0,277.0,591.0,-414.0,417.0
19:50:18.214000,-1621.0,-1785.0,-697.0,-698.0,-236.0,291.0,600.0,-408.0,402.0
19:50:18.219000,-1621.0,-1785.0,-697.0,-664.0,-316.0,314.0,600.0,-408.0,402.0
19:50:18.223000,-1656.0,-1832.0,-625.0,-674.0,-401.0,329.0,609.0,-414.0,390.0
19:50:18.228000,-1659.0,-1922.0,-511.0,-749.0,-450.0,358.0,609.0,-414.0,390.0
19:50:18.232000,-1667.0,-1975.0,-489.0,-733.0,-548.0,328.0,609.0,-414.0,390.0
19:50:18.238000,-1553.0,-2020.0,-377.0,-687.0,-613.0,343.0,613.0,-414.0,370.0
19:50:18.242000,-1529.0,-2099.0,-327.0,-706.0,-487.0,376.0,613.0,-414.0,370.0
19:50:18.247000,-1563.0,-2091.0,-398.0,-795.0,-330.0,406.0,616.0,-423.0,370.0
19:50:18.252000,-1601.0,-2135.0,-518.0,-792.0,-279.0,456.0,616.0,-423.0,370.0
19:50:18.256000,-1587.0,-2188.0,-514.0,-696.0,-354.0,468.0,616.0,-423.0,370.0
19:50:18.261000,-1576.0,-2191.0,-406.0,-736.0,-409.0,472.0,631.0,-418.0,333.0
19:50:18.266000,-1532.0,-2164.0,-412.0,-849.0,-519.0,469.0,631.0,-418.0,333.0
19:50:18.271000,-1428.0,-2137.0,-401.0,-849.0,-519.0,469.0,637.0,-421.0,328.0
19:50:18.275000,-1278.0,-2106.0,-320.0,-961.0,-648.0,453.0,637.0,-421.0,328.0
19:50:18.279000,-1186.0,-2050.0,-342.0,-961.0,-648.0,453.0,637.0,-421.0,328.0
19:50:18.285000,-1092.0,-2051.0,-357.0,-969.0,-543.0,499.0,630.0,-420.0,312.0
19:50:18.289000,-1009.0,-1934.0,-347.0,-949.0,-440.0,493.0,630.0,-420.0,312.0
19:50:18.294000,-892.0,-1891.0,-334.0,-953.0,-414.0,499.0,640.0,-417.0,297.0
19:50:18.299000,-744.0,-1838.0,-348.0,-969.0,-455.0,566.0,640.0,-417.0,297.0
19:50:18.306000,-555.0,-1717.0,-340.0,-1064.0,-589.0,557.0,654.0,-420.0,280.0
19:50:18.308000,-365.0,-1628.0,-331.0,-1064.0,-589.0,557.0,654.0,-420.0,280.0
19:50:18.312000,-365.0,-1628.0,-331.0,-1090.0,-648.0,601.0,654.0,-420.0,280.0
19:50:18.318000,-35.0,-1397.0,-299.0,-1119.0,-621.0,582.0,642.0,-414.0,277.0
19:50:18.322000,135.0,-1293.0,-208.0,-1184.0,-597.0,578.0,642.0,-414.0,277.0
19:50:18.327000,135.0,-1293.0,-208.0,-1228.0,-672.0,624.0,646.0,-408.0,268.0
19:50:18.332000,244.0,-1169.0,-4.0,-1270.0,-750.0,604.0,646.0,-408.0,268.0
19:50:18.336000,407.0,-1014.0,60.0,-1309.0,-799.0,561.0,646.0,-408.0,268.0
19:50:18.341000,595.0,-819.0,25.0,-1285.0,-858.0,557.0,663.0,-414.0,258.0
19:50:18.346000,828.0,-629.0,32.0,-1273.0,-907.0,568.0,663.0,-414.0,258.0
19:50:18.351000,1078.0,-476.0,37.0,-1318.0,-950.0,592.0,645.0,-421.0,255.0
19:50:18.355000,1322.0,-357.0,-6.0,-1368.0,-959.0,575.0,645.0,-421.0,255.0
19:50:18.359000,1509.0,-126.0,-114.0,-1421.0,-902.0,522.0,645.0,-421.0,255.0
19:50:18.365000,1647.0,157.0,-274.0,-1433.0,-794.0,546.0,655.0,-417.0,247.0
19:50:18.369000,1753.0,408.0,-290.0,-1440.0,-602.0,572.0,655.0,-417.0,247.0
19:50:18.374000,1934.0,606.0,-288.0,-1521.0,-343.0,618.0,658.0,-414.0,256.0
19:50:18.379000,2124.0,700.0,-494.0,-1561.0,-147.0,670.0,658.0,-414.0,256.0
19:50:18.383000,2268.0,810.0,-785.0,-1523.0,-126.0,644.0,658.0,-414.0,256.0
19:50:18.388000,2306.0,1005.0,-1070.0,-1490.0,-225.0,686.0,654.0,-411.0,258.0
19:50:18.393000,2230.0,1158.0,-1447.0,-1490.0,-225.0,686.0,654.0,-411.0,258.0
19:50:18.398000,2105.0,1285.0,-1849.0,-1457.0,-377.0,781.0,633.0,-397.0,274.0
19:50:18.402000,2006.0,1329.0,-2146.0,-1381.0,-548.0,851.0,633.0,-397.0,274.0
19:50:18.406000,1962.0,1357.0,-2334.0,-1298.0,-601.0,874.0,633.0,-397.0,274.0
19:50:18.412000,1948.0,1467.0,-2431.0,-1223.0,-567.0,813.0,648.0,-361.0,285.0
19:50:18.416000,1968.0,1581.0,-2564.0,-1135.0,-484.0,741.0,648.0,-361.0,285.0
19:50:18.421000,1966.0,1663.0,-2563.0,-1098.0,-575.0,744.0,645.0,-346.0,300.0
19:50:18.426000,2030.0,1784.0,-2522.0,-1158.0,-879.0,719.0,645.0,-346.0,300.0
19:50:18.430000,2030.0,1784.0,-2522.0,-1210.0,-848.0,703.0,645.0,-346.0,300.0
19:50:18.435000,2069.0,3717.0,1186.0,-557.0,-1281.0,228.0,648.0,-330.0,316.0
19:50:18.440000,2069.0,3717.0,1186.0,-593.0,-2777.0,-55.0,648.0,-330.0,316.0
19:50:18.445000,2305.0,4759.0,6465.0,-2581.0,-2228.0,756.0,643.0,-328.0,331.0
19:50:18.449000,2465.0,4248.0,4137.0,-3735.0,103.0,1300.0,643.0,-328.0,331.0
19:50:18.453000,2647.0,3787.0,227.0,-2736.0,842.0,1189.0,643.0,-328.0,331.0
19:50:18.459000,2779.0,3739.0,-1638.0,-1085.0,524.0,1080.0,636.0,-363.0,354.0
19:50:18.463000,3071.0,3670.0,-1466.0,-59.0,349.0,1084.0,636.0,-363.0,354.0
19:50:18.468000,3406.0,3335.0,-871.0,0.0,305.0,1093.0,631.0,-349.0,378.0
19:50:18.473000,3252.0,3225.0,-809.0,-261.0,220.0,950.0,631.0,-349.0,378.0
19:50:18.477000,2923.0,3327.0,-1068.0,-393.0,67.0,815.0,631.0,-349.0,378.0
19:50:18.482000,2784.0,3251.0,-1213.0,-454.0,-150.0,707.0,612.0,-322.0,388.0
19:50:18.487000,2706.0,3222.0,-1192.0,-586.0,-318.0,676.0,612.0,-322.0,388.0
19:50:18.492000,2562.0,3048.0,-1230.0,-586.0,-318.0,676.0,597.0,-298.0,423.0
19:50:18.496000,2357.0,2884.0,-1285.0,-711.0,-292.0,662.0,597.0,-298.0,423.0
19:50:18.500000,2136.0,2786.0,-1219.0,-711.0,-292.0,662.0,597.0,-298.0,423.0
19:50:18.506000,1958.0,2715.0,-1092.0,-712.0,-240.0,580.0,583.0,-280.0,436.0
19:50:18.510000,1835.0,2643.0,-1067.0,-768.0,-197.0,451.0,583.0,-280.0,436.0
19:50:18.514000,1755.0,2576.0,-1130.0,-869.0,-170.0,221.0,570.0,-262.0,450.0
19:50:18.520000,1654.0,2494.0,-1162.0,-869.0,-170.0,221.0,570.0,-262.0,450.0
19:50:18.524000,1533.0,2442.0,-1119.0,-827.0,-152.0,190.0,570.0,-262.0,450.0
19:50:18.529000,1397.0,2413.0,-1057.0,-790.0,-141.0,132.0,553.0,-250.0,451.0
19:50:18.534000,1299.0,2335.0,-994.0,-771.0,-113.0,89.0,553.0,-250.0,451.0
19:50:18.539000,1257.0,2246.0,-938.0,-749.0,-95.0,34.0,540.0,-244.0,465.0
19:50:18.543000,1180.0,2123.0,-951.0,-753.0,-112.0,-12.0,540.0,-244.0,465.0
19:50:18.547000,1180.0,2123.0,-951.0,-753.0,-91.0,-12.0,540.0,-244.0,465.0
19:50:18.553000,1029.0,1999.0,-1026.0,-702.0,-2.0,-29.0,528.0,-225.0,459.0
19:50:18.557000,894.0,1857.0,-1099.0,-598.0,61.0,-74.0,528.0,-225.0,459.0
19:50:18.561000,781.0,1722.0,-1131.0,-494.0,48.0,-112.0,508.0,-211.0,484.0
19:50:18.567000,681.0,1605.0,-1092.0,-454.0,-9.0,-167.0,508.0,-211.0,484.0
19:50:18.571000,610.0,1488.0,-1027.0,-476.0,-58.0,-209.0,508.0,-211.0,484.0
19:50:18.576000,544.0,1347.0,-972.0,-510.0,-66.0,-223.0,495.0,-208.0,484.0
19:50:18.581000,447.0,1199.0,-914.0,-491.0,-59.0,-229.0,495.0,-208.0,484.0
19:50:18.585000,324.0,1019.0,-812.0,-455.0,-36.0,-251.0,496.0,-204.0,486.0
19:50:18.590000,205.0,853.0,-697.0,-460.0,6.0,-279.0,496.0,-204.0,486.0
19:50:18.594000,85.0,683.0,-642.0,-508.0,78.0,-303.0,496.0,-204.0,486.0
19:50:18.600000,-30.0,529.0,-669.0,-559.0,181.0,-322.0,483.0,-195.0,487.0
19:50:18.604000,-168.0,373.0,-743.0,-563.0,273.0,-334.0,483.0,-195.0,487.0
19:50:18.609000,-302.0,216.0,-798.0,-563.0,273.0,-334.0,478.0,-196.0,501.0
19:50:18.614000,-441.0,56.0,-798.0,-543.0,305.0,-345.0,478.0,-196.0,501.0
19:50:18.618000,-608.0,-103.0,-788.0,-519.0,316.0,-337.0,475.0,-192.0,495.0
19:50:18.623000,-807.0,-308.0,-758.0,-479.0,353.0,-294.0,475.0,-192.0,495.0
19:50:18.627000,-1008.0,-494.0,-700.0,-408.0,401.0,-262.0,475.0,-192.0,495.0
19:50:18.632000,-1219.0,-675.0,-646.0,-382.0,453.0,-247.0,475.0,-193.0,498.0
19:50:18.637000,-1476.0,-847.0,-602.0,-425.0,522.0,-207.0,475.0,-193.0,498.0
19:50:18.642000,-1730.0,-976.0,-566.0,-431.0,626.0,-189.0,480.0,-198.0,502.0
19:50:18.647000,-2023.0,-1120.0,-539.0,-427.0,702.0,-161.0,480.0,-198.0,502.0
19:50:18.651000,-2023.0,-1120.0,-539.0,-428.0,734.0,-106.0,480.0,-198.0,502.0
19:50:18.656000,-2287.0,-1295.0,-500.0,-448.0,716.0,-86.0,475.0,-202.0,499.0
19:50:18.661000,-2535.0,-1430.0,-509.0,-492.0,679.0,-102.0,475.0,-202.0,499.0
19:50:18.665000,-2717.0,-1560.0,-672.0,-479.0,648.0,-102.0,484.0,-219.0,514.0
19:50:18.670000,-2884.0,-1696.0,-802.0,-460.0,647.0,-77.0,484.0,-219.0,514.0
19:50:18.674000,-3127.0,-1795.0,-851.0,-476.0,624.0,-52.0,484.0,-219.0,514.0
19:50:18.679000,-3369.0,-1915.0,-835.0,-776.0,660.0,39.0,487.0,-234.0,507.0
19:50:18.684000,-3641.0,-2002.0,-757.0,-1319.0,838.0,166.0,487.0,-234.0,507.0
19:50:18.688000,-3793.0,-2058.0,-844.0,-1619.0,879.0,237.0,499.0,-246.0,514.0
19:50:18.694000,-3908.0,-2063.0,-1052.0,-1600.0,609.0,317.0,499.0,-246.0,514.0
19:50:18.698000,-4034.0,-2149.0,-1151.0,-1272.0,247.0,453.0,499.0,-246.0,514.0
19:50:18.703000,-4185.0,-2319.0,-968.0,-815.0,-23.0,547.0,496.0,-261.0,513.0
19:50:18.708000,-4410.0,-2405.0,-669.0,-599.0,-73.0,612.0,496.0,-261.0,513.0
19:50:18.712000,-4668.0,-2500.0,-483.0,-599.0,-73.0,612.0,537.0,-301.0,510.0
19:50:18.717000,-4879.0,-2570.0,-450.0,-645.0,132.0,686.0,537.0,-301.0,510.0
19:50:18.721000,-5107.0,-2584.0,-501.0,-839.0,132.0,744.0,537.0,-301.0,510.0
19:50:18.726000,-5247.0,-2683.0,-531.0,-976.0,217.0,825.0,549.0,-324.0,492.0
19:50:18.731000,-5399.0,-2772.0,-590.0,-1019.0,46.0,917.0,549.0,-324.0,492.0
19:50:18.736000,-5572.0,-2768.0,-672.0,-1019.0,46.0,917.0,550.0,-349.0,499.0
19:50:18.741000,-5613.0,-2858.0,-689.0,-1007.0,143.0,973.0,550.0,-349.0,499.0
19:50:18.745000,-5691.0,-2933.0,-703.0,-1082.0,114.0,1071.0,550.0,-349.0,499.0
19:50:18.750000,-5877.0,-2879.0,-726.0,-1207.0,61.0,1103.0,574.0,-379.0,471.0
19:50:18.755000,-6020.0,-2888.0,-847.0,-1223.0,135.0,1177.0,574.0,-379.0,471.0
19:50:18.759000,-6028.0,-3007.0,-1054.0,-1147.0,163.0,1294.0,592.0,-393.0,463.0
19:50:18.764000,-6028.0,-3007.0,-1054.0,-1056.0,148.0,1371.0,592.0,-393.0,463.0
19:50:18.768000,-6016.0,-3101.0,-1135.0,-975.0,162.0,1435.0,592.0,-393.0,463.0
19:50:18.773000,-6050.0,-3135.0,-1146.0,-960.0,3.0,1495.0,618.0,-432.0,435.0
19:50:18.778000,-6119.0,-3139.0,-1080.0,-1096.0,-163.0,1517.0,618.0,-432.0,435.0
19:50:18.783000,-6145.0,-3117.0,-1065.0,-1237.0,-222.0,1510.0,631.0,-445.0,390.0
19:50:18.788000,-6157.0,-3109.0,-1118.0,-1218.0,-239.0,1469.0,631.0,-445.0,390.0
19:50:18.792000,-6143.0,-3052.0,-1073.0,-1168.0,-186.0,1456.0,631.0,-445.0,390.0
19:50:18.797000,-6043.0,-3046.0,-1013.0,-1184.0,-132.0,1463.0,642.0,-448.0,370.0
19:50:18.802000,-5954.0,-2992.0,-1054.0,-1193.0,-69.0,1468.0,642.0,-448.0,370.0
19:50:18.806000,-5925.0,-2962.0,-1133.0,-1176.0,77.0,1535.0,655.0,-475.0,337.0
19:50:18.811000,-5826.0,-3000.0,-1231.0,-1123.0,90.0,1553.0,655.0,-475.0,337.0
19:50:18.815000,-5761.0,-2994.0,-1341.0,-1051.0,-38.0,1538.0,655.0,-475.0,337.0
19:50:18.820000,-5693.0,-3000.0,-1355.0,-996.0,-82.0,1545.0,651.0,-474.0,318.0
19:50:18.825000,-5581.0,-3014.0,-1245.0,-999.0,-116.0,1498.0,651.0,-474.0,318.0
19:50:18.830000,-5491.0,-2949.0,-1084.0,-999.0,-116.0,1498.0,666.0,-475.0,280.0
19:50:18.835000,-5407.0,-2894.0,-925.0,-1073.0,-59.0,1451.0,666.0,-475.0,280.0
19:50:18.839000,-5313.0,-2857.0,-777.0,-1138.0,4.0,1442.0,666.0,-475.0,280.0
19:50:18.844000,-5236.0,-2823.0,-686.0,-1161.0,-40.0,1422.0,673.0,-463.0,250.0
19:50:18.849000,-5154.0,-2768.0,-651.0,-1148.0,-47.0,1386.0,673.0,-463.0,250.0
19:50:18.853000,-5033.0,-2713.0,-653.0,-1109.0,36.0,1342.0,679.0,-460.0,217.0
19:50:18.858000,-4888.0,-2636.0,-627.0,-1073.0,49.0,1293.0,679.0,-460.0,217.0
19:50:18.862000,-4888.0,-2636.0,-627.0,-1052.0,-16.0,1253.0,679.0,-460.0,217.0
19:50:18.867000,-4776.0,-2571.0,-531.0,-1030.0,-73.0,1230.0,676.0,-465.0,174.0
19:50:18.872000,-4475.0,-2443.0,-272.0,-1007.0,-95.0,1168.0,676.0,-465.0,174.0
19:50:18.877000,-4475.0,-2443.0,-272.0,-1031.0,-82.0,1108.0,679.0,-457.0,145.0
19:50:18.882000,-4309.0,-2373.0,-234.0,-1049.0,-61.0,1062.0,679.0,-457.0,145.0
19:50:18.886000,-4130.0,-2310.0,-220.0,-1012.0,-39.0,1008.0,679.0,-457.0,145.0
19:50:18.891000,-3966.0,-2246.0,-189.0,-949.0,0.0,968.0,687.0,-441.0,121.0
19:50:18.914000,-3455.0,-1857.0,272.0,-840.0,236.0,775.0,663.0,-423.0,85.0
19:50:18.919000,-3406.0,-1766.0,325.0,-857.0,318.0,745.0,663.0,-423.0,85.0
19:50:18.924000,-3364.0,-1680.0,353.0,-863.0,386.0,708.0,663.0,-423.0,85.0
19:50:18.929000,-3315.0,-1579.0,383.0,-864.0,406.0,670.0,663.0,-423.0,85.0
19:50:18.933000,-3284.0,-1484.0,436.0,-864.0,406.0,670.0,675.0,-418.0,60.0
19:50:18.938000,-3235.0,-1384.0,499.0,-867.0,382.0,640.0,675.0,-418.0,60.0
19:50:18.942000,-3164.0,-1282.0,562.0,-874.0,341.0,592.0,675.0,-418.0,60.0
19:50:18.947000,-3098.0,-1192.0,613.0,-871.0,291.0,554.0,661.0,-405.0,43.0
19:50:18.952000,-3026.0,-1095.0,618.0,-854.0,250.0,522.0,661.0,-405.0,43.0
19:50:18.957000,-2935.0,-1010.0,591.0,-763.0,343.0,474.0,663.0,-408.0,36.0
19:50:18.961000,-2832.0,-956.0,666.0,-696.0,362.0,453.0,663.0,-408.0,36.0
19:50:18.966000,-2772.0,-887.0,728.0,-724.0,305.0,438.0,663.0,-408.0,36.0
19:50:18.971000,-2662.0,-802.0,688.0,-741.0,363.0,390.0,657.0,-394.0,30.0
19:50:18.976000,-2531.0,-735.0,607.0,-746.0,400.0,348.0,657.0,-394.0,30.0
19:50:18.980000,-2432.0,-673.0,581.0,-739.0,369.0,326.0,654.0,-385.0,19.0
19:50:18.985000,-2432.0,-673.0,581.0,-724.0,329.0,315.0,654.0,-385.0,19.0
19:50:18.989000,-2330.0,-640.0,598.0,-720.0,340.0,293.0,654.0,-385.0,19.0
19:50:18.994000,-2244.0,-597.0,630.0,-720.0,416.0,260.0,652.0,-381.0,18.0
19:50:18.998000,-2181.0,-546.0,595.0,-711.0,524.0,236.0,652.0,-381.0,18.0
19:50:19.004000,-2104.0,-513.0,558.0,-687.0,566.0,223.0,652.0,-375.0,7.0
19:50:19.008000,-2048.0,-495.0,571.0,-635.0,516.0,217.0,652.0,-375.0,7.0
19:50:19.013000,-2041.0,-458.0,696.0,-625.0,479.0,193.0,645.0,-378.0,16.0
19:50:19.018000,-1975.0,-432.0,763.0,-689.0,487.0,165.0,645.0,-378.0,16.0
19:50:19.022000,-1902.0,-403.0,723.0,-712.0,492.0,133.0,645.0,-378.0,16.0
19:50:19.027000,-1815.0,-398.0,639.0,-682.0,473.0,118.0,649.0,-366.0,4.0
19:50:19.032000,-1770.0,-394.0,613.0,-626.0,442.0,100.0,649.0,-366.0,4.0
19:50:19.037000,-1710.0,-371.0,652.0,-626.0,442.0,100.0,648.0,-360.0,0.0
19:50:19.041000,-1636.0,-358.0,654.0,-629.0,440.0,46.0,648.0,-360.0,0.0
19:50:19.045000,-1605.0,-350.0,658.0,-627.0,434.0,43.0,648.0,-360.0,0.0
19:50:19.051000,-1564.0,-349.0,689.0,-627.0,434.0,43.0,642.0,-358.0,6.0
19:50:19.055000,-1536.0,-331.0,715.0,-644.0,462.0,19.0,642.0,-358.0,6.0
19:50:19.060000,-1505.0,-334.0,725.0,-670.0,503.0,12.0,651.0,-354.0,-1.0
19:50:19.065000,-1454.0,-324.0,695.0,-698.0,540.0,-1.0,651.0,-354.0,-1.0
19:50:19.069000,-1409.0,-319.0,679.0,-725.0,533.0,-17.0,651.0,-354.0,-1.0
19:50:19.074000,-1388.0,-296.0,693.0,-725.0,487.0,-29.0,646.0,-355.0,0.0
19:50:19.079000,-1372.0,-280.0,695.0,-712.0,470.0,-44.0,646.0,-355.0,0.0
19:50:19.084000,-1336.0,-276.0,677.0,-715.0,477.0,-44.0,652.0,-357.0,-4.0
19:50:19.088000,-1290.0,-270.0,667.0,-713.0,471.0,-62.0,652.0,-357.0,-4.0
19:50:19.096000,-1249.0,-257.0,669.0,-686.0,462.0,-89.0,652.0,-351.0,-4.0
19:50:19.098000,-1249.0,-257.0,669.0,-686.0,462.0,-89.0,652.0,-351.0,-4.0
19:50:19.102000,-1213.0,-254.0,641.0,-703.0,464.0,-93.0,652.0,-351.0,-4.0
19:50:19.107000,-1190.0,-247.0,621.0,-691.0,461.0,-92.0,625.0,-360.0,-9.0
19:50:19.112000,-1180.0,-249.0,628.0,-686.0,451.0,-97.0,625.0,-360.0,-9.0
19:50:19.117000,-1169.0,-252.0,647.0,-693.0,457.0,-111.0,643.0,-357.0,-13.0
19:50:19.121000,-1176.0,-243.0,641.0,-695.0,470.0,-120.0,643.0,-357.0,-13.0
19:50:19.125000,-1178.0,-247.0,618.0,-685.0,457.0,-131.0,643.0,-357.0,-13.0
19:50:19.131000,-1160.0,-249.0,590.0,-672.0,425.0,-145.0,642.0,-348.0,-1.0
19:50:19.135000,-1141.0,-253.0,560.0,-672.0,399.0,-152.0,642.0,-348.0,-1.0
19:50:19.140000,-1114.0,-267.0,524.0,-672.0,386.0,-158.0,633.0,-348.0,12.0
19:50:19.145000,-1103.0,-268.0,504.0,-672.0,369.0,-166.0,633.0,-348.0,12.0
19:50:19.149000,-1085.0,-279.0,492.0,-694.0,367.0,-182.0,633.0,-348.0,12.0
19:50:19.154000,-1066.0,-278.0,462.0,-694.0,372.0,-213.0,651.0,-339.0,-13.0
19:50:19.159000,-1035.0,-289.0,427.0,-725.0,372.0,-189.0,651.0,-339.0,-13.0
19:50:19.164000,-1003.0,-295.0,396.0,-745.0,355.0,-193.0,640.0,-349.0,-21.0
19:50:19.168000,-984.0,-311.0,389.0,-726.0,328.0,-197.0,640.0,-349.0,-21.0
19:50:19.172000,-960.0,-329.0,371.0,-706.0,307.0,-192.0,640.0,-349.0,-21.0
19:50:19.178000,-946.0,-354.0,331.0,-702.0,312.0,-191.0,643.0,-348.0,-7.0
19:50:19.182000,-938.0,-385.0,284.0,-691.0,337.0,-187.0,643.0,-348.0,-7.0
19:50:19.187000,-924.0,-421.0,261.0,-661.0,358.0,-181.0,642.0,-343.0,-4.0
19:50:19.192000,-898.0,-450.0,239.0,-640.0,365.0,-182.0,642.0,-343.0,-4.0
19:50:19.196000,-898.0,-450.0,239.0,-653.0,359.0,-183.0,642.0,-343.0,-4.0
19:50:19.201000,-889.0,-476.0,215.0,-684.0,346.0,-173.0,643.0,-339.0,-19.0
19:50:19.206000,-882.0,-500.0,211.0,-709.0,333.0,-166.0,643.0,-339.0,-19.0
19:50:19.211000,-872.0,-525.0,216.0,-738.0,339.0,-167.0,637.0,-334.0,-19.0
19:50:19.215000,-844.0,-540.0,189.0,-770.0,358.0,-173.0,637.0,-334.0,-19.0
19:50:19.219000,-805.0,-551.0,133.0,-785.0,359.0,-165.0,637.0,-334.0,-19.0
19:50:19.225000,-777.0,-565.0,91.0,-777.0,338.0,-155.0,640.0,-334.0,-25.0
19:50:19.229000,-751.0,-578.0,78.0,-754.0,310.0,-156.0,640.0,-334.0,-25.0
19:50:19.234000,-717.0,-585.0,74.0,-751.0,294.0,-161.0,624.0,-334.0,-12.0
19:50:19.239000,-678.0,-591.0,67.0,-773.0,293.0,-163.0,624.0,-334.0,-12.0
19:50:19.243000,-653.0,-587.0,64.0,-801.0,309.0,-164.0,624.0,-334.0,-12.0
19:50:19.248000,-632.0,-581.0,63.0,-823.0,342.0,-163.0,630.0,-325.0,-33.0
19:50:19.253000,-611.0,-578.0,56.0,-843.0,383.0,-157.0,630.0,-325.0,-33.0
19:50:19.258000,-596.0,-574.0,23.0,-843.0,383.0,-157.0,631.0,-325.0,-33.0
19:50:19.262000,-580.0,-574.0,-15.0,-828.0,412.0,-137.0,631.0,-325.0,-33.0
19:50:19.266000,-568.0,-575.0,-38.0,-786.0,404.0,-126.0,631.0,-325.0,-33.0
19:50:19.272000,-555.0,-583.0,-71.0,-786.0,404.0,-126.0,633.0,-316.0,-25.0
19:50:19.276000,-542.0,-599.0,-114.0,-755.0,403.0,-113.0,633.0,-316.0,-25.0
19:50:19.281000,-528.0,-613.0,-137.0,-724.0,388.0,-97.0,615.0,-316.0,-42.0
19:50:19.286000,-506.0,-633.0,-158.0,-694.0,367.0,-89.0,615.0,-316.0,-42.0
19:50:19.290000,-484.0,-658.0,-153.0,-672.0,347.0,-78.0,615.0,-316.0,-42.0
19:50:19.295000,-462.0,-673.0,-149.0,-674.0,337.0,-69.0,627.0,-309.0,-48.0
19:50:19.300000,-447.0,-688.0,-157.0,-704.0,363.0,-62.0,627.0,-309.0,-48.0
19:50:19.305000,-455.0,-686.0,-151.0,-726.0,385.0,-53.0,622.0,-315.0,-43.0
19:50:19.309000,-462.0,-679.0,-147.0,-745.0,403.0,-49.0,622.0,-315.0,-43.0
19:50:19.313000,-462.0,-679.0,-147.0,-770.0,426.0,-47.0,622.0,-315.0,-43.0
19:50:19.319000,-441.0,-672.0,-154.0,-788.0,411.0,-54.0,618.0,-300.0,-51.0
19:50:19.323000,-407.0,-658.0,-165.0,-797.0,388.0,-56.0,618.0,-300.0,-51.0
19:50:19.328000,-361.0,-651.0,-224.0,-790.0,382.0,-54.0,610.0,-301.0,-54.0
19:50:19.333000,-308.0,-646.0,-290.0,-766.0,376.0,-47.0,610.0,-301.0,-54.0
19:50:19.337000,-276.0,-641.0,-331.0,-741.0,375.0,-33.0,610.0,-301.0,-54.0
19:50:19.342000,-273.0,-630.0,-330.0,-725.0,362.0,-16.0,598.0,-289.0,-61.0
19:50:19.347000,-302.0,-620.0,-250.0,-734.0,350.0,-9.0,598.0,-289.0,-61.0
19:50:19.352000,-336.0,-601.0,-135.0,-767.0,364.0,-14.0,607.0,-288.0,-69.0
19:50:19.356000,-359.0,-576.0,-79.0,-809.0,415.0,-15.0,607.0,-288.0,-69.0
19:50:19.360000,-352.0,-564.0,-138.0,-811.0,461.0,-24.0,607.0,-288.0,-69.0
19:50:19.366000,-300.0,-555.0,-205.0,-766.0,427.0,-32.0,589.0,-283.0,-52.0
19:50:19.370000,-244.0,-543.0,-200.0,-741.0,368.0,-26.0,589.0,-283.0,-52.0
19:50:19.375000,-205.0,-520.0,-191.0,-741.0,368.0,-26.0,586.0,-282.0,-72.0
19:50:19.380000,-164.0,-497.0,-210.0,-755.0,363.0,-17.0,586.0,-282.0,-72.0
19:50:19.384000,-135.0,-480.0,-237.0,-773.0,387.0,-3.0,586.0,-282.0,-72.0
19:50:19.389000,-106.0,-466.0,-258.0,-761.0,411.0,12.0,592.0,-273.0,-72.0
19:50:19.394000,-80.0,-470.0,-259.0,-714.0,410.0,27.0,592.0,-273.0,-72.0
19:50:19.399000,-68.0,-480.0,-232.0,-659.0,392.0,47.0,591.0,-279.0,-63.0
19:50:19.403000,-61.0,-480.0,-213.0,-640.0,403.0,59.0,591.0,-279.0,-63.0
19:50:19.407000,-61.0,-480.0,-213.0,-663.0,448.0,58.0,591.0,-279.0,-63.0
19:50:19.413000,-24.0,-460.0,-234.0,-687.0,476.0,55.0,577.0,-270.0,-84.0
19:50:19.417000,-1.0,-438.0,-217.0,-701.0,470.0,53.0,577.0,-270.0,-84.0
19:50:19.422000,-1.0,-438.0,-217.0,-723.0,456.0,52.0,586.0,-276.0,-90.0
19:50:19.427000,28.0,-410.0,-193.0,-744.0,446.0,57.0,586.0,-276.0,-90.0
19:50:19.431000,57.0,-385.0,-175.0,-739.0,443.0,65.0,586.0,-276.0,-90.0
19:50:19.436000,88.0,-361.0,-158.0,-712.0,440.0,73.0,594.0,-277.0,-91.0
19:50:19.441000,112.0,-339.0,-140.0,-685.0,450.0,83.0,594.0,-277.0,-91.0
19:50:19.446000,137.0,-328.0,-120.0,-676.0,478.0,92.0,574.0,-271.0,-82.0
19:50:19.450000,160.0,-317.0,-109.0,-687.0,508.0,99.0,574.0,-271.0,-82.0
19:50:19.454000,170.0,-301.0,-103.0,-708.0,528.0,106.0,574.0,-271.0,-82.0
19:50:19.460000,178.0,-281.0,-91.0,-732.0,530.0,108.0,561.0,-270.0,-90.0
19:50:19.464000,191.0,-252.0,-79.0,-755.0,513.0,102.0,561.0,-270.0,-90.0
19:50:19.469000,214.0,-214.0,-65.0,-768.0,480.0,102.0,576.0,-274.0,-96.0
19:50:19.474000,242.0,-177.0,-43.0,-765.0,448.0,107.0,576.0,-274.0,-96.0
19:50:19.478000,277.0,-142.0,-13.0,-757.0,437.0,112.0,576.0,-274.0,-96.0
19:50:19.483000,324.0,-114.0,12.0,-757.0,437.0,112.0,577.0,-273.0,-111.0
19:50:19.487000,373.0,-81.0,30.0,-763.0,442.0,118.0,577.0,-273.0,-111.0
19:50:19.493000,422.0,-48.0,42.0,-763.0,442.0,118.0,570.0,-270.0,-79.0
19:50:19.497000,478.0,-18.0,44.0,-773.0,451.0,124.0,570.0,-270.0,-79.0
19:50:19.502000,532.0,15.0,49.0,-779.0,456.0,128.0,571.0,-274.0,-103.0
19:50:19.507000,574.0,49.0,80.0,-776.0,444.0,136.0,571.0,-274.0,-103.0
19:50:19.511000,618.0,91.0,119.0,-780.0,432.0,142.0,571.0,-274.0,-103.0
19:50:19.516000,676.0,128.0,140.0,-797.0,436.0,142.0,570.0,-286.0,-97.0
19:50:19.521000,740.0,171.0,151.0,-810.0,435.0,141.0,570.0,-286.0,-97.0
19:50:19.525000,799.0,218.0,166.0,-809.0,413.0,140.0,567.0,-295.0,-105.0
19:50:19.530000,799.0,218.0,166.0,-806.0,394.0,145.0,567.0,-295.0,-105.0
19:50:19.534000,860.0,267.0,189.0,-813.0,397.0,151.0,567.0,-295.0,-105.0
19:50:19.540000,924.0,311.0,205.0,-824.0,409.0,159.0,580.0,-289.0,-103.0
19:50:19.544000,985.0,355.0,223.0,-834.0,419.0,165.0,580.0,-289.0,-103.0
19:50:19.549000,1045.0,406.0,233.0,-851.0,426.0,172.0,586.0,-294.0,-96.0
19:50:19.554000,1106.0,456.0,240.0,-864.0,424.0,181.0,586.0,-294.0,-96.0
19:50:19.558000,1168.0,511.0,245.0,-863.0,409.0,190.0,586.0,-294.0,-96.0
19:50:19.562000,1228.0,567.0,253.0,-854.0,387.0,196.0,580.0,-321.0,-102.0
19:50:19.568000,1287.0,622.0,265.0,-847.0,369.0,198.0,580.0,-321.0,-102.0
19:50:19.572000,1356.0,673.0,275.0,-849.0,357.0,202.0,595.0,-325.0,-103.0
19:50:19.577000,1429.0,724.0,283.0,-863.0,348.0,209.0,595.0,-325.0,-103.0
19:50:19.581000,1497.0,777.0,295.0,-890.0,347.0,215.0,604.0,-333.0,-96.0
19:50:19.587000,1567.0,835.0,301.0,-922.0,352.0,220.0,604.0,-333.0,-96.0
19:50:19.591000,1642.0,895.0,291.0,-922.0,345.0,230.0,604.0,-333.0,-96.0
19:50:19.596000,1718.0,951.0,279.0,-938.0,345.0,230.0,603.0,-339.0,-96.0
19:50:19.601000,1797.0,999.0,277.0,-925.0,313.0,245.0,603.0,-339.0,-96.0
19:50:19.605000,1892.0,1044.0,284.0,-897.0,268.0,256.0,606.0,-352.0,-90.0
19:50:19.610000,1999.0,1085.0,284.0,-878.0,227.0,263.0,606.0,-352.0,-90.0
19:50:19.614000,2116.0,1119.0,270.0,-871.0,194.0,274.0,606.0,-352.0,-90.0
19:50:19.619000,2235.0,1154.0,263.0,-863.0,163.0,286.0,612.0,-364.0,-78.0
19:50:19.624000,2352.0,1189.0,270.0,-858.0,138.0,294.0,612.0,-364.0,-78.0
