hh:mm:ss.ms,gyroX[mdps],gyroY[mdps],gyroZ[mdps],accX[mg],accY[mg],accZ[mg],magX[mG],magY[mG],magZ[mG]
19:49:34.277000,-186.0,-144.0,-123.0,-695.0,156.0,-7.0,705.0,-558.0,369.0
19:49:34.281000,-187.0,-173.0,-94.0,-710.0,149.0,-14.0,705.0,-558.0,369.0
19:49:34.285000,-193.0,-193.0,-73.0,-756.0,183.0,-28.0,705.0,-558.0,369.0
19:49:34.291000,-206.0,-200.0,-81.0,-808.0,226.0,-43.0,720.0,-547.0,357.0
19:49:34.295000,-222.0,-200.0,-115.0,-835.0,237.0,-55.0,720.0,-547.0,357.0
19:49:34.300000,-234.0,-198.0,-149.0,-834.0,202.0,-64.0,714.0,-546.0,348.0
19:49:34.305000,-235.0,-196.0,-163.0,-825.0,149.0,-71.0,714.0,-546.0,348.0
19:49:34.309000,-221.0,-196.0,-167.0,-828.0,117.0,-77.0,714.0,-546.0,348.0
19:49:34.314000,-199.0,-193.0,-169.0,-840.0,113.0,-81.0,712.0,-555.0,340.0
19:49:34.318000,-175.0,-191.0,-175.0,-848.0,127.0,-81.0,712.0,-555.0,340.0
19:49:34.324000,-153.0,-190.0,-186.0,-848.0,127.0,-81.0,709.0,-546.0,355.0
19:49:34.328000,-136.0,-191.0,-202.0,-849.0,153.0,-78.0,709.0,-546.0,355.0
19:49:34.332000,-126.0,-189.0,-216.0,-851.0,188.0,-78.0,709.0,-546.0,355.0
19:49:34.338000,-125.0,-181.0,-218.0,-866.0,221.0,-87.0,724.0,-535.0,342.0
19:49:34.342000,-133.0,-159.0,-213.0,-900.0,253.0,-112.0,724.0,-535.0,342.0
19:49:34.347000,-152.0,-126.0,-210.0,-957.0,291.0,-147.0,727.0,-541.0,342.0
19:49:34.352000,-168.0,-84.0,-206.0,-1019.0,315.0,-184.0,727.0,-541.0,342.0
19:49:34.356000,-170.0,-35.0,-193.0,-1065.0,299.0,-222.0,727.0,-541.0,342.0
19:49:34.361000,-148.0,11.0,-172.0,-1095.0,255.0,-262.0,724.0,-534.0,343.0
19:49:34.366000,-104.0,54.0,-142.0,-1113.0,207.0,-300.0,724.0,-534.0,343.0
19:49:34.371000,-49.0,87.0,-99.0,-1130.0,179.0,-328.0,708.0,-532.0,349.0
19:49:34.375000,-49.0,87.0,-99.0,-1148.0,188.0,-342.0,708.0,-532.0,349.0
19:49:34.379000,8.0,109.0,-55.0,-1159.0,223.0,-336.0,708.0,-532.0,349.0
19:49:34.385000,64.0,113.0,-19.0,-1146.0,257.0,-310.0,723.0,-532.0,348.0
19:49:34.389000,122.0,93.0,10.0,-1106.0,286.0,-268.0,723.0,-532.0,348.0
19:49:34.394000,177.0,48.0,42.0,-1055.0,322.0,-206.0,721.0,-526.0,351.0
19:49:34.399000,225.0,-25.0,78.0,-1005.0,376.0,-126.0,721.0,-526.0,351.0
19:49:34.403000,262.0,-120.0,107.0,-960.0,451.0,-40.0,721.0,-526.0,351.0
19:49:34.408000,284.0,-231.0,124.0,-937.0,538.0,39.0,724.0,-531.0,351.0
19:49:34.413000,287.0,-339.0,144.0,-969.0,619.0,113.0,724.0,-531.0,351.0
19:49:34.418000,268.0,-431.0,177.0,-1069.0,674.0,178.0,718.0,-519.0,346.0
19:49:34.422000,234.0,-492.0,213.0,-1199.0,669.0,230.0,718.0,-519.0,346.0
19:49:34.426000,203.0,-517.0,250.0,-1304.0,584.0,272.0,718.0,-519.0,346.0
19:49:34.432000,190.0,-502.0,293.0,-1361.0,456.0,300.0,718.0,-523.0,354.0
19:49:34.436000,200.0,-457.0,326.0,-1361.0,362.0,300.0,718.0,-523.0,354.0
19:49:34.441000,224.0,-388.0,340.0,-1386.0,352.0,319.0,724.0,-531.0,349.0
19:49:34.446000,248.0,-310.0,340.0,-1395.0,307.0,337.0,724.0,-531.0,349.0
19:49:34.450000,262.0,-230.0,333.0,-1377.0,333.0,357.0,724.0,-531.0,349.0
19:49:34.455000,266.0,-155.0,324.0,-1377.0,333.0,357.0,718.0,-528.0,339.0
19:49:34.460000,261.0,-96.0,316.0,-1343.0,365.0,349.0,718.0,-528.0,339.0
19:49:34.465000,246.0,-59.0,311.0,-1303.0,407.0,333.0,703.0,-526.0,339.0
19:49:34.469000,223.0,-44.0,315.0,-1267.0,460.0,304.0,703.0,-526.0,339.0
19:49:34.473000,223.0,-44.0,315.0,-1245.0,516.0,270.0,703.0,-526.0,339.0
19:49:34.479000,154.0,-67.0,333.0,-1233.0,554.0,237.0,717.0,-522.0,334.0
19:49:34.483000,154.0,-67.0,333.0,-1214.0,547.0,197.0,717.0,-522.0,334.0
19:49:34.488000,117.0,-93.0,346.0,-1177.0,482.0,154.0,705.0,-526.0,343.0
19:49:34.493000,77.0,-113.0,370.0,-1128.0,380.0,110.0,705.0,-526.0,343.0
19:49:34.500000,-7.0,-118.0,392.0,-963.0,92.0,40.0,717.0,-532.0,340.0
19:49:34.502000,-7.0,-118.0,392.0,-963.0,92.0,40.0,717.0,-532.0,340.0
19:49:34.506000,-42.0,-105.0,371.0,-821.0,-121.0,11.0,717.0,-532.0,340.0
19:49:34.512000,-57.0,-83.0,343.0,-664.0,-353.0,-16.0,706.0,-532.0,346.0
19:49:34.516000,-42.0,-56.0,317.0,-539.0,-523.0,-37.0,706.0,-532.0,346.0
19:49:34.521000,-8.0,-26.0,293.0,-478.0,-576.0,-49.0,715.0,-529.0,348.0
19:49:34.526000,28.0,-2.0,275.0,-495.0,-516.0,-57.0,715.0,-529.0,348.0
19:49:34.530000,54.0,14.0,265.0,-584.0,-393.0,-67.0,715.0,-529.0,348.0
19:49:34.535000,65.0,25.0,263.0,-722.0,-258.0,-81.0,705.0,-535.0,348.0
19:49:34.540000,67.0,32.0,270.0,-864.0,-152.0,-92.0,705.0,-535.0,348.0
19:49:34.544000,65.0,31.0,296.0,-972.0,-98.0,-98.0,694.0,-534.0,373.0
19:49:34.549000,63.0,18.0,351.0,-972.0,-98.0,-98.0,694.0,-534.0,373.0
19:49:34.553000,69.0,-6.0,443.0,-1031.0,-106.0,-99.0,694.0,-534.0,373.0
19:49:34.559000,85.0,-39.0,562.0,-1062.0,-158.0,-99.0,694.0,-540.0,343.0
19:49:34.563000,108.0,-77.0,677.0,-1089.0,-219.0,-103.0,694.0,-540.0,343.0
19:49:34.568000,135.0,-118.0,779.0,-1130.0,-266.0,-106.0,693.0,-537.0,345.0
19:49:34.573000,161.0,-157.0,872.0,-1194.0,-295.0,-111.0,693.0,-537.0,345.0
19:49:34.577000,187.0,-191.0,966.0,-1284.0,-324.0,-118.0,693.0,-537.0,345.0
19:49:34.582000,217.0,-205.0,1052.0,-1393.0,-368.0,-136.0,685.0,-537.0,352.0
19:49:34.587000,245.0,-198.0,1131.0,-1489.0,-434.0,-157.0,685.0,-537.0,352.0
19:49:34.592000,272.0,-179.0,1226.0,-1516.0,-530.0,-164.0,685.0,-549.0,357.0
19:49:34.596000,272.0,-179.0,1226.0,-1446.0,-633.0,-150.0,685.0,-549.0,357.0
19:49:34.600000,296.0,-175.0,1348.0,-1308.0,-660.0,-113.0,685.0,-549.0,357.0
19:49:34.606000,294.0,-193.0,1483.0,-1169.0,-555.0,-60.0,685.0,-558.0,351.0
19:49:34.610000,240.0,-229.0,1598.0,-1064.0,-392.0,1.0,685.0,-558.0,351.0
19:49:34.615000,143.0,-279.0,1679.0,-967.0,-320.0,76.0,670.0,-565.0,355.0
19:49:34.620000,39.0,-351.0,1729.0,-819.0,-428.0,134.0,670.0,-565.0,355.0
19:49:34.624000,-25.0,-435.0,1791.0,-642.0,-619.0,172.0,670.0,-565.0,355.0
19:49:34.629000,-33.0,-537.0,1907.0,-571.0,-671.0,225.0,658.0,-594.0,355.0
19:49:34.633000,-32.0,-644.0,2037.0,-680.0,-518.0,293.0,658.0,-594.0,355.0
19:49:34.639000,-74.0,-718.0,2132.0,-848.0,-383.0,350.0,643.0,-594.0,366.0
19:49:34.643000,-140.0,-753.0,2245.0,-894.0,-502.0,364.0,643.0,-594.0,366.0
19:49:34.647000,-186.0,-751.0,2451.0,-805.0,-785.0,343.0,643.0,-594.0,366.0
19:49:34.653000,-186.0,-725.0,2704.0,-685.0,-999.0,311.0,640.0,-621.0,342.0
19:49:34.657000,-149.0,-688.0,2898.0,-685.0,-999.0,311.0,640.0,-621.0,342.0
19:49:34.662000,-94.0,-640.0,3013.0,-588.0,-1072.0,273.0,633.0,-625.0,339.0
19:49:34.667000,-35.0,-585.0,3084.0,-515.0,-1067.0,227.0,633.0,-625.0,339.0
19:49:34.671000,22.0,-530.0,3112.0,-480.0,-1010.0,182.0,633.0,-625.0,339.0
19:49:34.676000,70.0,-481.0,3086.0,-475.0,-896.0,144.0,601.0,-681.0,354.0
19:49:34.681000,107.0,-447.0,3035.0,-459.0,-758.0,117.0,601.0,-681.0,354.0
19:49:34.686000,133.0,-427.0,3019.0,-393.0,-656.0,96.0,601.0,-681.0,354.0
19:49:34.690000,146.0,-414.0,3049.0,-295.0,-587.0,75.0,601.0,-681.0,354.0
19:49:34.694000,146.0,-414.0,3049.0,-210.0,-510.0,57.0,601.0,-681.0,354.0
19:49:34.700000,97.0,-378.0,3173.0,-142.0,-424.0,54.0,573.0,-712.0,333.0
19:49:34.704000,97.0,-378.0,3173.0,-66.0,-374.0,68.0,573.0,-712.0,333.0
19:49:34.709000,42.0,-359.0,3269.0,30.0,-369.0,91.0,544.0,-723.0,339.0
19:49:34.714000,-21.0,-336.0,3392.0,142.0,-381.0,113.0,544.0,-723.0,339.0
19:49:34.718000,-88.0,-304.0,3509.0,251.0,-398.0,124.0,544.0,-723.0,339.0
19:49:34.723000,-142.0,-270.0,3584.0,349.0,-445.0,115.0,517.0,-744.0,334.0
19:49:34.728000,-168.0,-235.0,3622.0,435.0,-530.0,83.0,517.0,-744.0,334.0
19:49:34.733000,-169.0,-198.0,3661.0,483.0,-617.0,28.0,496.0,-756.0,333.0
19:49:34.737000,-154.0,-161.0,3714.0,480.0,-683.0,-43.0,496.0,-756.0,333.0
19:49:34.741000,-130.0,-123.0,3780.0,444.0,-732.0,-118.0,496.0,-756.0,333.0
19:49:34.747000,-102.0,-86.0,3841.0,411.0,-781.0,-183.0,469.0,-772.0,322.0
19:49:34.751000,-66.0,-59.0,3868.0,437.0,-846.0,-241.0,469.0,-772.0,322.0
19:49:34.756000,-4.0,-47.0,3864.0,437.0,-846.0,-241.0,436.0,-780.0,325.0
19:49:34.761000,72.0,-60.0,3853.0,569.0,-779.0,-303.0,436.0,-780.0,325.0
19:49:34.768000,139.0,-105.0,3813.0,531.0,-519.0,-296.0,411.0,-801.0,333.0
19:49:34.770000,178.0,-175.0,3698.0,531.0,-519.0,-296.0,411.0,-801.0,333.0
19:49:34.774000,191.0,-258.0,3504.0,384.0,-174.0,-279.0,411.0,-801.0,333.0
19:49:34.780000,182.0,-329.0,3269.0,152.0,131.0,-263.0,364.0,-814.0,331.0
19:49:34.784000,175.0,-385.0,3033.0,-117.0,319.0,-249.0,364.0,-814.0,331.0
19:49:34.789000,173.0,-418.0,2818.0,-384.0,407.0,-233.0,339.0,-819.0,339.0
19:49:34.794000,163.0,-415.0,2627.0,-618.0,455.0,-215.0,339.0,-819.0,339.0
19:49:34.798000,163.0,-415.0,2627.0,-796.0,500.0,-196.0,339.0,-819.0,339.0
19:49:34.803000,118.0,-300.0,2336.0,-886.0,527.0,-183.0,319.0,-823.0,336.0
19:49:34.808000,120.0,-235.0,2214.0,-867.0,538.0,-169.0,319.0,-823.0,336.0
19:49:34.812000,120.0,-235.0,2214.0,-733.0,574.0,-142.0,312.0,-817.0,345.0
19:49:34.817000,147.0,-193.0,2027.0,-497.0,656.0,-115.0,312.0,-817.0,345.0
19:49:34.821000,182.0,-168.0,1764.0,-222.0,756.0,-99.0,312.0,-817.0,345.0
19:49:34.827000,203.0,-153.0,1500.0,-32.0,846.0,-105.0,295.0,-820.0,343.0
19:49:34.831000,214.0,-141.0,1311.0,-44.0,925.0,-143.0,295.0,-820.0,343.0
19:49:34.836000,210.0,-109.0,1207.0,-234.0,989.0,-215.0,280.0,-819.0,346.0
19:49:34.841000,203.0,-32.0,1152.0,-456.0,1018.0,-305.0,280.0,-819.0,346.0
19:49:34.845000,209.0,63.0,1136.0,-573.0,1016.0,-381.0,280.0,-819.0,346.0
19:49:34.850000,221.0,154.0,1158.0,-536.0,1017.0,-426.0,250.0,-819.0,361.0
19:49:34.855000,226.0,209.0,1208.0,-378.0,1032.0,-443.0,250.0,-819.0,361.0
19:49:34.859000,210.0,228.0,1279.0,-378.0,1040.0,-441.0,235.0,-820.0,361.0
19:49:34.864000,179.0,213.0,1365.0,43.0,1020.0,-434.0,235.0,-820.0,361.0
19:49:34.868000,144.0,163.0,1445.0,225.0,980.0,-412.0,235.0,-820.0,361.0
19:49:34.874000,93.0,68.0,1508.0,225.0,965.0,-412.0,234.0,-817.0,354.0
19:49:34.878000,32.0,-40.0,1544.0,369.0,965.0,-384.0,234.0,-817.0,354.0
19:49:34.883000,-37.0,-155.0,1542.0,442.0,977.0,-356.0,225.0,-814.0,367.0
19:49:34.888000,-101.0,-267.0,1540.0,445.0,943.0,-316.0,225.0,-814.0,367.0
19:49:34.892000,-142.0,-361.0,1568.0,427.0,802.0,-280.0,225.0,-814.0,367.0
19:49:34.897000,-155.0,-431.0,1621.0,398.0,583.0,-247.0,220.0,-814.0,364.0
19:49:34.902000,-142.0,-470.0,1670.0,333.0,368.0,-220.0,220.0,-814.0,364.0
19:49:34.906000,-116.0,-473.0,1695.0,218.0,207.0,-200.0,192.0,-802.0,373.0
19:49:34.911000,-84.0,-446.0,1677.0,65.0,105.0,-183.0,192.0,-802.0,373.0
19:49:34.915000,-84.0,-446.0,1677.0,-86.0,36.0,-161.0,192.0,-802.0,373.0
19:49:34.921000,-50.0,-403.0,1610.0,-204.0,-22.0,-137.0,201.0,-807.0,369.0
19:49:34.925000,-10.0,-347.0,1507.0,-286.0,-80.0,-113.0,201.0,-807.0,369.0
19:49:34.930000,27.0,-285.0,1384.0,-334.0,-137.0,-82.0,178.0,-795.0,375.0
19:49:34.935000,58.0,-219.0,1254.0,-340.0,-195.0,-44.0,178.0,-795.0,375.0
19:49:34.939000,89.0,-160.0,1121.0,-308.0,-244.0,0.0,178.0,-795.0,375.0
19:49:34.944000,117.0,-117.0,980.0,-246.0,-277.0,42.0,166.0,-789.0,376.0
19:49:34.949000,128.0,-78.0,837.0,-166.0,-304.0,80.0,166.0,-789.0,376.0
19:49:34.953000,115.0,-46.0,714.0,-87.0,-324.0,87.0,169.0,-793.0,378.0
19:49:34.958000,70.0,-2.0,612.0,-46.0,-304.0,94.0,169.0,-793.0,378.0
19:49:34.962000,-14.0,28.0,492.0,-41.0,-257.0,131.0,169.0,-793.0,378.0
19:49:34.967000,-111.0,22.0,323.0,-20.0,-289.0,146.0,159.0,-786.0,387.0
19:49:34.972000,-192.0,3.0,159.0,10.0,-451.0,116.0,159.0,-786.0,387.0
19:49:34.977000,-233.0,-4.0,44.0,10.0,-451.0,116.0,160.0,-783.0,384.0
19:49:34.982000,-227.0,-4.0,-70.0,-75.0,-821.0,16.0,160.0,-783.0,384.0
19:49:34.986000,-179.0,0.0,-229.0,-133.0,-955.0,-18.0,157.0,-778.0,376.0
19:49:34.991000,-100.0,9.0,-405.0,-133.0,-955.0,-18.0,157.0,-778.0,376.0
19:49:34.995000,0.0,28.0,-565.0,-163.0,-1086.0,-38.0,157.0,-778.0,376.0
19:49:35.000000,115.0,62.0,-729.0,-191.0,-1201.0,-44.0,163.0,-775.0,388.0
19:49:35.005000,251.0,107.0,-907.0,-209.0,-1306.0,-36.0,163.0,-775.0,388.0
19:49:35.010000,407.0,140.0,-1106.0,-189.0,-1394.0,-28.0,177.0,-765.0,384.0
19:49:35.015000,566.0,158.0,-1330.0,-145.0,-1394.0,-23.0,177.0,-765.0,384.0
19:49:35.019000,566.0,158.0,-1330.0,-130.0,-1245.0,-17.0,177.0,-765.0,384.0
19:49:35.024000,771.0,208.0,-1859.0,-176.0,-977.0,14.0,193.0,-768.0,403.0
19:49:35.029000,803.0,221.0,-2125.0,-223.0,-724.0,78.0,193.0,-768.0,403.0
19:49:35.033000,803.0,221.0,-2125.0,-172.0,-608.0,153.0,201.0,-750.0,403.0
19:49:35.038000,802.0,225.0,-2328.0,-14.0,-626.0,235.0,201.0,-750.0,403.0
19:49:35.042000,774.0,220.0,-2452.0,164.0,-687.0,318.0,201.0,-750.0,403.0
19:49:35.047000,711.0,217.0,-2514.0,320.0,-760.0,334.0,222.0,-748.0,405.0
19:49:35.052000,782.0,359.0,-2517.0,1336.0,-1948.0,-505.0,222.0,-748.0,405.0
19:49:35.057000,1415.0,1578.0,-1191.0,3134.0,-3540.0,-373.0,237.0,-754.0,415.0
19:49:35.062000,-1780.0,2015.0,3205.0,3833.0,-2087.0,1592.0,237.0,-754.0,415.0
19:49:35.066000,230.0,-3710.0,-9061.0,758.0,1905.0,333.0,237.0,-754.0,415.0
19:49:35.071000,11442.0,-6240.0,-22075.0,-2986.0,2871.0,-774.0,210.0,-742.0,420.0
19:49:35.076000,7228.0,-4286.0,-12741.0,-502.0,-280.0,-763.0,210.0,-742.0,420.0
19:49:35.080000,-2459.0,3062.0,2891.0,-502.0,-280.0,-763.0,372.0,-669.0,456.0
19:49:35.085000,-4764.0,2174.0,4447.0,-1496.0,160.0,926.0,372.0,-669.0,456.0
19:49:35.089000,-1801.0,1044.0,82.0,-1239.0,-1931.0,-348.0,372.0,-669.0,456.0
19:49:35.094000,-661.0,1091.0,-572.0,-1239.0,-1931.0,-348.0,349.0,-688.0,441.0
19:49:35.099000,171.0,716.0,612.0,209.0,-3883.0,-33.0,349.0,-688.0,441.0
19:49:35.104000,717.0,719.0,1684.0,150.0,-3914.0,179.0,345.0,-690.0,447.0
19:49:35.109000,191.0,598.0,2253.0,-94.0,-3359.0,274.0,345.0,-690.0,447.0
19:49:35.113000,189.0,549.0,819.0,-17.0,-2018.0,188.0,345.0,-690.0,447.0
19:49:35.118000,415.0,-256.0,-2052.0,-252.0,-424.0,325.0,334.0,-679.0,454.0
19:49:35.123000,207.0,-374.0,-2452.0,-582.0,-865.0,307.0,334.0,-679.0,454.0
19:49:35.127000,-66.0,-132.0,-1172.0,-651.0,-2821.0,-243.0,325.0,-670.0,460.0
19:49:35.132000,-300.0,325.0,-391.0,-887.0,-3615.0,-439.0,325.0,-670.0,460.0
19:49:35.136000,-300.0,325.0,-391.0,-1076.0,-2856.0,-274.0,325.0,-670.0,460.0
19:49:35.141000,-310.0,301.0,-808.0,-902.0,-2324.0,-129.0,348.0,-678.0,457.0
19:49:35.146000,250.0,317.0,-1116.0,-332.0,-2918.0,-316.0,348.0,-678.0,457.0
19:49:35.151000,644.0,179.0,-1466.0,-319.0,-2585.0,-26.0,361.0,-663.0,469.0
19:49:35.156000,394.0,-115.0,-2129.0,-544.0,-2111.0,-106.0,361.0,-663.0,469.0
19:49:35.160000,541.0,34.0,-1992.0,-398.0,-2361.0,-139.0,361.0,-663.0,469.0
19:49:35.165000,427.0,-25.0,-2174.0,-390.0,-1922.0,122.0,366.0,-652.0,486.0
19:49:35.170000,372.0,-187.0,-2530.0,-120.0,-1862.0,73.0,366.0,-652.0,486.0
19:49:35.174000,200.0,-343.0,-2359.0,-8.0,-2466.0,89.0,373.0,-646.0,468.0
19:49:35.179000,-256.0,-259.0,-2333.0,-321.0,-2398.0,98.0,373.0,-646.0,468.0
19:49:35.183000,-100.0,-329.0,-2395.0,-563.0,-2338.0,-46.0,373.0,-646.0,468.0
19:49:35.188000,174.0,-346.0,-2695.0,-484.0,-2538.0,-74.0,394.0,-639.0,457.0
19:49:35.193000,-278.0,-261.0,-2664.0,-339.0,-2250.0,58.0,394.0,-639.0,457.0
19:49:35.198000,-466.0,-116.0,-2557.0,-339.0,-2250.0,58.0,411.0,-636.0,466.0
19:49:35.203000,-306.0,-60.0,-2557.0,-453.0,-2873.0,-169.0,411.0,-636.0,466.0
19:49:35.207000,-165.0,-86.0,-2559.0,-453.0,-2873.0,-169.0,411.0,-636.0,466.0
19:49:35.212000,-253.0,-5.0,-2326.0,-613.0,-2439.0,-73.0,417.0,-625.0,465.0
19:49:35.217000,-191.0,35.0,-2543.0,-634.0,-2324.0,-142.0,417.0,-625.0,465.0
19:49:35.221000,-186.0,-11.0,-2471.0,-372.0,-2595.0,-214.0,423.0,-628.0,469.0
19:49:35.226000,-247.0,52.0,-2299.0,-228.0,-2647.0,-142.0,423.0,-628.0,469.0
19:49:35.230000,-186.0,-94.0,-2325.0,-357.0,-2511.0,-102.0,423.0,-628.0,469.0
19:49:35.235000,-75.0,-178.0,-2303.0,-385.0,-2535.0,-221.0,438.0,-594.0,457.0
19:49:35.240000,-86.0,-201.0,-2324.0,-489.0,-2534.0,-296.0,438.0,-594.0,457.0
19:49:35.244000,-86.0,-201.0,-2324.0,-490.0,-2567.0,-303.0,447.0,-585.0,453.0
19:49:35.250000,-127.0,-125.0,-2037.0,-448.0,-2435.0,-296.0,447.0,-585.0,453.0
19:49:35.254000,-104.0,-221.0,-2104.0,-651.0,-2129.0,-227.0,447.0,-585.0,453.0
19:49:35.259000,-125.0,-324.0,-2370.0,-640.0,-2090.0,-228.0,456.0,-574.0,456.0
19:49:35.264000,-234.0,-351.0,-2233.0,-735.0,-2148.0,-294.0,456.0,-574.0,456.0
19:49:35.268000,-98.0,-247.0,-2108.0,-835.0,-2348.0,-371.0,469.0,-573.0,450.0
19:49:35.273000,-125.0,-84.0,-1960.0,-781.0,-2450.0,-318.0,469.0,-573.0,450.0
19:49:35.277000,-18.0,11.0,-1710.0,-806.0,-2207.0,-99.0,469.0,-573.0,450.0
19:49:35.282000,-32.0,-89.0,-1740.0,-690.0,-2123.0,-163.0,471.0,-562.0,460.0
19:49:35.286000,-21.0,-11.0,-1721.0,-513.0,-2174.0,-301.0,471.0,-562.0,460.0
19:49:35.292000,-77.0,-61.0,-1763.0,-604.0,-1875.0,-173.0,478.0,-565.0,453.0
19:49:35.296000,102.0,-199.0,-2055.0,-644.0,-1787.0,-207.0,478.0,-565.0,453.0
19:49:35.301000,135.0,-203.0,-1794.0,-644.0,-1787.0,-207.0,484.0,-555.0,456.0
19:49:35.306000,67.0,-119.0,-1376.0,-694.0,-1884.0,-288.0,484.0,-555.0,456.0
19:49:35.310000,2.0,-60.0,-1524.0,-694.0,-1671.0,-203.0,484.0,-555.0,456.0
19:49:35.315000,-71.0,-65.0,-1683.0,-779.0,-1671.0,-203.0,492.0,-537.0,459.0
19:49:35.320000,-56.0,-91.0,-1472.0,-653.0,-1677.0,-197.0,492.0,-537.0,459.0
19:49:35.325000,-88.0,-233.0,-1400.0,-529.0,-1919.0,-99.0,489.0,-529.0,454.0
19:49:35.329000,-90.0,-104.0,-1397.0,-622.0,-1966.0,-297.0,489.0,-529.0,454.0
19:49:35.333000,30.0,-43.0,-1296.0,-622.0,-1966.0,-297.0,489.0,-529.0,454.0
19:49:35.339000,172.0,-24.0,-1197.0,-766.0,-1997.0,-205.0,480.0,-526.0,466.0
19:49:35.343000,81.0,34.0,-1204.0,-676.0,-2079.0,-134.0,480.0,-526.0,466.0
19:49:35.348000,64.0,39.0,-1309.0,-671.0,-1831.0,-55.0,513.0,-511.0,444.0
19:49:35.353000,133.0,-51.0,-1388.0,-668.0,-1731.0,-6.0,513.0,-511.0,444.0
19:49:35.357000,133.0,-51.0,-1388.0,-642.0,-1913.0,-58.0,513.0,-511.0,444.0
19:49:35.362000,145.0,-2.0,-1477.0,-442.0,-1803.0,1.0,514.0,-517.0,450.0
19:49:35.367000,67.0,-109.0,-1530.0,-181.0,-1688.0,73.0,514.0,-517.0,450.0
19:49:35.371000,-77.0,-91.0,-1264.0,-411.0,-1820.0,-54.0,514.0,-499.0,472.0
19:49:35.376000,-97.0,-88.0,-1045.0,-751.0,-1950.0,4.0,514.0,-499.0,472.0
19:49:35.380000,-99.0,-244.0,-1194.0,-763.0,-2003.0,103.0,514.0,-499.0,472.0
19:49:35.386000,11.0,-363.0,-1351.0,-410.0,-1935.0,-56.0,525.0,-493.0,450.0
19:49:35.390000,164.0,-289.0,-1438.0,-98.0,-1727.0,-111.0,525.0,-493.0,450.0
19:49:35.395000,-4.0,-228.0,-1453.0,-290.0,-1444.0,-37.0,526.0,-481.0,448.0
19:49:35.400000,-77.0,-185.0,-1524.0,-598.0,-1392.0,-44.0,526.0,-481.0,448.0
19:49:35.404000,-75.0,-217.0,-1530.0,-650.0,-1558.0,-85.0,526.0,-481.0,448.0
19:49:35.409000,4.0,-238.0,-1460.0,-648.0,-1639.0,-188.0,535.0,-478.0,442.0
19:49:35.414000,22.0,-16.0,-1402.0,-698.0,-1555.0,-177.0,535.0,-478.0,442.0
19:49:35.419000,215.0,70.0,-1472.0,-698.0,-1555.0,-177.0,523.0,-469.0,453.0
19:49:35.423000,287.0,253.0,-1535.0,-600.0,-1648.0,-209.0,523.0,-469.0,453.0
19:49:35.427000,352.0,122.0,-1187.0,-576.0,-1955.0,-146.0,523.0,-469.0,453.0
19:49:35.432000,469.0,158.0,-856.0,-584.0,-1940.0,-108.0,543.0,-469.0,442.0
19:49:35.437000,524.0,217.0,-961.0,-666.0,-1608.0,-210.0,543.0,-469.0,442.0
19:49:35.442000,646.0,257.0,-1085.0,-813.0,-1290.0,-161.0,529.0,-459.0,451.0
19:49:35.447000,755.0,273.0,-1097.0,-724.0,-1063.0,-173.0,529.0,-459.0,451.0
19:49:35.451000,764.0,30.0,-842.0,-689.0,-963.0,-61.0,529.0,-459.0,451.0
19:49:35.456000,605.0,125.0,-590.0,-700.0,-988.0,12.0,531.0,-444.0,447.0
19:49:35.461000,567.0,189.0,-804.0,-665.0,-734.0,-77.0,531.0,-444.0,447.0
19:49:35.466000,303.0,173.0,-1169.0,-577.0,-541.0,18.0,537.0,-442.0,453.0
19:49:35.470000,303.0,173.0,-1169.0,-338.0,-797.0,-20.0,537.0,-442.0,453.0
19:49:35.474000,170.0,184.0,-1278.0,-260.0,-1082.0,-19.0,537.0,-442.0,453.0
19:49:35.480000,42.0,65.0,-951.0,-534.0,-1165.0,36.0,546.0,-433.0,457.0
19:49:35.484000,4.0,51.0,-550.0,-832.0,-1073.0,-103.0,546.0,-433.0,457.0
19:49:35.489000,18.0,155.0,-548.0,-895.0,-1057.0,-50.0,543.0,-430.0,459.0
19:49:35.494000,26.0,81.0,-618.0,-827.0,-1186.0,-155.0,543.0,-430.0,459.0
19:49:35.498000,-33.0,243.0,-519.0,-966.0,-1331.0,-152.0,543.0,-430.0,459.0
19:49:35.503000,-51.0,170.0,-408.0,-927.0,-1152.0,2.0,532.0,-424.0,478.0
19:49:35.508000,64.0,142.0,-488.0,-583.0,-1064.0,-113.0,532.0,-424.0,478.0
19:49:35.513000,129.0,167.0,-438.0,-397.0,-1094.0,-67.0,532.0,-424.0,478.0
19:49:35.517000,249.0,84.0,-419.0,-482.0,-1044.0,-49.0,532.0,-424.0,478.0
19:49:35.521000,137.0,162.0,-646.0,-609.0,-1029.0,-28.0,532.0,-424.0,478.0
19:49:35.527000,-80.0,112.0,-858.0,-550.0,-863.0,90.0,538.0,-417.0,466.0
19:49:35.531000,-171.0,-7.0,-930.0,-550.0,-863.0,90.0,538.0,-417.0,466.0
19:49:35.536000,-189.0,111.0,-824.0,-465.0,-659.0,-34.0,531.0,-418.0,466.0
19:49:35.541000,-87.0,115.0,-578.0,-548.0,-688.0,-183.0,531.0,-418.0,466.0
19:49:35.545000,-44.0,-43.0,-585.0,-914.0,-994.0,-59.0,531.0,-418.0,466.0
19:49:35.550000,-55.0,39.0,-807.0,-914.0,-994.0,-59.0,543.0,-409.0,457.0
19:49:35.555000,-15.0,37.0,-901.0,-793.0,-936.0,-149.0,543.0,-409.0,457.0
19:49:35.560000,-93.0,157.0,-636.0,-663.0,-987.0,-106.0,537.0,-412.0,457.0
19:49:35.564000,-62.0,149.0,-240.0,-667.0,-1166.0,-79.0,537.0,-412.0,457.0
19:49:35.568000,-62.0,149.0,-240.0,-828.0,-1112.0,-99.0,537.0,-412.0,457.0
19:49:35.574000,8.0,255.0,-602.0,-1011.0,-741.0,-170.0,546.0,-405.0,469.0
19:49:35.578000,8.0,255.0,-602.0,-989.0,-524.0,-117.0,546.0,-405.0,469.0
19:49:35.583000,96.0,172.0,-906.0,-734.0,-769.0,-139.0,538.0,-400.0,463.0
19:49:35.588000,112.0,281.0,-735.0,-662.0,-1124.0,-139.0,538.0,-400.0,463.0
19:49:35.595000,237.0,254.0,-368.0,-829.0,-1014.0,-214.0,543.0,-402.0,465.0
19:49:35.597000,237.0,254.0,-368.0,-829.0,-1014.0,-214.0,543.0,-402.0,465.0
19:49:35.601000,215.0,345.0,-526.0,-787.0,-760.0,-127.0,543.0,-402.0,465.0
19:49:35.607000,156.0,255.0,-518.0,-743.0,-575.0,-70.0,534.0,-397.0,472.0
19:49:35.611000,126.0,189.0,-594.0,-701.0,-615.0,-112.0,534.0,-397.0,472.0
19:49:35.616000,73.0,162.0,-615.0,-637.0,-805.0,-93.0,540.0,-384.0,466.0
19:49:35.621000,-10.0,51.0,-423.0,-655.0,-840.0,-183.0,540.0,-384.0,466.0
19:49:35.625000,-53.0,144.0,-375.0,-796.0,-768.0,-309.0,540.0,-384.0,466.0
19:49:35.630000,-2.0,243.0,-509.0,-905.0,-852.0,-284.0,526.0,-385.0,465.0
19:49:35.635000,76.0,260.0,-396.0,-841.0,-1060.0,-194.0,526.0,-385.0,465.0
19:49:35.640000,-20.0,195.0,-120.0,-841.0,-1060.0,-194.0,525.0,-387.0,487.0
19:49:35.644000,-21.0,161.0,-154.0,-788.0,-951.0,-171.0,525.0,-387.0,487.0
19:49:35.648000,-11.0,170.0,-388.0,-771.0,-642.0,-233.0,525.0,-387.0,487.0
19:49:35.654000,-72.0,177.0,-408.0,-704.0,-642.0,-233.0,535.0,-382.0,471.0
19:49:35.658000,-51.0,199.0,-313.0,-660.0,-759.0,-260.0,535.0,-382.0,471.0
19:49:35.663000,-32.0,153.0,-226.0,-731.0,-782.0,-252.0,537.0,-378.0,466.0
19:49:35.668000,-30.0,222.0,-249.0,-865.0,-768.0,-284.0,537.0,-378.0,466.0
19:49:35.672000,-30.0,222.0,-249.0,-963.0,-693.0,-319.0,537.0,-378.0,466.0
19:49:35.677000,-58.0,144.0,-581.0,-903.0,-689.0,-239.0,526.0,-382.0,477.0
19:49:35.682000,-67.0,166.0,-520.0,-708.0,-772.0,-262.0,526.0,-382.0,477.0
19:49:35.687000,-67.0,166.0,-520.0,-615.0,-838.0,-246.0,516.0,-381.0,475.0
19:49:35.691000,-134.0,115.0,-325.0,-694.0,-786.0,-219.0,516.0,-381.0,475.0
19:49:35.695000,-120.0,74.0,-358.0,-817.0,-714.0,-256.0,516.0,-381.0,475.0
19:49:35.701000,-121.0,88.0,-454.0,-879.0,-817.0,-269.0,528.0,-388.0,469.0
19:49:35.705000,-98.0,144.0,-361.0,-884.0,-890.0,-272.0,528.0,-388.0,469.0
19:49:35.710000,-141.0,171.0,-233.0,-884.0,-731.0,-232.0,529.0,-385.0,472.0
19:49:35.715000,-166.0,138.0,-263.0,-847.0,-597.0,-175.0,529.0,-385.0,472.0
19:49:35.719000,-123.0,53.0,-271.0,-746.0,-664.0,-199.0,529.0,-385.0,472.0
19:49:35.724000,-44.0,87.0,-100.0,-769.0,-753.0,-229.0,529.0,-382.0,471.0
19:49:35.729000,-63.0,105.0,-10.0,-847.0,-616.0,-190.0,529.0,-382.0,471.0
19:49:35.734000,-69.0,93.0,-275.0,-820.0,-455.0,-207.0,516.0,-382.0,484.0
19:49:35.738000,46.0,137.0,-462.0,-768.0,-601.0,-199.0,516.0,-382.0,484.0
19:49:35.742000,121.0,117.0,-270.0,-773.0,-755.0,-164.0,516.0,-382.0,484.0
19:49:35.748000,98.0,124.0,-148.0,-773.0,-625.0,-159.0,529.0,-367.0,480.0
19:49:35.752000,32.0,143.0,-343.0,-844.0,-625.0,-159.0,529.0,-367.0,480.0
19:49:35.757000,-10.0,128.0,-273.0,-803.0,-523.0,-132.0,529.0,-369.0,486.0
19:49:35.762000,-145.0,129.0,-56.0,-730.0,-624.0,-119.0,529.0,-369.0,486.0
19:49:35.766000,-184.0,109.0,-202.0,-872.0,-339.0,-151.0,529.0,-369.0,486.0
19:49:35.771000,-86.0,115.0,-472.0,-872.0,-339.0,-151.0,523.0,-376.0,492.0
19:49:35.776000,-4.0,65.0,-581.0,-792.0,-321.0,-165.0,523.0,-376.0,492.0
19:49:35.781000,-29.0,105.0,-479.0,-694.0,-494.0,-158.0,532.0,-370.0,490.0
19:49:35.785000,-43.0,151.0,-305.0,-667.0,-669.0,-185.0,532.0,-370.0,490.0
19:49:35.789000,-43.0,151.0,-305.0,-733.0,-639.0,-141.0,532.0,-370.0,490.0
19:49:35.795000,35.0,49.0,-310.0,-802.0,-544.0,-139.0,519.0,-378.0,484.0
19:49:35.799000,35.0,49.0,-310.0,-800.0,-571.0,-160.0,519.0,-378.0,484.0
19:49:35.804000,-16.0,37.0,-357.0,-765.0,-639.0,-151.0,529.0,-369.0,478.0
19:49:35.809000,-49.0,54.0,-328.0,-781.0,-605.0,-153.0,529.0,-369.0,478.0
19:49:35.813000,-9.0,46.0,-233.0,-895.0,-448.0,-148.0,529.0,-369.0,478.0
19:49:35.818000,78.0,-9.0,-329.0,-930.0,-357.0,-168.0,519.0,-376.0,480.0
19:49:35.823000,68.0,-17.0,-490.0,-810.0,-472.0,-185.0,519.0,-376.0,480.0
19:49:35.828000,35.0,19.0,-469.0,-742.0,-620.0,-168.0,516.0,-369.0,487.0
19:49:35.832000,35.0,-8.0,-352.0,-761.0,-635.0,-150.0,516.0,-369.0,487.0
19:49:35.836000,53.0,-42.0,-261.0,-801.0,-560.0,-147.0,516.0,-369.0,487.0
19:49:35.842000,51.0,-68.0,-275.0,-849.0,-494.0,-183.0,534.0,-367.0,477.0
19:49:35.846000,78.0,-11.0,-368.0,-878.0,-550.0,-183.0,534.0,-367.0,477.0
19:49:35.851000,21.0,3.0,-343.0,-878.0,-550.0,-183.0,520.0,-369.0,477.0
19:49:35.856000,25.0,-9.0,-221.0,-852.0,-646.0,-146.0,520.0,-369.0,477.0
19:49:35.860000,89.0,-31.0,-187.0,-852.0,-646.0,-146.0,520.0,-369.0,477.0
19:49:35.865000,86.0,-10.0,-304.0,-923.0,-538.0,-152.0,514.0,-354.0,495.0
19:49:35.870000,84.0,16.0,-340.0,-934.0,-462.0,-169.0,514.0,-354.0,495.0
19:49:35.875000,34.0,-29.0,-237.0,-866.0,-512.0,-141.0,538.0,-363.0,477.0
19:49:35.879000,5.0,-42.0,-183.0,-805.0,-546.0,-104.0,538.0,-363.0,477.0
19:49:35.883000,88.0,-41.0,-112.0,-782.0,-579.0,-148.0,538.0,-363.0,477.0
19:49:35.889000,94.0,-72.0,-65.0,-818.0,-657.0,-146.0,526.0,-361.0,480.0
19:49:35.893000,62.0,-56.0,-105.0,-871.0,-611.0,-135.0,526.0,-361.0,480.0
19:49:35.898000,90.0,-28.0,-245.0,-948.0,-440.0,-168.0,522.0,-355.0,472.0
19:49:35.903000,128.0,0.0,-289.0,-961.0,-376.0,-179.0,522.0,-355.0,472.0
19:49:35.907000,128.0,0.0,-289.0,-845.0,-486.0,-140.0,522.0,-355.0,472.0
19:49:35.912000,135.0,-44.0,-190.0,-742.0,-605.0,-96.0,529.0,-345.0,490.0
19:49:35.917000,119.0,-100.0,-99.0,-724.0,-585.0,-100.0,529.0,-345.0,490.0
19:49:35.922000,121.0,-134.0,-109.0,-796.0,-465.0,-131.0,520.0,-349.0,481.0
19:49:35.926000,157.0,-139.0,-258.0,-884.0,-399.0,-154.0,520.0,-349.0,481.0
19:49:35.930000,146.0,-111.0,-377.0,-894.0,-417.0,-129.0,520.0,-349.0,481.0
19:49:35.936000,93.0,-81.0,-353.0,-859.0,-462.0,-114.0,523.0,-349.0,484.0
19:49:35.940000,73.0,-68.0,-273.0,-847.0,-498.0,-106.0,523.0,-349.0,484.0
19:49:35.944000,72.0,-115.0,-259.0,-833.0,-518.0,-96.0,526.0,-358.0,481.0
19:49:35.950000,51.0,-135.0,-254.0,-822.0,-487.0,-113.0,526.0,-358.0,481.0
19:49:35.954000,48.0,-135.0,-217.0,-901.0,-400.0,-129.0,526.0,-358.0,481.0
19:49:35.959000,23.0,-127.0,-254.0,-975.0,-357.0,-106.0,516.0,-357.0,496.0
19:49:35.964000,-42.0,-136.0,-271.0,-970.0,-378.0,-96.0,516.0,-357.0,496.0
19:49:35.969000,-86.0,-107.0,-269.0,-970.0,-378.0,-96.0,514.0,-358.0,486.0
19:49:35.973000,-63.0,-83.0,-347.0,-969.0,-392.0,-130.0,514.0,-358.0,486.0
19:49:35.977000,-33.0,-95.0,-351.0,-944.0,-454.0,-121.0,514.0,-358.0,486.0
19:49:35.983000,-68.0,-95.0,-206.0,-849.0,-552.0,-99.0,534.0,-351.0,486.0
19:49:35.987000,-74.0,-99.0,-109.0,-798.0,-391.0,-100.0,534.0,-351.0,486.0
19:49:35.992000,-65.0,-82.0,-146.0,-844.0,-392.0,-106.0,529.0,-352.0,499.0
19:49:35.997000,-67.0,-53.0,-282.0,-954.0,-319.0,-115.0,529.0,-352.0,499.0
19:49:36.001000,-61.0,-49.0,-483.0,-1062.0,-302.0,-118.0,531.0,-349.0,480.0
19:49:36.006000,-53.0,-73.0,-606.0,-1047.0,-346.0,-107.0,531.0,-349.0,480.0
19:49:36.010000,-53.0,-73.0,-606.0,-914.0,-454.0,-106.0,531.0,-349.0,480.0
19:49:36.016000,-75.0,-69.0,-517.0,-799.0,-538.0,-108.0,534.0,-349.0,480.0
19:49:36.020000,-117.0,-84.0,-357.0,-767.0,-525.0,-113.0,534.0,-349.0,480.0
19:49:36.025000,-126.0,-98.0,-268.0,-809.0,-466.0,-147.0,528.0,-348.0,487.0
19:49:36.030000,-101.0,-86.0,-292.0,-931.0,-418.0,-163.0,528.0,-348.0,487.0
19:49:36.034000,-72.0,-71.0,-380.0,-1035.0,-435.0,-140.0,528.0,-348.0,487.0
19:49:36.039000,-55.0,-92.0,-421.0,-1027.0,-489.0,-133.0,534.0,-342.0,483.0
19:49:36.044000,-68.0,-65.0,-404.0,-994.0,-472.0,-150.0,534.0,-342.0,483.0
19:49:36.048000,-69.0,-29.0,-434.0,-996.0,-402.0,-148.0,520.0,-348.0,490.0
19:49:36.053000,-46.0,-23.0,-514.0,-967.0,-375.0,-157.0,520.0,-348.0,490.0
19:49:36.057000,-49.0,9.0,-569.0,-899.0,-396.0,-128.0,520.0,-348.0,490.0
19:49:36.063000,-44.0,-34.0,-536.0,-847.0,-429.0,-98.0,532.0,-340.0,481.0
19:49:36.067000,-49.0,-48.0,-478.0,-839.0,-462.0,-113.0,532.0,-340.0,481.0
19:49:36.072000,-52.0,-53.0,-423.0,-839.0,-462.0,-113.0,534.0,-331.0,481.0
19:49:36.077000,-58.0,-42.0,-431.0,-935.0,-428.0,-134.0,534.0,-331.0,481.0
19:49:36.081000,-51.0,-25.0,-490.0,-935.0,-428.0,-134.0,534.0,-331.0,481.0
19:49:36.086000,-7.0,-15.0,-546.0,-967.0,-404.0,-140.0,529.0,-346.0,498.0
19:49:36.091000,11.0,-2.0,-634.0,-999.0,-424.0,-131.0,529.0,-346.0,498.0
19:49:36.095000,38.0,16.0,-723.0,-1015.0,-459.0,-127.0,535.0,-340.0,480.0
19:49:36.100000,28.0,39.0,-711.0,-982.0,-505.0,-119.0,535.0,-340.0,480.0
19:49:36.104000,40.0,56.0,-670.0,-956.0,-536.0,-104.0,535.0,-340.0,480.0
19:49:36.110000,83.0,65.0,-693.0,-997.0,-540.0,-105.0,544.0,-330.0,490.0
19:49:36.114000,115.0,70.0,-804.0,-1068.0,-534.0,-118.0,544.0,-330.0,490.0
19:49:36.118000,115.0,70.0,-804.0,-1095.0,-531.0,-125.0,532.0,-331.0,501.0
19:49:36.124000,128.0,96.0,-924.0,-1069.0,-534.0,-132.0,532.0,-331.0,501.0
19:49:36.128000,199.0,121.0,-980.0,-1038.0,-569.0,-137.0,532.0,-331.0,501.0
19:49:36.132000,232.0,157.0,-939.0,-1044.0,-614.0,-139.0,525.0,-318.0,487.0
19:49:36.138000,293.0,180.0,-879.0,-1096.0,-624.0,-158.0,525.0,-318.0,487.0
19:49:36.142000,394.0,200.0,-873.0,-1136.0,-626.0,-161.0,526.0,-307.0,487.0
19:49:36.147000,446.0,195.0,-926.0,-1105.0,-594.0,-152.0,526.0,-307.0,487.0
19:49:36.151000,459.0,215.0,-987.0,-1024.0,-508.0,-156.0,526.0,-307.0,487.0
19:49:36.157000,489.0,226.0,-1046.0,-947.0,-412.0,-157.0,528.0,-306.0,486.0
19:49:36.161000,527.0,221.0,-1089.0,-885.0,-348.0,-154.0,528.0,-306.0,486.0
19:49:36.166000,536.0,210.0,-1113.0,-832.0,-300.0,-146.0,526.0,-300.0,490.0
19:49:36.171000,524.0,197.0,-1092.0,-798.0,-276.0,-137.0,526.0,-300.0,490.0
19:49:36.175000,490.0,182.0,-1009.0,-798.0,-276.0,-137.0,523.0,-294.0,490.0
19:49:36.180000,455.0,177.0,-945.0,-840.0,-247.0,-139.0,523.0,-294.0,490.0
19:49:36.184000,435.0,152.0,-934.0,-840.0,-174.0,-146.0,523.0,-294.0,490.0
19:49:36.189000,402.0,154.0,-948.0,-870.0,-174.0,-146.0,525.0,-279.0,489.0
19:49:36.194000,366.0,128.0,-949.0,-878.0,-81.0,-142.0,525.0,-279.0,489.0
19:49:36.199000,309.0,114.0,-942.0,-873.0,-11.0,-127.0,516.0,-277.0,495.0
19:49:36.204000,252.0,98.0,-940.0,-881.0,25.0,-129.0,516.0,-277.0,495.0
19:49:36.208000,220.0,63.0,-936.0,-908.0,48.0,-120.0,516.0,-277.0,495.0
19:49:36.213000,193.0,48.0,-924.0,-910.0,70.0,-120.0,502.0,-267.0,504.0
19:49:36.218000,130.0,37.0,-840.0,-873.0,68.0,-119.0,502.0,-267.0,504.0
19:49:36.222000,110.0,9.0,-734.0,-846.0,61.0,-115.0,517.0,-271.0,501.0
19:49:36.227000,107.0,-36.0,-684.0,-867.0,85.0,-115.0,517.0,-271.0,501.0
19:49:36.231000,107.0,-36.0,-684.0,-896.0,112.0,-116.0,517.0,-271.0,501.0
19:49:36.236000,84.0,-44.0,-649.0,-921.0,130.0,-129.0,510.0,-265.0,499.0
19:49:36.241000,72.0,-53.0,-614.0,-950.0,133.0,-127.0,510.0,-265.0,499.0
19:49:36.246000,67.0,-74.0,-608.0,-948.0,123.0,-126.0,513.0,-256.0,487.0
19:49:36.251000,60.0,-86.0,-613.0,-916.0,119.0,-126.0,513.0,-256.0,487.0
19:49:36.258000,8.0,-116.0,-504.0,-878.0,86.0,-123.0,516.0,-250.0,484.0
19:49:36.260000,8.0,-116.0,-504.0,-878.0,86.0,-123.0,516.0,-250.0,484.0
19:49:36.264000,-37.0,-100.0,-426.0,-898.0,93.0,-128.0,516.0,-250.0,484.0
19:49:36.269000,-91.0,-86.0,-369.0,-928.0,126.0,-123.0,520.0,-241.0,483.0
19:49:36.274000,-121.0,-72.0,-352.0,-953.0,138.0,-128.0,520.0,-241.0,483.0
19:49:36.279000,-141.0,-54.0,-372.0,-958.0,127.0,-121.0,511.0,-258.0,486.0
19:49:36.283000,-161.0,-61.0,-370.0,-937.0,119.0,-108.0,511.0,-258.0,486.0
19:49:36.288000,-161.0,-72.0,-308.0,-908.0,113.0,-111.0,511.0,-258.0,486.0
19:49:36.293000,-140.0,-70.0,-247.0,-893.0,106.0,-111.0,511.0,-253.0,502.0
19:49:36.298000,-143.0,-67.0,-227.0,-907.0,123.0,-107.0,511.0,-253.0,502.0
19:49:36.302000,-144.0,-55.0,-254.0,-907.0,123.0,-107.0,502.0,-243.0,498.0
19:49:36.307000,-138.0,-48.0,-301.0,-920.0,142.0,-110.0,502.0,-243.0,498.0
19:49:36.311000,-125.0,-67.0,-296.0,-904.0,108.0,-95.0,502.0,-243.0,498.0
19:49:36.316000,-130.0,-49.0,-249.0,-871.0,33.0,-96.0,510.0,-247.0,492.0
19:49:36.321000,-117.0,-56.0,-220.0,-859.0,-32.0,-106.0,510.0,-247.0,492.0
19:49:36.326000,-82.0,-55.0,-212.0,-865.0,-57.0,-105.0,510.0,-253.0,498.0
19:49:36.330000,-49.0,-27.0,-235.0,-875.0,-57.0,-130.0,510.0,-253.0,498.0
19:49:36.335000,-49.0,-27.0,-235.0,-897.0,-40.0,-131.0,510.0,-253.0,498.0
19:49:36.340000,-38.0,-28.0,-321.0,-892.0,-4.0,-121.0,516.0,-244.0,493.0
19:49:36.345000,-38.0,-28.0,-321.0,-863.0,27.0,-133.0,516.0,-244.0,493.0
19:49:36.349000,-64.0,-11.0,-317.0,-870.0,42.0,-142.0,501.0,-241.0,516.0
19:49:36.354000,-70.0,0.0,-305.0,-897.0,50.0,-146.0,501.0,-241.0,516.0
19:49:36.358000,-38.0,-11.0,-277.0,-906.0,50.0,-147.0,501.0,-241.0,516.0
19:49:36.363000,-55.0,-4.0,-231.0,-914.0,55.0,-144.0,507.0,-235.0,499.0
19:49:36.368000,-77.0,1.0,-209.0,-927.0,72.0,-157.0,507.0,-235.0,499.0
19:49:36.373000,-61.0,23.0,-222.0,-938.0,69.0,-163.0,502.0,-246.0,498.0
19:49:36.377000,-59.0,37.0,-244.0,-945.0,52.0,-162.0,502.0,-246.0,498.0
19:49:36.382000,-74.0,52.0,-234.0,-929.0,51.0,-160.0,502.0,-246.0,498.0
19:49:36.387000,-93.0,46.0,-215.0,-922.0,85.0,-169.0,505.0,-246.0,498.0
19:49:36.392000,-102.0,71.0,-221.0,-944.0,115.0,-177.0,505.0,-246.0,498.0
19:49:36.396000,-120.0,78.0,-228.0,-944.0,115.0,-177.0,513.0,-247.0,498.0
19:49:36.401000,-119.0,70.0,-244.0,-955.0,90.0,-177.0,513.0,-247.0,498.0
19:49:36.405000,-126.0,84.0,-257.0,-955.0,90.0,-177.0,513.0,-247.0,498.0
19:49:36.410000,-128.0,95.0,-257.0,-937.0,51.0,-181.0,510.0,-241.0,507.0
19:49:36.415000,-121.0,115.0,-238.0,-934.0,3.0,-188.0,510.0,-241.0,507.0
19:49:36.420000,-92.0,112.0,-218.0,-921.0,-30.0,-192.0,495.0,-247.0,496.0
19:49:36.424000,-97.0,140.0,-197.0,-906.0,-40.0,-188.0,495.0,-247.0,496.0
19:49:36.429000,-118.0,149.0,-221.0,-912.0,-24.0,-180.0,495.0,-247.0,496.0
19:49:36.434000,-119.0,126.0,-263.0,-927.0,13.0,-163.0,511.0,-244.0,507.0
19:49:36.439000,-91.0,94.0,-263.0,-898.0,11.0,-160.0,511.0,-244.0,507.0
19:49:36.443000,-51.0,77.0,-222.0,-833.0,-28.0,-169.0,499.0,-235.0,508.0
19:49:36.448000,-53.0,63.0,-198.0,-810.0,-58.0,-171.0,499.0,-235.0,508.0
19:49:36.452000,-53.0,63.0,-198.0,-840.0,-42.0,-170.0,499.0,-235.0,508.0
19:49:36.457000,-51.0,52.0,-248.0,-884.0,-2.0,-186.0,499.0,-240.0,504.0
19:49:36.462000,-7.0,48.0,-304.0,-887.0,0.0,-201.0,499.0,-240.0,504.0
19:49:36.467000,37.0,26.0,-280.0,-869.0,-21.0,-195.0,508.0,-243.0,502.0
19:49:36.471000,65.0,-8.0,-205.0,-898.0,0.0,-195.0,508.0,-243.0,502.0
19:49:36.476000,64.0,0.0,-199.0,-944.0,57.0,-202.0,508.0,-243.0,502.0
19:49:36.481000,72.0,-4.0,-232.0,-948.0,82.0,-204.0,505.0,-238.0,513.0
19:49:36.486000,93.0,-14.0,-223.0,-922.0,78.0,-195.0,505.0,-238.0,513.0
19:49:36.490000,102.0,-33.0,-183.0,-933.0,73.0,-192.0,492.0,-241.0,516.0
19:49:36.495000,84.0,-21.0,-179.0,-957.0,76.0,-194.0,492.0,-241.0,516.0
19:49:36.499000,71.0,-21.0,-192.0,-968.0,96.0,-188.0,492.0,-241.0,516.0
19:49:36.504000,72.0,-30.0,-212.0,-979.0,120.0,-192.0,511.0,-235.0,507.0
19:49:36.509000,56.0,-16.0,-242.0,-991.0,142.0,-192.0,511.0,-235.0,507.0
19:49:36.514000,49.0,-9.0,-294.0,-991.0,142.0,-192.0,493.0,-232.0,507.0
19:49:36.518000,46.0,-39.0,-297.0,-967.0,149.0,-176.0,493.0,-232.0,507.0
19:49:36.523000,33.0,-51.0,-218.0,-930.0,90.0,-170.0,493.0,-232.0,507.0
19:49:36.528000,28.0,-45.0,-191.0,-930.0,90.0,-170.0,508.0,-238.0,510.0
19:49:36.533000,27.0,-44.0,-225.0,-992.0,110.0,-172.0,508.0,-238.0,510.0
19:49:36.537000,15.0,-39.0,-247.0,-1021.0,123.0,-165.0,498.0,-235.0,493.0
19:49:36.542000,5.0,-35.0,-261.0,-1018.0,118.0,-159.0,498.0,-235.0,493.0
19:49:36.546000,5.0,-35.0,-261.0,-1020.0,109.0,-150.0,498.0,-235.0,493.0
19:49:36.551000,25.0,-62.0,-354.0,-1005.0,97.0,-150.0,496.0,-226.0,499.0
19:49:36.556000,30.0,-56.0,-350.0,-961.0,85.0,-164.0,496.0,-226.0,499.0
19:49:36.561000,30.0,-56.0,-350.0,-928.0,91.0,-166.0,516.0,-234.0,508.0
19:49:36.565000,30.0,-55.0,-326.0,-926.0,128.0,-153.0,516.0,-234.0,508.0
19:49:36.573000,-12.0,-65.0,-308.0,-952.0,185.0,-129.0,499.0,-220.0,507.0
19:49:36.575000,-12.0,-65.0,-308.0,-952.0,185.0,-129.0,499.0,-220.0,507.0
19:49:36.579000,-29.0,-83.0,-339.0,-960.0,202.0,-141.0,499.0,-220.0,507.0
19:49:36.584000,-48.0,-70.0,-383.0,-965.0,208.0,-141.0,489.0,-231.0,513.0
19:49:36.589000,-39.0,-99.0,-413.0,-947.0,209.0,-144.0,489.0,-231.0,513.0
19:49:36.594000,1.0,-112.0,-410.0,-921.0,210.0,-142.0,498.0,-226.0,508.0
19:49:36.598000,0.0,-149.0,-405.0,-908.0,217.0,-120.0,498.0,-226.0,508.0
19:49:36.602000,2.0,-182.0,-416.0,-901.0,242.0,-118.0,498.0,-226.0,508.0
19:49:36.608000,-4.0,-196.0,-434.0,-908.0,264.0,-117.0,502.0,-219.0,501.0
19:49:36.612000,-5.0,-211.0,-405.0,-934.0,270.0,-112.0,502.0,-219.0,501.0
19:49:36.617000,-14.0,-224.0,-340.0,-978.0,291.0,-103.0,504.0,-217.0,501.0
19:49:36.622000,-53.0,-207.0,-307.0,-1021.0,344.0,-93.0,504.0,-217.0,501.0
19:49:36.626000,-92.0,-198.0,-322.0,-1021.0,344.0,-93.0,504.0,-217.0,501.0
19:49:36.631000,-102.0,-182.0,-350.0,-1044.0,396.0,-92.0,501.0,-225.0,505.0
19:49:36.636000,-116.0,-157.0,-385.0,-1044.0,408.0,-96.0,501.0,-225.0,505.0
19:49:36.641000,-149.0,-130.0,-393.0,-1031.0,403.0,-91.0,504.0,-217.0,510.0
19:49:36.645000,-182.0,-102.0,-354.0,-1028.0,391.0,-86.0,504.0,-217.0,510.0
19:49:36.649000,-183.0,-84.0,-319.0,-1052.0,378.0,-85.0,504.0,-217.0,510.0
19:49:36.655000,-188.0,-55.0,-304.0,-1083.0,368.0,-97.0,508.0,-217.0,504.0
19:49:36.659000,-189.0,-35.0,-302.0,-1102.0,359.0,-95.0,508.0,-217.0,504.0
19:49:36.664000,-177.0,-9.0,-327.0,-1118.0,374.0,-99.0,501.0,-216.0,505.0
19:49:36.669000,-176.0,9.0,-337.0,-1138.0,389.0,-105.0,501.0,-216.0,505.0
19:49:36.673000,-176.0,9.0,-337.0,-1139.0,384.0,-110.0,501.0,-216.0,505.0
19:49:36.678000,-196.0,58.0,-322.0,-1128.0,357.0,-108.0,499.0,-210.0,507.0
19:49:36.683000,-196.0,80.0,-296.0,-1111.0,294.0,-110.0,499.0,-210.0,507.0
19:49:36.688000,-184.0,119.0,-253.0,-1091.0,223.0,-113.0,499.0,-211.0,508.0
19:49:36.692000,-184.0,131.0,-213.0,-1084.0,198.0,-117.0,499.0,-211.0,508.0
19:49:36.696000,-184.0,180.0,-213.0,-1085.0,215.0,-136.0,499.0,-211.0,508.0
19:49:36.702000,-151.0,217.0,-226.0,-1094.0,230.0,-140.0,502.0,-214.0,511.0
19:49:36.706000,-121.0,247.0,-217.0,-1089.0,212.0,-142.0,502.0,-214.0,511.0
19:49:36.711000,-108.0,273.0,-209.0,-1062.0,201.0,-129.0,487.0,-216.0,507.0
19:49:36.716000,-82.0,271.0,-226.0,-1004.0,197.0,-146.0,487.0,-216.0,507.0
19:49:36.720000,-40.0,287.0,-245.0,-990.0,211.0,-165.0,487.0,-216.0,507.0
19:49:36.725000,11.0,284.0,-300.0,-1014.0,244.0,-184.0,502.0,-216.0,513.0
19:49:36.730000,59.0,317.0,-370.0,-1024.0,234.0,-199.0,502.0,-216.0,513.0
19:49:36.735000,76.0,323.0,-408.0,-1024.0,234.0,-199.0,499.0,-210.0,511.0
19:49:36.739000,119.0,309.0,-400.0,-1026.0,228.0,-194.0,499.0,-210.0,511.0
19:49:36.743000,117.0,302.0,-403.0,-1015.0,232.0,-201.0,499.0,-210.0,511.0
19:49:36.749000,91.0,308.0,-415.0,-1011.0,274.0,-206.0,489.0,-205.0,508.0
19:49:36.753000,80.0,298.0,-414.0,-1026.0,323.0,-208.0,489.0,-205.0,508.0
19:49:36.758000,98.0,281.0,-410.0,-1050.0,330.0,-224.0,483.0,-214.0,517.0
19:49:36.763000,128.0,246.0,-436.0,-1057.0,321.0,-240.0,483.0,-214.0,517.0
19:49:36.767000,128.0,246.0,-436.0,-1057.0,333.0,-237.0,483.0,-214.0,517.0
19:49:36.772000,135.0,238.0,-566.0,-1032.0,348.0,-247.0,483.0,-208.0,519.0
19:49:36.777000,134.0,188.0,-508.0,-986.0,317.0,-234.0,483.0,-208.0,519.0
19:49:36.782000,134.0,188.0,-508.0,-985.0,308.0,-218.0,489.0,-201.0,523.0
19:49:36.786000,112.0,154.0,-504.0,-1020.0,324.0,-231.0,489.0,-201.0,523.0
19:49:36.790000,88.0,137.0,-569.0,-1022.0,342.0,-226.0,489.0,-201.0,523.0
19:49:36.796000,86.0,93.0,-594.0,-981.0,333.0,-211.0,478.0,-196.0,522.0
19:49:36.800000,64.0,75.0,-562.0,-943.0,310.0,-199.0,478.0,-196.0,522.0
19:49:36.805000,38.0,54.0,-548.0,-923.0,310.0,-217.0,487.0,-201.0,523.0
19:49:36.810000,19.0,51.0,-581.0,-896.0,296.0,-226.0,487.0,-201.0,523.0
19:49:36.814000,0.0,45.0,-583.0,-858.0,231.0,-224.0,487.0,-201.0,523.0
19:49:36.819000,0.0,39.0,-518.0,-827.0,174.0,-233.0,484.0,-190.0,528.0
19:49:36.824000,-32.0,32.0,-422.0,-819.0,157.0,-235.0,484.0,-190.0,528.0
19:49:36.829000,-55.0,34.0,-331.0,-842.0,182.0,-230.0,477.0,-192.0,525.0
19:49:36.833000,-100.0,25.0,-300.0,-855.0,243.0,-214.0,477.0,-192.0,525.0
19:49:36.841000,-182.0,40.0,-281.0,-864.0,273.0,-217.0,475.0,-187.0,529.0
19:49:36.843000,-182.0,33.0,-273.0,-864.0,273.0,-217.0,475.0,-187.0,529.0
19:49:36.847000,-179.0,3.0,-320.0,-883.0,287.0,-218.0,475.0,-187.0,529.0
19:49:36.852000,-156.0,-25.0,-389.0,-861.0,258.0,-218.0,477.0,-192.0,526.0
19:49:36.857000,-130.0,-64.0,-451.0,-789.0,196.0,-217.0,477.0,-192.0,526.0
19:49:36.861000,-95.0,-74.0,-445.0,-711.0,157.0,-234.0,474.0,-186.0,525.0
19:49:36.866000,-77.0,-141.0,-381.0,-687.0,131.0,-232.0,474.0,-186.0,525.0
19:49:36.870000,-84.0,-193.0,-329.0,-718.0,124.0,-199.0,474.0,-186.0,525.0
19:49:36.876000,-64.0,-234.0,-312.0,-739.0,137.0,-213.0,474.0,-183.0,528.0
19:49:36.880000,-31.0,-268.0,-320.0,-772.0,179.0,-242.0,474.0,-183.0,528.0
19:49:36.885000,0.0,-270.0,-341.0,-855.0,237.0,-244.0,472.0,-186.0,522.0
19:49:36.890000,0.0,-270.0,-341.0,-935.0,250.0,-224.0,472.0,-186.0,522.0
19:49:36.894000,26.0,-305.0,-310.0,-984.0,260.0,-207.0,472.0,-186.0,522.0
19:49:36.899000,37.0,-347.0,-296.0,-999.0,309.0,-204.0,468.0,-180.0,522.0
19:49:36.904000,39.0,-362.0,-339.0,-951.0,308.0,-220.0,468.0,-180.0,522.0
19:49:36.908000,76.0,-373.0,-343.0,-898.0,258.0,-269.0,477.0,-192.0,526.0
19:49:36.913000,131.0,-366.0,-285.0,-914.0,259.0,-291.0,477.0,-192.0,526.0
19:49:36.917000,144.0,-364.0,-235.0,-1022.0,364.0,-267.0,477.0,-192.0,526.0
19:49:36.923000,67.0,-312.0,-214.0,-1142.0,522.0,-227.0,480.0,-180.0,522.0
19:49:36.927000,31.0,-306.0,-197.0,-1171.0,586.0,-198.0,480.0,-180.0,522.0
19:49:36.932000,8.0,-299.0,-190.0,-1089.0,483.0,-219.0,489.0,-175.0,523.0
19:49:36.937000,-27.0,-265.0,-201.0,-972.0,254.0,-263.0,489.0,-175.0,523.0
19:49:36.941000,-86.0,-197.0,-225.0,-932.0,220.0,-185.0,489.0,-175.0,523.0
19:49:36.946000,-191.0,-143.0,-149.0,-865.0,412.0,-113.0,487.0,-178.0,516.0
19:49:36.951000,-359.0,-86.0,-30.0,-865.0,467.0,-113.0,487.0,-178.0,516.0
19:49:36.955000,-435.0,-67.0,42.0,-828.0,467.0,-120.0,487.0,-180.0,519.0
19:49:36.960000,-395.0,-70.0,-18.0,-832.0,341.0,-138.0,487.0,-180.0,519.0
19:49:36.964000,-396.0,-46.0,-137.0,-789.0,243.0,-162.0,487.0,-180.0,519.0
19:49:36.970000,-407.0,22.0,-168.0,-761.0,279.0,-153.0,489.0,-189.0,522.0
19:49:36.974000,-415.0,-30.0,-128.0,-732.0,321.0,-76.0,489.0,-189.0,522.0
19:49:36.979000,-328.0,-84.0,-138.0,-630.0,244.0,-65.0,490.0,-181.0,522.0
19:49:36.984000,-240.0,-95.0,-212.0,-569.0,73.0,-126.0,490.0,-181.0,522.0
19:49:36.988000,-240.0,-95.0,-212.0,-633.0,-6.0,-166.0,490.0,-181.0,522.0
19:49:36.993000,-137.0,-100.0,-75.0,-736.0,20.0,-176.0,483.0,-180.0,531.0
19:49:36.998000,-137.0,-100.0,-75.0,-843.0,26.0,-162.0,483.0,-180.0,531.0
19:49:37.002000,-107.0,-140.0,23.0,-908.0,18.0,-172.0,484.0,-175.0,529.0
19:49:37.007000,-67.0,-177.0,-17.0,-918.0,110.0,-176.0,484.0,-175.0,529.0
19:49:37.011000,-45.0,-172.0,-50.0,-909.0,218.0,-173.0,484.0,-175.0,529.0
19:49:37.017000,-42.0,-174.0,-22.0,-918.0,226.0,-142.0,486.0,-181.0,526.0
19:49:37.021000,-61.0,-187.0,10.0,-923.0,222.0,-120.0,486.0,-181.0,526.0
19:49:37.026000,-74.0,-205.0,0.0,-914.0,233.0,-104.0,489.0,-171.0,519.0
19:49:37.031000,-45.0,-235.0,-48.0,-872.0,178.0,-98.0,489.0,-171.0,519.0
19:49:37.035000,-32.0,-234.0,-34.0,-825.0,90.0,-104.0,489.0,-171.0,519.0
19:49:37.040000,-58.0,-198.0,51.0,-831.0,102.0,-86.0,493.0,-184.0,522.0
19:49:37.045000,-84.0,-210.0,91.0,-865.0,164.0,-80.0,493.0,-184.0,522.0
19:49:37.049000,-68.0,-252.0,56.0,-865.0,164.0,-80.0,496.0,-183.0,526.0
19:49:37.054000,-41.0,-280.0,-35.0,-867.0,224.0,-97.0,496.0,-183.0,526.0
19:49:37.061000,-44.0,-293.0,-121.0,-797.0,169.0,-113.0,492.0,-181.0,531.0
19:49:37.064000,-107.0,-261.0,-89.0,-797.0,169.0,-113.0,492.0,-181.0,531.0
19:49:37.068000,-144.0,-263.0,18.0,-840.0,179.0,-73.0,492.0,-181.0,531.0
19:49:37.073000,-148.0,-270.0,30.0,-931.0,211.0,-60.0,501.0,-180.0,526.0
19:49:37.078000,-163.0,-208.0,-79.0,-1021.0,193.0,-133.0,501.0,-180.0,526.0
19:49:37.082000,-194.0,-142.0,-174.0,-1082.0,175.0,-158.0,504.0,-190.0,517.0
19:49:37.087000,-255.0,-84.0,-192.0,-1057.0,149.0,-137.0,504.0,-190.0,517.0
19:49:37.091000,-252.0,-80.0,-172.0,-1029.0,136.0,-133.0,504.0,-190.0,517.0
19:49:37.096000,-271.0,-33.0,-163.0,-1033.0,128.0,-155.0,496.0,-184.0,525.0
19:49:37.101000,-275.0,-6.0,-164.0,-1054.0,139.0,-161.0,496.0,-184.0,525.0
19:49:37.106000,-265.0,21.0,-175.0,-1038.0,123.0,-165.0,496.0,-183.0,520.0
19:49:37.111000,-265.0,21.0,-175.0,-982.0,83.0,-187.0,496.0,-183.0,520.0
19:49:37.115000,-256.0,54.0,-196.0,-990.0,79.0,-193.0,496.0,-183.0,520.0
19:49:37.120000,-238.0,105.0,-237.0,-994.0,109.0,-196.0,496.0,-178.0,531.0
19:49:37.125000,-221.0,133.0,-263.0,-954.0,118.0,-177.0,496.0,-178.0,531.0
19:49:37.129000,-194.0,128.0,-259.0,-913.0,127.0,-158.0,493.0,-183.0,525.0
19:49:37.134000,-157.0,120.0,-280.0,-848.0,129.0,-154.0,493.0,-183.0,525.0
19:49:37.138000,-109.0,95.0,-298.0,-803.0,107.0,-147.0,493.0,-183.0,525.0
19:49:37.143000,-60.0,59.0,-298.0,-793.0,92.0,-132.0,492.0,-184.0,519.0
19:49:37.148000,-21.0,23.0,-298.0,-794.0,91.0,-129.0,492.0,-184.0,519.0
19:49:37.153000,26.0,-7.0,-288.0,-796.0,91.0,-134.0,495.0,-186.0,541.0
19:49:37.158000,63.0,-34.0,-270.0,-810.0,100.0,-137.0,495.0,-186.0,541.0
19:49:37.162000,95.0,-45.0,-255.0,-843.0,120.0,-142.0,495.0,-186.0,541.0
19:49:37.167000,137.0,-72.0,-261.0,-876.0,133.0,-137.0,495.0,-178.0,525.0
19:49:37.172000,158.0,-84.0,-280.0,-876.0,133.0,-137.0,495.0,-178.0,525.0
19:49:37.176000,187.0,-104.0,-275.0,-897.0,154.0,-132.0,492.0,-174.0,526.0
19:49:37.181000,209.0,-139.0,-265.0,-900.0,189.0,-118.0,492.0,-174.0,526.0
19:49:37.185000,205.0,-167.0,-256.0,-886.0,218.0,-92.0,492.0,-174.0,526.0
19:49:37.190000,201.0,-175.0,-247.0,-867.0,242.0,-81.0,496.0,-174.0,528.0
19:49:37.195000,188.0,-186.0,-232.0,-845.0,260.0,-73.0,496.0,-174.0,528.0
19:49:37.200000,173.0,-207.0,-228.0,-837.0,278.0,-50.0,498.0,-180.0,520.0
19:49:37.205000,144.0,-231.0,-242.0,-835.0,294.0,-36.0,498.0,-180.0,520.0
19:49:37.209000,144.0,-231.0,-242.0,-821.0,316.0,-38.0,498.0,-180.0,520.0
19:49:37.214000,74.0,-228.0,-273.0,-825.0,349.0,-42.0,493.0,-168.0,520.0
19:49:37.219000,74.0,-228.0,-273.0,-853.0,394.0,-51.0,493.0,-168.0,520.0
19:49:37.223000,65.0,-232.0,-318.0,-857.0,413.0,-52.0,498.0,-171.0,517.0
19:49:37.228000,36.0,-234.0,-333.0,-860.0,391.0,-40.0,498.0,-171.0,517.0
19:49:37.232000,-1.0,-234.0,-309.0,-886.0,367.0,-52.0,498.0,-171.0,517.0
19:49:37.237000,-18.0,-219.0,-270.0,-899.0,358.0,-66.0,495.0,-166.0,510.0
19:49:37.242000,-27.0,-201.0,-275.0,-902.0,381.0,-70.0,495.0,-166.0,510.0
19:49:37.247000,-23.0,-181.0,-324.0,-873.0,385.0,-72.0,481.0,-166.0,534.0
19:49:37.252000,-32.0,-155.0,-322.0,-833.0,356.0,-70.0,481.0,-166.0,534.0
19:49:37.256000,-51.0,-126.0,-268.0,-829.0,364.0,-71.0,481.0,-166.0,534.0
19:49:37.261000,-63.0,-97.0,-245.0,-848.0,404.0,-71.0,495.0,-166.0,516.0
19:49:37.266000,-76.0,-77.0,-250.0,-866.0,420.0,-66.0,495.0,-166.0,516.0
19:49:37.270000,-113.0,-48.0,-237.0,-866.0,420.0,-66.0,490.0,-169.0,523.0
19:49:37.275000,-129.0,-32.0,-203.0,-824.0,404.0,-64.0,490.0,-169.0,523.0
19:49:37.279000,-138.0,-20.0,-164.0,-824.0,404.0,-64.0,490.0,-169.0,523.0
19:49:37.284000,-137.0,-14.0,-158.0,-822.0,417.0,-65.0,498.0,-159.0,528.0
19:49:37.289000,-142.0,9.0,-156.0,-822.0,417.0,-65.0,498.0,-159.0,528.0
19:49:37.294000,-144.0,18.0,-126.0,-823.0,408.0,-67.0,492.0,-160.0,513.0
19:49:37.299000,-145.0,23.0,-82.0,-808.0,403.0,-61.0,492.0,-160.0,513.0
19:49:37.303000,-131.0,25.0,-57.0,-807.0,410.0,-65.0,492.0,-160.0,513.0
19:49:37.308000,-110.0,26.0,-33.0,-817.0,394.0,-71.0,498.0,-169.0,525.0
19:49:37.313000,-96.0,32.0,-14.0,-811.0,361.0,-75.0,498.0,-169.0,525.0
19:49:37.317000,-74.0,38.0,11.0,-803.0,352.0,-83.0,496.0,-160.0,516.0
19:49:37.322000,-60.0,42.0,44.0,-800.0,360.0,-86.0,496.0,-160.0,516.0
19:49:37.326000,-60.0,42.0,44.0,-787.0,369.0,-87.0,496.0,-160.0,516.0
19:49:37.331000,-45.0,47.0,63.0,-760.0,368.0,-84.0,498.0,-163.0,528.0
19:49:37.336000,-42.0,45.0,88.0,-744.0,361.0,-82.0,498.0,-163.0,528.0
19:49:37.341000,-43.0,42.0,127.0,-739.0,349.0,-79.0,498.0,-159.0,520.0
19:49:37.346000,-48.0,23.0,170.0,-739.0,343.0,-80.0,498.0,-159.0,520.0
19:49:37.350000,-45.0,12.0,195.0,-757.0,363.0,-85.0,498.0,-159.0,520.0
19:49:37.355000,-43.0,-6.0,188.0,-764.0,387.0,-83.0,501.0,-156.0,517.0
