hh:mm:ss.ms,gyroX[mdps],gyroY[mdps],gyroZ[mdps],accX[mg],accY[mg],accZ[mg],magX[mG],magY[mG],magZ[mG]
19:50:58.928000,-21.0,-160.0,46.0,-958.0,181.0,153.0,721.0,-565.0,321.0
19:50:58.932000,-8.0,-161.0,72.0,-1009.0,172.0,155.0,721.0,-565.0,321.0
19:50:58.937000,7.0,-148.0,87.0,-1070.0,179.0,152.0,721.0,-565.0,321.0
19:50:58.942000,17.0,-119.0,89.0,-1133.0,201.0,147.0,729.0,-553.0,328.0
19:50:58.947000,14.0,-74.0,85.0,-1185.0,222.0,142.0,729.0,-553.0,328.0
19:50:58.951000,-6.0,-18.0,84.0,-1185.0,222.0,142.0,721.0,-559.0,315.0
19:50:58.956000,-35.0,36.0,80.0,-1199.0,233.0,146.0,721.0,-559.0,315.0
19:50:58.960000,-61.0,86.0,74.0,-1199.0,233.0,146.0,721.0,-559.0,315.0
19:50:58.965000,-80.0,121.0,72.0,-1152.0,210.0,152.0,720.0,-553.0,337.0
19:50:58.970000,-88.0,137.0,77.0,-1090.0,186.0,163.0,720.0,-553.0,337.0
19:50:58.975000,-92.0,137.0,84.0,-1037.0,182.0,178.0,732.0,-561.0,324.0
19:50:58.979000,-98.0,121.0,83.0,-1004.0,202.0,202.0,732.0,-561.0,324.0
19:50:58.984000,-105.0,91.0,81.0,-979.0,225.0,232.0,732.0,-561.0,324.0
19:50:58.989000,-105.0,52.0,93.0,-947.0,223.0,259.0,715.0,-555.0,333.0
19:50:58.994000,-91.0,11.0,126.0,-918.0,194.0,276.0,715.0,-555.0,333.0
19:50:58.998000,-69.0,-21.0,168.0,-922.0,168.0,281.0,726.0,-555.0,327.0
19:50:59.003000,-69.0,-21.0,168.0,-978.0,186.0,279.0,726.0,-555.0,327.0
19:50:59.007000,-56.0,-39.0,201.0,-1076.0,249.0,272.0,726.0,-555.0,327.0
19:50:59.012000,-63.0,-39.0,226.0,-1191.0,323.0,260.0,705.0,-556.0,330.0
19:50:59.017000,-89.0,-18.0,249.0,-1300.0,366.0,245.0,705.0,-556.0,330.0
19:50:59.022000,-123.0,18.0,280.0,-1384.0,360.0,220.0,718.0,-559.0,330.0
19:50:59.026000,-142.0,70.0,315.0,-1446.0,315.0,182.0,718.0,-559.0,330.0
19:50:59.031000,-136.0,137.0,345.0,-1493.0,257.0,135.0,718.0,-559.0,330.0
19:50:59.036000,-107.0,214.0,363.0,-1518.0,205.0,83.0,717.0,-561.0,330.0
19:50:59.041000,-62.0,295.0,368.0,-1505.0,161.0,37.0,717.0,-561.0,330.0
19:50:59.045000,-11.0,372.0,366.0,-1448.0,125.0,7.0,706.0,-556.0,331.0
19:50:59.050000,42.0,429.0,359.0,-1351.0,101.0,-1.0,706.0,-556.0,331.0
19:50:59.054000,97.0,457.0,351.0,-1228.0,106.0,14.0,706.0,-556.0,331.0
19:50:59.059000,143.0,442.0,324.0,-1087.0,145.0,54.0,721.0,-558.0,337.0
19:50:59.064000,181.0,385.0,273.0,-929.0,186.0,94.0,721.0,-558.0,337.0
19:50:59.069000,218.0,296.0,238.0,-929.0,186.0,94.0,720.0,-556.0,339.0
19:50:59.073000,249.0,191.0,238.0,-801.0,228.0,116.0,720.0,-556.0,339.0
19:50:59.078000,246.0,91.0,252.0,-780.0,318.0,126.0,720.0,-556.0,339.0
19:50:59.083000,200.0,16.0,259.0,-872.0,460.0,134.0,712.0,-562.0,345.0
19:50:59.088000,126.0,-30.0,282.0,-1004.0,569.0,141.0,712.0,-562.0,345.0
19:50:59.092000,64.0,-50.0,342.0,-1097.0,565.0,147.0,702.0,-564.0,348.0
19:50:59.097000,53.0,-51.0,408.0,-1129.0,462.0,140.0,702.0,-564.0,348.0
19:50:59.101000,53.0,-51.0,408.0,-1125.0,347.0,123.0,702.0,-564.0,348.0
19:50:59.106000,154.0,-35.0,413.0,-1129.0,302.0,115.0,702.0,-559.0,364.0
19:50:59.111000,205.0,-22.0,381.0,-1159.0,330.0,120.0,702.0,-559.0,364.0
19:50:59.116000,205.0,-22.0,381.0,-1199.0,374.0,126.0,703.0,-559.0,346.0
19:50:59.120000,241.0,-9.0,364.0,-1220.0,387.0,117.0,703.0,-559.0,346.0
19:50:59.125000,276.0,3.0,357.0,-1216.0,374.0,95.0,703.0,-559.0,346.0
19:50:59.130000,314.0,7.0,358.0,-1198.0,371.0,70.0,699.0,-561.0,349.0
19:50:59.135000,338.0,1.0,377.0,-1173.0,410.0,50.0,699.0,-561.0,349.0
19:50:59.139000,318.0,-12.0,422.0,-1149.0,486.0,41.0,696.0,-552.0,352.0
19:50:59.144000,240.0,-29.0,470.0,-1104.0,536.0,31.0,696.0,-552.0,352.0
19:50:59.148000,124.0,-45.0,503.0,-1006.0,471.0,5.0,696.0,-552.0,352.0
19:50:59.153000,5.0,-58.0,536.0,-869.0,285.0,-40.0,687.0,-562.0,352.0
19:50:59.158000,-97.0,-63.0,568.0,-745.0,51.0,-98.0,687.0,-562.0,352.0
19:50:59.163000,-172.0,-54.0,570.0,-745.0,51.0,-98.0,681.0,-567.0,355.0
19:50:59.167000,-215.0,-25.0,539.0,-573.0,-411.0,-224.0,681.0,-567.0,355.0
19:50:59.172000,-231.0,16.0,496.0,-486.0,-602.0,-270.0,681.0,-567.0,355.0
19:50:59.177000,-222.0,60.0,452.0,-486.0,-602.0,-270.0,691.0,-564.0,354.0
19:50:59.182000,-190.0,88.0,393.0,-388.0,-733.0,-287.0,691.0,-564.0,354.0
19:50:59.186000,-134.0,84.0,323.0,-289.0,-790.0,-274.0,681.0,-570.0,349.0
19:50:59.191000,-57.0,37.0,272.0,-200.0,-708.0,-199.0,681.0,-570.0,349.0
19:50:59.195000,19.0,-37.0,270.0,-200.0,-708.0,-199.0,681.0,-570.0,349.0
19:50:59.200000,59.0,-112.0,304.0,-298.0,-555.0,-159.0,678.0,-570.0,351.0
19:50:59.205000,39.0,-168.0,336.0,-508.0,-338.0,-124.0,678.0,-570.0,351.0
19:50:59.210000,-37.0,-204.0,357.0,-753.0,-133.0,-91.0,673.0,-573.0,360.0
19:50:59.214000,-146.0,-226.0,394.0,-955.0,-18.0,-63.0,673.0,-573.0,360.0
19:50:59.219000,-146.0,-226.0,394.0,-1095.0,-33.0,-51.0,673.0,-573.0,360.0
19:50:59.224000,-248.0,-232.0,477.0,-1202.0,-162.0,-65.0,678.0,-570.0,357.0
19:50:59.229000,-324.0,-218.0,600.0,-1308.0,-356.0,-105.0,678.0,-570.0,357.0
19:50:59.233000,-357.0,-177.0,736.0,-1389.0,-600.0,-153.0,669.0,-576.0,349.0
19:50:59.238000,-336.0,-110.0,882.0,-1404.0,-883.0,-196.0,669.0,-576.0,349.0
19:50:59.242000,-237.0,-25.0,1028.0,-1336.0,-1131.0,-239.0,669.0,-576.0,349.0
19:50:59.247000,-74.0,65.0,1141.0,-1191.0,-1232.0,-253.0,669.0,-574.0,355.0
19:50:59.252000,109.0,132.0,1199.0,-1012.0,-1125.0,-205.0,669.0,-574.0,355.0
19:50:59.257000,247.0,151.0,1214.0,-851.0,-855.0,-94.0,657.0,-586.0,360.0
19:50:59.261000,278.0,124.0,1206.0,-711.0,-551.0,49.0,657.0,-586.0,360.0
19:50:59.266000,223.0,53.0,1194.0,-569.0,-353.0,171.0,657.0,-586.0,360.0
19:50:59.271000,121.0,-42.0,1204.0,-423.0,-322.0,223.0,648.0,-601.0,367.0
19:50:59.276000,40.0,-133.0,1279.0,-342.0,-378.0,247.0,648.0,-601.0,367.0
19:50:59.280000,7.0,-224.0,1419.0,-342.0,-378.0,247.0,627.0,-609.0,367.0
19:50:59.285000,-19.0,-313.0,1541.0,-413.0,-352.0,307.0,627.0,-609.0,367.0
19:50:59.289000,-74.0,-362.0,1622.0,-626.0,-201.0,366.0,627.0,-609.0,367.0
19:50:59.294000,-143.0,-329.0,1760.0,-861.0,-113.0,371.0,628.0,-616.0,363.0
19:50:59.299000,-161.0,-222.0,2019.0,-994.0,-277.0,308.0,628.0,-616.0,363.0
19:50:59.304000,-97.0,-77.0,2333.0,-987.0,-615.0,196.0,630.0,-631.0,361.0
19:50:59.308000,5.0,74.0,2567.0,-888.0,-840.0,86.0,630.0,-631.0,361.0
19:50:59.313000,63.0,186.0,2660.0,-741.0,-768.0,26.0,630.0,-631.0,361.0
19:50:59.318000,38.0,242.0,2688.0,-536.0,-515.0,14.0,619.0,-639.0,357.0
19:50:59.323000,-21.0,255.0,2739.0,-282.0,-324.0,3.0,619.0,-639.0,357.0
19:50:59.327000,-59.0,233.0,2811.0,-43.0,-297.0,-23.0,598.0,-654.0,363.0
19:50:59.332000,-59.0,233.0,2811.0,123.0,-363.0,-48.0,598.0,-654.0,363.0
19:50:59.336000,-65.0,185.0,2856.0,226.0,-405.0,-63.0,598.0,-654.0,363.0
19:50:59.341000,-50.0,126.0,2870.0,298.0,-384.0,-68.0,556.0,-679.0,366.0
19:50:59.346000,-44.0,60.0,2891.0,352.0,-328.0,-71.0,556.0,-679.0,366.0
19:50:59.351000,-61.0,2.0,2956.0,376.0,-284.0,-77.0,541.0,-705.0,370.0
19:50:59.355000,-103.0,-38.0,3075.0,360.0,-279.0,-83.0,541.0,-705.0,370.0
19:50:59.360000,-155.0,-52.0,3227.0,325.0,-326.0,-87.0,541.0,-705.0,370.0
19:50:59.365000,-203.0,-38.0,3381.0,328.0,-441.0,-90.0,526.0,-714.0,360.0
19:50:59.370000,-223.0,-3.0,3541.0,402.0,-612.0,-97.0,526.0,-714.0,360.0
19:50:59.374000,-200.0,45.0,3711.0,516.0,-791.0,-109.0,501.0,-738.0,367.0
19:50:59.379000,-142.0,96.0,3892.0,631.0,-926.0,-127.0,501.0,-738.0,367.0
19:50:59.383000,-66.0,147.0,4076.0,723.0,-991.0,-153.0,501.0,-738.0,367.0
19:50:59.388000,6.0,195.0,4246.0,776.0,-986.0,-189.0,475.0,-747.0,373.0
19:50:59.393000,58.0,238.0,4395.0,776.0,-940.0,-189.0,475.0,-747.0,373.0
19:50:59.398000,72.0,282.0,4496.0,782.0,-940.0,-232.0,444.0,-774.0,363.0
19:50:59.402000,79.0,318.0,4549.0,774.0,-910.0,-284.0,444.0,-774.0,363.0
19:50:59.407000,115.0,332.0,4578.0,793.0,-929.0,-340.0,444.0,-774.0,363.0
19:50:59.421000,306.0,193.0,4381.0,630.0,-556.0,-383.0,333.0,-783.0,399.0
19:50:59.426000,310.0,119.0,4164.0,407.0,-227.0,-347.0,333.0,-783.0,399.0
19:50:59.431000,298.0,40.0,3943.0,180.0,30.0,-311.0,304.0,-796.0,376.0
19:50:59.435000,284.0,-35.0,3739.0,-39.0,188.0,-271.0,304.0,-796.0,376.0
19:50:59.439000,284.0,-35.0,3739.0,-276.0,305.0,-229.0,304.0,-796.0,376.0
19:50:59.445000,257.0,-98.0,3535.0,-518.0,405.0,-192.0,285.0,-789.0,391.0
19:50:59.449000,214.0,-127.0,3333.0,-726.0,456.0,-167.0,285.0,-789.0,391.0
19:50:59.454000,163.0,-114.0,3161.0,-869.0,445.0,-151.0,261.0,-796.0,382.0
19:50:59.459000,112.0,-68.0,3027.0,-933.0,396.0,-134.0,261.0,-796.0,382.0
19:50:59.463000,73.0,2.0,2916.0,-919.0,346.0,-104.0,261.0,-796.0,382.0
19:50:59.468000,49.0,71.0,2796.0,-823.0,341.0,-53.0,247.0,-795.0,388.0
19:50:59.473000,61.0,105.0,2606.0,-634.0,398.0,12.0,247.0,-795.0,388.0
19:50:59.478000,107.0,93.0,2319.0,-372.0,469.0,78.0,214.0,-790.0,391.0
19:50:59.482000,170.0,42.0,2000.0,-158.0,526.0,123.0,214.0,-790.0,391.0
19:50:59.486000,223.0,-20.0,1728.0,-165.0,606.0,138.0,214.0,-790.0,391.0
19:50:59.492000,240.0,-54.0,1512.0,-415.0,713.0,112.0,205.0,-781.0,396.0
19:50:59.496000,224.0,-30.0,1323.0,-733.0,790.0,55.0,205.0,-781.0,396.0
19:50:59.501000,205.0,46.0,1164.0,-733.0,790.0,55.0,195.0,-784.0,405.0
19:50:59.506000,199.0,156.0,1067.0,-944.0,801.0,-7.0,195.0,-784.0,405.0
19:50:59.510000,207.0,272.0,1028.0,-870.0,729.0,-82.0,195.0,-784.0,405.0
19:50:59.515000,221.0,352.0,1012.0,-870.0,729.0,-82.0,181.0,-784.0,418.0
19:50:59.520000,217.0,376.0,1003.0,-650.0,733.0,-74.0,181.0,-784.0,418.0
19:50:59.525000,175.0,364.0,1002.0,-410.0,798.0,-48.0,177.0,-771.0,403.0
19:50:59.529000,76.0,318.0,1011.0,-222.0,898.0,-8.0,177.0,-771.0,403.0
19:50:59.533000,-60.0,260.0,1022.0,-95.0,970.0,31.0,177.0,-771.0,403.0
19:50:59.539000,-186.0,187.0,1013.0,-8.0,958.0,48.0,171.0,-763.0,399.0
19:50:59.543000,-274.0,108.0,1002.0,53.0,843.0,49.0,171.0,-763.0,399.0
19:50:59.548000,-316.0,36.0,1001.0,86.0,649.0,39.0,165.0,-757.0,406.0
19:50:59.553000,-316.0,36.0,1001.0,70.0,437.0,27.0,165.0,-757.0,406.0
19:50:59.560000,-305.0,-34.0,989.0,-33.0,80.0,9.0,151.0,-762.0,403.0
19:50:59.562000,-305.0,-34.0,989.0,-33.0,80.0,9.0,151.0,-762.0,403.0
19:50:59.566000,-272.0,-39.0,970.0,-68.0,-66.0,-2.0,151.0,-762.0,403.0
19:50:59.572000,-246.0,-33.0,946.0,-106.0,-188.0,-11.0,142.0,-753.0,405.0
19:50:59.576000,-236.0,-16.0,912.0,-170.0,-279.0,-34.0,142.0,-753.0,405.0
19:50:59.581000,-236.0,14.0,838.0,-243.0,-367.0,-74.0,144.0,-744.0,409.0
19:50:59.586000,-230.0,56.0,707.0,-278.0,-462.0,-116.0,144.0,-744.0,409.0
19:50:59.590000,-212.0,91.0,534.0,-268.0,-530.0,-139.0,144.0,-744.0,409.0
19:50:59.595000,-199.0,116.0,338.0,-241.0,-538.0,-141.0,148.0,-747.0,412.0
19:50:59.600000,-212.0,129.0,121.0,-199.0,-523.0,-133.0,148.0,-747.0,412.0
19:50:59.604000,-243.0,126.0,-100.0,-135.0,-537.0,-137.0,147.0,-738.0,405.0
19:50:59.609000,-273.0,112.0,-323.0,-76.0,-574.0,-150.0,147.0,-738.0,405.0
19:50:59.613000,-296.0,84.0,-559.0,-76.0,-574.0,-150.0,147.0,-738.0,405.0
19:50:59.619000,-305.0,43.0,-816.0,-40.0,-622.0,-163.0,141.0,-735.0,409.0
19:50:59.623000,-294.0,2.0,-1061.0,-18.0,-699.0,-180.0,141.0,-735.0,409.0
19:50:59.628000,-257.0,-29.0,-1279.0,-8.0,-821.0,-195.0,150.0,-742.0,408.0
19:50:59.633000,-253.0,56.0,-1487.0,-3.0,-988.0,-257.0,150.0,-742.0,408.0
19:50:59.637000,-200.0,600.0,-1473.0,277.0,-1583.0,-389.0,150.0,-742.0,408.0
19:50:59.642000,-148.0,-253.0,2082.0,1539.0,-2799.0,-50.0,166.0,-732.0,400.0
19:50:59.647000,-1063.0,-2090.0,5367.0,3261.0,-3570.0,1128.0,166.0,-732.0,400.0
19:50:59.652000,5217.0,-5483.0,-14852.0,942.0,29.0,435.0,169.0,-729.0,414.0
19:50:59.656000,5310.0,-7028.0,-22680.0,-3053.0,3795.0,1072.0,169.0,-729.0,414.0
19:50:59.660000,5310.0,-7028.0,-22680.0,-2724.0,3086.0,-235.0,169.0,-729.0,414.0
19:50:59.665000,2396.0,1074.0,-14096.0,1063.0,483.0,-1601.0,340.0,-700.0,448.0
19:50:59.670000,-972.0,2591.0,3665.0,1831.0,-2266.0,1875.0,340.0,-700.0,448.0
19:50:59.675000,-4555.0,606.0,7148.0,-1698.0,-1812.0,2167.0,306.0,-703.0,438.0
19:50:59.680000,-3811.0,-285.0,2265.0,-3637.0,-523.0,-266.0,306.0,-703.0,438.0
19:50:59.684000,544.0,-28.0,-784.0,-1964.0,-2266.0,-1172.0,306.0,-703.0,438.0
19:50:59.689000,176.0,764.0,417.0,921.0,-3483.0,-258.0,307.0,-714.0,429.0
19:50:59.694000,-1068.0,861.0,1065.0,1129.0,-2527.0,328.0,307.0,-714.0,429.0
19:50:59.699000,14.0,253.0,-170.0,26.0,-2280.0,285.0,288.0,-717.0,430.0
19:50:59.703000,931.0,-110.0,-1676.0,-717.0,-3050.0,57.0,288.0,-717.0,430.0
19:50:59.707000,996.0,93.0,-1409.0,-437.0,-3176.0,6.0,288.0,-717.0,430.0
19:50:59.713000,125.0,506.0,-81.0,643.0,-2433.0,79.0,294.0,-706.0,433.0
19:50:59.717000,424.0,247.0,263.0,755.0,-1979.0,365.0,294.0,-706.0,433.0
19:50:59.722000,522.0,-188.0,-793.0,755.0,-1979.0,365.0,298.0,-693.0,439.0
19:50:59.727000,724.0,-503.0,-1712.0,144.0,-1806.0,429.0,298.0,-693.0,439.0
19:50:59.731000,1210.0,-444.0,-2075.0,-338.0,-2069.0,-207.0,298.0,-693.0,439.0
19:50:59.736000,764.0,-336.0,-1755.0,-338.0,-2069.0,-207.0,310.0,-681.0,456.0
19:50:59.741000,329.0,-583.0,-1190.0,-398.0,-2003.0,99.0,310.0,-681.0,456.0
19:50:59.746000,154.0,-391.0,-1920.0,-481.0,-1616.0,-68.0,328.0,-669.0,441.0
19:50:59.750000,-444.0,-437.0,-1952.0,397.0,-1721.0,-204.0,328.0,-669.0,441.0
19:50:59.754000,-444.0,-437.0,-1952.0,545.0,-2120.0,263.0,328.0,-669.0,441.0
19:50:59.760000,-7.0,-602.0,-1781.0,-481.0,-2505.0,-132.0,336.0,-658.0,444.0
19:50:59.764000,-32.0,-480.0,-3087.0,-636.0,-2519.0,-491.0,336.0,-658.0,444.0
19:50:59.769000,-32.0,-480.0,-3087.0,-117.0,-2531.0,-114.0,349.0,-661.0,444.0
19:50:59.773000,312.0,-761.0,-2962.0,312.0,-2932.0,-11.0,349.0,-661.0,444.0
19:50:59.778000,228.0,-786.0,-2317.0,339.0,-2625.0,-104.0,349.0,-661.0,444.0
19:50:59.783000,19.0,-610.0,-2860.0,-118.0,-2201.0,-131.0,373.0,-658.0,457.0
19:50:59.788000,140.0,-676.0,-2842.0,-575.0,-2653.0,-85.0,373.0,-658.0,457.0
19:50:59.793000,151.0,-568.0,-2404.0,-427.0,-2850.0,-292.0,373.0,-639.0,436.0
19:50:59.797000,688.0,-478.0,-2711.0,-38.0,-3109.0,-201.0,373.0,-639.0,436.0
19:50:59.801000,-58.0,-240.0,-3118.0,74.0,-2436.0,-96.0,373.0,-639.0,436.0
19:50:59.807000,835.0,-648.0,-3661.0,-191.0,-2255.0,-42.0,412.0,-619.0,444.0
19:50:59.811000,820.0,-715.0,-2902.0,-486.0,-3199.0,-181.0,412.0,-619.0,444.0
19:50:59.815000,-70.0,-103.0,-2518.0,-455.0,-2722.0,-373.0,427.0,-609.0,435.0
19:50:59.821000,55.0,-136.0,-3299.0,-283.0,-2488.0,-174.0,427.0,-609.0,435.0
19:50:59.825000,471.0,-354.0,-3288.0,36.0,-2950.0,-268.0,427.0,-609.0,435.0
19:50:59.830000,168.0,-223.0,-2120.0,36.0,-2543.0,-337.0,432.0,-607.0,444.0
19:50:59.835000,432.0,-393.0,-2760.0,-199.0,-2543.0,-337.0,432.0,-607.0,444.0
19:50:59.840000,929.0,-462.0,-3068.0,-837.0,-2429.0,-421.0,450.0,-594.0,444.0
19:50:59.844000,233.0,-112.0,-2751.0,-518.0,-2984.0,-547.0,450.0,-594.0,444.0
19:50:59.848000,-59.0,-130.0,-2866.0,35.0,-2663.0,-438.0,450.0,-594.0,444.0
19:50:59.854000,459.0,-457.0,-3101.0,-230.0,-2252.0,-314.0,460.0,-570.0,448.0
19:50:59.858000,390.0,-282.0,-2585.0,-345.0,-2326.0,-559.0,460.0,-570.0,448.0
19:50:59.863000,651.0,-541.0,-1896.0,-426.0,-2363.0,-396.0,465.0,-564.0,447.0
19:50:59.868000,350.0,-459.0,-2221.0,-871.0,-2136.0,-76.0,465.0,-564.0,447.0
19:50:59.872000,-152.0,-184.0,-2708.0,-840.0,-2034.0,-344.0,471.0,-568.0,442.0
19:50:59.877000,-233.0,174.0,-3245.0,-807.0,-2078.0,-747.0,471.0,-568.0,442.0
19:50:59.881000,-233.0,156.0,-3369.0,-657.0,-2326.0,-228.0,471.0,-568.0,442.0
19:50:59.887000,261.0,-437.0,-2875.0,-384.0,-2326.0,-96.0,496.0,-525.0,441.0
19:50:59.891000,311.0,-319.0,-1823.0,-599.0,-2017.0,-408.0,496.0,-525.0,441.0
19:50:59.896000,-617.0,-21.0,-2066.0,-742.0,-2043.0,-181.0,501.0,-517.0,442.0
19:50:59.901000,-212.0,-110.0,-1995.0,-607.0,-2435.0,-363.0,501.0,-517.0,442.0
19:50:59.905000,498.0,-238.0,-1624.0,-232.0,-2429.0,-214.0,501.0,-517.0,442.0
19:50:59.910000,246.0,-321.0,-1972.0,-166.0,-1786.0,37.0,490.0,-508.0,439.0
19:50:59.915000,-295.0,-291.0,-2007.0,-632.0,-1889.0,-307.0,490.0,-508.0,439.0
19:50:59.919000,-487.0,-13.0,-1770.0,-1012.0,-2192.0,-394.0,516.0,-508.0,438.0
19:50:59.924000,-176.0,-10.0,-1948.0,-692.0,-2001.0,-360.0,516.0,-508.0,438.0
19:50:59.928000,-144.0,237.0,-1627.0,-127.0,-2021.0,-196.0,516.0,-508.0,438.0
19:50:59.934000,-24.0,-79.0,-1282.0,-245.0,-1824.0,-294.0,508.0,-487.0,447.0
19:50:59.938000,403.0,-38.0,-1346.0,-729.0,-1750.0,-370.0,508.0,-487.0,447.0
19:50:59.942000,483.0,-209.0,-1311.0,-764.0,-1854.0,-391.0,520.0,-493.0,445.0
19:50:59.948000,840.0,-64.0,-1428.0,-764.0,-1854.0,-391.0,520.0,-493.0,445.0
19:50:59.952000,1190.0,-82.0,-1521.0,-681.0,-1643.0,-639.0,520.0,-493.0,445.0
19:50:59.957000,695.0,-72.0,-1539.0,-574.0,-1688.0,-298.0,522.0,-465.0,438.0
19:50:59.962000,228.0,16.0,-1369.0,9.0,-1709.0,-213.0,522.0,-465.0,438.0
19:50:59.966000,63.0,-202.0,-973.0,509.0,-1751.0,-209.0,522.0,-456.0,438.0
19:50:59.971000,70.0,-373.0,-823.0,359.0,-1861.0,-180.0,522.0,-456.0,438.0
19:50:59.975000,70.0,-373.0,-823.0,-56.0,-1854.0,-464.0,522.0,-456.0,438.0
19:50:59.981000,378.0,-290.0,-501.0,-507.0,-1596.0,-441.0,525.0,-459.0,439.0
19:50:59.985000,106.0,-123.0,-474.0,-875.0,-1066.0,-289.0,525.0,-459.0,439.0
19:50:59.990000,106.0,-123.0,-474.0,-900.0,-1034.0,-324.0,523.0,-456.0,450.0
19:50:59.995000,-194.0,-25.0,-749.0,-919.0,-1266.0,-95.0,523.0,-456.0,450.0
19:50:59.999000,-515.0,-132.0,-1197.0,-620.0,-1687.0,-218.0,523.0,-456.0,450.0
19:51:00.004000,-408.0,-233.0,-1090.0,-380.0,-2194.0,-464.0,528.0,-459.0,445.0
19:51:00.009000,-148.0,-201.0,-840.0,-568.0,-1551.0,-434.0,528.0,-459.0,445.0
19:51:00.013000,-125.0,-1.0,-1314.0,-671.0,-629.0,-119.0,528.0,-459.0,444.0
19:51:00.018000,-387.0,-89.0,-1894.0,-271.0,-993.0,130.0,528.0,-459.0,444.0
19:51:00.022000,-516.0,-358.0,-1724.0,-52.0,-1929.0,152.0,528.0,-459.0,444.0
19:51:00.028000,-487.0,-743.0,-1043.0,-724.0,-2009.0,1.0,549.0,-432.0,441.0
19:51:00.032000,-337.0,-725.0,-811.0,-1309.0,-1474.0,-435.0,549.0,-432.0,441.0
19:51:00.037000,-130.0,-327.0,-1117.0,-1309.0,-1474.0,-435.0,532.0,-438.0,436.0
19:51:00.042000,-108.0,-186.0,-1369.0,-1046.0,-1010.0,-77.0,532.0,-438.0,436.0
19:51:00.046000,-238.0,-207.0,-1654.0,-781.0,-777.0,60.0,532.0,-438.0,436.0
19:51:00.051000,-415.0,-277.0,-1586.0,-781.0,-777.0,60.0,543.0,-427.0,430.0
19:51:00.056000,-536.0,-373.0,-1214.0,-554.0,-972.0,99.0,543.0,-427.0,430.0
19:51:00.060000,-437.0,-231.0,-1481.0,-904.0,-1277.0,-116.0,556.0,-424.0,429.0
19:51:00.065000,-337.0,-123.0,-1780.0,-971.0,-1340.0,-316.0,556.0,-424.0,429.0
19:51:00.069000,-237.0,-74.0,-1826.0,-715.0,-1301.0,-240.0,556.0,-424.0,429.0
19:51:00.075000,-319.0,-143.0,-1479.0,-692.0,-1301.0,-126.0,538.0,-414.0,432.0
19:51:00.079000,-614.0,-161.0,-1243.0,-749.0,-1276.0,-34.0,538.0,-414.0,432.0
19:51:00.084000,-605.0,-268.0,-1326.0,-691.0,-1123.0,-75.0,552.0,-417.0,429.0
19:51:00.089000,-103.0,-53.0,-735.0,-496.0,-1272.0,-290.0,552.0,-417.0,429.0
19:51:00.093000,-103.0,-53.0,-735.0,-869.0,-2504.0,-847.0,552.0,-417.0,429.0
19:51:00.098000,763.0,294.0,1588.0,-2144.0,-2494.0,-480.0,549.0,-400.0,426.0
19:51:00.103000,215.0,-45.0,629.0,-2707.0,-443.0,244.0,549.0,-400.0,426.0
19:51:00.107000,-10.0,-434.0,-2083.0,-1370.0,234.0,-86.0,555.0,-399.0,427.0
19:51:00.111000,46.0,-359.0,-3182.0,332.0,-265.0,-188.0,555.0,-399.0,427.0
19:51:00.116000,-182.0,-399.0,-2887.0,1103.0,-719.0,-211.0,555.0,-399.0,427.0
19:51:00.122000,345.0,-305.0,-1250.0,708.0,-1866.0,-442.0,540.0,-384.0,426.0
19:51:00.126000,309.0,-143.0,372.0,-623.0,-1063.0,-178.0,540.0,-384.0,426.0
19:51:00.131000,-358.0,-87.0,-1184.0,-1092.0,297.0,-51.0,555.0,-384.0,418.0
19:51:00.136000,-179.0,-326.0,-2219.0,-326.0,-551.0,-103.0,555.0,-384.0,418.0
19:51:00.140000,-212.0,-473.0,-1808.0,115.0,-1269.0,-167.0,555.0,-384.0,418.0
19:51:00.145000,-279.0,-424.0,-1023.0,-256.0,-1169.0,-308.0,558.0,-370.0,427.0
19:51:00.150000,-154.0,-399.0,-509.0,-752.0,-1510.0,-493.0,558.0,-370.0,427.0
19:51:00.154000,112.0,-130.0,393.0,-1334.0,-1444.0,-451.0,559.0,-372.0,412.0
19:51:00.159000,-177.0,15.0,-148.0,-1334.0,-1444.0,-451.0,559.0,-372.0,412.0
19:51:00.163000,-63.0,-44.0,-1054.0,-1577.0,-336.0,-225.0,559.0,-372.0,412.0
19:51:00.169000,63.0,45.0,-821.0,-844.0,-251.0,-379.0,549.0,-379.0,430.0
19:51:00.173000,-62.0,-44.0,-574.0,-422.0,-680.0,-304.0,549.0,-379.0,430.0
19:51:00.178000,79.0,14.0,-386.0,-558.0,-831.0,-214.0,553.0,-369.0,424.0
19:51:00.183000,261.0,137.0,-93.0,-674.0,-1179.0,-361.0,553.0,-369.0,424.0
19:51:00.187000,168.0,148.0,-241.0,-902.0,-1144.0,-266.0,553.0,-369.0,424.0
19:51:00.192000,53.0,81.0,-318.0,-832.0,-695.0,-96.0,561.0,-363.0,423.0
19:51:00.196000,53.0,81.0,-318.0,-544.0,-299.0,-69.0,561.0,-363.0,423.0
19:51:00.201000,-140.0,-123.0,-392.0,-577.0,-247.0,-28.0,556.0,-361.0,433.0
19:51:00.206000,-140.0,-123.0,-392.0,-754.0,-531.0,-40.0,556.0,-361.0,433.0
19:51:00.211000,-188.0,-125.0,-159.0,-959.0,-714.0,-121.0,552.0,-360.0,420.0
19:51:00.216000,-184.0,-55.0,-108.0,-1148.0,-797.0,-78.0,552.0,-360.0,420.0
19:51:00.220000,-254.0,-79.0,-421.0,-898.0,-789.0,62.0,552.0,-360.0,420.0
19:51:00.225000,-413.0,-162.0,-488.0,-604.0,-664.0,30.0,558.0,-360.0,411.0
19:51:00.230000,-369.0,-164.0,-476.0,-724.0,-699.0,-30.0,558.0,-360.0,411.0
19:51:00.234000,-319.0,-231.0,-478.0,-877.0,-859.0,41.0,567.0,-355.0,415.0
19:51:00.239000,-357.0,-282.0,-400.0,-789.0,-765.0,32.0,567.0,-355.0,415.0
19:51:00.243000,-422.0,-289.0,-185.0,-739.0,-614.0,53.0,567.0,-355.0,415.0
19:51:00.248000,-475.0,-310.0,-107.0,-889.0,-601.0,-8.0,561.0,-360.0,423.0
19:51:00.253000,-426.0,-231.0,-312.0,-1077.0,-721.0,-35.0,561.0,-360.0,423.0
19:51:00.258000,-389.0,-221.0,-463.0,-1077.0,-721.0,-35.0,570.0,-358.0,417.0
19:51:00.263000,-298.0,-144.0,-465.0,-1112.0,-965.0,-15.0,570.0,-358.0,417.0
19:51:00.267000,-268.0,-145.0,-374.0,-1112.0,-957.0,5.0,570.0,-358.0,417.0
19:51:00.272000,-178.0,-119.0,-233.0,-1066.0,-957.0,5.0,577.0,-363.0,414.0
19:51:00.277000,-229.0,-140.0,-135.0,-959.0,-890.0,6.0,577.0,-363.0,414.0
19:51:00.281000,-340.0,-158.0,-284.0,-866.0,-692.0,77.0,558.0,-361.0,408.0
19:51:00.286000,-397.0,-285.0,-385.0,-723.0,-530.0,62.0,558.0,-361.0,408.0
19:51:00.290000,-335.0,-262.0,-480.0,-723.0,-530.0,62.0,558.0,-361.0,408.0
19:51:00.295000,-265.0,-147.0,-525.0,-947.0,-605.0,-69.0,561.0,-348.0,424.0
19:51:00.300000,-165.0,-111.0,-237.0,-1003.0,-800.0,-65.0,561.0,-348.0,424.0
19:51:00.305000,-112.0,-61.0,-114.0,-973.0,-917.0,-15.0,570.0,-352.0,409.0
19:51:00.309000,-153.0,-14.0,-252.0,-1030.0,-823.0,-4.0,570.0,-352.0,409.0
19:51:00.314000,-153.0,-14.0,-252.0,-923.0,-582.0,57.0,570.0,-352.0,409.0
19:51:00.319000,-256.0,-39.0,-287.0,-751.0,-404.0,36.0,556.0,-355.0,420.0
19:51:00.324000,-279.0,-4.0,-203.0,-729.0,-496.0,11.0,556.0,-355.0,420.0
19:51:00.328000,-221.0,-87.0,-246.0,-834.0,-656.0,52.0,565.0,-348.0,429.0
19:51:00.333000,-183.0,-92.0,-162.0,-957.0,-704.0,-43.0,565.0,-348.0,429.0
19:51:00.337000,-142.0,25.0,-194.0,-1050.0,-701.0,-85.0,565.0,-348.0,429.0
19:51:00.342000,-93.0,66.0,-231.0,-962.0,-762.0,-12.0,567.0,-354.0,409.0
19:51:00.347000,-75.0,28.0,-70.0,-890.0,-697.0,8.0,567.0,-354.0,409.0
19:51:00.352000,-121.0,37.0,7.0,-918.0,-550.0,0.0,565.0,-358.0,406.0
19:51:00.356000,-135.0,14.0,-179.0,-922.0,-524.0,-11.0,565.0,-358.0,406.0
19:51:00.361000,-90.0,-25.0,-366.0,-793.0,-656.0,-31.0,565.0,-358.0,406.0
19:51:00.365000,-60.0,-19.0,-247.0,-738.0,-699.0,-60.0,561.0,-355.0,406.0
19:51:00.371000,-44.0,1.0,-72.0,-968.0,-579.0,-97.0,561.0,-355.0,406.0
19:51:00.375000,-82.0,95.0,-52.0,-1150.0,-585.0,-85.0,564.0,-355.0,414.0
19:51:00.380000,-102.0,112.0,-19.0,-1150.0,-585.0,-85.0,564.0,-355.0,414.0
19:51:00.384000,-137.0,51.0,4.0,-1039.0,-634.0,-32.0,564.0,-355.0,414.0
19:51:00.389000,-114.0,39.0,-203.0,-929.0,-555.0,-57.0,555.0,-358.0,418.0
19:51:00.394000,-129.0,60.0,-263.0,-882.0,-594.0,-113.0,555.0,-358.0,418.0
19:51:00.399000,-84.0,42.0,-130.0,-810.0,-705.0,-105.0,561.0,-352.0,417.0
19:51:00.403000,-4.0,35.0,-35.0,-893.0,-661.0,-113.0,561.0,-352.0,417.0
19:51:00.408000,55.0,36.0,-74.0,-977.0,-601.0,-138.0,561.0,-352.0,417.0
19:51:00.413000,23.0,67.0,-231.0,-946.0,-565.0,-138.0,567.0,-346.0,417.0
19:51:00.417000,23.0,67.0,-231.0,-870.0,-523.0,-79.0,567.0,-346.0,417.0
19:51:00.422000,-20.0,50.0,-294.0,-763.0,-561.0,-117.0,564.0,-352.0,442.0
19:51:00.427000,-20.0,50.0,-294.0,-706.0,-619.0,-140.0,564.0,-352.0,442.0
19:51:00.432000,48.0,-58.0,-257.0,-724.0,-616.0,-110.0,567.0,-345.0,414.0
19:51:00.436000,19.0,-66.0,-203.0,-819.0,-505.0,-96.0,567.0,-345.0,414.0
19:51:00.440000,-47.0,-98.0,-257.0,-910.0,-432.0,-122.0,567.0,-345.0,414.0
19:51:00.446000,40.0,-52.0,-323.0,-906.0,-605.0,-149.0,570.0,-352.0,411.0
19:51:00.450000,39.0,-46.0,-205.0,-930.0,-667.0,-91.0,570.0,-352.0,411.0
19:51:00.455000,32.0,-56.0,-240.0,-952.0,-542.0,-58.0,573.0,-346.0,417.0
19:51:00.460000,-18.0,-81.0,-422.0,-899.0,-471.0,-78.0,573.0,-346.0,417.0
19:51:00.464000,-74.0,-60.0,-485.0,-876.0,-446.0,-118.0,573.0,-346.0,417.0
19:51:00.469000,-143.0,-33.0,-422.0,-867.0,-441.0,-100.0,570.0,-348.0,412.0
19:51:00.474000,-180.0,-49.0,-373.0,-813.0,-428.0,-104.0,570.0,-348.0,412.0
19:51:00.479000,-126.0,-84.0,-405.0,-813.0,-428.0,-104.0,553.0,-357.0,417.0
19:51:00.483000,-121.0,-139.0,-354.0,-730.0,-543.0,-59.0,553.0,-357.0,417.0
19:51:00.487000,-145.0,-173.0,-175.0,-730.0,-543.0,-59.0,553.0,-357.0,417.0
19:51:00.493000,-139.0,-191.0,-85.0,-782.0,-466.0,-71.0,565.0,-343.0,418.0
19:51:00.497000,-140.0,-212.0,-300.0,-887.0,-333.0,-66.0,565.0,-343.0,418.0
19:51:00.502000,-109.0,-203.0,-429.0,-891.0,-366.0,-71.0,570.0,-340.0,420.0
19:51:00.507000,-137.0,-228.0,-283.0,-778.0,-567.0,-63.0,570.0,-340.0,420.0
19:51:00.511000,-176.0,-232.0,-139.0,-767.0,-623.0,-37.0,570.0,-340.0,420.0
19:51:00.516000,-178.0,-229.0,-168.0,-875.0,-523.0,-50.0,564.0,-343.0,429.0
19:51:00.521000,-177.0,-224.0,-310.0,-892.0,-431.0,-58.0,564.0,-343.0,429.0
19:51:00.526000,-144.0,-267.0,-422.0,-816.0,-367.0,-38.0,564.0,-348.0,412.0
19:51:00.530000,-130.0,-260.0,-372.0,-756.0,-403.0,-30.0,564.0,-348.0,412.0
19:51:00.534000,-130.0,-260.0,-372.0,-772.0,-458.0,-35.0,564.0,-348.0,412.0
19:51:00.540000,-169.0,-247.0,-338.0,-843.0,-408.0,-15.0,567.0,-340.0,420.0
19:51:00.544000,-146.0,-284.0,-331.0,-876.0,-446.0,-36.0,567.0,-340.0,420.0
19:51:00.549000,-118.0,-296.0,-262.0,-905.0,-539.0,-56.0,574.0,-331.0,430.0
19:51:00.554000,-105.0,-307.0,-148.0,-951.0,-475.0,-54.0,574.0,-331.0,430.0
19:51:00.558000,-134.0,-275.0,-251.0,-923.0,-360.0,-63.0,574.0,-331.0,430.0
19:51:00.563000,-134.0,-252.0,-375.0,-838.0,-367.0,-29.0,573.0,-333.0,412.0
19:51:00.568000,-146.0,-291.0,-266.0,-800.0,-415.0,-20.0,573.0,-333.0,412.0
19:51:00.573000,-88.0,-279.0,-40.0,-932.0,-426.0,-39.0,576.0,-325.0,403.0
19:51:00.577000,-82.0,-247.0,-90.0,-1061.0,-432.0,-9.0,576.0,-325.0,403.0
19:51:00.581000,-121.0,-225.0,-289.0,-1011.0,-430.0,17.0,576.0,-325.0,403.0
19:51:00.587000,-98.0,-230.0,-382.0,-888.0,-365.0,4.0,579.0,-333.0,405.0
19:51:00.591000,-59.0,-186.0,-361.0,-852.0,-298.0,17.0,579.0,-333.0,405.0
19:51:00.596000,-88.0,-172.0,-391.0,-852.0,-329.0,17.0,573.0,-331.0,415.0
19:51:00.601000,-154.0,-194.0,-389.0,-871.0,-339.0,72.0,573.0,-331.0,415.0
19:51:00.606000,-140.0,-198.0,-232.0,-772.0,-440.0,90.0,573.0,-336.0,411.0
19:51:00.610000,-52.0,-175.0,-105.0,-762.0,-466.0,66.0,573.0,-336.0,411.0
19:51:00.614000,45.0,-173.0,-51.0,-914.0,-468.0,52.0,573.0,-336.0,411.0
19:51:00.620000,42.0,-122.0,-139.0,-1064.0,-475.0,53.0,583.0,-327.0,400.0
19:51:00.624000,14.0,-30.0,-298.0,-1161.0,-494.0,39.0,583.0,-327.0,400.0
19:51:00.629000,-73.0,-4.0,-395.0,-1113.0,-517.0,47.0,576.0,-330.0,411.0
19:51:00.634000,-169.0,-21.0,-330.0,-904.0,-413.0,95.0,576.0,-330.0,411.0
19:51:00.638000,-169.0,-21.0,-330.0,-735.0,-248.0,117.0,576.0,-330.0,411.0
19:51:00.643000,-224.0,-51.0,-218.0,-741.0,-204.0,90.0,562.0,-322.0,414.0
19:51:00.648000,-228.0,-68.0,-198.0,-833.0,-309.0,72.0,562.0,-322.0,414.0
19:51:00.653000,-193.0,-74.0,-234.0,-922.0,-396.0,80.0,580.0,-330.0,405.0
19:51:00.657000,-132.0,-67.0,-344.0,-922.0,-439.0,94.0,580.0,-330.0,405.0
19:51:00.661000,-78.0,-64.0,-382.0,-904.0,-486.0,86.0,580.0,-330.0,405.0
19:51:00.667000,-46.0,-28.0,-371.0,-972.0,-477.0,61.0,576.0,-327.0,412.0
19:51:00.671000,-61.0,30.0,-435.0,-1023.0,-451.0,70.0,576.0,-327.0,412.0
19:51:00.676000,-32.0,8.0,-478.0,-992.0,-418.0,82.0,592.0,-328.0,403.0
19:51:00.681000,13.0,4.0,-487.0,-917.0,-349.0,80.0,592.0,-328.0,403.0
19:51:00.685000,21.0,18.0,-500.0,-869.0,-311.0,99.0,592.0,-328.0,403.0
19:51:00.690000,26.0,0.0,-483.0,-868.0,-306.0,93.0,580.0,-313.0,423.0
19:51:00.695000,1.0,17.0,-487.0,-907.0,-327.0,79.0,580.0,-313.0,423.0
19:51:00.700000,-26.0,25.0,-529.0,-907.0,-327.0,79.0,582.0,-316.0,400.0
19:51:00.704000,-16.0,37.0,-548.0,-1001.0,-393.0,61.0,582.0,-316.0,400.0
19:51:00.708000,25.0,55.0,-569.0,-1001.0,-393.0,61.0,582.0,-316.0,400.0
19:51:00.714000,75.0,56.0,-548.0,-987.0,-405.0,68.0,576.0,-312.0,403.0
19:51:00.718000,135.0,86.0,-433.0,-931.0,-442.0,64.0,576.0,-312.0,403.0
19:51:00.723000,143.0,67.0,-375.0,-947.0,-439.0,70.0,579.0,-312.0,414.0
19:51:00.728000,95.0,72.0,-409.0,-1007.0,-354.0,98.0,579.0,-312.0,414.0
19:51:00.732000,40.0,107.0,-461.0,-977.0,-247.0,82.0,579.0,-312.0,414.0
19:51:00.737000,40.0,68.0,-511.0,-946.0,-178.0,92.0,559.0,-310.0,412.0
19:51:00.742000,21.0,59.0,-466.0,-903.0,-188.0,110.0,559.0,-310.0,412.0
19:51:00.747000,-1.0,50.0,-432.0,-870.0,-206.0,105.0,573.0,-315.0,415.0
19:51:00.751000,-10.0,53.0,-459.0,-929.0,-194.0,103.0,573.0,-315.0,415.0
19:51:00.755000,-10.0,53.0,-459.0,-979.0,-205.0,91.0,573.0,-315.0,415.0
19:51:00.761000,-34.0,79.0,-485.0,-982.0,-235.0,94.0,576.0,-307.0,417.0
19:51:00.765000,-46.0,67.0,-473.0,-952.0,-228.0,104.0,576.0,-307.0,417.0
19:51:00.770000,-60.0,58.0,-485.0,-917.0,-212.0,106.0,573.0,-303.0,417.0
19:51:00.775000,-46.0,56.0,-496.0,-881.0,-258.0,97.0,573.0,-303.0,417.0
19:51:00.779000,-53.0,72.0,-438.0,-890.0,-313.0,92.0,573.0,-303.0,417.0
19:51:00.784000,-46.0,84.0,-355.0,-953.0,-320.0,73.0,579.0,-292.0,403.0
19:51:00.789000,-32.0,119.0,-288.0,-987.0,-291.0,81.0,579.0,-292.0,403.0
19:51:00.794000,-23.0,95.0,-251.0,-970.0,-235.0,114.0,579.0,-298.0,423.0
19:51:00.798000,-39.0,76.0,-255.0,-965.0,-168.0,83.0,579.0,-298.0,423.0
19:51:00.802000,-4.0,110.0,-350.0,-974.0,-188.0,75.0,579.0,-298.0,423.0
19:51:00.808000,-13.0,107.0,-331.0,-970.0,-232.0,81.0,577.0,-303.0,409.0
19:51:00.812000,-14.0,121.0,-274.0,-969.0,-220.0,66.0,577.0,-303.0,409.0
19:51:00.817000,-46.0,135.0,-251.0,-969.0,-220.0,66.0,576.0,-291.0,411.0
19:51:00.821000,-58.0,144.0,-261.0,-915.0,-167.0,81.0,576.0,-291.0,411.0
19:51:00.826000,-51.0,101.0,-271.0,-915.0,-167.0,81.0,576.0,-291.0,411.0
19:51:00.831000,-67.0,92.0,-230.0,-862.0,-182.0,104.0,570.0,-291.0,435.0
19:51:00.836000,-90.0,116.0,-189.0,-849.0,-227.0,82.0,570.0,-291.0,435.0
19:51:00.841000,-81.0,105.0,-203.0,-900.0,-211.0,71.0,580.0,-291.0,412.0
19:51:00.845000,-70.0,81.0,-163.0,-916.0,-191.0,85.0,580.0,-291.0,412.0
19:51:00.849000,-70.0,81.0,-163.0,-919.0,-203.0,76.0,580.0,-291.0,412.0
19:51:00.855000,-32.0,88.0,-202.0,-993.0,-177.0,66.0,573.0,-289.0,417.0
19:51:00.859000,16.0,70.0,-237.0,-1015.0,-174.0,66.0,573.0,-289.0,417.0
19:51:00.864000,16.0,70.0,-237.0,-936.0,-201.0,67.0,574.0,-291.0,427.0
19:51:00.869000,3.0,50.0,-217.0,-861.0,-156.0,91.0,574.0,-291.0,427.0
19:51:00.873000,-42.0,21.0,-266.0,-801.0,-94.0,82.0,574.0,-291.0,427.0
19:51:00.878000,-65.0,16.0,-345.0,-757.0,-122.0,67.0,567.0,-289.0,424.0
19:51:00.883000,-105.0,2.0,-335.0,-769.0,-187.0,66.0,567.0,-289.0,424.0
19:51:00.888000,-108.0,0.0,-257.0,-847.0,-225.0,44.0,579.0,-289.0,426.0
19:51:00.892000,-105.0,16.0,-210.0,-961.0,-237.0,23.0,579.0,-289.0,426.0
19:51:00.896000,-74.0,48.0,-182.0,-1038.0,-264.0,19.0,579.0,-289.0,426.0
19:51:00.902000,-36.0,58.0,-144.0,-1054.0,-278.0,31.0,568.0,-291.0,427.0
19:51:00.906000,3.0,53.0,-150.0,-1000.0,-240.0,43.0,568.0,-291.0,427.0
19:51:00.911000,-4.0,60.0,-172.0,-920.0,-186.0,53.0,570.0,-286.0,418.0
19:51:00.916000,-14.0,62.0,-156.0,-872.0,-150.0,50.0,570.0,-286.0,418.0
19:51:00.920000,-19.0,70.0,-149.0,-900.0,-139.0,39.0,570.0,-286.0,418.0
19:51:00.925000,7.0,60.0,-158.0,-900.0,-139.0,39.0,571.0,-280.0,423.0
19:51:00.930000,-14.0,58.0,-163.0,-959.0,-155.0,40.0,571.0,-280.0,423.0
19:51:00.935000,-25.0,32.0,-178.0,-956.0,-156.0,43.0,564.0,-289.0,429.0
19:51:00.939000,-25.0,27.0,-201.0,-913.0,-110.0,42.0,564.0,-289.0,429.0
19:51:00.943000,-32.0,32.0,-190.0,-865.0,-102.0,41.0,564.0,-289.0,429.0
19:51:00.949000,-26.0,35.0,-133.0,-860.0,-150.0,41.0,573.0,-280.0,421.0
19:51:00.953000,-56.0,41.0,-86.0,-893.0,-192.0,48.0,573.0,-280.0,421.0
19:51:00.958000,-60.0,35.0,-84.0,-924.0,-174.0,58.0,573.0,-286.0,427.0
19:51:00.963000,-65.0,42.0,-107.0,-932.0,-131.0,57.0,573.0,-286.0,427.0
19:51:00.967000,-65.0,42.0,-107.0,-918.0,-122.0,55.0,573.0,-286.0,427.0
19:51:00.972000,-94.0,51.0,-91.0,-927.0,-133.0,54.0,565.0,-285.0,453.0
19:51:00.977000,-118.0,60.0,-32.0,-938.0,-157.0,55.0,565.0,-285.0,453.0
19:51:00.982000,-138.0,58.0,17.0,-944.0,-164.0,43.0,567.0,-285.0,424.0
19:51:00.986000,-127.0,65.0,7.0,-965.0,-127.0,41.0,567.0,-285.0,424.0
19:51:00.990000,-105.0,48.0,-18.0,-972.0,-110.0,48.0,567.0,-285.0,424.0
19:51:00.996000,-89.0,51.0,-6.0,-959.0,-142.0,39.0,576.0,-283.0,426.0
19:51:01.000000,-79.0,50.0,30.0,-973.0,-160.0,39.0,576.0,-283.0,426.0
19:51:01.005000,-52.0,30.0,49.0,-981.0,-143.0,35.0,573.0,-285.0,433.0
19:51:01.010000,-28.0,17.0,35.0,-953.0,-132.0,30.0,573.0,-285.0,433.0
19:51:01.014000,-9.0,2.0,27.0,-939.0,-138.0,28.0,573.0,-285.0,433.0
19:51:01.019000,-14.0,9.0,23.0,-955.0,-126.0,31.0,574.0,-285.0,424.0
19:51:01.024000,-25.0,2.0,10.0,-985.0,-119.0,32.0,574.0,-285.0,424.0
19:51:01.029000,-49.0,5.0,0.0,-985.0,-119.0,32.0,571.0,-288.0,427.0
19:51:01.033000,-70.0,20.0,10.0,-1008.0,-172.0,22.0,571.0,-288.0,427.0
19:51:01.037000,-81.0,19.0,28.0,-1004.0,-172.0,25.0,571.0,-288.0,427.0
19:51:01.043000,-79.0,22.0,47.0,-980.0,-181.0,25.0,573.0,-282.0,429.0
19:51:01.047000,-88.0,26.0,54.0,-960.0,-193.0,22.0,573.0,-282.0,429.0
19:51:01.052000,-80.0,12.0,51.0,-950.0,-200.0,37.0,571.0,-289.0,432.0
19:51:01.057000,-54.0,24.0,43.0,-955.0,-208.0,29.0,571.0,-289.0,432.0
19:51:01.061000,-37.0,26.0,23.0,-986.0,-224.0,22.0,571.0,-289.0,432.0
19:51:01.066000,-9.0,29.0,-28.0,-1025.0,-222.0,23.0,571.0,-286.0,429.0
19:51:01.071000,22.0,4.0,-59.0,-1027.0,-212.0,26.0,571.0,-286.0,429.0
19:51:01.076000,28.0,-15.0,-59.0,-975.0,-197.0,40.0,568.0,-280.0,430.0
19:51:01.080000,28.0,-15.0,-59.0,-926.0,-177.0,31.0,568.0,-280.0,430.0
19:51:01.084000,9.0,2.0,-52.0,-931.0,-161.0,33.0,568.0,-280.0,430.0
19:51:01.090000,-27.0,9.0,-59.0,-951.0,-139.0,38.0,573.0,-286.0,436.0
19:51:01.094000,-49.0,17.0,-64.0,-964.0,-134.0,33.0,573.0,-286.0,436.0
19:51:01.099000,-56.0,12.0,-70.0,-961.0,-148.0,32.0,565.0,-274.0,439.0
19:51:01.104000,-61.0,2.0,-57.0,-935.0,-148.0,42.0,565.0,-274.0,439.0
19:51:01.108000,-79.0,-20.0,-29.0,-926.0,-136.0,41.0,565.0,-274.0,439.0
19:51:01.113000,-84.0,-33.0,-26.0,-945.0,-123.0,30.0,567.0,-283.0,451.0
19:51:01.118000,-82.0,-40.0,-44.0,-964.0,-136.0,29.0,567.0,-283.0,451.0
19:51:01.123000,-84.0,-37.0,-51.0,-978.0,-155.0,31.0,571.0,-288.0,438.0
19:51:01.127000,-93.0,-38.0,-35.0,-988.0,-139.0,43.0,571.0,-288.0,438.0
19:51:01.131000,-110.0,-38.0,-18.0,-984.0,-105.0,48.0,571.0,-288.0,438.0
19:51:01.137000,-123.0,-37.0,-9.0,-978.0,-92.0,52.0,570.0,-277.0,426.0
19:51:01.141000,-134.0,-49.0,-12.0,-976.0,-117.0,53.0,570.0,-277.0,426.0
19:51:01.146000,-140.0,-43.0,-16.0,-976.0,-117.0,53.0,571.0,-286.0,442.0
19:51:01.151000,-131.0,-39.0,-10.0,-963.0,-186.0,35.0,571.0,-286.0,442.0
19:51:01.155000,-133.0,-38.0,3.0,-963.0,-186.0,35.0,571.0,-286.0,442.0
19:51:01.160000,-122.0,-33.0,21.0,-960.0,-191.0,37.0,580.0,-291.0,436.0
19:51:01.165000,-107.0,-38.0,18.0,-954.0,-181.0,41.0,580.0,-291.0,436.0
19:51:01.170000,-101.0,-32.0,2.0,-954.0,-171.0,46.0,582.0,-279.0,435.0
19:51:01.174000,-98.0,-46.0,-19.0,-948.0,-171.0,55.0,582.0,-279.0,435.0
19:51:01.178000,-98.0,-46.0,-19.0,-937.0,-169.0,61.0,582.0,-279.0,435.0
19:51:01.184000,-52.0,-63.0,-74.0,-922.0,-177.0,56.0,577.0,-288.0,432.0
19:51:01.188000,-23.0,-65.0,-72.0,-921.0,-194.0,55.0,577.0,-288.0,432.0
19:51:01.193000,-23.0,-65.0,-72.0,-939.0,-214.0,53.0,574.0,-286.0,438.0
19:51:01.197000,-2.0,-61.0,-58.0,-959.0,-221.0,52.0,574.0,-286.0,438.0
19:51:01.202000,20.0,-61.0,-47.0,-980.0,-207.0,51.0,574.0,-286.0,438.0
19:51:01.207000,16.0,-44.0,-54.0,-992.0,-183.0,47.0,576.0,-286.0,432.0
19:51:01.212000,34.0,-38.0,-62.0,-993.0,-168.0,49.0,576.0,-286.0,432.0
19:51:01.217000,41.0,-37.0,-81.0,-985.0,-158.0,47.0,579.0,-283.0,429.0
19:51:01.221000,42.0,-25.0,-95.0,-978.0,-137.0,43.0,579.0,-283.0,429.0
19:51:01.225000,30.0,-17.0,-102.0,-996.0,-115.0,44.0,579.0,-283.0,429.0
19:51:01.231000,11.0,-5.0,-115.0,-1017.0,-103.0,43.0,580.0,-283.0,427.0
19:51:01.235000,11.0,-4.0,-142.0,-1018.0,-104.0,49.0,580.0,-283.0,427.0
19:51:01.240000,-8.0,-6.0,-161.0,-1018.0,-118.0,49.0,577.0,-283.0,435.0
19:51:01.245000,-17.0,-2.0,-140.0,-991.0,-131.0,41.0,577.0,-283.0,435.0
19:51:01.249000,-39.0,6.0,-120.0,-1014.0,-114.0,41.0,577.0,-283.0,435.0
19:51:01.254000,-66.0,16.0,-140.0,-1014.0,-114.0,41.0,556.0,-292.0,459.0
19:51:01.259000,-86.0,18.0,-165.0,-1024.0,-100.0,42.0,556.0,-292.0,459.0
19:51:01.264000,-103.0,36.0,-185.0,-1016.0,-117.0,41.0,577.0,-285.0,436.0
19:51:01.268000,-108.0,42.0,-208.0,-1014.0,-139.0,38.0,577.0,-285.0,436.0
19:51:01.272000,-108.0,41.0,-238.0,-1016.0,-163.0,41.0,577.0,-285.0,436.0
19:51:01.278000,-106.0,36.0,-249.0,-996.0,-186.0,42.0,570.0,-294.0,433.0
19:51:01.282000,-105.0,34.0,-247.0,-963.0,-197.0,41.0,570.0,-294.0,433.0
19:51:01.286000,-105.0,34.0,-247.0,-945.0,-206.0,37.0,577.0,-289.0,444.0
19:51:01.292000,-86.0,28.0,-258.0,-944.0,-214.0,35.0,577.0,-289.0,444.0
19:51:01.296000,-86.0,28.0,-258.0,-945.0,-209.0,35.0,577.0,-289.0,444.0
19:51:01.301000,-89.0,26.0,-275.0,-950.0,-194.0,40.0,577.0,-283.0,441.0
19:51:01.306000,-94.0,21.0,-310.0,-958.0,-175.0,45.0,577.0,-283.0,441.0
19:51:01.311000,-88.0,17.0,-352.0,-954.0,-170.0,45.0,570.0,-283.0,439.0
19:51:01.315000,-76.0,10.0,-380.0,-948.0,-177.0,46.0,570.0,-283.0,439.0
19:51:01.319000,-63.0,5.0,-399.0,-947.0,-180.0,51.0,570.0,-283.0,439.0
19:51:01.325000,-46.0,-11.0,-415.0,-950.0,-180.0,60.0,576.0,-280.0,442.0
19:51:01.329000,-38.0,-23.0,-415.0,-966.0,-161.0,59.0,576.0,-280.0,442.0
19:51:01.333000,-13.0,-29.0,-428.0,-978.0,-131.0,64.0,582.0,-279.0,441.0
19:51:01.339000,-5.0,-37.0,-445.0,-984.0,-98.0,76.0,582.0,-279.0,441.0
19:51:01.343000,0.0,-47.0,-459.0,-990.0,-64.0,84.0,582.0,-279.0,441.0
19:51:01.348000,-11.0,-54.0,-459.0,-997.0,-45.0,91.0,558.0,-273.0,445.0
19:51:01.353000,-22.0,-62.0,-452.0,-1011.0,-31.0,91.0,558.0,-273.0,445.0
19:51:01.358000,-23.0,-68.0,-440.0,-1011.0,-31.0,91.0,571.0,-274.0,448.0
19:51:01.362000,-23.0,-78.0,-431.0,-1025.0,-26.0,94.0,571.0,-274.0,448.0
19:51:01.366000,-25.0,-83.0,-422.0,-1038.0,-16.0,102.0,571.0,-274.0,448.0
19:51:01.372000,-42.0,-81.0,-396.0,-1044.0,9.0,107.0,576.0,-271.0,444.0
19:51:01.376000,-57.0,-84.0,-366.0,-1055.0,42.0,117.0,576.0,-271.0,444.0
19:51:01.380000,-84.0,-79.0,-352.0,-1077.0,103.0,121.0,573.0,-261.0,436.0
19:51:01.386000,-109.0,-79.0,-354.0,-1091.0,103.0,121.0,573.0,-261.0,436.0
19:51:01.390000,-151.0,-72.0,-343.0,-1087.0,122.0,126.0,573.0,-261.0,436.0
19:51:01.395000,-193.0,-65.0,-320.0,-1079.0,130.0,127.0,585.0,-262.0,451.0
19:51:01.400000,-231.0,-59.0,-289.0,-1078.0,128.0,125.0,585.0,-262.0,451.0
19:51:01.405000,-261.0,-60.0,-267.0,-1089.0,121.0,124.0,571.0,-262.0,445.0
19:51:01.409000,-261.0,-60.0,-267.0,-1106.0,120.0,114.0,571.0,-262.0,445.0
19:51:01.413000,-277.0,-52.0,-257.0,-1126.0,114.0,104.0,571.0,-262.0,445.0
19:51:01.419000,-300.0,-37.0,-255.0,-1144.0,99.0,102.0,585.0,-255.0,442.0
19:51:01.423000,-315.0,-23.0,-259.0,-1146.0,79.0,99.0,585.0,-255.0,442.0
19:51:01.428000,-304.0,-22.0,-268.0,-1134.0,53.0,97.0,576.0,-265.0,438.0
19:51:01.433000,-295.0,-14.0,-291.0,-1101.0,21.0,97.0,576.0,-265.0,438.0
19:51:01.437000,-284.0,-4.0,-296.0,-1065.0,-6.0,99.0,585.0,-262.0,447.0
19:51:01.442000,-257.0,-13.0,-286.0,-1047.0,-6.0,103.0,585.0,-262.0,447.0
19:51:01.446000,-232.0,-20.0,-292.0,-1039.0,13.0,99.0,585.0,-262.0,447.0
19:51:01.452000,-216.0,-23.0,-318.0,-1035.0,39.0,100.0,571.0,-256.0,439.0
19:51:01.456000,-198.0,-35.0,-345.0,-1028.0,56.0,109.0,571.0,-256.0,439.0
19:51:01.461000,-184.0,-46.0,-364.0,-1028.0,56.0,109.0,577.0,-265.0,445.0
19:51:01.466000,-169.0,-45.0,-381.0,-1003.0,75.0,106.0,577.0,-265.0,445.0
19:51:01.470000,-159.0,-58.0,-394.0,-994.0,72.0,110.0,577.0,-265.0,445.0
19:51:01.475000,-136.0,-63.0,-402.0,-994.0,72.0,110.0,577.0,-262.0,448.0
19:51:01.480000,-106.0,-79.0,-401.0,-987.0,66.0,107.0,577.0,-262.0,448.0
19:51:01.484000,-83.0,-86.0,-416.0,-1000.0,74.0,112.0,579.0,-258.0,445.0
19:51:01.489000,-66.0,-81.0,-434.0,-1013.0,93.0,108.0,579.0,-258.0,445.0
19:51:01.493000,-44.0,-102.0,-440.0,-1012.0,113.0,112.0,579.0,-258.0,445.0
19:51:01.499000,-32.0,-100.0,-444.0,-1013.0,129.0,111.0,583.0,-256.0,444.0
19:51:01.503000,-21.0,-122.0,-450.0,-1013.0,160.0,113.0,583.0,-256.0,444.0
19:51:01.508000,-25.0,-129.0,-460.0,-1025.0,214.0,121.0,573.0,-252.0,447.0
19:51:01.513000,-44.0,-126.0,-454.0,-1033.0,244.0,114.0,573.0,-252.0,447.0
19:51:01.517000,-44.0,-126.0,-454.0,-1040.0,247.0,112.0,573.0,-252.0,447.0
19:51:01.522000,-51.0,-133.0,-447.0,-1047.0,238.0,112.0,565.0,-246.0,442.0
19:51:01.527000,-77.0,-128.0,-431.0,-1048.0,244.0,114.0,565.0,-246.0,442.0
19:51:01.531000,-103.0,-128.0,-418.0,-1068.0,274.0,114.0,574.0,-247.0,448.0
19:51:01.536000,-123.0,-124.0,-424.0,-1085.0,295.0,118.0,574.0,-247.0,448.0
19:51:01.540000,-148.0,-116.0,-436.0,-1093.0,283.0,121.0,574.0,-247.0,448.0
19:51:01.546000,-170.0,-100.0,-440.0,-1104.0,251.0,123.0,573.0,-244.0,441.0
19:51:01.550000,-182.0,-82.0,-441.0,-1107.0,225.0,126.0,573.0,-244.0,441.0
19:51:01.555000,-191.0,-67.0,-452.0,-1101.0,209.0,127.0,576.0,-255.0,450.0
19:51:01.559000,-206.0,-45.0,-462.0,-1091.0,201.0,133.0,576.0,-255.0,450.0
19:51:01.564000,-205.0,-40.0,-481.0,-1101.0,203.0,133.0,576.0,-255.0,450.0
19:51:01.569000,-194.0,-33.0,-532.0,-1103.0,202.0,118.0,571.0,-234.0,448.0
19:51:01.574000,-170.0,-16.0,-572.0,-1093.0,180.0,117.0,571.0,-234.0,448.0
19:51:01.578000,-144.0,-28.0,-587.0,-1093.0,180.0,117.0,567.0,-241.0,447.0
19:51:01.583000,-109.0,-30.0,-595.0,-1087.0,156.0,116.0,567.0,-241.0,447.0
19:51:01.587000,-66.0,-33.0,-613.0,-1084.0,146.0,98.0,567.0,-241.0,447.0
19:51:01.593000,-35.0,-39.0,-615.0,-1092.0,156.0,94.0,579.0,-234.0,450.0
19:51:01.597000,-10.0,-41.0,-618.0,-1111.0,180.0,93.0,579.0,-234.0,450.0
19:51:01.601000,10.0,-46.0,-635.0,-1131.0,205.0,92.0,576.0,-231.0,447.0
19:51:01.607000,0.0,-48.0,-644.0,-1132.0,221.0,97.0,576.0,-231.0,447.0
19:51:01.611000,2.0,-53.0,-655.0,-1136.0,247.0,95.0,576.0,-231.0,447.0
19:51:01.616000,0.0,-42.0,-677.0,-1146.0,267.0,86.0,574.0,-225.0,453.0
19:51:01.621000,-4.0,-51.0,-700.0,-1152.0,266.0,88.0,574.0,-225.0,453.0
19:51:01.625000,-6.0,-56.0,-699.0,-1154.0,270.0,90.0,562.0,-223.0,444.0
19:51:01.630000,-6.0,-56.0,-699.0,-1162.0,280.0,82.0,562.0,-223.0,444.0
19:51:01.634000,-16.0,-60.0,-686.0,-1184.0,297.0,73.0,562.0,-223.0,444.0
19:51:01.640000,-35.0,-51.0,-686.0,-1189.0,291.0,64.0,574.0,-219.0,445.0
19:51:01.644000,-70.0,-26.0,-673.0,-1175.0,263.0,64.0,574.0,-219.0,445.0
19:51:01.648000,-126.0,-13.0,-637.0,-1166.0,246.0,62.0,568.0,-214.0,459.0
19:51:01.654000,-151.0,-1.0,-608.0,-1171.0,256.0,53.0,568.0,-214.0,459.0
19:51:01.658000,-189.0,-3.0,-605.0,-1164.0,243.0,54.0,568.0,-214.0,459.0
19:51:01.663000,-220.0,-7.0,-585.0,-1122.0,207.0,41.0,567.0,-208.0,444.0
19:51:01.668000,-231.0,-2.0,-557.0,-1068.0,160.0,38.0,567.0,-208.0,444.0
19:51:01.672000,-249.0,-11.0,-534.0,-1011.0,88.0,29.0,567.0,-205.0,448.0
19:51:01.677000,-261.0,-4.0,-475.0,-970.0,31.0,25.0,567.0,-205.0,448.0
19:51:01.681000,-258.0,-32.0,-409.0,-961.0,-8.0,30.0,567.0,-205.0,448.0
19:51:01.687000,-238.0,-56.0,-403.0,-970.0,-17.0,22.0,565.0,-207.0,445.0
19:51:01.691000,-221.0,-89.0,-438.0,-970.0,-17.0,22.0,565.0,-207.0,445.0
19:51:01.695000,-204.0,-99.0,-471.0,-858.0,-99.0,34.0,568.0,-202.0,456.0
19:51:01.701000,-186.0,-140.0,-462.0,-858.0,-99.0,34.0,568.0,-202.0,456.0
19:51:01.705000,-143.0,-187.0,-462.0,-832.0,-110.0,52.0,568.0,-202.0,456.0
19:51:01.710000,-118.0,-195.0,-485.0,-814.0,-118.0,53.0,555.0,-205.0,457.0
19:51:01.715000,-80.0,-191.0,-518.0,-808.0,-140.0,44.0,555.0,-205.0,457.0
19:51:01.719000,-56.0,-218.0,-554.0,-817.0,-123.0,60.0,561.0,-199.0,456.0
19:51:01.724000,-10.0,-233.0,-564.0,-826.0,-110.0,76.0,561.0,-199.0,456.0
19:51:01.728000,-10.0,-233.0,-564.0,-826.0,-90.0,64.0,561.0,-199.0,456.0
19:51:01.734000,2.0,-261.0,-616.0,-864.0,-23.0,94.0,570.0,-195.0,448.0
19:51:01.738000,2.0,-261.0,-616.0,-921.0,71.0,108.0,570.0,-195.0,448.0
19:51:01.743000,-35.0,-221.0,-669.0,-946.0,165.0,95.0,549.0,-210.0,462.0
19:51:01.748000,-61.0,-196.0,-707.0,-1001.0,224.0,113.0,549.0,-210.0,462.0
19:51:01.752000,-95.0,-172.0,-752.0,-1042.0,278.0,129.0,561.0,-189.0,442.0
19:51:01.757000,-168.0,-124.0,-788.0,-1078.0,289.0,151.0,561.0,-189.0,442.0
19:51:01.761000,-162.0,-114.0,-839.0,-1082.0,273.0,154.0,561.0,-189.0,442.0
19:51:01.766000,-185.0,-72.0,-897.0,-1042.0,199.0,172.0,550.0,-177.0,451.0
19:51:01.771000,-185.0,-55.0,-923.0,-1017.0,200.0,165.0,550.0,-177.0,451.0
19:51:01.776000,-194.0,-2.0,-916.0,-991.0,293.0,194.0,553.0,-177.0,450.0
19:51:01.781000,-196.0,-29.0,-939.0,-889.0,281.0,212.0,553.0,-177.0,450.0
19:51:01.785000,-210.0,5.0,-898.0,-746.0,188.0,171.0,553.0,-177.0,450.0
19:51:01.790000,-208.0,42.0,-815.0,-771.0,97.0,168.0,562.0,-166.0,460.0
19:51:01.795000,-198.0,86.0,-765.0,-818.0,19.0,162.0,562.0,-166.0,460.0
19:51:01.799000,-182.0,70.0,-678.0,-818.0,19.0,162.0,556.0,-183.0,453.0
19:51:01.804000,-164.0,106.0,-598.0,-856.0,-16.0,150.0,556.0,-183.0,453.0
19:51:01.808000,-167.0,149.0,-562.0,-863.0,93.0,114.0,556.0,-183.0,453.0
19:51:01.813000,-198.0,180.0,-534.0,-844.0,179.0,109.0,546.0,-166.0,466.0
19:51:01.818000,-177.0,190.0,-500.0,-747.0,112.0,17.0,546.0,-166.0,466.0
19:51:01.823000,-125.0,179.0,-536.0,-697.0,117.0,-114.0,541.0,-169.0,462.0
19:51:01.828000,-128.0,220.0,-648.0,-934.0,340.0,-110.0,541.0,-169.0,462.0
19:51:01.832000,-128.0,220.0,-648.0,-1185.0,457.0,-37.0,541.0,-169.0,462.0
19:51:01.837000,-210.0,303.0,-728.0,-1355.0,352.0,11.0,543.0,-156.0,463.0
19:51:01.842000,-228.0,345.0,-604.0,-1319.0,135.0,9.0,543.0,-156.0,463.0
19:51:01.846000,-228.0,345.0,-604.0,-1199.0,10.0,39.0,543.0,-166.0,466.0
19:51:01.851000,-198.0,339.0,-532.0,-1067.0,8.0,48.0,543.0,-166.0,466.0
19:51:01.855000,-123.0,349.0,-546.0,-881.0,-2.0,26.0,543.0,-166.0,466.0
19:51:01.860000,-37.0,298.0,-602.0,-758.0,12.0,45.0,547.0,-159.0,474.0
19:51:01.865000,39.0,231.0,-640.0,-628.0,46.0,42.0,547.0,-159.0,474.0
19:51:01.870000,82.0,186.0,-610.0,-522.0,135.0,33.0,535.0,-153.0,471.0
19:51:01.875000,79.0,167.0,-584.0,-537.0,278.0,76.0,535.0,-153.0,471.0
19:51:01.879000,33.0,76.0,-577.0,-536.0,378.0,49.0,535.0,-153.0,471.0
19:51:01.884000,-14.0,54.0,-580.0,-687.0,392.0,48.0,534.0,-162.0,465.0
19:51:01.889000,-25.0,0.0,-659.0,-863.0,316.0,90.0,534.0,-162.0,465.0
19:51:01.893000,-30.0,-32.0,-699.0,-928.0,274.0,61.0,537.0,-148.0,477.0
19:51:01.898000,44.0,-112.0,-773.0,-1047.0,384.0,108.0,537.0,-148.0,477.0
19:51:01.902000,39.0,-90.0,-833.0,-784.0,299.0,70.0,537.0,-148.0,477.0
19:51:01.907000,-67.0,28.0,-874.0,-597.0,223.0,-30.0,528.0,-135.0,472.0
19:51:01.912000,59.0,-88.0,-797.0,-602.0,223.0,-30.0,528.0,-135.0,472.0
19:51:01.917000,16.0,-103.0,-651.0,-670.0,304.0,8.0,523.0,-139.0,472.0
19:51:01.921000,-7.0,-102.0,-710.0,-770.0,538.0,26.0,523.0,-139.0,472.0
19:51:01.926000,-49.0,-97.0,-793.0,-770.0,538.0,26.0,523.0,-139.0,472.0
19:51:01.931000,-127.0,-126.0,-781.0,-753.0,687.0,60.0,517.0,-136.0,493.0
19:51:01.936000,-191.0,-105.0,-606.0,-733.0,619.0,58.0,517.0,-136.0,493.0
19:51:01.940000,-247.0,-60.0,-436.0,-819.0,426.0,13.0,523.0,-130.0,466.0
19:51:01.945000,-150.0,-60.0,-402.0,-977.0,419.0,-3.0,523.0,-130.0,466.0
19:51:01.949000,-150.0,-60.0,-402.0,-1057.0,435.0,-28.0,523.0,-130.0,466.0
19:51:01.954000,-179.0,21.0,-445.0,-1023.0,436.0,-14.0,517.0,-130.0,471.0
19:51:01.959000,-179.0,21.0,-445.0,-894.0,458.0,-1.0,517.0,-130.0,471.0
19:51:01.964000,-156.0,24.0,-417.0,-801.0,474.0,-24.0,505.0,-124.0,474.0
19:51:01.968000,-161.0,63.0,-372.0,-823.0,485.0,-27.0,505.0,-124.0,474.0
19:51:01.973000,-190.0,89.0,-305.0,-899.0,499.0,35.0,505.0,-124.0,474.0
19:51:01.978000,-212.0,51.0,-242.0,-890.0,481.0,17.0,507.0,-127.0,471.0
19:51:01.983000,-220.0,93.0,-187.0,-850.0,454.0,-17.0,507.0,-127.0,471.0
19:51:01.987000,-188.0,79.0,-231.0,-803.0,412.0,-19.0,516.0,-123.0,471.0
19:51:01.992000,-137.0,82.0,-252.0,-713.0,313.0,-33.0,516.0,-123.0,471.0
19:51:01.996000,-119.0,89.0,-164.0,-727.0,295.0,-10.0,516.0,-123.0,471.0
19:51:02.001000,-102.0,63.0,-49.0,-810.0,396.0,0.0,510.0,-121.0,474.0
19:51:02.006000,-71.0,33.0,-90.0,-796.0,469.0,-13.0,510.0,-121.0,474.0
19:51:02.010000,-44.0,8.0,-170.0,-717.0,446.0,-25.0,513.0,-114.0,478.0
19:51:02.015000,-30.0,-2.0,-151.0,-697.0,414.0,-27.0,513.0,-114.0,478.0
