hh:mm:ss.ms,gyroX[mdps],gyroY[mdps],gyroZ[mdps],accX[mg],accY[mg],accZ[mg],magX[mG],magY[mG],magZ[mG]
19:51:20.912000,-95.0,-103.0,-164.0,-848.0,289.0,99.0,711.0,-558.0,372.0
19:51:20.918000,-70.0,-75.0,-182.0,-872.0,316.0,110.0,706.0,-547.0,366.0
19:51:20.922000,-60.0,-38.0,-197.0,-870.0,322.0,119.0,706.0,-547.0,366.0
19:51:20.927000,-55.0,3.0,-220.0,-870.0,322.0,119.0,714.0,-547.0,367.0
19:51:20.932000,-46.0,39.0,-252.0,-762.0,289.0,120.0,714.0,-547.0,367.0
19:51:20.936000,-34.0,61.0,-292.0,-762.0,289.0,120.0,714.0,-547.0,367.0
19:51:20.941000,-18.0,69.0,-338.0,-704.0,289.0,126.0,708.0,-540.0,360.0
19:51:20.946000,-1.0,62.0,-378.0,-673.0,318.0,136.0,708.0,-540.0,360.0
19:51:20.951000,15.0,42.0,-403.0,-684.0,372.0,152.0,711.0,-541.0,358.0
19:51:20.955000,32.0,21.0,-404.0,-745.0,442.0,167.0,711.0,-541.0,358.0
19:51:20.959000,46.0,9.0,-381.0,-856.0,518.0,176.0,711.0,-541.0,358.0
19:51:20.965000,56.0,9.0,-345.0,-993.0,592.0,183.0,714.0,-529.0,369.0
19:51:20.969000,56.0,18.0,-293.0,-1112.0,651.0,197.0,714.0,-529.0,369.0
19:51:20.974000,56.0,26.0,-220.0,-1172.0,664.0,218.0,703.0,-516.0,376.0
19:51:20.979000,65.0,26.0,-130.0,-1168.0,622.0,243.0,703.0,-516.0,376.0
19:51:20.983000,65.0,26.0,-130.0,-1127.0,554.0,269.0,703.0,-516.0,376.0
19:51:20.988000,95.0,10.0,-46.0,-1081.0,512.0,292.0,717.0,-519.0,370.0
19:51:20.993000,138.0,-21.0,6.0,-1068.0,538.0,319.0,717.0,-519.0,370.0
19:51:20.998000,172.0,-67.0,29.0,-1108.0,618.0,347.0,708.0,-516.0,373.0
19:51:21.002000,175.0,-111.0,46.0,-1197.0,688.0,360.0,708.0,-516.0,373.0
19:51:21.006000,150.0,-134.0,85.0,-1313.0,708.0,347.0,708.0,-516.0,373.0
19:51:21.012000,109.0,-128.0,135.0,-1417.0,681.0,310.0,712.0,-514.0,373.0
19:51:21.016000,66.0,-93.0,175.0,-1469.0,605.0,266.0,712.0,-514.0,373.0
19:51:21.021000,25.0,-44.0,215.0,-1458.0,497.0,228.0,702.0,-513.0,381.0
19:51:21.026000,-5.0,8.0,266.0,-1409.0,384.0,201.0,702.0,-513.0,381.0
19:51:21.030000,-26.0,53.0,320.0,-1352.0,288.0,180.0,702.0,-513.0,381.0
19:51:21.035000,-37.0,86.0,366.0,-1303.0,212.0,154.0,714.0,-504.0,372.0
19:51:21.040000,-33.0,107.0,399.0,-1271.0,155.0,123.0,714.0,-504.0,372.0
19:51:21.045000,-21.0,116.0,420.0,-1271.0,155.0,123.0,703.0,-519.0,378.0
19:51:21.049000,-13.0,116.0,439.0,-1255.0,136.0,90.0,703.0,-519.0,378.0
19:51:21.053000,-26.0,110.0,469.0,-1257.0,160.0,56.0,703.0,-519.0,378.0
19:51:21.059000,-73.0,100.0,515.0,-1274.0,215.0,24.0,705.0,-505.0,375.0
19:51:21.063000,-151.0,92.0,576.0,-1298.0,261.0,-8.0,705.0,-505.0,375.0
19:51:21.068000,-242.0,85.0,644.0,-1315.0,261.0,-40.0,706.0,-517.0,373.0
19:51:21.073000,-322.0,81.0,707.0,-1318.0,185.0,-70.0,706.0,-517.0,373.0
19:51:21.077000,-366.0,81.0,746.0,-1305.0,35.0,-101.0,706.0,-517.0,373.0
19:51:21.082000,-371.0,88.0,760.0,-1281.0,-150.0,-132.0,687.0,-514.0,376.0
19:51:21.087000,-339.0,101.0,751.0,-1243.0,-352.0,-154.0,687.0,-514.0,376.0
19:51:21.092000,-339.0,101.0,751.0,-1196.0,-562.0,-173.0,688.0,-528.0,381.0
19:51:21.096000,-263.0,123.0,718.0,-1156.0,-752.0,-196.0,688.0,-528.0,381.0
19:51:21.100000,-149.0,158.0,658.0,-1126.0,-888.0,-219.0,688.0,-528.0,381.0
19:51:21.106000,-17.0,200.0,582.0,-1100.0,-937.0,-240.0,681.0,-529.0,385.0
19:51:21.110000,113.0,242.0,505.0,-1087.0,-870.0,-249.0,681.0,-529.0,385.0
19:51:21.115000,217.0,277.0,432.0,-1093.0,-696.0,-234.0,676.0,-547.0,385.0
19:51:21.120000,279.0,296.0,363.0,-1108.0,-484.0,-205.0,676.0,-547.0,385.0
19:51:21.124000,301.0,294.0,307.0,-1116.0,-293.0,-180.0,676.0,-547.0,385.0
19:51:21.129000,298.0,277.0,278.0,-1111.0,-132.0,-162.0,679.0,-532.0,393.0
19:51:21.134000,270.0,242.0,273.0,-1094.0,2.0,-138.0,679.0,-532.0,393.0
19:51:21.139000,212.0,195.0,288.0,-1063.0,94.0,-108.0,667.0,-535.0,397.0
19:51:21.143000,119.0,139.0,345.0,-1021.0,105.0,-77.0,667.0,-535.0,397.0
19:51:21.147000,3.0,84.0,459.0,-976.0,-7.0,-57.0,663.0,-538.0,394.0
19:51:21.153000,-85.0,34.0,629.0,-967.0,-233.0,-72.0,663.0,-538.0,394.0
19:51:21.157000,-80.0,-7.0,810.0,-967.0,-233.0,-72.0,663.0,-538.0,394.0
19:51:21.162000,4.0,-14.0,938.0,-1052.0,-461.0,-125.0,664.0,-534.0,396.0
19:51:21.167000,112.0,28.0,1031.0,-1230.0,-600.0,-198.0,664.0,-534.0,396.0
19:51:21.171000,204.0,144.0,1136.0,-1429.0,-662.0,-289.0,660.0,-540.0,403.0
19:51:21.176000,277.0,318.0,1247.0,-1588.0,-690.0,-390.0,660.0,-540.0,403.0
19:51:21.180000,338.0,510.0,1339.0,-1644.0,-709.0,-459.0,660.0,-540.0,403.0
19:51:21.186000,412.0,666.0,1409.0,-1507.0,-733.0,-485.0,649.0,-550.0,397.0
19:51:21.190000,503.0,735.0,1465.0,-1173.0,-741.0,-472.0,649.0,-550.0,397.0
19:51:21.195000,569.0,693.0,1495.0,-773.0,-676.0,-403.0,643.0,-561.0,417.0
19:51:21.200000,569.0,544.0,1541.0,-427.0,-530.0,-268.0,643.0,-561.0,417.0
19:51:21.204000,569.0,544.0,1541.0,-131.0,-374.0,-133.0,643.0,-561.0,417.0
19:51:21.209000,528.0,350.0,1661.0,132.0,-222.0,-37.0,622.0,-574.0,423.0
19:51:21.214000,468.0,130.0,1852.0,287.0,-51.0,44.0,622.0,-574.0,423.0
19:51:21.218000,338.0,-78.0,2110.0,273.0,118.0,96.0,609.0,-576.0,426.0
19:51:21.223000,135.0,-224.0,2410.0,156.0,193.0,101.0,609.0,-576.0,426.0
19:51:21.227000,-107.0,-305.0,2743.0,60.0,81.0,67.0,609.0,-576.0,426.0
19:51:21.233000,-325.0,-336.0,3104.0,53.0,-149.0,5.0,601.0,-597.0,424.0
19:51:21.237000,-476.0,-338.0,3448.0,118.0,-368.0,-54.0,601.0,-597.0,424.0
19:51:21.242000,-563.0,-328.0,3726.0,204.0,-497.0,-90.0,588.0,-610.0,427.0
19:51:21.247000,-613.0,-315.0,3915.0,281.0,-558.0,-97.0,588.0,-610.0,427.0
19:51:21.251000,-645.0,-299.0,4028.0,356.0,-612.0,-86.0,588.0,-610.0,427.0
19:51:21.256000,-661.0,-277.0,4104.0,437.0,-697.0,-67.0,574.0,-631.0,417.0
19:51:21.261000,-665.0,-240.0,4171.0,522.0,-820.0,-49.0,574.0,-631.0,417.0
19:51:21.265000,-652.0,-183.0,4234.0,522.0,-820.0,-49.0,534.0,-681.0,417.0
19:51:21.270000,-612.0,-109.0,4278.0,600.0,-967.0,-36.0,534.0,-681.0,417.0
19:51:21.274000,-543.0,-27.0,4289.0,679.0,-1111.0,-30.0,534.0,-681.0,417.0
19:51:21.280000,-458.0,65.0,4271.0,768.0,-1220.0,-30.0,499.0,-711.0,414.0
19:51:21.284000,-367.0,164.0,4227.0,858.0,-1273.0,-32.0,499.0,-711.0,414.0
19:51:21.289000,-280.0,258.0,4162.0,937.0,-1275.0,-33.0,480.0,-715.0,412.0
19:51:21.294000,-186.0,330.0,4092.0,1000.0,-1249.0,-34.0,480.0,-715.0,412.0
19:51:21.298000,-186.0,330.0,4092.0,1031.0,-1194.0,-45.0,480.0,-715.0,412.0
19:51:21.303000,4.0,423.0,3969.0,996.0,-1095.0,-77.0,457.0,-738.0,414.0
19:51:21.308000,84.0,455.0,3899.0,880.0,-950.0,-124.0,457.0,-738.0,414.0
19:51:21.312000,84.0,455.0,3899.0,705.0,-758.0,-177.0,426.0,-747.0,423.0
19:51:21.317000,139.0,478.0,3801.0,520.0,-523.0,-225.0,426.0,-747.0,423.0
19:51:21.321000,144.0,493.0,3682.0,368.0,-293.0,-258.0,426.0,-747.0,423.0
19:51:21.327000,106.0,495.0,3573.0,274.0,-148.0,-264.0,364.0,-762.0,432.0
19:51:21.331000,63.0,459.0,3495.0,241.0,-115.0,-228.0,364.0,-762.0,432.0
19:51:21.336000,47.0,370.0,3444.0,230.0,-134.0,-172.0,343.0,-759.0,421.0
19:51:21.341000,67.0,243.0,3393.0,200.0,-153.0,-121.0,343.0,-759.0,421.0
19:51:21.345000,116.0,106.0,3341.0,135.0,-174.0,-68.0,343.0,-759.0,421.0
19:51:21.350000,183.0,-39.0,3315.0,9.0,-180.0,-29.0,312.0,-768.0,421.0
19:51:21.355000,255.0,-163.0,3298.0,-208.0,-135.0,-14.0,312.0,-768.0,421.0
19:51:21.359000,310.0,-249.0,3257.0,-208.0,-10.0,-14.0,301.0,-772.0,418.0
19:51:21.364000,326.0,-282.0,3168.0,-501.0,-21.0,-11.0,301.0,-772.0,418.0
19:51:21.368000,296.0,-249.0,3021.0,-1085.0,354.0,-58.0,301.0,-772.0,418.0
19:51:21.374000,212.0,-154.0,2816.0,-1085.0,354.0,-58.0,283.0,-769.0,430.0
19:51:21.378000,87.0,-20.0,2562.0,-1266.0,557.0,-101.0,283.0,-769.0,430.0
19:51:21.383000,-56.0,119.0,2262.0,-1335.0,731.0,-145.0,261.0,-765.0,430.0
19:51:21.388000,-198.0,245.0,1926.0,-1309.0,844.0,-181.0,261.0,-765.0,430.0
19:51:21.392000,-295.0,337.0,1574.0,-1214.0,864.0,-212.0,261.0,-765.0,430.0
19:51:21.397000,-284.0,354.0,1227.0,-1052.0,768.0,-219.0,256.0,-769.0,430.0
19:51:21.402000,-151.0,277.0,897.0,-812.0,592.0,-191.0,256.0,-769.0,430.0
19:51:21.406000,69.0,143.0,608.0,-524.0,424.0,-150.0,222.0,-762.0,430.0
19:51:21.411000,309.0,0.0,410.0,-259.0,344.0,-117.0,222.0,-762.0,430.0
19:51:21.419000,506.0,-130.0,331.0,-150.0,582.0,-60.0,220.0,-751.0,448.0
19:51:21.421000,506.0,-130.0,331.0,-150.0,582.0,-60.0,220.0,-751.0,448.0
19:51:21.425000,627.0,-228.0,310.0,-333.0,852.0,-50.0,220.0,-751.0,448.0
19:51:21.430000,665.0,-284.0,289.0,-548.0,1125.0,-54.0,222.0,-753.0,439.0
19:51:21.435000,606.0,-279.0,282.0,-705.0,1326.0,-51.0,222.0,-753.0,439.0
19:51:21.439000,470.0,-224.0,316.0,-751.0,1404.0,-31.0,229.0,-745.0,445.0
19:51:21.444000,308.0,-149.0,399.0,-657.0,1337.0,-2.0,229.0,-745.0,445.0
19:51:21.448000,171.0,-89.0,524.0,-460.0,1171.0,31.0,229.0,-745.0,445.0
19:51:21.453000,81.0,-70.0,650.0,-256.0,998.0,75.0,219.0,-744.0,447.0
19:51:21.458000,26.0,-89.0,741.0,-117.0,859.0,125.0,219.0,-744.0,447.0
19:51:21.463000,-3.0,-127.0,799.0,-56.0,715.0,172.0,217.0,-729.0,460.0
19:51:21.468000,-25.0,-160.0,841.0,-44.0,502.0,195.0,217.0,-729.0,460.0
19:51:21.472000,-16.0,-173.0,875.0,-54.0,221.0,184.0,217.0,-729.0,460.0
19:51:21.477000,32.0,-161.0,875.0,-88.0,-48.0,156.0,219.0,-739.0,451.0
19:51:21.482000,112.0,-137.0,816.0,-88.0,-228.0,125.0,219.0,-739.0,451.0
19:51:21.486000,198.0,-101.0,701.0,-136.0,-228.0,125.0,208.0,-732.0,456.0
19:51:21.491000,238.0,-52.0,560.0,-184.0,-297.0,98.0,208.0,-732.0,456.0
19:51:21.495000,216.0,11.0,392.0,-245.0,-268.0,74.0,208.0,-732.0,456.0
19:51:21.500000,135.0,83.0,186.0,-319.0,-190.0,55.0,204.0,-727.0,468.0
19:51:21.505000,38.0,158.0,-49.0,-361.0,-198.0,2.0,204.0,-727.0,468.0
19:51:21.510000,-40.0,221.0,-282.0,-361.0,-198.0,2.0,196.0,-711.0,475.0
19:51:21.515000,-93.0,267.0,-503.0,-313.0,-306.0,-44.0,196.0,-711.0,475.0
19:51:21.519000,-93.0,267.0,-503.0,-277.0,-410.0,-100.0,196.0,-711.0,475.0
19:51:21.524000,-117.0,319.0,-948.0,-267.0,-495.0,-172.0,210.0,-712.0,460.0
19:51:21.529000,-73.0,345.0,-1134.0,-255.0,-634.0,-264.0,210.0,-712.0,460.0
19:51:21.533000,-73.0,345.0,-1134.0,-207.0,-884.0,-394.0,217.0,-711.0,466.0
19:51:21.538000,-70.0,442.0,-1299.0,157.0,-1594.0,-966.0,217.0,-711.0,466.0
19:51:21.542000,196.0,1024.0,-1428.0,1483.0,-3039.0,-1492.0,217.0,-711.0,466.0
19:51:21.547000,1158.0,1201.0,521.0,3236.0,-3960.0,-458.0,222.0,-693.0,471.0
19:51:21.552000,1521.0,-37.0,5925.0,3536.0,-606.0,125.0,222.0,-693.0,471.0
19:51:21.557000,7238.0,-4398.0,-10061.0,-362.0,3388.0,1773.0,201.0,-699.0,477.0
19:51:21.562000,2508.0,-8394.0,-19829.0,-3871.0,3987.0,1282.0,201.0,-699.0,477.0
19:51:21.566000,581.0,-2717.0,-14858.0,-3169.0,2180.0,-1451.0,201.0,-699.0,477.0
19:51:21.571000,366.0,74.0,-566.0,-959.0,-1741.0,-40.0,364.0,-639.0,504.0
19:51:21.576000,-3546.0,801.0,5765.0,499.0,-3842.0,297.0,364.0,-639.0,504.0
19:51:21.580000,-2950.0,538.0,5923.0,499.0,-3842.0,297.0,330.0,-655.0,490.0
19:51:21.585000,-1804.0,648.0,3283.0,-884.0,-3713.0,-777.0,330.0,-655.0,490.0
19:51:21.589000,-1152.0,526.0,998.0,-704.0,-3992.0,-379.0,330.0,-655.0,490.0
19:51:21.594000,-205.0,220.0,313.0,104.0,-3995.0,-478.0,309.0,-667.0,486.0
19:51:21.599000,-126.0,277.0,28.0,104.0,-3995.0,-478.0,309.0,-667.0,486.0
19:51:21.604000,-477.0,-23.0,781.0,333.0,-3489.0,-185.0,304.0,-663.0,484.0
19:51:21.609000,-760.0,163.0,1758.0,-76.0,-2449.0,-176.0,304.0,-663.0,484.0
19:51:21.613000,-1816.0,383.0,841.0,341.0,-1687.0,-387.0,304.0,-663.0,484.0
19:51:21.618000,-201.0,-301.0,-1943.0,-557.0,-929.0,-272.0,315.0,-667.0,478.0
19:51:21.623000,2079.0,-1108.0,-3423.0,-2060.0,-1510.0,-398.0,315.0,-667.0,478.0
19:51:21.627000,861.0,-141.0,-2914.0,-1747.0,-3291.0,-709.0,294.0,-667.0,468.0
19:51:21.632000,-1057.0,884.0,-1995.0,-1067.0,-3890.0,-495.0,294.0,-667.0,468.0
19:51:21.639000,-1058.0,1022.0,-1810.0,1074.0,-2494.0,50.0,328.0,-654.0,483.0
19:51:21.641000,-1058.0,1022.0,-1810.0,1074.0,-2494.0,50.0,328.0,-654.0,483.0
19:51:21.646000,-1299.0,58.0,1176.0,2055.0,-2349.0,318.0,328.0,-654.0,483.0
19:51:21.651000,-248.0,-473.0,359.0,-55.0,-1583.0,-395.0,324.0,-658.0,481.0
19:51:21.656000,-92.0,-311.0,-2604.0,-278.0,-1692.0,-562.0,324.0,-658.0,481.0
19:51:21.660000,891.0,-574.0,-4576.0,88.0,-2211.0,-385.0,339.0,-648.0,469.0
19:51:21.665000,1241.0,-1002.0,-4554.0,221.0,-3386.0,-399.0,339.0,-648.0,469.0
19:51:21.669000,179.0,-448.0,-2851.0,742.0,-3696.0,-370.0,339.0,-648.0,469.0
19:51:21.674000,-231.0,-538.0,-875.0,-63.0,-2519.0,-582.0,358.0,-634.0,477.0
19:51:21.679000,375.0,-437.0,-1121.0,-979.0,-1459.0,-650.0,358.0,-634.0,477.0
19:51:21.684000,-365.0,-155.0,-3206.0,-422.0,-1872.0,-311.0,372.0,-631.0,477.0
19:51:21.688000,702.0,-625.0,-4260.0,-436.0,-2549.0,-558.0,372.0,-631.0,477.0
19:51:21.693000,798.0,-616.0,-3831.0,-22.0,-3371.0,-400.0,372.0,-631.0,477.0
19:51:21.698000,-772.0,-97.0,-1009.0,1406.0,-3479.0,-312.0,378.0,-618.0,478.0
19:51:21.703000,-1499.0,84.0,231.0,1406.0,-3479.0,-312.0,378.0,-618.0,478.0
19:51:21.707000,-594.0,-513.0,-1896.0,1699.0,-2014.0,-297.0,394.0,-606.0,474.0
19:51:21.712000,776.0,-1299.0,-5000.0,234.0,-464.0,-226.0,394.0,-606.0,474.0
19:51:21.716000,784.0,-1433.0,-3894.0,-684.0,-3282.0,-611.0,394.0,-606.0,474.0
19:51:21.721000,-683.0,-401.0,-2536.0,-684.0,-3282.0,-611.0,400.0,-607.0,472.0
19:51:21.726000,-49.0,-572.0,-1998.0,87.0,-2517.0,-903.0,400.0,-607.0,472.0
19:51:21.731000,-230.0,-994.0,-2223.0,512.0,-1790.0,-400.0,435.0,-597.0,465.0
19:51:21.735000,-396.0,-765.0,-2906.0,-306.0,-1828.0,-336.0,435.0,-597.0,465.0
19:51:21.740000,-396.0,-765.0,-2906.0,-618.0,-2189.0,-676.0,435.0,-597.0,465.0
19:51:21.745000,132.0,-728.0,-2667.0,51.0,-2974.0,-623.0,445.0,-582.0,465.0
19:51:21.750000,132.0,-728.0,-2667.0,82.0,-2682.0,-557.0,445.0,-582.0,465.0
19:51:21.754000,396.0,-838.0,-2752.0,-138.0,-2175.0,-252.0,460.0,-573.0,457.0
19:51:21.759000,-15.0,-870.0,-2850.0,-169.0,-2052.0,-358.0,460.0,-573.0,457.0
19:51:21.763000,-67.0,-753.0,-2184.0,-523.0,-2161.0,-537.0,460.0,-573.0,457.0
19:51:21.768000,39.0,-689.0,-2039.0,-325.0,-2221.0,-453.0,468.0,-546.0,483.0
19:51:21.773000,531.0,-800.0,-2263.0,387.0,-2037.0,-164.0,468.0,-546.0,483.0
19:51:21.778000,415.0,-946.0,-2216.0,340.0,-1536.0,-279.0,495.0,-550.0,459.0
19:51:21.782000,31.0,-624.0,-2383.0,16.0,-1430.0,-381.0,495.0,-550.0,459.0
19:51:21.787000,-55.0,-732.0,-1762.0,-72.0,-2090.0,0.0,495.0,-550.0,459.0
19:51:21.792000,-268.0,-849.0,-1272.0,-481.0,-1783.0,-160.0,493.0,-529.0,457.0
19:51:21.797000,-165.0,-814.0,-1597.0,-465.0,-1242.0,-446.0,493.0,-529.0,457.0
19:51:21.801000,-78.0,-688.0,-1425.0,-11.0,-1897.0,-490.0,507.0,-520.0,456.0
19:51:21.806000,-190.0,-591.0,-1084.0,-344.0,-1933.0,-389.0,507.0,-520.0,456.0
19:51:21.810000,154.0,-830.0,-851.0,-344.0,-1933.0,-389.0,507.0,-520.0,456.0
19:51:21.815000,-32.0,-638.0,-721.0,-799.0,-1400.0,-310.0,522.0,-514.0,445.0
19:51:21.820000,-19.0,-181.0,-607.0,-693.0,-1555.0,-658.0,522.0,-514.0,445.0
19:51:21.825000,-112.0,-341.0,-845.0,-337.0,-1453.0,-463.0,516.0,-514.0,445.0
19:51:21.829000,-186.0,-406.0,-795.0,177.0,-1815.0,-161.0,516.0,-514.0,445.0
19:51:21.834000,-259.0,-567.0,-1089.0,273.0,-2450.0,-123.0,516.0,-514.0,445.0
19:51:21.839000,-335.0,-488.0,-849.0,336.0,-2090.0,-204.0,526.0,-511.0,451.0
19:51:21.843000,-335.0,-488.0,-849.0,333.0,-1574.0,-446.0,526.0,-511.0,451.0
19:51:21.848000,-203.0,-235.0,-609.0,-233.0,-1342.0,-357.0,528.0,-511.0,432.0
19:51:21.853000,-413.0,78.0,-620.0,-692.0,-1384.0,-394.0,528.0,-511.0,432.0
19:51:21.858000,-413.0,78.0,-620.0,-820.0,-1448.0,-252.0,531.0,-499.0,436.0
19:51:21.862000,-364.0,95.0,-1019.0,-432.0,-1618.0,-182.0,531.0,-499.0,436.0
19:51:21.866000,-290.0,144.0,-1274.0,340.0,-1895.0,-222.0,531.0,-499.0,436.0
19:51:21.872000,-191.0,44.0,-681.0,481.0,-1827.0,-87.0,538.0,-496.0,438.0
19:51:21.876000,-43.0,-105.0,-438.0,-37.0,-1479.0,91.0,538.0,-496.0,438.0
19:51:21.881000,-317.0,-241.0,-574.0,-475.0,-1137.0,72.0,531.0,-502.0,441.0
19:51:21.886000,-416.0,-190.0,-742.0,-517.0,-1123.0,-186.0,531.0,-502.0,441.0
19:51:21.890000,-471.0,-18.0,-769.0,-334.0,-1238.0,-239.0,531.0,-502.0,441.0
19:51:21.895000,-430.0,23.0,-747.0,-344.0,-1442.0,-98.0,540.0,-492.0,432.0
19:51:21.900000,-427.0,-57.0,-529.0,-443.0,-1418.0,-41.0,540.0,-492.0,432.0
19:51:21.905000,-599.0,-35.0,-364.0,-444.0,-1301.0,-107.0,535.0,-498.0,427.0
19:51:21.909000,-522.0,-39.0,-313.0,-428.0,-1533.0,-109.0,535.0,-498.0,427.0
19:51:21.913000,-418.0,-46.0,-355.0,-750.0,-1289.0,-248.0,535.0,-498.0,427.0
19:51:21.919000,-352.0,129.0,-877.0,-998.0,-983.0,-248.0,540.0,-492.0,418.0
19:51:21.923000,-439.0,156.0,-1316.0,-998.0,-983.0,-248.0,540.0,-492.0,418.0
19:51:21.928000,-182.0,11.0,-1053.0,-355.0,-1955.0,-162.0,549.0,-504.0,433.0
19:51:21.933000,-130.0,104.0,-786.0,-355.0,-1955.0,-162.0,549.0,-504.0,433.0
19:51:21.937000,-165.0,62.0,-410.0,-268.0,-1477.0,-147.0,549.0,-504.0,433.0
19:51:21.942000,-227.0,56.0,-416.0,-245.0,-1019.0,-15.0,522.0,-487.0,436.0
19:51:21.947000,-215.0,91.0,-552.0,-395.0,-920.0,-144.0,522.0,-487.0,436.0
19:51:21.952000,-256.0,-38.0,-356.0,-305.0,-1063.0,-57.0,543.0,-481.0,433.0
19:51:21.956000,-194.0,-86.0,-117.0,-168.0,-1276.0,-10.0,543.0,-481.0,433.0
19:51:21.960000,-194.0,-86.0,-117.0,-509.0,-1182.0,-191.0,543.0,-481.0,433.0
19:51:21.966000,-35.0,186.0,-473.0,-773.0,-1129.0,-270.0,549.0,-477.0,423.0
19:51:21.970000,-35.0,186.0,-473.0,-739.0,-1497.0,-423.0,549.0,-477.0,423.0
19:51:21.975000,326.0,361.0,-191.0,-868.0,-2013.0,-323.0,541.0,-478.0,442.0
19:51:21.980000,441.0,324.0,-19.0,-1037.0,-1505.0,-121.0,541.0,-478.0,442.0
19:51:21.984000,336.0,392.0,-522.0,-852.0,-755.0,-175.0,541.0,-478.0,442.0
19:51:21.989000,303.0,479.0,-755.0,-396.0,-1099.0,-30.0,538.0,-486.0,429.0
19:51:21.994000,364.0,278.0,-655.0,-307.0,-1568.0,-26.0,538.0,-486.0,429.0
19:51:21.999000,529.0,308.0,-435.0,-594.0,-1528.0,-151.0,537.0,-471.0,423.0
19:51:22.003000,359.0,445.0,-380.0,-817.0,-952.0,-24.0,537.0,-471.0,423.0
19:51:22.007000,163.0,409.0,-746.0,-802.0,-524.0,71.0,537.0,-471.0,423.0
19:51:22.013000,110.0,243.0,-910.0,-498.0,-867.0,-58.0,540.0,-474.0,435.0
19:51:22.017000,86.0,301.0,-429.0,-324.0,-1281.0,-166.0,540.0,-474.0,435.0
19:51:22.022000,116.0,289.0,-177.0,-324.0,-1281.0,-166.0,535.0,-457.0,435.0
19:51:22.027000,34.0,109.0,-420.0,-741.0,-882.0,41.0,535.0,-457.0,435.0
19:51:22.031000,9.0,10.0,-683.0,-741.0,-882.0,41.0,535.0,-457.0,435.0
19:51:22.036000,-7.0,6.0,-931.0,-677.0,-645.0,-103.0,537.0,-460.0,429.0
19:51:22.041000,-114.0,-1.0,-784.0,-366.0,-651.0,-125.0,537.0,-460.0,429.0
19:51:22.046000,-95.0,51.0,-567.0,-136.0,-789.0,-180.0,529.0,-460.0,430.0
19:51:22.050000,-69.0,-28.0,-470.0,-224.0,-942.0,-154.0,529.0,-460.0,430.0
19:51:22.054000,-86.0,29.0,-642.0,-372.0,-1004.0,-132.0,529.0,-460.0,430.0
19:51:22.059000,-193.0,14.0,-519.0,-315.0,-1214.0,-116.0,550.0,-454.0,439.0
19:51:22.064000,-343.0,21.0,-269.0,-219.0,-1444.0,-35.0,550.0,-454.0,439.0
19:51:22.069000,-287.0,44.0,-504.0,-388.0,-1257.0,-101.0,528.0,-453.0,442.0
19:51:22.074000,-176.0,154.0,-824.0,-560.0,-1163.0,-206.0,528.0,-453.0,442.0
19:51:22.078000,-176.0,154.0,-824.0,-579.0,-1120.0,-299.0,528.0,-453.0,442.0
19:51:22.083000,-24.0,269.0,-1124.0,-606.0,-1177.0,-227.0,541.0,-451.0,427.0
19:51:22.088000,94.0,203.0,-1019.0,-885.0,-1318.0,-127.0,541.0,-451.0,427.0
19:51:22.093000,17.0,198.0,-883.0,-1136.0,-1094.0,-238.0,550.0,-453.0,438.0
19:51:22.097000,92.0,261.0,-879.0,-1063.0,-926.0,-257.0,550.0,-453.0,438.0
19:51:22.105000,53.0,276.0,-1024.0,-780.0,-912.0,-242.0,543.0,-442.0,454.0
19:51:22.107000,53.0,276.0,-1024.0,-780.0,-912.0,-242.0,543.0,-442.0,454.0
19:51:22.111000,86.0,323.0,-937.0,-553.0,-946.0,-223.0,543.0,-442.0,454.0
19:51:22.116000,5.0,311.0,-406.0,-452.0,-1044.0,-161.0,546.0,-435.0,435.0
19:51:22.121000,142.0,209.0,-146.0,-605.0,-830.0,-170.0,546.0,-435.0,435.0
19:51:22.126000,192.0,150.0,-577.0,-605.0,-830.0,-170.0,550.0,-433.0,442.0
19:51:22.130000,230.0,76.0,-1167.0,-514.0,-794.0,-223.0,550.0,-433.0,442.0
19:51:22.134000,369.0,114.0,-1298.0,-303.0,-1251.0,-208.0,550.0,-433.0,442.0
19:51:22.140000,325.0,45.0,-1069.0,-303.0,-1251.0,-208.0,544.0,-423.0,442.0
19:51:22.144000,262.0,58.0,-789.0,-363.0,-1372.0,-147.0,544.0,-423.0,442.0
19:51:22.149000,186.0,126.0,-701.0,-669.0,-665.0,-165.0,555.0,-420.0,442.0
19:51:22.154000,172.0,42.0,-665.0,-669.0,-665.0,-165.0,555.0,-420.0,442.0
19:51:22.158000,161.0,4.0,-696.0,-694.0,-600.0,-133.0,555.0,-420.0,442.0
19:51:22.163000,186.0,109.0,-688.0,-758.0,-797.0,-196.0,549.0,-414.0,448.0
19:51:22.168000,252.0,98.0,-655.0,-790.0,-939.0,-232.0,549.0,-414.0,448.0
19:51:22.173000,217.0,27.0,-648.0,-766.0,-983.0,-141.0,550.0,-417.0,451.0
19:51:22.177000,221.0,43.0,-887.0,-728.0,-927.0,-100.0,550.0,-417.0,451.0
19:51:22.181000,221.0,43.0,-887.0,-751.0,-770.0,-183.0,550.0,-417.0,451.0
19:51:22.187000,284.0,144.0,-1227.0,-771.0,-800.0,-174.0,537.0,-409.0,447.0
19:51:22.191000,398.0,119.0,-1271.0,-731.0,-969.0,-107.0,537.0,-409.0,447.0
19:51:22.196000,400.0,100.0,-916.0,-640.0,-905.0,-31.0,528.0,-405.0,460.0
19:51:22.201000,285.0,20.0,-499.0,-585.0,-566.0,3.0,528.0,-405.0,460.0
19:51:22.205000,131.0,30.0,-453.0,-581.0,-384.0,-43.0,528.0,-405.0,460.0
19:51:22.210000,27.0,14.0,-655.0,-564.0,-523.0,-76.0,546.0,-397.0,441.0
19:51:22.215000,28.0,7.0,-747.0,-648.0,-699.0,-62.0,546.0,-397.0,441.0
19:51:22.220000,-14.0,-52.0,-718.0,-814.0,-746.0,-91.0,541.0,-388.0,451.0
19:51:22.224000,-11.0,-35.0,-795.0,-878.0,-739.0,-97.0,541.0,-388.0,451.0
19:51:22.228000,16.0,-110.0,-786.0,-753.0,-795.0,-20.0,541.0,-388.0,451.0
19:51:22.234000,-33.0,-182.0,-625.0,-583.0,-743.0,-32.0,550.0,-384.0,454.0
19:51:22.238000,-92.0,-180.0,-529.0,-546.0,-630.0,14.0,550.0,-384.0,454.0
19:51:22.243000,-184.0,-252.0,-522.0,-546.0,-630.0,14.0,546.0,-367.0,442.0
19:51:22.248000,-198.0,-356.0,-520.0,-552.0,-647.0,46.0,546.0,-367.0,442.0
19:51:22.252000,-254.0,-389.0,-505.0,-550.0,-647.0,17.0,546.0,-367.0,442.0
19:51:22.257000,-333.0,-320.0,-538.0,-615.0,-641.0,-43.0,549.0,-385.0,439.0
19:51:22.262000,-358.0,-335.0,-550.0,-739.0,-572.0,-72.0,549.0,-385.0,439.0
19:51:22.267000,-344.0,-394.0,-560.0,-818.0,-609.0,-28.0,544.0,-384.0,439.0
19:51:22.271000,-331.0,-413.0,-571.0,-805.0,-704.0,-40.0,544.0,-384.0,439.0
19:51:22.275000,-330.0,-438.0,-540.0,-780.0,-800.0,-35.0,544.0,-384.0,439.0
19:51:22.281000,-364.0,-373.0,-584.0,-807.0,-787.0,-65.0,553.0,-373.0,435.0
19:51:22.285000,-448.0,-439.0,-548.0,-832.0,-644.0,-25.0,553.0,-373.0,435.0
19:51:22.290000,-516.0,-487.0,-413.0,-756.0,-536.0,24.0,540.0,-373.0,438.0
19:51:22.295000,-516.0,-487.0,-413.0,-723.0,-485.0,9.0,540.0,-373.0,438.0
19:51:22.299000,-607.0,-546.0,-410.0,-776.0,-460.0,22.0,540.0,-373.0,438.0
19:51:22.304000,-606.0,-625.0,-571.0,-785.0,-530.0,-21.0,547.0,-378.0,435.0
19:51:22.309000,-573.0,-652.0,-651.0,-810.0,-680.0,-76.0,547.0,-378.0,435.0
19:51:22.314000,-630.0,-590.0,-574.0,-847.0,-702.0,-63.0,552.0,-370.0,438.0
19:51:22.318000,-729.0,-555.0,-419.0,-805.0,-601.0,13.0,552.0,-370.0,438.0
19:51:22.322000,-759.0,-644.0,-302.0,-730.0,-508.0,51.0,552.0,-370.0,438.0
19:51:22.328000,-763.0,-714.0,-387.0,-680.0,-520.0,33.0,552.0,-378.0,442.0
19:51:22.332000,-795.0,-721.0,-457.0,-688.0,-633.0,31.0,552.0,-378.0,442.0
19:51:22.337000,-816.0,-756.0,-480.0,-743.0,-713.0,29.0,561.0,-379.0,421.0
19:51:22.342000,-732.0,-819.0,-541.0,-813.0,-756.0,30.0,561.0,-379.0,421.0
19:51:22.346000,-697.0,-886.0,-553.0,-802.0,-797.0,39.0,561.0,-379.0,421.0
19:51:22.351000,-663.0,-921.0,-502.0,-756.0,-787.0,29.0,565.0,-378.0,421.0
19:51:22.356000,-660.0,-912.0,-450.0,-810.0,-715.0,51.0,565.0,-378.0,421.0
19:51:22.361000,-658.0,-908.0,-433.0,-810.0,-715.0,51.0,568.0,-370.0,408.0
19:51:22.365000,-672.0,-872.0,-487.0,-1012.0,-534.0,105.0,568.0,-370.0,408.0
19:51:22.369000,-690.0,-862.0,-527.0,-1012.0,-534.0,105.0,568.0,-370.0,408.0
19:51:22.375000,-617.0,-812.0,-511.0,-975.0,-607.0,92.0,579.0,-373.0,430.0
19:51:22.379000,-599.0,-800.0,-428.0,-959.0,-736.0,80.0,579.0,-373.0,430.0
19:51:22.384000,-587.0,-776.0,-381.0,-925.0,-760.0,117.0,583.0,-372.0,412.0
19:51:22.389000,-551.0,-734.0,-472.0,-964.0,-656.0,111.0,583.0,-372.0,412.0
19:51:22.393000,-551.0,-734.0,-472.0,-1076.0,-615.0,76.0,583.0,-372.0,412.0
19:51:22.398000,-412.0,-567.0,-571.0,-1095.0,-710.0,53.0,583.0,-376.0,406.0
19:51:22.403000,-380.0,-553.0,-447.0,-1042.0,-748.0,102.0,583.0,-376.0,406.0
19:51:22.408000,-380.0,-553.0,-447.0,-984.0,-638.0,139.0,588.0,-379.0,399.0
19:51:22.412000,-382.0,-521.0,-359.0,-956.0,-556.0,143.0,588.0,-379.0,399.0
19:51:22.416000,-392.0,-453.0,-347.0,-1030.0,-574.0,111.0,588.0,-379.0,399.0
19:51:22.422000,-338.0,-348.0,-390.0,-1172.0,-631.0,73.0,574.0,-376.0,396.0
19:51:22.426000,-256.0,-256.0,-514.0,-1231.0,-690.0,76.0,574.0,-376.0,396.0
19:51:22.431000,-155.0,-186.0,-640.0,-1151.0,-767.0,80.0,582.0,-366.0,399.0
19:51:22.436000,-42.0,-128.0,-590.0,-1065.0,-818.0,63.0,582.0,-366.0,399.0
19:51:22.440000,34.0,-46.0,-476.0,-1065.0,-778.0,67.0,582.0,-366.0,399.0
19:51:22.445000,86.0,32.0,-422.0,-1116.0,-697.0,83.0,594.0,-376.0,394.0
19:51:22.450000,147.0,100.0,-452.0,-1163.0,-654.0,75.0,594.0,-376.0,394.0
19:51:22.454000,215.0,165.0,-567.0,-1138.0,-629.0,82.0,582.0,-363.0,414.0
19:51:22.459000,258.0,203.0,-632.0,-1067.0,-565.0,92.0,582.0,-363.0,414.0
19:51:22.463000,263.0,246.0,-657.0,-994.0,-513.0,84.0,582.0,-363.0,414.0
19:51:22.469000,266.0,282.0,-646.0,-994.0,-513.0,84.0,586.0,-351.0,394.0
19:51:22.473000,296.0,251.0,-620.0,-911.0,-507.0,107.0,586.0,-351.0,394.0
19:51:22.478000,382.0,215.0,-654.0,-899.0,-496.0,108.0,595.0,-351.0,400.0
19:51:22.483000,427.0,208.0,-686.0,-962.0,-544.0,99.0,595.0,-351.0,400.0
19:51:22.487000,476.0,264.0,-774.0,-1039.0,-568.0,66.0,595.0,-351.0,400.0
19:51:22.492000,480.0,267.0,-828.0,-1069.0,-529.0,60.0,583.0,-346.0,406.0
19:51:22.496000,495.0,235.0,-825.0,-986.0,-463.0,103.0,583.0,-346.0,406.0
19:51:22.502000,459.0,215.0,-779.0,-828.0,-394.0,111.0,585.0,-345.0,411.0
19:51:22.506000,422.0,166.0,-788.0,-743.0,-364.0,126.0,585.0,-345.0,411.0
19:51:22.511000,401.0,130.0,-805.0,-762.0,-363.0,119.0,577.0,-340.0,403.0
19:51:22.516000,401.0,130.0,-805.0,-794.0,-394.0,79.0,577.0,-340.0,403.0
19:51:22.520000,398.0,146.0,-735.0,-823.0,-403.0,68.0,577.0,-340.0,403.0
19:51:22.524000,359.0,134.0,-633.0,-853.0,-368.0,83.0,574.0,-334.0,403.0
19:51:22.530000,334.0,107.0,-619.0,-910.0,-344.0,73.0,574.0,-334.0,403.0
19:51:22.534000,324.0,98.0,-665.0,-926.0,-379.0,63.0,565.0,-324.0,403.0
19:51:22.539000,329.0,87.0,-653.0,-899.0,-404.0,54.0,565.0,-324.0,403.0
19:51:22.553000,314.0,93.0,-634.0,-855.0,-335.0,49.0,568.0,-324.0,415.0
19:51:22.558000,315.0,88.0,-561.0,-872.0,-330.0,40.0,568.0,-324.0,415.0
19:51:22.563000,290.0,91.0,-506.0,-945.0,-297.0,54.0,568.0,-324.0,415.0
19:51:22.567000,264.0,68.0,-539.0,-945.0,-297.0,54.0,582.0,-312.0,406.0
19:51:22.572000,231.0,19.0,-490.0,-846.0,-294.0,71.0,582.0,-312.0,406.0
19:51:22.576000,196.0,9.0,-422.0,-846.0,-294.0,71.0,582.0,-312.0,406.0
19:51:22.581000,178.0,-3.0,-400.0,-811.0,-256.0,61.0,577.0,-312.0,405.0
19:51:22.586000,162.0,32.0,-385.0,-852.0,-289.0,38.0,577.0,-312.0,405.0
19:51:22.591000,156.0,23.0,-376.0,-928.0,-354.0,31.0,568.0,-312.0,402.0
19:51:22.596000,162.0,7.0,-374.0,-957.0,-380.0,52.0,568.0,-312.0,402.0
19:51:22.600000,167.0,4.0,-452.0,-974.0,-321.0,46.0,568.0,-312.0,402.0
19:51:22.605000,175.0,-23.0,-453.0,-953.0,-311.0,50.0,576.0,-306.0,405.0
19:51:22.610000,168.0,-51.0,-362.0,-865.0,-360.0,68.0,576.0,-306.0,405.0
19:51:22.614000,137.0,-37.0,-298.0,-834.0,-315.0,64.0,580.0,-301.0,406.0
19:51:22.619000,117.0,-35.0,-315.0,-912.0,-198.0,50.0,580.0,-301.0,406.0
19:51:22.623000,117.0,-35.0,-315.0,-974.0,-197.0,67.0,580.0,-301.0,406.0
19:51:22.628000,74.0,-44.0,-290.0,-952.0,-252.0,74.0,573.0,-300.0,409.0
19:51:22.633000,72.0,-63.0,-279.0,-939.0,-243.0,69.0,573.0,-300.0,409.0
19:51:22.638000,51.0,-56.0,-310.0,-965.0,-278.0,61.0,576.0,-288.0,406.0
19:51:22.643000,21.0,-28.0,-310.0,-983.0,-321.0,62.0,576.0,-288.0,406.0
19:51:22.650000,23.0,-13.0,-273.0,-971.0,-242.0,51.0,580.0,-297.0,418.0
19:51:22.652000,23.0,-13.0,-273.0,-971.0,-242.0,51.0,580.0,-297.0,418.0
19:51:22.656000,-18.0,-23.0,-281.0,-947.0,-227.0,65.0,580.0,-297.0,418.0
19:51:22.661000,-10.0,-48.0,-294.0,-929.0,-261.0,40.0,576.0,-291.0,403.0
19:51:22.666000,0.0,-50.0,-276.0,-949.0,-295.0,26.0,576.0,-291.0,403.0
19:51:22.671000,-8.0,-27.0,-246.0,-1006.0,-297.0,7.0,570.0,-291.0,402.0
19:51:22.675000,-10.0,19.0,-252.0,-1060.0,-316.0,4.0,570.0,-291.0,402.0
19:51:22.679000,4.0,43.0,-294.0,-1024.0,-355.0,18.0,570.0,-291.0,402.0
19:51:22.685000,24.0,38.0,-297.0,-1024.0,-371.0,29.0,579.0,-294.0,409.0
19:51:22.690000,17.0,37.0,-192.0,-876.0,-335.0,37.0,579.0,-294.0,409.0
19:51:22.694000,0.0,34.0,-109.0,-876.0,-335.0,37.0,570.0,-280.0,409.0
19:51:22.699000,-4.0,35.0,-94.0,-937.0,-260.0,38.0,570.0,-280.0,409.0
19:51:22.703000,5.0,89.0,-37.0,-967.0,-271.0,5.0,570.0,-280.0,409.0
19:51:22.708000,-16.0,76.0,-77.0,-1013.0,-268.0,16.0,570.0,-294.0,415.0
19:51:22.713000,-63.0,94.0,-56.0,-1059.0,-245.0,53.0,570.0,-294.0,415.0
19:51:22.718000,-80.0,273.0,473.0,-979.0,-539.0,-41.0,580.0,-283.0,417.0
19:51:22.722000,-20.0,255.0,312.0,-1200.0,-544.0,-24.0,580.0,-283.0,417.0
19:51:22.726000,-20.0,255.0,312.0,-1366.0,-111.0,14.0,580.0,-283.0,417.0
19:51:22.732000,43.0,280.0,-213.0,-1067.0,-6.0,17.0,571.0,-282.0,414.0
19:51:22.736000,6.0,214.0,-190.0,-806.0,-161.0,85.0,571.0,-282.0,414.0
19:51:22.741000,-48.0,173.0,-26.0,-765.0,-238.0,59.0,576.0,-292.0,420.0
19:51:22.746000,-32.0,144.0,-51.0,-858.0,-253.0,45.0,576.0,-292.0,420.0
19:51:22.750000,-9.0,106.0,-103.0,-946.0,-306.0,48.0,576.0,-292.0,420.0
19:51:22.755000,-17.0,85.0,-144.0,-1008.0,-307.0,19.0,586.0,-285.0,417.0
19:51:22.760000,-5.0,95.0,-189.0,-1044.0,-275.0,0.0,586.0,-285.0,417.0
19:51:22.765000,21.0,105.0,-256.0,-1039.0,-255.0,3.0,576.0,-285.0,411.0
19:51:22.769000,22.0,121.0,-290.0,-990.0,-252.0,16.0,576.0,-285.0,411.0
19:51:22.773000,14.0,109.0,-262.0,-962.0,-252.0,17.0,576.0,-285.0,411.0
19:51:22.779000,15.0,110.0,-266.0,-999.0,-255.0,0.0,582.0,-286.0,409.0
19:51:22.783000,34.0,116.0,-280.0,-1017.0,-268.0,-8.0,582.0,-286.0,409.0
19:51:22.788000,40.0,126.0,-317.0,-1017.0,-268.0,-8.0,567.0,-282.0,423.0
19:51:22.793000,74.0,127.0,-364.0,-991.0,-245.0,-9.0,567.0,-282.0,423.0
19:51:22.797000,68.0,130.0,-361.0,-991.0,-245.0,-9.0,567.0,-282.0,423.0
19:51:22.802000,42.0,127.0,-356.0,-992.0,-220.0,5.0,576.0,-282.0,415.0
19:51:22.807000,18.0,118.0,-321.0,-967.0,-206.0,15.0,576.0,-282.0,415.0
19:51:22.812000,17.0,125.0,-279.0,-938.0,-223.0,14.0,577.0,-268.0,421.0
19:51:22.816000,22.0,141.0,-264.0,-952.0,-239.0,-4.0,577.0,-268.0,421.0
19:51:22.820000,28.0,147.0,-245.0,-962.0,-241.0,-10.0,577.0,-268.0,421.0
19:51:22.826000,14.0,157.0,-213.0,-963.0,-221.0,-1.0,574.0,-277.0,417.0
19:51:22.830000,10.0,161.0,-217.0,-979.0,-199.0,3.0,574.0,-277.0,417.0
19:51:22.835000,32.0,179.0,-250.0,-991.0,-192.0,-11.0,571.0,-282.0,426.0
19:51:22.840000,42.0,169.0,-287.0,-965.0,-203.0,-10.0,571.0,-282.0,426.0
19:51:22.844000,42.0,169.0,-287.0,-908.0,-223.0,12.0,571.0,-282.0,426.0
19:51:22.849000,31.0,162.0,-278.0,-840.0,-223.0,18.0,565.0,-268.0,417.0
19:51:22.854000,49.0,140.0,-253.0,-797.0,-217.0,14.0,565.0,-268.0,417.0
19:51:22.859000,73.0,117.0,-212.0,-801.0,-220.0,16.0,564.0,-273.0,435.0
19:51:22.863000,70.0,105.0,-186.0,-841.0,-206.0,10.0,564.0,-273.0,435.0
19:51:22.867000,102.0,113.0,-207.0,-916.0,-198.0,-2.0,564.0,-273.0,435.0
19:51:22.873000,128.0,119.0,-278.0,-939.0,-175.0,12.0,570.0,-267.0,424.0
19:51:22.877000,125.0,102.0,-311.0,-884.0,-116.0,31.0,570.0,-267.0,424.0
19:51:22.882000,100.0,100.0,-313.0,-859.0,-63.0,34.0,550.0,-261.0,438.0
19:51:22.887000,74.0,97.0,-309.0,-891.0,-41.0,36.0,550.0,-261.0,438.0
19:51:22.891000,48.0,98.0,-314.0,-942.0,-69.0,23.0,550.0,-261.0,438.0
19:51:22.896000,49.0,109.0,-315.0,-956.0,-109.0,28.0,564.0,-261.0,426.0
19:51:22.901000,31.0,100.0,-301.0,-916.0,-97.0,45.0,564.0,-261.0,426.0
19:51:22.906000,6.0,91.0,-277.0,-916.0,-97.0,45.0,558.0,-256.0,436.0
19:51:22.910000,-9.0,86.0,-208.0,-855.0,-51.0,45.0,558.0,-256.0,436.0
19:51:22.914000,-22.0,71.0,-127.0,-837.0,-28.0,54.0,558.0,-256.0,436.0
19:51:22.920000,-25.0,74.0,-109.0,-879.0,-33.0,48.0,561.0,-261.0,426.0
19:51:22.924000,-16.0,84.0,-133.0,-957.0,-106.0,28.0,561.0,-261.0,426.0
19:51:22.929000,-17.0,82.0,-139.0,-957.0,-106.0,28.0,559.0,-256.0,427.0
19:51:22.934000,-28.0,77.0,-146.0,-960.0,-95.0,37.0,559.0,-256.0,427.0
19:51:22.938000,-28.0,77.0,-146.0,-945.0,-54.0,41.0,559.0,-256.0,427.0
19:51:22.943000,-24.0,84.0,-136.0,-924.0,-53.0,35.0,562.0,-258.0,427.0
19:51:22.948000,8.0,79.0,-112.0,-907.0,-101.0,32.0,562.0,-258.0,427.0
19:51:22.953000,8.0,79.0,-112.0,-891.0,-150.0,29.0,574.0,-256.0,429.0
19:51:22.957000,39.0,74.0,-81.0,-899.0,-123.0,34.0,574.0,-256.0,429.0
19:51:22.961000,58.0,65.0,-102.0,-901.0,-59.0,40.0,574.0,-256.0,429.0
19:51:22.967000,72.0,57.0,-129.0,-879.0,-25.0,52.0,562.0,-265.0,427.0
19:51:22.971000,61.0,29.0,-150.0,-852.0,-3.0,69.0,562.0,-265.0,427.0
19:51:22.976000,23.0,7.0,-149.0,-842.0,6.0,66.0,570.0,-258.0,438.0
19:51:22.981000,-10.0,-6.0,-131.0,-867.0,-8.0,46.0,570.0,-258.0,438.0
19:51:22.985000,-25.0,-7.0,-135.0,-888.0,-47.0,26.0,570.0,-258.0,438.0
19:51:22.990000,-22.0,-9.0,-142.0,-900.0,-91.0,7.0,567.0,-262.0,429.0
19:51:22.995000,-2.0,9.0,-130.0,-923.0,-105.0,5.0,567.0,-262.0,429.0
19:51:23.000000,-20.0,19.0,-104.0,-923.0,-69.0,5.0,565.0,-258.0,442.0
19:51:23.004000,-46.0,32.0,-91.0,-938.0,-9.0,16.0,565.0,-258.0,442.0
19:51:23.008000,-65.0,41.0,-126.0,-930.0,19.0,22.0,565.0,-258.0,442.0
19:51:23.014000,-72.0,42.0,-159.0,-930.0,19.0,22.0,559.0,-261.0,436.0
19:51:23.018000,-67.0,51.0,-161.0,-930.0,-28.0,14.0,559.0,-261.0,436.0
19:51:23.023000,-50.0,67.0,-130.0,-930.0,-28.0,14.0,553.0,-250.0,448.0
19:51:23.028000,-51.0,67.0,-133.0,-946.0,-33.0,20.0,553.0,-250.0,448.0
19:51:23.032000,-58.0,69.0,-158.0,-955.0,-11.0,38.0,553.0,-250.0,448.0
19:51:23.037000,-65.0,67.0,-165.0,-949.0,0.0,43.0,559.0,-267.0,435.0
19:51:23.042000,-81.0,65.0,-161.0,-945.0,0.0,50.0,559.0,-267.0,435.0
19:51:23.047000,-98.0,58.0,-162.0,-964.0,16.0,59.0,565.0,-258.0,432.0
19:51:23.051000,-109.0,49.0,-189.0,-986.0,35.0,62.0,565.0,-258.0,432.0
19:51:23.055000,-109.0,49.0,-189.0,-988.0,35.0,56.0,565.0,-258.0,432.0
19:51:23.061000,-114.0,42.0,-238.0,-966.0,11.0,45.0,570.0,-256.0,436.0
19:51:23.065000,-102.0,27.0,-256.0,-926.0,-23.0,39.0,570.0,-256.0,436.0
19:51:23.070000,-87.0,9.0,-256.0,-896.0,-54.0,36.0,565.0,-255.0,432.0
19:51:23.075000,-73.0,-2.0,-287.0,-878.0,-95.0,35.0,565.0,-255.0,432.0
19:51:23.079000,-53.0,-22.0,-307.0,-856.0,-124.0,42.0,565.0,-255.0,432.0
19:51:23.084000,-37.0,-44.0,-308.0,-861.0,-102.0,45.0,562.0,-246.0,438.0
19:51:23.089000,-32.0,-57.0,-342.0,-906.0,-56.0,43.0,562.0,-246.0,438.0
19:51:23.094000,-42.0,-58.0,-395.0,-956.0,-30.0,48.0,565.0,-255.0,439.0
19:51:23.098000,-63.0,-68.0,-447.0,-966.0,-5.0,64.0,565.0,-255.0,439.0
19:51:23.102000,-102.0,-81.0,-476.0,-952.0,21.0,70.0,565.0,-255.0,439.0
19:51:23.108000,-136.0,-86.0,-468.0,-970.0,34.0,63.0,552.0,-243.0,435.0
19:51:23.112000,-171.0,-79.0,-478.0,-1009.0,25.0,53.0,552.0,-243.0,435.0
19:51:23.117000,-196.0,-55.0,-483.0,-1009.0,25.0,53.0,561.0,-243.0,444.0
19:51:23.122000,-203.0,-42.0,-451.0,-1033.0,-59.0,39.0,561.0,-243.0,444.0
19:51:23.126000,-195.0,-6.0,-396.0,-1033.0,-59.0,39.0,561.0,-243.0,444.0
19:51:23.131000,-180.0,23.0,-336.0,-1043.0,-91.0,28.0,565.0,-240.0,438.0
19:51:23.136000,-188.0,48.0,-317.0,-1072.0,-80.0,46.0,565.0,-240.0,438.0
19:51:23.141000,-214.0,124.0,-196.0,-1060.0,-101.0,44.0,555.0,-235.0,445.0
19:51:23.145000,-319.0,535.0,694.0,-999.0,-274.0,0.0,555.0,-235.0,445.0
19:51:23.149000,-436.0,997.0,2802.0,-823.0,-1437.0,-173.0,555.0,-235.0,445.0
19:51:23.155000,-79.0,562.0,1584.0,-1624.0,-965.0,-92.0,561.0,-258.0,444.0
19:51:23.159000,102.0,457.0,-233.0,-2265.0,860.0,76.0,561.0,-258.0,444.0
19:51:23.164000,-55.0,497.0,-447.0,-1367.0,808.0,49.0,552.0,-258.0,460.0
19:51:23.169000,-192.0,400.0,-100.0,-620.0,262.0,119.0,552.0,-258.0,460.0
19:51:23.173000,-192.0,400.0,-100.0,-578.0,81.0,111.0,552.0,-258.0,460.0
19:51:23.178000,-210.0,319.0,-46.0,-788.0,50.0,58.0,559.0,-253.0,447.0
19:51:23.183000,-146.0,224.0,-158.0,-942.0,-38.0,29.0,559.0,-253.0,447.0
19:51:23.188000,-125.0,215.0,-203.0,-1044.0,-119.0,-5.0,564.0,-264.0,454.0
19:51:23.192000,-88.0,217.0,-178.0,-1146.0,-101.0,-5.0,564.0,-264.0,454.0
19:51:23.196000,-92.0,217.0,-186.0,-1209.0,-35.0,-17.0,564.0,-264.0,454.0
19:51:23.202000,-86.0,261.0,-246.0,-1228.0,20.0,-35.0,544.0,-259.0,477.0
19:51:23.206000,-76.0,298.0,-350.0,-1196.0,16.0,-33.0,544.0,-259.0,477.0
19:51:23.211000,-71.0,319.0,-433.0,-1089.0,-32.0,-37.0,544.0,-259.0,477.0
19:51:23.216000,-56.0,334.0,-459.0,-985.0,-84.0,-45.0,544.0,-259.0,477.0
19:51:23.220000,-26.0,337.0,-455.0,-935.0,-132.0,-44.0,544.0,-259.0,477.0
19:51:23.225000,2.0,306.0,-462.0,-903.0,-149.0,-51.0,556.0,-255.0,457.0
19:51:23.230000,28.0,273.0,-466.0,-853.0,-123.0,-59.0,556.0,-255.0,457.0
19:51:23.235000,28.0,240.0,-451.0,-853.0,-123.0,-59.0,546.0,-255.0,459.0
19:51:23.239000,30.0,220.0,-451.0,-817.0,-46.0,-71.0,546.0,-255.0,459.0
19:51:23.243000,11.0,193.0,-469.0,-821.0,31.0,-75.0,546.0,-255.0,459.0
19:51:23.249000,4.0,158.0,-491.0,-836.0,65.0,-70.0,550.0,-244.0,463.0
19:51:23.253000,-7.0,112.0,-494.0,-835.0,86.0,-69.0,550.0,-244.0,463.0
19:51:23.258000,-47.0,66.0,-473.0,-827.0,126.0,-56.0,547.0,-244.0,465.0
19:51:23.263000,-84.0,31.0,-441.0,-837.0,200.0,-55.0,547.0,-244.0,465.0
19:51:23.267000,-84.0,31.0,-441.0,-869.0,270.0,-55.0,547.0,-244.0,465.0
19:51:23.272000,-177.0,-14.0,-432.0,-922.0,295.0,-58.0,544.0,-244.0,465.0
19:51:23.277000,-213.0,-15.0,-441.0,-982.0,274.0,-67.0,544.0,-244.0,465.0
19:51:23.282000,-213.0,-15.0,-441.0,-1026.0,243.0,-69.0,537.0,-243.0,466.0
19:51:23.286000,-254.0,-6.0,-431.0,-1038.0,222.0,-70.0,537.0,-243.0,466.0
19:51:23.290000,-287.0,-7.0,-417.0,-1026.0,201.0,-74.0,537.0,-243.0,466.0
19:51:23.296000,-304.0,-4.0,-404.0,-1008.0,162.0,-87.0,550.0,-232.0,466.0
19:51:23.300000,-278.0,-1.0,-364.0,-1012.0,112.0,-101.0,550.0,-232.0,466.0
19:51:23.305000,-241.0,7.0,-326.0,-1041.0,82.0,-102.0,547.0,-240.0,472.0
19:51:23.310000,-216.0,6.0,-345.0,-1036.0,58.0,-103.0,547.0,-240.0,472.0
19:51:23.314000,-165.0,-5.0,-339.0,-985.0,27.0,-105.0,547.0,-240.0,472.0
19:51:23.319000,-128.0,-21.0,-259.0,-955.0,32.0,-102.0,543.0,-241.0,471.0
19:51:23.324000,-80.0,-36.0,-184.0,-957.0,61.0,-95.0,543.0,-241.0,471.0
19:51:23.329000,-37.0,-67.0,-153.0,-957.0,61.0,-95.0,535.0,-234.0,469.0
19:51:23.333000,-3.0,-87.0,-159.0,-941.0,83.0,-96.0,535.0,-234.0,469.0
19:51:23.337000,37.0,-86.0,-161.0,-915.0,79.0,-94.0,535.0,-234.0,469.0
19:51:23.343000,49.0,-100.0,-123.0,-924.0,116.0,-69.0,532.0,-238.0,481.0
19:51:23.347000,42.0,-121.0,-117.0,-924.0,116.0,-69.0,532.0,-238.0,481.0
19:51:23.352000,57.0,-140.0,-131.0,-956.0,172.0,-62.0,532.0,-238.0,481.0
19:51:23.357000,67.0,-148.0,-162.0,-977.0,184.0,-62.0,532.0,-238.0,481.0
19:51:23.361000,92.0,-132.0,-205.0,-996.0,183.0,-71.0,532.0,-238.0,481.0
19:51:23.366000,97.0,-122.0,-259.0,-1017.0,197.0,-71.0,546.0,-232.0,468.0
19:51:23.371000,95.0,-89.0,-340.0,-1047.0,237.0,-69.0,546.0,-232.0,468.0
19:51:23.376000,109.0,-76.0,-395.0,-1053.0,246.0,-76.0,543.0,-225.0,460.0
19:51:23.380000,98.0,-79.0,-434.0,-1044.0,230.0,-60.0,543.0,-225.0,460.0
19:51:23.384000,98.0,-79.0,-434.0,-1044.0,228.0,-51.0,543.0,-225.0,460.0
19:51:23.390000,95.0,-83.0,-455.0,-1046.0,201.0,-46.0,540.0,-223.0,472.0
19:51:23.394000,100.0,-98.0,-454.0,-1071.0,181.0,-61.0,540.0,-223.0,472.0
19:51:23.399000,111.0,-67.0,-485.0,-1109.0,189.0,-84.0,540.0,-220.0,472.0
19:51:23.404000,114.0,-25.0,-518.0,-1140.0,202.0,-67.0,540.0,-220.0,472.0
19:51:23.408000,146.0,-41.0,-522.0,-1148.0,240.0,-50.0,540.0,-220.0,472.0
19:51:23.413000,165.0,-61.0,-542.0,-1151.0,297.0,-42.0,544.0,-225.0,471.0
19:51:23.418000,184.0,-81.0,-593.0,-1168.0,320.0,-53.0,544.0,-225.0,471.0
19:51:23.423000,218.0,-83.0,-660.0,-1171.0,292.0,-46.0,537.0,-219.0,466.0
19:51:23.427000,217.0,-121.0,-665.0,-1183.0,286.0,-37.0,537.0,-219.0,466.0
19:51:23.435000,214.0,-133.0,-653.0,-1245.0,339.0,-40.0,547.0,-208.0,465.0
19:51:23.437000,214.0,-133.0,-653.0,-1245.0,339.0,-40.0,547.0,-208.0,465.0
19:51:23.441000,192.0,-145.0,-648.0,-1236.0,343.0,-37.0,547.0,-208.0,465.0
19:51:23.446000,175.0,-154.0,-648.0,-1230.0,324.0,-59.0,532.0,-217.0,471.0
19:51:23.451000,164.0,-134.0,-667.0,-1230.0,262.0,-59.0,532.0,-217.0,471.0
19:51:23.456000,165.0,-117.0,-674.0,-1218.0,279.0,-81.0,540.0,-198.0,474.0
19:51:23.460000,123.0,-139.0,-672.0,-1202.0,237.0,-51.0,540.0,-198.0,474.0
19:51:23.464000,107.0,-149.0,-664.0,-1184.0,209.0,-41.0,540.0,-198.0,474.0
19:51:23.470000,98.0,-187.0,-650.0,-1141.0,171.0,-40.0,538.0,-205.0,468.0
19:51:23.474000,75.0,-170.0,-614.0,-1083.0,108.0,-32.0,538.0,-205.0,468.0
19:51:23.479000,72.0,-95.0,-607.0,-1041.0,57.0,-83.0,532.0,-196.0,484.0
19:51:23.484000,79.0,-134.0,-642.0,-1030.0,41.0,-58.0,532.0,-196.0,484.0
19:51:23.488000,79.0,-134.0,-642.0,-978.0,7.0,-23.0,532.0,-196.0,484.0
19:51:23.493000,170.0,-147.0,-451.0,-909.0,-58.0,-36.0,540.0,-195.0,465.0
19:51:23.498000,170.0,-147.0,-451.0,-926.0,-64.0,1.0,540.0,-195.0,465.0
19:51:23.503000,122.0,-170.0,-427.0,-951.0,-8.0,-14.0,535.0,-195.0,463.0
19:51:23.507000,109.0,-135.0,-451.0,-956.0,29.0,-8.0,535.0,-195.0,463.0
19:51:23.511000,77.0,-161.0,-486.0,-939.0,51.0,5.0,535.0,-195.0,463.0
19:51:23.517000,112.0,-158.0,-435.0,-912.0,97.0,-6.0,535.0,-180.0,460.0
19:51:23.521000,88.0,-155.0,-373.0,-978.0,187.0,37.0,535.0,-180.0,460.0
19:51:23.526000,27.0,-198.0,-448.0,-1036.0,225.0,38.0,513.0,-178.0,466.0
19:51:23.531000,-14.0,-189.0,-525.0,-1047.0,182.0,-24.0,513.0,-178.0,466.0
19:51:23.535000,-54.0,-102.0,-549.0,-1084.0,111.0,-53.0,513.0,-178.0,466.0
19:51:23.540000,-97.0,-42.0,-508.0,-1105.0,20.0,41.0,535.0,-180.0,453.0
19:51:23.545000,-168.0,-119.0,-404.0,-1112.0,17.0,72.0,535.0,-180.0,453.0
19:51:23.550000,-126.0,-152.0,-424.0,-1112.0,17.0,72.0,534.0,-180.0,466.0
19:51:23.554000,-36.0,-190.0,-560.0,-1117.0,0.0,40.0,534.0,-180.0,466.0
19:51:23.558000,-57.0,-219.0,-676.0,-1039.0,-77.0,26.0,534.0,-180.0,466.0
19:51:23.564000,-105.0,-161.0,-656.0,-984.0,-95.0,-12.0,531.0,-177.0,454.0
19:51:23.568000,-85.0,-128.0,-579.0,-984.0,-95.0,-12.0,531.0,-177.0,454.0
19:51:23.573000,1.0,-93.0,-575.0,-1021.0,-46.0,-41.0,528.0,-177.0,472.0
19:51:23.578000,-71.0,-144.0,-606.0,-1080.0,-19.0,10.0,528.0,-177.0,472.0
19:51:23.582000,-160.0,-149.0,-625.0,-1075.0,-15.0,64.0,528.0,-177.0,472.0
19:51:23.587000,-156.0,-176.0,-686.0,-1041.0,35.0,17.0,534.0,-168.0,465.0
19:51:23.592000,-134.0,-237.0,-761.0,-1044.0,94.0,28.0,534.0,-168.0,465.0
19:51:23.597000,-131.0,-246.0,-760.0,-1020.0,109.0,14.0,526.0,-163.0,460.0
19:51:23.601000,-210.0,-251.0,-690.0,-1005.0,77.0,14.0,526.0,-163.0,460.0
19:51:23.605000,-210.0,-251.0,-690.0,-1052.0,28.0,26.0,526.0,-163.0,460.0
19:51:23.611000,-257.0,-247.0,-630.0,-1120.0,34.0,1.0,526.0,-157.0,462.0
19:51:23.615000,-216.0,-276.0,-646.0,-1158.0,41.0,10.0,526.0,-157.0,462.0
19:51:23.620000,-213.0,-306.0,-669.0,-1145.0,23.0,17.0,531.0,-160.0,459.0
19:51:23.625000,-220.0,-315.0,-691.0,-1101.0,12.0,-11.0,531.0,-160.0,459.0
19:51:23.629000,-199.0,-284.0,-669.0,-1078.0,18.0,-16.0,531.0,-160.0,459.0
19:51:23.634000,-194.0,-294.0,-660.0,-1089.0,38.0,18.0,519.0,-165.0,462.0
19:51:23.639000,-214.0,-308.0,-651.0,-1073.0,40.0,12.0,519.0,-165.0,462.0
19:51:23.644000,-240.0,-294.0,-635.0,-1045.0,24.0,8.0,528.0,-154.0,460.0
19:51:23.648000,-266.0,-300.0,-630.0,-1022.0,6.0,11.0,528.0,-154.0,460.0
19:51:23.652000,-263.0,-301.0,-633.0,-1009.0,8.0,0.0,528.0,-154.0,460.0
19:51:23.658000,-244.0,-315.0,-644.0,-1005.0,10.0,-6.0,526.0,-156.0,460.0
19:51:23.662000,-239.0,-294.0,-631.0,-1024.0,27.0,-10.0,526.0,-156.0,460.0
19:51:23.667000,-249.0,-278.0,-606.0,-1024.0,27.0,-10.0,528.0,-153.0,462.0
19:51:23.672000,-280.0,-263.0,-583.0,-1070.0,52.0,3.0,528.0,-153.0,462.0
19:51:23.676000,-291.0,-247.0,-593.0,-1104.0,78.0,6.0,528.0,-153.0,462.0
19:51:23.681000,-300.0,-234.0,-623.0,-1106.0,96.0,1.0,531.0,-147.0,468.0
19:51:23.686000,-314.0,-222.0,-639.0,-1077.0,86.0,5.0,531.0,-147.0,468.0
19:51:23.691000,-325.0,-193.0,-641.0,-1039.0,77.0,2.0,528.0,-141.0,462.0
19:51:23.695000,-320.0,-177.0,-648.0,-1017.0,79.0,-3.0,528.0,-141.0,462.0
19:51:23.703000,-315.0,-162.0,-656.0,-985.0,51.0,3.0,522.0,-144.0,471.0
19:51:23.705000,-295.0,-154.0,-658.0,-985.0,51.0,3.0,522.0,-144.0,471.0
19:51:23.709000,-295.0,-154.0,-658.0,-964.0,34.0,1.0,522.0,-144.0,471.0
19:51:23.714000,-243.0,-133.0,-650.0,-947.0,29.0,-2.0,517.0,-144.0,459.0
19:51:23.719000,-243.0,-133.0,-650.0,-932.0,30.0,1.0,517.0,-144.0,459.0
19:51:23.723000,-202.0,-142.0,-632.0,-928.0,46.0,4.0,517.0,-138.0,463.0
19:51:23.728000,-170.0,-147.0,-621.0,-937.0,90.0,9.0,517.0,-138.0,463.0
19:51:23.732000,-126.0,-172.0,-656.0,-935.0,134.0,11.0,517.0,-138.0,463.0
19:51:23.738000,-90.0,-185.0,-703.0,-909.0,146.0,6.0,510.0,-135.0,465.0
19:51:23.742000,-73.0,-185.0,-697.0,-900.0,153.0,2.0,510.0,-135.0,465.0
19:51:23.746000,-60.0,-177.0,-639.0,-936.0,173.0,0.0,523.0,-120.0,474.0
19:51:23.752000,-39.0,-178.0,-584.0,-987.0,197.0,0.0,523.0,-120.0,474.0
19:51:23.756000,-30.0,-170.0,-550.0,-1027.0,215.0,-4.0,523.0,-120.0,474.0
19:51:23.761000,-27.0,-151.0,-526.0,-1047.0,238.0,-11.0,511.0,-127.0,457.0
19:51:23.766000,-20.0,-127.0,-506.0,-1047.0,275.0,-17.0,511.0,-127.0,457.0
19:51:23.770000,-11.0,-100.0,-484.0,-1047.0,275.0,-17.0,510.0,-127.0,463.0
19:51:23.775000,-9.0,-74.0,-443.0,-1040.0,345.0,-11.0,510.0,-127.0,463.0
19:51:23.779000,-11.0,-65.0,-406.0,-1040.0,345.0,-11.0,510.0,-127.0,463.0
19:51:23.785000,-21.0,-51.0,-385.0,-1029.0,378.0,-2.0,508.0,-117.0,462.0
19:51:23.789000,-35.0,-30.0,-365.0,-996.0,410.0,0.0,508.0,-117.0,462.0
19:51:23.794000,-47.0,-30.0,-328.0,-996.0,410.0,0.0,514.0,-114.0,463.0
19:51:23.799000,-57.0,-24.0,-283.0,-974.0,409.0,7.0,514.0,-114.0,463.0
19:51:23.803000,-77.0,-14.0,-243.0,-957.0,407.0,0.0,511.0,-115.0,457.0
19:51:23.808000,-95.0,-6.0,-222.0,-950.0,415.0,0.0,511.0,-115.0,457.0
19:51:23.812000,-95.0,-6.0,-222.0,-948.0,432.0,0.0,511.0,-115.0,457.0
19:51:23.817000,-105.0,1.0,-213.0,-941.0,441.0,-2.0,504.0,-118.0,463.0
19:51:23.822000,-119.0,7.0,-168.0,-923.0,424.0,0.0,504.0,-118.0,463.0
19:51:23.827000,-119.0,7.0,-168.0,-914.0,402.0,-2.0,505.0,-115.0,465.0
19:51:23.832000,-123.0,9.0,-112.0,-917.0,386.0,-9.0,505.0,-115.0,465.0
19:51:23.836000,-120.0,17.0,-64.0,-921.0,370.0,-19.0,505.0,-115.0,465.0
19:51:23.841000,-119.0,25.0,-19.0,-921.0,361.0,-21.0,498.0,-120.0,480.0
19:51:23.846000,-112.0,28.0,26.0,-924.0,369.0,-24.0,498.0,-120.0,480.0
19:51:23.850000,-101.0,30.0,65.0,-928.0,387.0,-26.0,507.0,-115.0,457.0
19:51:23.855000,-91.0,30.0,103.0,-916.0,396.0,-30.0,507.0,-115.0,457.0
19:51:23.859000,-84.0,33.0,154.0,-897.0,387.0,-37.0,507.0,-115.0,457.0
19:51:23.864000,-77.0,42.0,212.0,-886.0,365.0,-40.0,507.0,-118.0,474.0
19:51:23.869000,-63.0,44.0,278.0,-882.0,324.0,-41.0,507.0,-118.0,474.0
19:51:23.874000,-47.0,41.0,357.0,-880.0,268.0,-41.0,516.0,-115.0,465.0
19:51:23.879000,-23.0,28.0,447.0,-879.0,214.0,-48.0,516.0,-115.0,465.0
19:51:23.886000,77.0,10.0,626.0,-879.0,136.0,-60.0,514.0,-121.0,472.0
19:51:23.888000,77.0,10.0,626.0,-879.0,136.0,-60.0,514.0,-121.0,472.0
19:51:23.892000,144.0,-2.0,706.0,-869.0,136.0,-64.0,514.0,-121.0,472.0
19:51:23.897000,212.0,3.0,783.0,-844.0,112.0,-73.0,514.0,-130.0,457.0
19:51:23.902000,261.0,19.0,867.0,-813.0,98.0,-81.0,514.0,-130.0,457.0
19:51:23.907000,291.0,36.0,938.0,-790.0,103.0,-76.0,525.0,-112.0,463.0
19:51:23.911000,325.0,26.0,959.0,-778.0,142.0,-60.0,525.0,-112.0,463.0
19:51:23.916000,360.0,6.0,939.0,-759.0,192.0,-43.0,525.0,-112.0,463.0
19:51:23.920000,364.0,2.0,947.0,-720.0,203.0,-36.0,535.0,-123.0,457.0
19:51:23.926000,358.0,-10.0,973.0,-694.0,192.0,-29.0,535.0,-123.0,457.0
19:51:23.930000,351.0,-26.0,952.0,-702.0,200.0,-17.0,534.0,-124.0,456.0
19:51:23.935000,351.0,-26.0,952.0,-718.0,225.0,-8.0,534.0,-124.0,456.0
19:51:23.939000,332.0,-42.0,909.0,-705.0,226.0,7.0,534.0,-124.0,456.0
19:51:23.944000,301.0,-64.0,905.0,-666.0,201.0,20.0,532.0,-130.0,456.0
19:51:23.949000,261.0,-85.0,942.0,-654.0,191.0,20.0,532.0,-130.0,456.0
19:51:23.954000,219.0,-90.0,977.0,-691.0,208.0,12.0,547.0,-139.0,454.0
19:51:23.958000,200.0,-89.0,989.0,-715.0,203.0,22.0,547.0,-139.0,454.0
19:51:23.963000,178.0,-105.0,1011.0,-698.0,190.0,27.0,547.0,-139.0,454.0
19:51:23.968000,145.0,-98.0,1033.0,-692.0,219.0,28.0,549.0,-138.0,457.0
19:51:23.973000,107.0,-101.0,1022.0,-710.0,250.0,41.0,549.0,-138.0,457.0
19:51:23.977000,63.0,-106.0,1018.0,-715.0,250.0,46.0,553.0,-139.0,456.0
19:51:23.982000,30.0,-112.0,1019.0,-697.0,242.0,40.0,553.0,-139.0,456.0
19:51:23.986000,0.0,-107.0,1004.0,-696.0,256.0,42.0,553.0,-139.0,456.0
19:51:23.991000,-35.0,-123.0,961.0,-691.0,251.0,45.0,571.0,-147.0,456.0
19:51:23.996000,-85.0,-121.0,938.0,-665.0,195.0,36.0,571.0,-147.0,456.0
19:51:24.001000,-128.0,-105.0,971.0,-665.0,195.0,36.0,571.0,-159.0,445.0
