hh:mm:ss.ms,gyroX[mdps],gyroY[mdps],gyroZ[mdps],accX[mg],accY[mg],accZ[mg],magX[mG],magY[mG],magZ[mG]
19:53:12.526000,-48.0,-136.0,590.0,-1367.0,340.0,16.0,708.0,-498.0,388.0
19:53:12.531000,-124.0,-88.0,546.0,-1331.0,242.0,-27.0,708.0,-498.0,387.0
19:53:12.536000,-124.0,-88.0,546.0,-1256.0,111.0,-74.0,708.0,-498.0,387.0
19:53:12.540000,-149.0,-49.0,500.0,-1162.0,-10.0,-118.0,699.0,-505.0,384.0
19:53:12.545000,-173.0,-9.0,442.0,-1061.0,-112.0,-159.0,699.0,-505.0,384.0
19:53:12.549000,-197.0,25.0,385.0,-962.0,-201.0,-200.0,699.0,-505.0,384.0
19:53:12.555000,-212.0,53.0,336.0,-887.0,-270.0,-241.0,706.0,-502.0,376.0
19:53:12.559000,-209.0,72.0,295.0,-852.0,-299.0,-275.0,706.0,-502.0,376.0
19:53:12.563000,-192.0,79.0,259.0,-849.0,-277.0,-295.0,688.0,-513.0,409.0
19:53:12.569000,-169.0,72.0,231.0,-865.0,-209.0,-305.0,688.0,-513.0,409.0
19:53:12.573000,-154.0,49.0,209.0,-888.0,-134.0,-307.0,688.0,-513.0,409.0
19:53:12.577000,-150.0,18.0,203.0,-908.0,-91.0,-310.0,681.0,-508.0,385.0
19:53:12.583000,-148.0,-15.0,220.0,-928.0,-82.0,-309.0,681.0,-508.0,385.0
19:53:12.587000,-141.0,-52.0,247.0,-928.0,-82.0,-309.0,688.0,-501.0,385.0
19:53:12.592000,-123.0,-95.0,277.0,-940.0,-141.0,-264.0,688.0,-501.0,385.0
19:53:12.596000,-88.0,-142.0,322.0,-940.0,-199.0,-228.0,688.0,-501.0,385.0
19:53:12.602000,-31.0,-187.0,383.0,-940.0,-199.0,-228.0,690.0,-498.0,385.0
19:53:12.606000,37.0,-217.0,451.0,-1061.0,-215.0,-167.0,690.0,-498.0,385.0
19:53:12.611000,84.0,-217.0,523.0,-1061.0,-215.0,-167.0,684.0,-504.0,387.0
19:53:12.616000,83.0,-187.0,604.0,-1211.0,-120.0,-134.0,684.0,-504.0,387.0
19:53:12.620000,23.0,-121.0,714.0,-1385.0,-9.0,-115.0,678.0,-511.0,385.0
19:53:12.625000,-45.0,-12.0,880.0,-1527.0,15.0,-129.0,678.0,-511.0,385.0
19:53:12.629000,-88.0,111.0,1087.0,-1583.0,-95.0,-145.0,678.0,-511.0,385.0
19:53:12.634000,-81.0,219.0,1292.0,-1498.0,-283.0,-139.0,678.0,-520.0,381.0
19:53:12.639000,-18.0,292.0,1477.0,-1267.0,-459.0,-124.0,678.0,-520.0,381.0
19:53:12.644000,160.0,292.0,1656.0,-979.0,-555.0,-91.0,669.0,-528.0,388.0
19:53:12.649000,53.0,315.0,1653.0,-732.0,-534.0,-13.0,669.0,-528.0,388.0
19:53:12.653000,63.0,294.0,1818.0,-541.0,-449.0,77.0,669.0,-528.0,388.0
19:53:12.658000,25.0,238.0,1980.0,-379.0,-401.0,124.0,646.0,-544.0,402.0
19:53:12.663000,0.0,165.0,2142.0,-276.0,-397.0,111.0,646.0,-544.0,402.0
19:53:12.667000,0.0,109.0,2296.0,-318.0,-328.0,101.0,642.0,-556.0,397.0
19:53:12.672000,-17.0,79.0,2430.0,-497.0,-148.0,166.0,642.0,-556.0,397.0
19:53:12.676000,-105.0,53.0,2544.0,-659.0,5.0,234.0,642.0,-556.0,397.0
19:53:12.681000,-216.0,45.0,2707.0,-689.0,-67.0,212.0,634.0,-574.0,402.0
19:53:12.686000,-265.0,67.0,2991.0,-611.0,-388.0,123.0,634.0,-574.0,402.0
19:53:12.691000,-207.0,102.0,3343.0,-485.0,-755.0,19.0,616.0,-592.0,406.0
19:53:12.696000,-68.0,144.0,3682.0,-348.0,-957.0,-58.0,616.0,-592.0,406.0
19:53:12.700000,72.0,185.0,3983.0,-204.0,-928.0,-81.0,616.0,-592.0,406.0
19:53:12.705000,137.0,204.0,4252.0,-43.0,-776.0,-59.0,609.0,-622.0,414.0
19:53:12.710000,112.0,206.0,4498.0,-43.0,-776.0,-59.0,609.0,-622.0,414.0
19:53:12.714000,30.0,210.0,4722.0,135.0,-657.0,-37.0,585.0,-637.0,397.0
19:53:12.719000,-71.0,219.0,4900.0,314.0,-651.0,-29.0,585.0,-637.0,397.0
19:53:12.723000,-158.0,242.0,5019.0,488.0,-744.0,-30.0,585.0,-637.0,397.0
19:53:12.728000,-219.0,275.0,5096.0,664.0,-902.0,-27.0,558.0,-688.0,406.0
19:53:12.733000,-250.0,324.0,5142.0,848.0,-1088.0,-13.0,558.0,-688.0,406.0
19:53:12.738000,-256.0,382.0,5154.0,1038.0,-1264.0,5.0,496.0,-708.0,409.0
19:53:12.743000,-222.0,450.0,5120.0,1223.0,-1405.0,9.0,496.0,-708.0,409.0
19:53:12.747000,-222.0,450.0,5120.0,1377.0,-1479.0,-15.0,496.0,-708.0,409.0
19:53:12.752000,-37.0,554.0,4853.0,1464.0,-1447.0,-52.0,451.0,-732.0,414.0
19:53:12.757000,-37.0,554.0,4853.0,1455.0,-1301.0,-93.0,451.0,-732.0,414.0
19:53:12.761000,53.0,582.0,4665.0,1335.0,-1091.0,-144.0,421.0,-744.0,406.0
19:53:12.766000,118.0,617.0,4476.0,1129.0,-893.0,-207.0,421.0,-744.0,406.0
19:53:12.770000,182.0,651.0,4284.0,884.0,-712.0,-271.0,421.0,-744.0,406.0
19:53:12.775000,266.0,672.0,4069.0,629.0,-483.0,-322.0,397.0,-757.0,409.0
19:53:12.780000,356.0,666.0,3826.0,382.0,-184.0,-350.0,397.0,-757.0,409.0
19:53:12.785000,406.0,640.0,3564.0,152.0,135.0,-344.0,367.0,-763.0,418.0
19:53:12.790000,429.0,579.0,3294.0,-43.0,397.0,-303.0,367.0,-763.0,418.0
19:53:12.794000,430.0,499.0,3054.0,-194.0,582.0,-247.0,367.0,-763.0,418.0
19:53:12.799000,411.0,426.0,2851.0,-291.0,647.0,-160.0,318.0,-769.0,432.0
19:53:12.804000,391.0,324.0,2749.0,-332.0,544.0,-53.0,318.0,-769.0,432.0
19:53:12.808000,401.0,207.0,2776.0,-332.0,544.0,-53.0,297.0,-774.0,427.0
19:53:12.813000,438.0,97.0,2855.0,-394.0,255.0,108.0,297.0,-774.0,427.0
19:53:12.817000,476.0,9.0,2917.0,-394.0,255.0,108.0,297.0,-774.0,427.0
19:53:12.822000,478.0,-35.0,2958.0,-426.0,220.0,154.0,277.0,-760.0,435.0
19:53:12.827000,429.0,-50.0,2991.0,-425.0,252.0,178.0,277.0,-760.0,435.0
19:53:12.831000,315.0,-46.0,2993.0,-460.0,594.0,161.0,258.0,-768.0,441.0
19:53:12.837000,120.0,-20.0,2916.0,-460.0,594.0,161.0,258.0,-768.0,441.0
19:53:12.841000,-142.0,28.0,2743.0,-576.0,876.0,109.0,258.0,-768.0,441.0
19:53:12.846000,-415.0,102.0,2502.0,-748.0,1087.0,37.0,231.0,-756.0,442.0
19:53:12.851000,-621.0,184.0,2234.0,-924.0,1103.0,-30.0,231.0,-756.0,442.0
19:53:12.855000,-685.0,235.0,1965.0,-1020.0,890.0,-76.0,217.0,-765.0,441.0
19:53:12.860000,-586.0,247.0,1736.0,-977.0,517.0,-113.0,217.0,-765.0,441.0
19:53:12.864000,-586.0,247.0,1736.0,-838.0,125.0,-143.0,217.0,-765.0,441.0
19:53:12.869000,-371.0,224.0,1584.0,-735.0,-107.0,-167.0,208.0,-760.0,429.0
19:53:12.874000,-119.0,200.0,1504.0,-766.0,-75.0,-185.0,208.0,-760.0,429.0
19:53:12.879000,100.0,191.0,1429.0,-888.0,142.0,-199.0,178.0,-745.0,441.0
19:53:12.884000,243.0,213.0,1301.0,-997.0,394.0,-211.0,178.0,-745.0,441.0
19:53:12.888000,305.0,263.0,1145.0,-1045.0,610.0,-215.0,178.0,-745.0,441.0
19:53:12.893000,298.0,336.0,987.0,-1024.0,783.0,-208.0,175.0,-745.0,433.0
19:53:12.898000,240.0,408.0,817.0,-924.0,901.0,-197.0,175.0,-745.0,433.0
19:53:12.902000,159.0,455.0,627.0,-745.0,941.0,-183.0,180.0,-732.0,448.0
19:53:12.907000,66.0,476.0,444.0,-513.0,887.0,-169.0,180.0,-732.0,448.0
19:53:12.911000,-16.0,466.0,312.0,-272.0,740.0,-158.0,180.0,-732.0,448.0
19:53:12.916000,-70.0,420.0,240.0,-54.0,542.0,-147.0,168.0,-730.0,444.0
19:53:12.921000,-80.0,343.0,197.0,118.0,338.0,-148.0,168.0,-730.0,444.0
19:53:12.926000,-47.0,249.0,152.0,118.0,338.0,-148.0,160.0,-736.0,447.0
19:53:12.931000,11.0,156.0,89.0,238.0,166.0,-150.0,160.0,-736.0,447.0
19:53:12.935000,80.0,76.0,11.0,299.0,40.0,-153.0,157.0,-721.0,450.0
19:53:12.940000,151.0,22.0,-89.0,302.0,-53.0,-164.0,157.0,-721.0,450.0
19:53:12.944000,213.0,-2.0,-212.0,272.0,-147.0,-177.0,157.0,-721.0,450.0
19:53:12.949000,252.0,-10.0,-336.0,253.0,-244.0,-186.0,162.0,-720.0,453.0
19:53:12.954000,272.0,-15.0,-458.0,246.0,-302.0,-195.0,162.0,-720.0,453.0
19:53:12.959000,267.0,-32.0,-589.0,234.0,-290.0,-214.0,169.0,-715.0,457.0
19:53:12.963000,226.0,-70.0,-753.0,225.0,-213.0,-251.0,169.0,-715.0,457.0
19:53:12.968000,226.0,-70.0,-753.0,253.0,-106.0,-281.0,169.0,-715.0,457.0
19:53:12.973000,137.0,-132.0,-928.0,335.0,-50.0,-278.0,180.0,-709.0,475.0
19:53:12.978000,22.0,-217.0,-1063.0,444.0,-149.0,-256.0,180.0,-709.0,475.0
19:53:12.982000,-77.0,-313.0,-1124.0,586.0,-517.0,-519.0,184.0,-706.0,459.0
19:53:12.987000,-264.0,-97.0,-1109.0,1053.0,-1780.0,-833.0,184.0,-706.0,459.0
19:53:12.991000,-263.0,905.0,-418.0,2242.0,-3291.0,-103.0,184.0,-706.0,459.0
19:53:12.996000,-650.0,-1054.0,3642.0,3267.0,-2508.0,524.0,192.0,-703.0,463.0
19:53:13.001000,702.0,-3612.0,-506.0,1934.0,1386.0,-181.0,192.0,-703.0,463.0
19:53:13.006000,4668.0,-3896.0,-14025.0,-1639.0,3990.0,1168.0,192.0,-699.0,474.0
19:53:13.010000,2277.0,-6927.0,-20543.0,-3826.0,3946.0,132.0,192.0,-699.0,474.0
19:53:13.015000,-539.0,-1045.0,-13136.0,-2815.0,1088.0,-2116.0,192.0,-699.0,474.0
19:53:13.020000,-367.0,1638.0,1232.0,-426.0,-2797.0,-561.0,295.0,-682.0,487.0
19:53:13.025000,-2646.0,1820.0,8325.0,-109.0,-2517.0,821.0,295.0,-682.0,487.0
19:53:13.029000,109.0,-12.0,6409.0,-109.0,-2517.0,821.0,304.0,-678.0,483.0
19:53:13.034000,2859.0,-1152.0,663.0,-2147.0,-1550.0,-263.0,304.0,-678.0,483.0
19:53:13.038000,28.0,37.0,-1327.0,-2127.0,-1550.0,-263.0,304.0,-678.0,483.0
19:53:13.043000,-1506.0,456.0,-531.0,-874.0,-3593.0,-393.0,300.0,-664.0,490.0
19:53:13.048000,-28.0,457.0,-311.0,-124.0,-3074.0,-666.0,300.0,-664.0,490.0
19:53:13.053000,-459.0,-242.0,219.0,684.0,-2479.0,-485.0,303.0,-663.0,480.0
19:53:13.057000,-919.0,-14.0,-716.0,223.0,-1873.0,31.0,303.0,-663.0,480.0
19:53:13.062000,-410.0,216.0,-736.0,-81.0,-1831.0,-783.0,303.0,-663.0,480.0
19:53:13.067000,84.0,-378.0,-991.0,125.0,-2238.0,-605.0,297.0,-657.0,493.0
19:53:13.072000,287.0,-166.0,-1695.0,-434.0,-2566.0,-377.0,297.0,-657.0,493.0
19:53:13.076000,-434.0,270.0,-1491.0,-721.0,-3341.0,-586.0,318.0,-657.0,483.0
19:53:13.081000,-56.0,329.0,-267.0,91.0,-2848.0,-677.0,318.0,-657.0,483.0
19:53:13.085000,-56.0,329.0,-267.0,198.0,-2339.0,-492.0,318.0,-657.0,483.0
19:53:13.090000,879.0,-160.0,-275.0,-696.0,-3012.0,-197.0,321.0,-652.0,486.0
19:53:13.094000,487.0,-147.0,-737.0,-894.0,-3377.0,-584.0,321.0,-652.0,486.0
19:53:13.100000,567.0,246.0,-1837.0,-133.0,-2962.0,-489.0,313.0,-654.0,477.0
19:53:13.104000,550.0,39.0,-1592.0,41.0,-1940.0,-95.0,313.0,-654.0,477.0
19:53:13.109000,513.0,-56.0,-2050.0,-63.0,-1611.0,-203.0,333.0,-639.0,489.0
19:53:13.114000,1630.0,-508.0,-2312.0,221.0,-2377.0,-293.0,333.0,-639.0,489.0
19:53:13.118000,388.0,-65.0,-1330.0,-696.0,-2006.0,-119.0,333.0,-639.0,489.0
19:53:13.123000,-16.0,43.0,-1654.0,-142.0,-1684.0,-209.0,342.0,-619.0,487.0
19:53:13.128000,648.0,93.0,-2395.0,544.0,-2607.0,-55.0,342.0,-619.0,487.0
19:53:13.133000,991.0,-392.0,-2028.0,544.0,-2607.0,-55.0,345.0,-619.0,487.0
19:53:13.137000,967.0,-597.0,-2559.0,-872.0,-1478.0,-248.0,345.0,-619.0,487.0
19:53:13.141000,1136.0,-130.0,-2585.0,-96.0,-2298.0,-364.0,345.0,-619.0,487.0
19:53:13.147000,452.0,84.0,-849.0,-96.0,-2298.0,-364.0,358.0,-597.0,514.0
19:53:13.151000,-123.0,-162.0,697.0,606.0,-2828.0,90.0,358.0,-597.0,514.0
19:53:13.156000,597.0,-352.0,-955.0,444.0,-2334.0,75.0,357.0,-586.0,504.0
19:53:13.161000,1449.0,-296.0,-4008.0,-587.0,-1986.0,-308.0,357.0,-586.0,504.0
19:53:13.165000,339.0,252.0,-5273.0,-1582.0,-2148.0,-400.0,357.0,-586.0,504.0
19:53:13.170000,-440.0,252.0,-3236.0,-743.0,-3138.0,5.0,361.0,-586.0,489.0
19:53:13.175000,193.0,529.0,-226.0,1190.0,-3418.0,-382.0,361.0,-586.0,489.0
19:53:13.180000,2060.0,-501.0,-2243.0,754.0,-1323.0,-373.0,390.0,-556.0,514.0
19:53:13.184000,1027.0,-1077.0,-5284.0,-1371.0,-972.0,534.0,390.0,-556.0,514.0
19:53:13.188000,1027.0,-1077.0,-5284.0,-1064.0,-3137.0,-197.0,390.0,-556.0,514.0
19:53:13.194000,-359.0,-31.0,-3836.0,388.0,-3958.0,-809.0,394.0,-546.0,498.0
19:53:13.198000,-188.0,242.0,-559.0,1496.0,-2626.0,-666.0,394.0,-546.0,498.0
19:53:13.203000,1092.0,-18.0,-137.0,1037.0,-990.0,-141.0,412.0,-546.0,498.0
19:53:13.208000,370.0,-832.0,-2349.0,-564.0,-742.0,-63.0,412.0,-546.0,498.0
19:53:13.212000,576.0,-963.0,-3954.0,-1136.0,-1771.0,-665.0,412.0,-546.0,498.0
19:53:13.217000,-172.0,-455.0,-3301.0,-207.0,-3140.0,-830.0,423.0,-535.0,502.0
19:53:13.222000,-790.0,-64.0,-1866.0,499.0,-3231.0,-886.0,423.0,-535.0,502.0
19:53:13.227000,-96.0,-151.0,-1225.0,-86.0,-2266.0,-626.0,429.0,-526.0,507.0
19:53:13.231000,906.0,-733.0,-2284.0,-371.0,-1712.0,-675.0,429.0,-526.0,507.0
19:53:13.235000,429.0,-213.0,-3238.0,-146.0,-2218.0,-846.0,429.0,-526.0,507.0
19:53:13.241000,149.0,96.0,-3227.0,-52.0,-2747.0,-505.0,433.0,-513.0,498.0
19:53:13.245000,337.0,-406.0,-1829.0,-235.0,-2969.0,-798.0,433.0,-513.0,498.0
19:53:13.250000,95.0,275.0,-553.0,-235.0,-2969.0,-798.0,445.0,-498.0,504.0
19:53:13.255000,706.0,129.0,-1715.0,-602.0,-1722.0,-1021.0,445.0,-498.0,504.0
19:53:13.259000,730.0,-638.0,-3121.0,-529.0,-698.0,-340.0,445.0,-498.0,504.0
19:53:13.264000,317.0,-603.0,-2252.0,510.0,-2630.0,-950.0,451.0,-475.0,504.0
19:53:13.269000,-283.0,-70.0,-1374.0,510.0,-2630.0,-950.0,451.0,-475.0,504.0
19:53:13.274000,72.0,-245.0,-1512.0,331.0,-2296.0,-943.0,453.0,-478.0,484.0
19:53:13.278000,320.0,-594.0,-1483.0,19.0,-2200.0,-563.0,453.0,-478.0,484.0
19:53:13.282000,191.0,-555.0,-1692.0,-111.0,-1815.0,-494.0,453.0,-478.0,484.0
19:53:13.288000,5.0,-561.0,-1673.0,-454.0,-1172.0,-506.0,447.0,-475.0,504.0
19:53:13.292000,-207.0,-368.0,-1577.0,-555.0,-1715.0,-580.0,447.0,-475.0,504.0
19:53:13.297000,28.0,-528.0,-1797.0,-474.0,-1798.0,-589.0,453.0,-457.0,499.0
19:53:13.302000,28.0,-528.0,-1797.0,-410.0,-1643.0,-476.0,453.0,-457.0,499.0
19:53:13.306000,239.0,-606.0,-1820.0,-108.0,-2198.0,-493.0,453.0,-457.0,499.0
19:53:13.311000,43.0,-486.0,-1291.0,-150.0,-2306.0,-449.0,462.0,-459.0,498.0
19:53:13.316000,11.0,-382.0,-1187.0,-562.0,-1859.0,-456.0,462.0,-459.0,498.0
19:53:13.321000,478.0,-432.0,-1726.0,-584.0,-1431.0,-412.0,474.0,-456.0,492.0
19:53:13.325000,425.0,-434.0,-1708.0,-545.0,-1126.0,-331.0,474.0,-456.0,492.0
19:53:13.329000,67.0,-291.0,-1711.0,-624.0,-1052.0,-400.0,474.0,-456.0,492.0
19:53:13.335000,286.0,-329.0,-1848.0,-564.0,-1634.0,-465.0,475.0,-432.0,493.0
19:53:13.339000,7.0,-188.0,-1069.0,-366.0,-2477.0,-580.0,475.0,-432.0,493.0
19:53:13.344000,214.0,-74.0,-458.0,-172.0,-2567.0,-486.0,478.0,-427.0,490.0
19:53:13.349000,325.0,-238.0,-384.0,-546.0,-1721.0,-334.0,478.0,-427.0,490.0
19:53:13.353000,363.0,-178.0,-810.0,-905.0,-554.0,-291.0,478.0,-427.0,490.0
19:53:13.358000,187.0,-208.0,-1346.0,-799.0,-214.0,-40.0,462.0,-429.0,501.0
19:53:13.363000,159.0,-521.0,-1469.0,-799.0,-711.0,-40.0,462.0,-429.0,501.0
19:53:13.368000,-243.0,-18.0,-1367.0,-462.0,-711.0,-361.0,487.0,-423.0,484.0
19:53:13.372000,-226.0,-110.0,-1319.0,-177.0,-1564.0,-421.0,487.0,-423.0,484.0
19:53:13.376000,-102.0,-326.0,-1384.0,43.0,-2307.0,-155.0,487.0,-423.0,484.0
19:53:13.382000,229.0,-487.0,-1272.0,-130.0,-2161.0,-239.0,487.0,-420.0,483.0
19:53:13.386000,-117.0,-379.0,-1428.0,-737.0,-1187.0,-208.0,487.0,-420.0,483.0
19:53:13.391000,76.0,-484.0,-1674.0,-986.0,-302.0,-238.0,493.0,-402.0,505.0
19:53:13.396000,-1.0,-234.0,-1627.0,-1002.0,-507.0,-372.0,493.0,-402.0,505.0
19:53:13.400000,-1.0,-234.0,-1627.0,-912.0,-1267.0,-472.0,493.0,-402.0,505.0
19:53:13.405000,-264.0,-4.0,-749.0,-799.0,-1450.0,-475.0,495.0,-394.0,480.0
19:53:13.410000,-264.0,-4.0,-749.0,-793.0,-1501.0,-390.0,495.0,-394.0,480.0
19:53:13.415000,17.0,-252.0,-475.0,-690.0,-1640.0,-295.0,490.0,-391.0,478.0
19:53:13.419000,-172.0,-147.0,-802.0,-450.0,-1420.0,-296.0,490.0,-391.0,478.0
19:53:13.423000,53.0,-259.0,-1197.0,-232.0,-1138.0,-218.0,490.0,-391.0,478.0
19:53:13.429000,-165.0,-469.0,-1280.0,-229.0,-824.0,-157.0,495.0,-388.0,483.0
19:53:13.433000,-448.0,-559.0,-1088.0,-320.0,-614.0,-341.0,495.0,-388.0,483.0
19:53:13.438000,-365.0,-646.0,-1262.0,-474.0,-816.0,-488.0,496.0,-385.0,481.0
19:53:13.443000,-247.0,-726.0,-1593.0,-526.0,-1367.0,-480.0,496.0,-385.0,481.0
19:53:13.447000,-190.0,-716.0,-1466.0,-379.0,-1566.0,-443.0,498.0,-384.0,471.0
19:53:13.452000,-296.0,-768.0,-1105.0,-240.0,-1002.0,-399.0,498.0,-384.0,471.0
19:53:13.456000,-391.0,-826.0,-931.0,-228.0,-468.0,-352.0,498.0,-384.0,471.0
19:53:13.462000,-452.0,-926.0,-900.0,-326.0,-637.0,-279.0,496.0,-382.0,472.0
19:53:13.466000,-570.0,-982.0,-751.0,-320.0,-822.0,-355.0,496.0,-382.0,472.0
19:53:13.471000,-552.0,-1007.0,-697.0,-320.0,-822.0,-355.0,510.0,-373.0,468.0
19:53:13.476000,-607.0,-1077.0,-589.0,-593.0,-914.0,-341.0,510.0,-373.0,468.0
19:53:13.480000,-553.0,-966.0,-806.0,-593.0,-914.0,-341.0,510.0,-373.0,468.0
19:53:13.485000,-551.0,-862.0,-883.0,-800.0,-988.0,-451.0,525.0,-378.0,465.0
19:53:13.490000,-578.0,-857.0,-802.0,-599.0,-1026.0,-361.0,525.0,-378.0,465.0
19:53:13.494000,-714.0,-879.0,-683.0,-574.0,-838.0,-227.0,525.0,-369.0,460.0
19:53:13.499000,-840.0,-898.0,-448.0,-518.0,-664.0,-193.0,525.0,-369.0,460.0
19:53:13.503000,-857.0,-919.0,-385.0,-455.0,-615.0,-245.0,525.0,-369.0,460.0
19:53:13.508000,-857.0,-919.0,-385.0,-646.0,-660.0,-310.0,529.0,-375.0,453.0
19:53:13.513000,-907.0,-893.0,-303.0,-842.0,-782.0,-239.0,529.0,-375.0,453.0
19:53:13.518000,-665.0,-950.0,-301.0,-852.0,-721.0,-221.0,525.0,-378.0,454.0
19:53:13.523000,-665.0,-950.0,-301.0,-776.0,-658.0,-245.0,525.0,-378.0,454.0
19:53:13.527000,-546.0,-970.0,-415.0,-920.0,-909.0,-329.0,525.0,-378.0,454.0
19:53:13.532000,-569.0,-718.0,-489.0,-1001.0,-1090.0,-343.0,535.0,-381.0,445.0
19:53:13.537000,-669.0,-630.0,-366.0,-833.0,-920.0,-235.0,535.0,-381.0,445.0
19:53:13.541000,-464.0,-597.0,-337.0,-854.0,-889.0,-323.0,532.0,-384.0,447.0
19:53:13.546000,-245.0,-531.0,-458.0,-990.0,-875.0,-201.0,532.0,-384.0,447.0
19:53:13.550000,-229.0,-676.0,-496.0,-974.0,-689.0,-115.0,532.0,-384.0,447.0
19:53:13.556000,-265.0,-692.0,-492.0,-878.0,-760.0,-143.0,534.0,-384.0,439.0
19:53:13.560000,-327.0,-712.0,-556.0,-834.0,-954.0,-192.0,534.0,-384.0,439.0
19:53:13.565000,-267.0,-604.0,-783.0,-1008.0,-1070.0,-249.0,531.0,-379.0,442.0
19:53:13.570000,-356.0,-510.0,-838.0,-1200.0,-1050.0,-177.0,531.0,-379.0,442.0
19:53:13.574000,-312.0,-460.0,-842.0,-1084.0,-836.0,-181.0,531.0,-379.0,442.0
19:53:13.579000,-196.0,-443.0,-863.0,-908.0,-782.0,-184.0,543.0,-372.0,427.0
19:53:13.584000,-177.0,-420.0,-815.0,-908.0,-782.0,-184.0,543.0,-372.0,427.0
19:53:13.588000,-284.0,-428.0,-718.0,-872.0,-727.0,-100.0,546.0,-375.0,427.0
19:53:13.593000,-315.0,-453.0,-568.0,-852.0,-670.0,-68.0,546.0,-375.0,427.0
19:53:13.597000,-207.0,-479.0,-488.0,-898.0,-728.0,-142.0,546.0,-375.0,427.0
19:53:13.603000,-161.0,-482.0,-547.0,-913.0,-803.0,-145.0,538.0,-366.0,445.0
19:53:13.607000,-105.0,-456.0,-609.0,-899.0,-787.0,-136.0,538.0,-366.0,445.0
19:53:13.612000,-87.0,-442.0,-714.0,-991.0,-711.0,-133.0,538.0,-366.0,445.0
19:53:13.617000,-97.0,-393.0,-856.0,-1071.0,-747.0,-106.0,538.0,-366.0,445.0
19:53:13.621000,-97.0,-393.0,-856.0,-1057.0,-913.0,-159.0,538.0,-366.0,445.0
19:53:13.626000,96.0,-378.0,-797.0,-1070.0,-982.0,-160.0,553.0,-357.0,424.0
19:53:13.631000,96.0,-378.0,-797.0,-1138.0,-931.0,-197.0,553.0,-357.0,424.0
19:53:13.635000,193.0,-250.0,-827.0,-1163.0,-1233.0,-357.0,555.0,-351.0,426.0
19:53:13.640000,641.0,1.0,-340.0,-1901.0,-2706.0,-690.0,555.0,-351.0,426.0
19:53:13.644000,1325.0,396.0,645.0,-2936.0,-2850.0,-449.0,555.0,-351.0,426.0
19:53:13.650000,1122.0,403.0,-90.0,-2682.0,-447.0,182.0,547.0,-349.0,433.0
19:53:13.654000,873.0,87.0,-1719.0,-1352.0,1542.0,235.0,547.0,-349.0,433.0
19:53:13.659000,590.0,-41.0,-2879.0,100.0,1481.0,104.0,543.0,-339.0,426.0
19:53:13.664000,196.0,2.0,-2462.0,816.0,351.0,72.0,543.0,-339.0,426.0
19:53:13.668000,-83.0,-78.0,-1512.0,666.0,-330.0,20.0,543.0,-339.0,426.0
19:53:13.673000,-212.0,-150.0,-555.0,16.0,-687.0,-92.0,550.0,-337.0,430.0
19:53:13.678000,-247.0,-141.0,-11.0,-784.0,-939.0,-186.0,550.0,-337.0,430.0
19:53:13.682000,-205.0,-60.0,100.0,-784.0,-939.0,-186.0,543.0,-319.0,429.0
19:53:13.687000,-218.0,-19.0,16.0,-1335.0,-881.0,-166.0,543.0,-319.0,429.0
19:53:13.691000,-198.0,44.0,-124.0,-1335.0,-881.0,-166.0,543.0,-319.0,429.0
19:53:13.697000,-67.0,246.0,30.0,-1136.0,-669.0,-256.0,547.0,-321.0,427.0
19:53:13.701000,25.0,333.0,693.0,-1019.0,-1180.0,-306.0,547.0,-321.0,427.0
19:53:13.706000,32.0,216.0,124.0,-1223.0,-978.0,-189.0,538.0,-334.0,435.0
19:53:13.711000,-21.0,148.0,-422.0,-1320.0,-51.0,-47.0,538.0,-334.0,435.0
19:53:13.715000,-108.0,184.0,-475.0,-962.0,8.0,-67.0,538.0,-334.0,435.0
19:53:13.720000,-168.0,98.0,-410.0,-658.0,-183.0,-69.0,541.0,-327.0,430.0
19:53:13.725000,-242.0,-72.0,-246.0,-524.0,-381.0,39.0,541.0,-327.0,430.0
19:53:13.729000,-242.0,-72.0,-246.0,-554.0,-429.0,-76.0,540.0,-331.0,436.0
19:53:13.734000,-189.0,-65.0,-102.0,-709.0,-471.0,-145.0,540.0,-331.0,436.0
19:53:13.738000,-189.0,-65.0,-102.0,-848.0,-553.0,-54.0,540.0,-331.0,436.0
19:53:13.743000,-186.0,-95.0,-203.0,-960.0,-547.0,-118.0,529.0,-325.0,439.0
19:53:13.748000,-118.0,-63.0,-494.0,-986.0,-577.0,-126.0,529.0,-325.0,439.0
19:53:13.753000,-74.0,-79.0,-583.0,-946.0,-651.0,-112.0,535.0,-330.0,433.0
19:53:13.758000,-77.0,-66.0,-373.0,-871.0,-661.0,-116.0,535.0,-330.0,433.0
19:53:13.762000,-125.0,-62.0,-196.0,-777.0,-630.0,-101.0,535.0,-330.0,433.0
19:53:13.767000,-87.0,-77.0,-138.0,-787.0,-656.0,-88.0,541.0,-322.0,442.0
19:53:13.772000,-111.0,-98.0,-138.0,-890.0,-644.0,-91.0,541.0,-322.0,442.0
19:53:13.776000,-144.0,-109.0,-226.0,-894.0,-501.0,-109.0,535.0,-325.0,427.0
19:53:13.781000,-170.0,-102.0,-264.0,-828.0,-395.0,-80.0,535.0,-325.0,427.0
19:53:13.785000,-223.0,-171.0,-215.0,-838.0,-361.0,9.0,535.0,-325.0,427.0
19:53:13.791000,-272.0,-277.0,-188.0,-832.0,-340.0,-75.0,538.0,-313.0,442.0
19:53:13.795000,-208.0,-217.0,-199.0,-888.0,-439.0,-153.0,538.0,-313.0,442.0
19:53:13.800000,-161.0,-240.0,-200.0,-888.0,-439.0,-153.0,540.0,-322.0,435.0
19:53:13.805000,-130.0,-178.0,-143.0,-1004.0,-561.0,-119.0,540.0,-322.0,435.0
19:53:13.809000,-92.0,-156.0,-102.0,-1005.0,-604.0,-125.0,540.0,-322.0,435.0
19:53:13.814000,-28.0,-140.0,-319.0,-982.0,-587.0,-99.0,540.0,-328.0,433.0
19:53:13.818000,65.0,-92.0,-449.0,-824.0,-700.0,-145.0,540.0,-328.0,433.0
19:53:13.823000,184.0,4.0,-270.0,-824.0,-700.0,-145.0,544.0,-318.0,430.0
19:53:13.828000,162.0,1.0,-261.0,-892.0,-739.0,-92.0,544.0,-318.0,430.0
19:53:13.833000,155.0,-19.0,-439.0,-1059.0,-670.0,-30.0,538.0,-327.0,436.0
19:53:13.838000,196.0,71.0,-559.0,-1086.0,-622.0,-105.0,538.0,-327.0,436.0
19:53:13.842000,196.0,71.0,-559.0,-1134.0,-659.0,-165.0,538.0,-327.0,436.0
19:53:13.847000,232.0,126.0,-576.0,-1172.0,-660.0,-77.0,535.0,-322.0,444.0
19:53:13.852000,197.0,53.0,-571.0,-1048.0,-466.0,-54.0,535.0,-322.0,444.0
19:53:13.856000,158.0,125.0,-516.0,-839.0,-282.0,-107.0,541.0,-307.0,441.0
19:53:13.861000,83.0,131.0,-361.0,-798.0,-249.0,-36.0,541.0,-307.0,441.0
19:53:13.865000,-22.0,24.0,-361.0,-969.0,-278.0,-61.0,541.0,-307.0,441.0
19:53:13.870000,-28.0,23.0,-435.0,-1143.0,-441.0,-182.0,528.0,-306.0,442.0
19:53:13.875000,-62.0,114.0,-329.0,-1248.0,-572.0,-227.0,528.0,-306.0,442.0
19:53:13.880000,10.0,177.0,-376.0,-1232.0,-448.0,-195.0,537.0,-312.0,435.0
19:53:13.885000,66.0,179.0,-583.0,-959.0,-370.0,-147.0,537.0,-312.0,435.0
19:53:13.889000,85.0,114.0,-609.0,-701.0,-397.0,-44.0,537.0,-312.0,435.0
19:53:13.894000,-46.0,-2.0,-543.0,-716.0,-368.0,-57.0,538.0,-294.0,430.0
19:53:13.899000,-77.0,3.0,-526.0,-875.0,-321.0,-159.0,538.0,-294.0,430.0
19:53:13.903000,-104.0,-21.0,-660.0,-875.0,-321.0,-159.0,538.0,-300.0,441.0
19:53:13.908000,-140.0,-60.0,-683.0,-985.0,-408.0,-183.0,538.0,-300.0,441.0
19:53:13.912000,-177.0,-8.0,-576.0,-985.0,-408.0,-183.0,538.0,-300.0,441.0
19:53:13.917000,-187.0,71.0,-491.0,-1016.0,-398.0,-252.0,525.0,-300.0,447.0
19:53:13.922000,-174.0,71.0,-621.0,-1119.0,-393.0,-234.0,525.0,-300.0,447.0
19:53:13.927000,-136.0,33.0,-819.0,-1113.0,-412.0,-175.0,531.0,-291.0,436.0
19:53:13.932000,-165.0,-4.0,-769.0,-911.0,-481.0,-144.0,531.0,-291.0,436.0
19:53:13.936000,-197.0,-35.0,-655.0,-797.0,-503.0,-129.0,531.0,-291.0,436.0
19:53:13.941000,-241.0,-11.0,-653.0,-917.0,-435.0,-147.0,540.0,-294.0,442.0
19:53:13.946000,-221.0,-34.0,-763.0,-1051.0,-393.0,-152.0,540.0,-294.0,442.0
19:53:13.950000,-221.0,-34.0,-763.0,-1009.0,-342.0,-127.0,523.0,-282.0,447.0
19:53:13.955000,-203.0,-92.0,-660.0,-858.0,-403.0,-104.0,523.0,-282.0,447.0
19:53:13.959000,-203.0,-92.0,-660.0,-880.0,-412.0,-91.0,523.0,-282.0,447.0
19:53:13.964000,-237.0,-95.0,-691.0,-1031.0,-299.0,-98.0,535.0,-291.0,444.0
19:53:13.969000,-201.0,-93.0,-810.0,-1061.0,-325.0,-120.0,535.0,-291.0,444.0
19:53:13.974000,-175.0,-41.0,-722.0,-1081.0,-359.0,-98.0,529.0,-288.0,444.0
19:53:13.979000,-233.0,-12.0,-737.0,-1100.0,-296.0,-92.0,529.0,-288.0,444.0
19:53:13.983000,-216.0,44.0,-705.0,-1055.0,-302.0,-115.0,529.0,-288.0,444.0
19:53:13.988000,-161.0,94.0,-631.0,-998.0,-353.0,-75.0,523.0,-277.0,436.0
19:53:13.992000,-112.0,60.0,-620.0,-925.0,-372.0,-58.0,523.0,-277.0,436.0
19:53:13.997000,-73.0,66.0,-606.0,-896.0,-381.0,-91.0,532.0,-294.0,448.0
19:53:14.002000,-11.0,81.0,-611.0,-882.0,-379.0,-94.0,532.0,-294.0,448.0
19:53:14.007000,-18.0,93.0,-622.0,-882.0,-379.0,-94.0,525.0,-283.0,445.0
19:53:14.011000,-17.0,64.0,-639.0,-905.0,-236.0,-26.0,525.0,-283.0,445.0
19:53:14.016000,-20.0,37.0,-623.0,-899.0,-204.0,-35.0,525.0,-283.0,445.0
19:53:14.021000,-22.0,35.0,-633.0,-899.0,-204.0,-35.0,523.0,-274.0,451.0
19:53:14.026000,-19.0,42.0,-613.0,-920.0,-162.0,-38.0,523.0,-274.0,451.0
19:53:14.030000,-28.0,34.0,-538.0,-919.0,-174.0,-31.0,520.0,-273.0,454.0
19:53:14.035000,-39.0,18.0,-545.0,-865.0,-141.0,-18.0,520.0,-273.0,454.0
19:53:14.039000,-52.0,0.0,-446.0,-803.0,-121.0,-3.0,520.0,-273.0,454.0
19:53:14.044000,-86.0,-25.0,-427.0,-800.0,-121.0,12.0,522.0,-267.0,448.0
19:53:14.049000,-87.0,-39.0,-466.0,-858.0,-96.0,12.0,522.0,-267.0,448.0
19:53:14.054000,-133.0,5.0,-395.0,-862.0,-139.0,-5.0,523.0,-268.0,448.0
19:53:14.058000,-115.0,8.0,-394.0,-899.0,-129.0,-18.0,523.0,-268.0,448.0
19:53:14.063000,-115.0,8.0,-394.0,-928.0,-86.0,-10.0,523.0,-268.0,448.0
19:53:14.068000,-86.0,-28.0,-442.0,-889.0,-86.0,27.0,525.0,-267.0,457.0
19:53:14.073000,-116.0,-67.0,-556.0,-832.0,-65.0,10.0,525.0,-267.0,457.0
19:53:14.077000,-142.0,-23.0,-648.0,-800.0,-115.0,-30.0,522.0,-268.0,451.0
19:53:14.082000,-161.0,6.0,-519.0,-925.0,-139.0,-27.0,522.0,-268.0,451.0
19:53:14.086000,-155.0,28.0,-511.0,-1023.0,-164.0,-37.0,522.0,-268.0,451.0
19:53:14.091000,-191.0,56.0,-528.0,-1005.0,-148.0,-39.0,514.0,-256.0,451.0
19:53:14.096000,-195.0,32.0,-702.0,-951.0,-81.0,-25.0,514.0,-256.0,451.0
19:53:14.101000,-121.0,-14.0,-828.0,-801.0,-229.0,-21.0,514.0,-253.0,454.0
19:53:14.105000,-177.0,-31.0,-595.0,-759.0,-287.0,-33.0,514.0,-253.0,454.0
19:53:14.110000,-225.0,-26.0,-604.0,-846.0,-163.0,-66.0,514.0,-253.0,454.0
19:53:14.115000,-151.0,-37.0,-725.0,-835.0,-185.0,-94.0,520.0,-255.0,454.0
19:53:14.120000,-131.0,-18.0,-624.0,-827.0,-172.0,-82.0,520.0,-255.0,454.0
19:53:14.124000,-98.0,-41.0,-614.0,-827.0,-172.0,-82.0,516.0,-261.0,456.0
19:53:14.129000,-85.0,0.0,-487.0,-838.0,-97.0,-109.0,516.0,-261.0,456.0
19:53:14.133000,-39.0,6.0,-535.0,-838.0,-97.0,-109.0,516.0,-261.0,456.0
19:53:14.138000,-24.0,-18.0,-521.0,-859.0,-3.0,-85.0,514.0,-261.0,466.0
19:53:14.143000,-75.0,-1.0,-443.0,-847.0,-41.0,-61.0,514.0,-261.0,466.0
19:53:14.148000,-72.0,21.0,-511.0,-949.0,46.0,-74.0,505.0,-250.0,468.0
19:53:14.152000,-94.0,14.0,-574.0,-997.0,140.0,-67.0,505.0,-250.0,468.0
19:53:14.157000,-108.0,38.0,-505.0,-917.0,74.0,-53.0,505.0,-250.0,468.0
19:53:14.162000,-107.0,69.0,-459.0,-904.0,21.0,-63.0,504.0,-247.0,459.0
19:53:14.167000,-85.0,77.0,-581.0,-967.0,34.0,-62.0,504.0,-247.0,459.0
19:53:14.171000,-63.0,65.0,-623.0,-950.0,14.0,-47.0,513.0,-249.0,460.0
19:53:14.176000,-63.0,65.0,-623.0,-848.0,-102.0,-51.0,513.0,-249.0,460.0
19:53:14.180000,-36.0,83.0,-430.0,-813.0,-146.0,-76.0,513.0,-249.0,460.0
19:53:14.185000,-41.0,113.0,-325.0,-884.0,-7.0,-68.0,496.0,-253.0,483.0
19:53:14.190000,11.0,72.0,-423.0,-841.0,56.0,-37.0,496.0,-253.0,483.0
19:53:14.195000,41.0,2.0,-359.0,-730.0,57.0,-33.0,507.0,-249.0,459.0
19:53:14.199000,32.0,-31.0,-314.0,-728.0,127.0,-59.0,507.0,-249.0,459.0
19:53:14.204000,0.0,-30.0,-324.0,-760.0,160.0,-48.0,507.0,-249.0,459.0
19:53:14.208000,35.0,-119.0,-221.0,-797.0,119.0,-58.0,505.0,-249.0,456.0
19:53:14.214000,63.0,-116.0,-149.0,-844.0,147.0,-90.0,505.0,-249.0,456.0
19:53:14.218000,22.0,-77.0,-223.0,-843.0,225.0,-54.0,507.0,-250.0,463.0
19:53:14.223000,30.0,-114.0,-140.0,-821.0,241.0,-34.0,507.0,-250.0,463.0
19:53:14.227000,38.0,-110.0,-149.0,-839.0,241.0,-40.0,507.0,-250.0,463.0
19:53:14.232000,40.0,-102.0,-247.0,-892.0,204.0,-54.0,510.0,-234.0,460.0
19:53:14.237000,86.0,-62.0,-228.0,-892.0,119.0,-86.0,510.0,-234.0,460.0
19:53:14.242000,154.0,17.0,-58.0,-961.0,119.0,-86.0,513.0,-238.0,463.0
19:53:14.246000,218.0,70.0,6.0,-1051.0,79.0,-80.0,513.0,-238.0,463.0
19:53:14.251000,179.0,116.0,-90.0,-1151.0,159.0,-48.0,513.0,-238.0,463.0
19:53:14.256000,156.0,142.0,-133.0,-1139.0,268.0,-32.0,507.0,-241.0,459.0
19:53:14.261000,149.0,193.0,-139.0,-1090.0,320.0,-54.0,507.0,-241.0,459.0
19:53:14.265000,144.0,244.0,-115.0,-1105.0,265.0,-90.0,510.0,-244.0,466.0
19:53:14.270000,128.0,275.0,-58.0,-1100.0,193.0,-99.0,510.0,-244.0,466.0
19:53:14.274000,128.0,275.0,-58.0,-1060.0,234.0,-86.0,510.0,-244.0,466.0
19:53:14.279000,148.0,266.0,-11.0,-991.0,271.0,-108.0,484.0,-231.0,463.0
19:53:14.284000,137.0,245.0,165.0,-904.0,190.0,-127.0,484.0,-231.0,463.0
19:53:14.289000,137.0,245.0,165.0,-904.0,134.0,-137.0,504.0,-235.0,451.0
19:53:14.293000,157.0,217.0,326.0,-987.0,199.0,-155.0,504.0,-235.0,451.0
19:53:14.298000,154.0,200.0,246.0,-1002.0,237.0,-139.0,504.0,-235.0,451.0
19:53:14.303000,130.0,168.0,181.0,-939.0,173.0,-131.0,496.0,-240.0,466.0
19:53:14.308000,142.0,133.0,254.0,-909.0,110.0,-138.0,496.0,-240.0,466.0
19:53:14.312000,132.0,122.0,317.0,-959.0,149.0,-123.0,502.0,-241.0,463.0
19:53:14.317000,140.0,70.0,245.0,-1010.0,168.0,-125.0,502.0,-241.0,463.0
19:53:14.322000,184.0,93.0,158.0,-1016.0,127.0,-106.0,505.0,-235.0,468.0
19:53:14.326000,197.0,81.0,62.0,-994.0,154.0,-59.0,505.0,-235.0,468.0
19:53:14.330000,242.0,53.0,-13.0,-961.0,144.0,-52.0,505.0,-235.0,468.0
19:53:14.336000,304.0,61.0,30.0,-966.0,40.0,-55.0,504.0,-232.0,462.0
19:53:14.340000,336.0,118.0,164.0,-1063.0,32.0,-18.0,504.0,-232.0,462.0
19:53:14.345000,305.0,101.0,98.0,-1063.0,32.0,-18.0,501.0,-244.0,462.0
19:53:14.350000,265.0,91.0,-14.0,-1118.0,122.0,27.0,501.0,-244.0,462.0
19:53:14.354000,245.0,130.0,9.0,-1031.0,135.0,13.0,501.0,-244.0,462.0
19:53:14.359000,281.0,147.0,37.0,-1003.0,90.0,-11.0,498.0,-247.0,486.0
19:53:14.364000,266.0,107.0,19.0,-1058.0,65.0,32.0,498.0,-247.0,486.0
19:53:14.369000,264.0,50.0,62.0,-1035.0,92.0,72.0,498.0,-247.0,486.0
19:53:14.373000,230.0,55.0,20.0,-948.0,195.0,57.0,498.0,-247.0,486.0
19:53:14.377000,225.0,72.0,-107.0,-996.0,273.0,45.0,498.0,-247.0,486.0
19:53:14.383000,277.0,106.0,-112.0,-1076.0,260.0,16.0,496.0,-237.0,474.0
19:53:14.387000,272.0,87.0,-7.0,-1096.0,153.0,33.0,496.0,-237.0,474.0
19:53:14.392000,275.0,59.0,-30.0,-1099.0,111.0,69.0,501.0,-222.0,468.0
19:53:14.397000,275.0,59.0,-30.0,-993.0,191.0,85.0,501.0,-222.0,468.0
19:53:14.401000,323.0,-40.0,-59.0,-867.0,229.0,112.0,501.0,-222.0,468.0
19:53:14.406000,318.0,-74.0,8.0,-817.0,209.0,92.0,504.0,-228.0,459.0
19:53:14.411000,246.0,-45.0,77.0,-887.0,241.0,106.0,504.0,-228.0,459.0
19:53:14.416000,170.0,-74.0,35.0,-958.0,307.0,95.0,489.0,-231.0,456.0
19:53:14.420000,144.0,-39.0,-9.0,-1017.0,294.0,44.0,489.0,-231.0,456.0
19:53:14.424000,132.0,3.0,-44.0,-1091.0,222.0,34.0,489.0,-231.0,456.0
19:53:14.430000,112.0,36.0,-9.0,-1083.0,151.0,30.0,498.0,-229.0,469.0
19:53:14.434000,108.0,39.0,54.0,-1047.0,122.0,28.0,498.0,-229.0,469.0
19:53:14.439000,135.0,34.0,89.0,-1042.0,125.0,-16.0,495.0,-228.0,463.0
19:53:14.444000,156.0,73.0,51.0,-1042.0,125.0,-16.0,495.0,-228.0,463.0
19:53:14.448000,109.0,103.0,-85.0,-1128.0,225.0,18.0,495.0,-228.0,463.0
19:53:14.453000,64.0,95.0,-168.0,-1090.0,188.0,2.0,510.0,-223.0,471.0
19:53:14.458000,43.0,78.0,-201.0,-1090.0,188.0,2.0,510.0,-223.0,471.0
19:53:14.463000,77.0,107.0,-183.0,-977.0,120.0,-35.0,499.0,-225.0,472.0
19:53:14.467000,75.0,135.0,-102.0,-904.0,18.0,-76.0,499.0,-225.0,472.0
19:53:14.471000,23.0,119.0,6.0,-929.0,-38.0,-52.0,499.0,-225.0,472.0
19:53:14.477000,-53.0,95.0,42.0,-981.0,18.0,-16.0,499.0,-226.0,469.0
19:53:14.481000,-101.0,147.0,-58.0,-1056.0,168.0,-46.0,499.0,-226.0,469.0
19:53:14.486000,-121.0,231.0,-144.0,-1107.0,209.0,-115.0,505.0,-217.0,469.0
19:53:14.491000,-148.0,210.0,-193.0,-1099.0,102.0,-80.0,505.0,-217.0,469.0
19:53:14.495000,-148.0,210.0,-193.0,-1002.0,-31.0,-80.0,505.0,-217.0,469.0
19:53:14.500000,-168.0,191.0,147.0,-977.0,-188.0,-83.0,493.0,-222.0,484.0
19:53:14.505000,-168.0,191.0,147.0,-1037.0,-167.0,-95.0,493.0,-222.0,484.0
19:53:14.510000,-179.0,221.0,154.0,-1070.0,1.0,-163.0,493.0,-222.0,484.0
19:53:14.514000,-115.0,230.0,4.0,-1159.0,85.0,-139.0,493.0,-222.0,484.0
19:53:14.518000,-44.0,170.0,-265.0,-1141.0,15.0,-136.0,493.0,-222.0,484.0
19:53:14.524000,44.0,142.0,-425.0,-1008.0,-149.0,-160.0,501.0,-234.0,481.0
19:53:14.528000,84.0,153.0,-415.0,-913.0,-271.0,-171.0,501.0,-234.0,481.0
19:53:14.533000,143.0,151.0,-256.0,-860.0,-196.0,-172.0,499.0,-222.0,472.0
19:53:14.538000,216.0,119.0,-203.0,-859.0,-37.0,-98.0,499.0,-222.0,472.0
19:53:14.542000,167.0,-11.0,-222.0,-902.0,122.0,-63.0,499.0,-222.0,472.0
19:53:14.547000,121.0,-37.0,-357.0,-906.0,145.0,-139.0,495.0,-229.0,475.0
19:53:14.552000,90.0,9.0,-385.0,-915.0,14.0,-131.0,495.0,-229.0,475.0
19:53:14.557000,98.0,-63.0,-259.0,-915.0,14.0,-131.0,499.0,-216.0,466.0
19:53:14.561000,135.0,-210.0,-240.0,-917.0,85.0,22.0,499.0,-216.0,466.0
19:53:14.565000,87.0,-319.0,-259.0,-917.0,21.0,22.0,499.0,-216.0,466.0
19:53:14.571000,123.0,-346.0,-143.0,-911.0,21.0,-28.0,501.0,-225.0,463.0
19:53:14.575000,131.0,-297.0,-118.0,-966.0,-57.0,-97.0,501.0,-225.0,463.0
19:53:14.580000,66.0,-244.0,-145.0,-1006.0,-60.0,-100.0,502.0,-210.0,472.0
19:53:14.585000,45.0,-272.0,-161.0,-1033.0,24.0,-45.0,502.0,-210.0,472.0
19:53:14.592000,82.0,-270.0,-161.0,-987.0,-50.0,-24.0,496.0,-219.0,478.0
19:53:14.594000,56.0,-263.0,-77.0,-987.0,-50.0,-24.0,496.0,-219.0,478.0
19:53:14.598000,28.0,-282.0,-105.0,-1004.0,-122.0,8.0,496.0,-219.0,478.0
19:53:14.604000,99.0,-263.0,-242.0,-1077.0,-21.0,-4.0,501.0,-207.0,469.0
19:53:14.608000,118.0,-278.0,-300.0,-1067.0,17.0,-14.0,501.0,-207.0,469.0
19:53:14.613000,118.0,-278.0,-300.0,-998.0,-8.0,11.0,501.0,-211.0,472.0
19:53:14.618000,-10.0,-224.0,-303.0,-1017.0,65.0,-6.0,501.0,-211.0,472.0
19:53:14.622000,-81.0,-170.0,-389.0,-1015.0,117.0,-31.0,501.0,-211.0,472.0
19:53:14.627000,-100.0,-143.0,-373.0,-1036.0,108.0,10.0,507.0,-213.0,463.0
19:53:14.632000,-118.0,-210.0,-411.0,-1071.0,112.0,47.0,507.0,-213.0,463.0
19:53:14.636000,-123.0,-256.0,-431.0,-1059.0,55.0,49.0,499.0,-207.0,465.0
19:53:14.641000,-168.0,-301.0,-357.0,-1067.0,7.0,16.0,499.0,-207.0,465.0
19:53:14.645000,-222.0,-267.0,-268.0,-1015.0,-15.0,-37.0,499.0,-207.0,465.0
19:53:14.651000,-237.0,-215.0,-122.0,-1031.0,-15.0,-33.0,504.0,-199.0,468.0
19:53:14.655000,-239.0,-217.0,-112.0,-1117.0,11.0,-7.0,504.0,-199.0,468.0
19:53:14.660000,-218.0,-234.0,-259.0,-1105.0,3.0,-16.0,498.0,-207.0,480.0
19:53:14.665000,-144.0,-224.0,-361.0,-1005.0,-89.0,-56.0,498.0,-207.0,480.0
19:53:14.669000,-103.0,-142.0,-254.0,-970.0,-172.0,-72.0,498.0,-207.0,480.0
19:53:14.674000,-93.0,-87.0,-107.0,-999.0,-135.0,-37.0,510.0,-213.0,478.0
19:53:14.679000,-93.0,-84.0,60.0,-1042.0,-83.0,-37.0,510.0,-213.0,478.0
19:53:14.684000,-128.0,-30.0,148.0,-1042.0,-83.0,-37.0,501.0,-202.0,475.0
19:53:14.688000,-172.0,-47.0,46.0,-1095.0,1.0,-40.0,501.0,-202.0,475.0
19:53:14.692000,-220.0,-72.0,18.0,-1027.0,68.0,-4.0,501.0,-202.0,475.0
19:53:14.698000,-217.0,-67.0,60.0,-966.0,76.0,-20.0,501.0,-204.0,466.0
19:53:14.702000,-228.0,-132.0,30.0,-1033.0,81.0,-15.0,501.0,-204.0,466.0
19:53:14.707000,-223.0,-202.0,-79.0,-1096.0,110.0,23.0,514.0,-213.0,474.0
19:53:14.712000,-182.0,-210.0,-170.0,-1099.0,125.0,0.0,514.0,-213.0,474.0
19:53:14.716000,-182.0,-210.0,-170.0,-1074.0,43.0,-34.0,514.0,-213.0,474.0
19:53:14.721000,-113.0,-233.0,-86.0,-1067.0,-74.0,-9.0,510.0,-211.0,474.0
19:53:14.726000,-113.0,-233.0,-86.0,-1070.0,-149.0,25.0,510.0,-211.0,474.0
19:53:14.731000,-74.0,-273.0,-24.0,-1073.0,-172.0,34.0,517.0,-213.0,478.0
19:53:14.735000,-83.0,-301.0,-9.0,-1071.0,-91.0,39.0,517.0,-213.0,478.0
19:53:14.739000,-55.0,-336.0,-67.0,-1031.0,48.0,26.0,517.0,-213.0,478.0
19:53:14.745000,-49.0,-322.0,-130.0,-969.0,109.0,4.0,517.0,-208.0,477.0
19:53:14.749000,-89.0,-268.0,-177.0,-953.0,96.0,15.0,517.0,-208.0,477.0
19:53:14.754000,-114.0,-272.0,-223.0,-979.0,47.0,45.0,517.0,-202.0,475.0
19:53:14.759000,-131.0,-298.0,-259.0,-1000.0,8.0,50.0,517.0,-202.0,475.0
19:53:14.763000,-162.0,-302.0,-312.0,-956.0,-50.0,38.0,517.0,-202.0,475.0
19:53:14.768000,-177.0,-289.0,-219.0,-919.0,-141.0,40.0,523.0,-204.0,472.0
19:53:14.773000,-188.0,-289.0,-68.0,-983.0,-124.0,38.0,523.0,-204.0,472.0
19:53:14.778000,-184.0,-259.0,-98.0,-983.0,-124.0,38.0,523.0,-208.0,475.0
19:53:14.782000,-164.0,-257.0,-198.0,-1059.0,-11.0,52.0,523.0,-208.0,475.0
19:53:14.786000,-144.0,-256.0,-329.0,-1059.0,-11.0,52.0,523.0,-208.0,475.0
19:53:14.792000,-139.0,-221.0,-415.0,-1039.0,13.0,47.0,528.0,-198.0,466.0
19:53:14.796000,-128.0,-218.0,-472.0,-1024.0,25.0,51.0,528.0,-198.0,466.0
19:53:14.801000,-136.0,-200.0,-501.0,-1058.0,44.0,61.0,517.0,-211.0,465.0
19:53:14.806000,-180.0,-189.0,-506.0,-1080.0,32.0,66.0,517.0,-211.0,465.0
19:53:14.810000,-192.0,-177.0,-494.0,-1086.0,19.0,67.0,517.0,-211.0,465.0
19:53:14.815000,-196.0,-160.0,-450.0,-1071.0,5.0,51.0,519.0,-213.0,478.0
19:53:14.820000,-217.0,-170.0,-375.0,-1051.0,-32.0,62.0,519.0,-213.0,478.0
19:53:14.825000,-221.0,-131.0,-373.0,-1060.0,-20.0,58.0,523.0,-201.0,469.0
19:53:14.829000,-203.0,-101.0,-387.0,-1091.0,35.0,22.0,523.0,-201.0,469.0
19:53:14.833000,-203.0,-101.0,-387.0,-1138.0,64.0,69.0,523.0,-201.0,469.0
19:53:14.839000,-212.0,-185.0,-394.0,-1125.0,50.0,91.0,520.0,-208.0,477.0
19:53:14.843000,-202.0,-180.0,-326.0,-1052.0,40.0,12.0,520.0,-208.0,477.0
19:53:14.848000,-169.0,-106.0,-250.0,-1067.0,97.0,4.0,522.0,-192.0,468.0
19:53:14.853000,-159.0,-70.0,-314.0,-1131.0,141.0,44.0,522.0,-192.0,468.0
19:53:14.857000,-142.0,-62.0,-422.0,-1108.0,97.0,51.0,522.0,-192.0,468.0
19:53:14.862000,-132.0,-58.0,-399.0,-1059.0,40.0,65.0,519.0,-202.0,471.0
19:53:14.867000,-147.0,-44.0,-338.0,-1070.0,48.0,59.0,519.0,-202.0,471.0
19:53:14.872000,-121.0,-16.0,-394.0,-1096.0,78.0,37.0,523.0,-193.0,480.0
19:53:14.876000,-68.0,-7.0,-469.0,-1091.0,67.0,38.0,523.0,-193.0,480.0
19:53:14.880000,-59.0,4.0,-453.0,-1086.0,63.0,58.0,523.0,-193.0,480.0
19:53:14.886000,-96.0,-18.0,-409.0,-1079.0,111.0,68.0,523.0,-204.0,471.0
19:53:14.890000,-97.0,-47.0,-399.0,-1061.0,160.0,33.0,523.0,-204.0,471.0
19:53:14.895000,-80.0,-14.0,-420.0,-1061.0,160.0,33.0,519.0,-201.0,472.0
19:53:14.900000,-88.0,-6.0,-403.0,-1064.0,145.0,23.0,519.0,-201.0,472.0
19:53:14.907000,-102.0,-45.0,-353.0,-1072.0,62.0,64.0,523.0,-186.0,487.0
19:53:14.909000,-99.0,-82.0,-331.0,-1072.0,62.0,64.0,523.0,-186.0,487.0
19:53:14.913000,-93.0,-53.0,-338.0,-1052.0,85.0,20.0,523.0,-186.0,487.0
19:53:14.919000,-82.0,-43.0,-378.0,-1051.0,129.0,-13.0,523.0,-196.0,484.0
19:53:14.923000,-54.0,-79.0,-400.0,-1066.0,167.0,-4.0,523.0,-196.0,484.0
19:53:14.928000,-32.0,-126.0,-385.0,-1069.0,164.0,3.0,523.0,-184.0,468.0
19:53:14.933000,-33.0,-168.0,-352.0,-1064.0,120.0,0.0,523.0,-184.0,468.0
19:53:14.937000,-33.0,-168.0,-352.0,-1057.0,89.0,-14.0,523.0,-184.0,468.0
19:53:14.942000,-32.0,-184.0,-362.0,-1036.0,99.0,-35.0,522.0,-196.0,483.0
19:53:14.947000,-33.0,-187.0,-418.0,-1011.0,138.0,-29.0,522.0,-196.0,483.0
19:53:14.951000,-43.0,-222.0,-480.0,-967.0,159.0,-11.0,522.0,-184.0,469.0
19:53:14.956000,-67.0,-253.0,-462.0,-923.0,148.0,-10.0,522.0,-184.0,469.0
19:53:14.960000,-77.0,-281.0,-418.0,-969.0,158.0,-6.0,522.0,-184.0,469.0
19:53:14.966000,-75.0,-309.0,-479.0,-1026.0,166.0,-13.0,513.0,-189.0,487.0
19:53:14.970000,-51.0,-315.0,-564.0,-1025.0,144.0,-14.0,513.0,-189.0,487.0
19:53:14.975000,-27.0,-335.0,-599.0,-1020.0,120.0,0.0,525.0,-174.0,471.0
19:53:14.980000,-13.0,-340.0,-613.0,-1007.0,96.0,3.0,525.0,-174.0,471.0
19:53:14.984000,9.0,-341.0,-606.0,-988.0,72.0,13.0,525.0,-174.0,471.0
19:53:14.989000,16.0,-342.0,-569.0,-996.0,98.0,29.0,508.0,-163.0,480.0
19:53:14.994000,6.0,-342.0,-557.0,-1032.0,165.0,38.0,508.0,-163.0,480.0
19:53:14.998000,-2.0,-345.0,-566.0,-1032.0,165.0,38.0,517.0,-171.0,489.0
19:53:15.003000,3.0,-345.0,-601.0,-1071.0,213.0,58.0,517.0,-171.0,489.0
19:53:15.007000,-4.0,-352.0,-589.0,-1080.0,213.0,58.0,517.0,-171.0,489.0
19:53:15.013000,-25.0,-349.0,-551.0,-1060.0,171.0,71.0,525.0,-169.0,465.0
19:53:15.017000,-24.0,-335.0,-577.0,-1059.0,192.0,63.0,525.0,-169.0,465.0
19:53:15.022000,3.0,-332.0,-655.0,-1078.0,249.0,65.0,534.0,-171.0,469.0
19:53:15.027000,8.0,-336.0,-655.0,-1061.0,266.0,77.0,534.0,-171.0,469.0
19:53:15.031000,-7.0,-337.0,-569.0,-1022.0,240.0,88.0,534.0,-171.0,469.0
19:53:15.036000,-17.0,-344.0,-522.0,-1028.0,248.0,103.0,514.0,-162.0,463.0
19:53:15.040000,-17.0,-344.0,-522.0,-1058.0,272.0,104.0,514.0,-162.0,463.0
19:53:15.045000,-15.0,-322.0,-486.0,-1069.0,257.0,100.0,516.0,-160.0,463.0
19:53:15.050000,-15.0,-322.0,-486.0,-1069.0,239.0,114.0,516.0,-160.0,463.0
19:53:15.054000,-15.0,-319.0,-475.0,-1061.0,243.0,125.0,516.0,-160.0,463.0
19:53:15.059000,-8.0,-313.0,-462.0,-1049.0,270.0,131.0,532.0,-156.0,459.0
19:53:15.064000,-11.0,-303.0,-465.0,-1051.0,298.0,141.0,532.0,-156.0,459.0
19:53:15.069000,-41.0,-281.0,-483.0,-1068.0,322.0,138.0,525.0,-145.0,459.0
19:53:15.074000,-63.0,-247.0,-515.0,-1087.0,335.0,142.0,525.0,-145.0,459.0
19:53:15.078000,-81.0,-228.0,-560.0,-1093.0,323.0,157.0,525.0,-145.0,459.0
19:53:15.083000,-107.0,-212.0,-584.0,-1083.0,297.0,162.0,528.0,-148.0,465.0
19:53:15.088000,-132.0,-199.0,-574.0,-1077.0,274.0,164.0,528.0,-148.0,465.0
19:53:15.092000,-152.0,-184.0,-556.0,-1088.0,268.0,158.0,519.0,-151.0,462.0
19:53:15.097000,-164.0,-163.0,-565.0,-1094.0,250.0,148.0,519.0,-151.0,462.0
19:53:15.101000,-176.0,-133.0,-555.0,-1092.0,221.0,140.0,519.0,-151.0,462.0
19:53:15.106000,-187.0,-102.0,-518.0,-1105.0,221.0,135.0,523.0,-151.0,460.0
19:53:15.111000,-189.0,-74.0,-524.0,-1107.0,230.0,138.0,523.0,-151.0,460.0
19:53:15.116000,-197.0,-53.0,-549.0,-1107.0,230.0,138.0,519.0,-136.0,472.0
19:53:15.121000,-189.0,-29.0,-574.0,-1078.0,229.0,134.0,519.0,-136.0,472.0
19:53:15.125000,-168.0,-16.0,-585.0,-1048.0,226.0,127.0,519.0,-136.0,472.0
19:53:15.130000,-156.0,-13.0,-611.0,-1033.0,227.0,135.0,526.0,-129.0,462.0
19:53:15.135000,-151.0,-2.0,-659.0,-1014.0,227.0,138.0,526.0,-129.0,462.0
19:53:15.139000,-136.0,-2.0,-690.0,-986.0,235.0,133.0,510.0,-136.0,471.0
19:53:15.144000,-116.0,-5.0,-707.0,-965.0,250.0,132.0,510.0,-136.0,471.0
19:53:15.148000,-116.0,-5.0,-707.0,-956.0,259.0,131.0,510.0,-136.0,471.0
19:53:15.153000,-95.0,-27.0,-679.0,-959.0,264.0,136.0,519.0,-132.0,465.0
19:53:15.158000,-85.0,-27.0,-677.0,-975.0,278.0,129.0,519.0,-132.0,465.0
19:53:15.163000,-85.0,-27.0,-677.0,-999.0,297.0,114.0,511.0,-124.0,465.0
19:53:15.168000,-84.0,-18.0,-684.0,-1007.0,298.0,108.0,511.0,-124.0,465.0
19:53:15.172000,-87.0,-9.0,-658.0,-1001.0,299.0,106.0,511.0,-124.0,465.0
19:53:15.177000,-89.0,-10.0,-622.0,-994.0,309.0,108.0,523.0,-124.0,466.0
19:53:15.182000,-98.0,-18.0,-606.0,-969.0,314.0,107.0,523.0,-124.0,466.0
19:53:15.186000,-108.0,-21.0,-590.0,-925.0,298.0,102.0,499.0,-121.0,472.0
19:53:15.191000,-114.0,-23.0,-571.0,-894.0,284.0,105.0,499.0,-121.0,472.0
19:53:15.195000,-116.0,-35.0,-557.0,-882.0,285.0,108.0,499.0,-121.0,472.0
19:53:15.200000,-108.0,-51.0,-562.0,-879.0,288.0,113.0,505.0,-115.0,469.0
19:53:15.205000,-108.0,-70.0,-574.0,-878.0,301.0,108.0,505.0,-115.0,469.0
19:53:15.210000,-107.0,-86.0,-571.0,-878.0,320.0,96.0,511.0,-111.0,462.0
19:53:15.215000,-112.0,-92.0,-567.0,-908.0,330.0,95.0,511.0,-111.0,462.0
19:53:15.222000,-114.0,-99.0,-583.0,-916.0,342.0,95.0,505.0,-109.0,466.0
19:53:15.224000,-115.0,-112.0,-601.0,-916.0,342.0,95.0,505.0,-109.0,466.0
19:53:15.228000,-119.0,-121.0,-599.0,-902.0,349.0,96.0,505.0,-109.0,466.0
19:53:15.233000,-118.0,-128.0,-578.0,-890.0,345.0,93.0,505.0,-115.0,483.0
19:53:15.238000,-116.0,-142.0,-558.0,-898.0,340.0,96.0,505.0,-115.0,483.0
19:53:15.243000,-126.0,-142.0,-540.0,-903.0,335.0,97.0,492.0,-102.0,466.0
19:53:15.247000,-132.0,-146.0,-522.0,-898.0,349.0,100.0,492.0,-102.0,466.0
19:53:15.252000,-134.0,-149.0,-505.0,-892.0,366.0,108.0,492.0,-102.0,466.0
19:53:15.257000,-138.0,-145.0,-501.0,-898.0,390.0,119.0,504.0,-108.0,471.0
19:53:15.262000,-133.0,-135.0,-507.0,-912.0,393.0,105.0,504.0,-108.0,471.0
19:53:15.266000,-130.0,-134.0,-504.0,-925.0,402.0,86.0,496.0,-102.0,474.0
19:53:15.271000,-130.0,-134.0,-504.0,-934.0,411.0,95.0,496.0,-102.0,474.0
19:53:15.275000,-138.0,-125.0,-487.0,-925.0,411.0,93.0,496.0,-102.0,474.0
19:53:15.280000,-149.0,-116.0,-464.0,-911.0,420.0,94.0,499.0,-103.0,463.0
19:53:15.285000,-157.0,-101.0,-452.0,-901.0,419.0,87.0,499.0,-103.0,463.0
19:53:15.290000,-164.0,-86.0,-443.0,-886.0,423.0,67.0,498.0,-103.0,466.0
19:53:15.294000,-167.0,-74.0,-423.0,-860.0,409.0,65.0,498.0,-103.0,466.0
19:53:15.299000,-172.0,-71.0,-404.0,-846.0,416.0,70.0,498.0,-103.0,466.0
19:53:15.304000,-177.0,-69.0,-403.0,-834.0,429.0,71.0,484.0,-96.0,472.0
19:53:15.309000,-180.0,-66.0,-410.0,-812.0,424.0,88.0,484.0,-96.0,472.0
19:53:15.313000,-179.0,-70.0,-422.0,-796.0,421.0,94.0,496.0,-97.0,478.0
19:53:15.318000,-170.0,-73.0,-431.0,-787.0,423.0,93.0,496.0,-97.0,478.0
19:53:15.322000,-154.0,-77.0,-443.0,-786.0,416.0,96.0,496.0,-97.0,478.0
19:53:15.327000,-135.0,-82.0,-457.0,-783.0,430.0,95.0,499.0,-87.0,469.0
19:53:15.332000,-123.0,-87.0,-473.0,-783.0,430.0,95.0,499.0,-87.0,469.0
19:53:15.337000,-117.0,-99.0,-493.0,-777.0,458.0,110.0,495.0,-96.0,475.0
19:53:15.341000,-113.0,-109.0,-499.0,-766.0,462.0,105.0,495.0,-96.0,475.0
19:53:15.346000,-111.0,-112.0,-487.0,-743.0,460.0,96.0,495.0,-96.0,475.0
19:53:15.351000,-112.0,-120.0,-478.0,-737.0,474.0,109.0,490.0,-85.0,471.0
19:53:15.356000,-112.0,-123.0,-466.0,-744.0,487.0,120.0,490.0,-85.0,471.0
19:53:15.360000,-108.0,-116.0,-457.0,-750.0,484.0,106.0,483.0,-87.0,478.0
19:53:15.365000,-111.0,-114.0,-452.0,-768.0,495.0,89.0,483.0,-87.0,478.0
19:53:15.369000,-111.0,-114.0,-452.0,-784.0,510.0,92.0,483.0,-87.0,478.0
19:53:15.374000,-115.0,-108.0,-448.0,-782.0,526.0,89.0,493.0,-82.0,468.0
19:53:15.379000,-119.0,-107.0,-448.0,-765.0,549.0,93.0,493.0,-82.0,468.0
19:53:15.384000,-133.0,-104.0,-444.0,-742.0,565.0,102.0,486.0,-85.0,472.0
19:53:15.388000,-149.0,-103.0,-434.0,-723.0,565.0,102.0,486.0,-85.0,472.0
19:53:15.393000,-161.0,-102.0,-408.0,-706.0,551.0,97.0,486.0,-85.0,472.0
19:53:15.398000,-168.0,-99.0,-378.0,-707.0,542.0,90.0,472.0,-79.0,496.0
19:53:15.403000,-172.0,-94.0,-357.0,-714.0,539.0,92.0,472.0,-79.0,496.0
19:53:15.407000,-177.0,-95.0,-350.0,-710.0,535.0,93.0,472.0,-79.0,496.0
19:53:15.412000,-183.0,-90.0,-352.0,-698.0,534.0,90.0,472.0,-79.0,496.0
19:53:15.416000,-183.0,-88.0,-353.0,-679.0,542.0,92.0,472.0,-79.0,496.0
19:53:15.421000,-178.0,-91.0,-350.0,-663.0,550.0,89.0,481.0,-75.0,480.0
19:53:15.426000,-168.0,-93.0,-344.0,-662.0,555.0,81.0,481.0,-75.0,480.0
19:53:15.431000,-161.0,-89.0,-336.0,-662.0,555.0,81.0,489.0,-67.0,475.0
19:53:15.435000,-156.0,-81.0,-330.0,-680.0,578.0,74.0,489.0,-67.0,475.0
19:53:15.440000,-155.0,-81.0,-333.0,-680.0,589.0,73.0,489.0,-67.0,475.0
19:53:15.445000,-162.0,-89.0,-338.0,-676.0,581.0,73.0,483.0,-72.0,472.0
19:53:15.450000,-172.0,-94.0,-333.0,-676.0,581.0,73.0,483.0,-72.0,472.0
19:53:15.454000,-181.0,-88.0,-322.0,-645.0,567.0,75.0,480.0,-76.0,472.0
19:53:15.459000,-182.0,-79.0,-307.0,-642.0,557.0,72.0,480.0,-76.0,472.0
19:53:15.463000,-179.0,-71.0,-293.0,-655.0,541.0,69.0,480.0,-76.0,472.0
19:53:15.468000,-181.0,-68.0,-280.0,-668.0,526.0,71.0,472.0,-75.0,480.0
19:53:15.473000,-180.0,-67.0,-261.0,-673.0,518.0,69.0,472.0,-75.0,480.0
19:53:15.478000,-175.0,-66.0,-235.0,-653.0,511.0,66.0,475.0,-73.0,475.0
19:53:15.482000,-170.0,-65.0,-203.0,-633.0,512.0,65.0,475.0,-73.0,475.0
19:53:15.487000,-170.0,-65.0,-203.0,-620.0,520.0,67.0,475.0,-73.0,475.0
19:53:15.492000,-164.0,-72.0,-164.0,-616.0,533.0,67.0,484.0,-67.0,478.0
19:53:15.497000,-164.0,-75.0,-133.0,-621.0,551.0,69.0,484.0,-67.0,478.0
19:53:15.501000,-158.0,-84.0,-107.0,-615.0,558.0,71.0,486.0,-69.0,474.0
19:53:15.506000,-147.0,-94.0,-88.0,-601.0,553.0,75.0,486.0,-69.0,474.0
19:53:15.510000,-140.0,-106.0,-63.0,-592.0,554.0,76.0,486.0,-69.0,474.0
19:53:15.515000,-126.0,-113.0,-46.0,-597.0,563.0,71.0,481.0,-57.0,484.0
19:53:15.520000,-113.0,-119.0,-54.0,-608.0,571.0,73.0,481.0,-57.0,484.0
19:53:15.525000,-97.0,-127.0,-72.0,-606.0,570.0,75.0,478.0,-72.0,490.0
19:53:15.529000,-81.0,-136.0,-70.0,-606.0,567.0,76.0,478.0,-72.0,490.0
19:53:15.534000,-65.0,-142.0,-67.0,-608.0,579.0,75.0,478.0,-72.0,490.0
19:53:15.539000,-51.0,-144.0,-85.0,-600.0,591.0,77.0,481.0,-69.0,499.0
19:53:15.544000,-47.0,-144.0,-93.0,-589.0,607.0,82.0,481.0,-69.0,499.0
19:53:15.548000,-44.0,-143.0,-85.0,-589.0,607.0,82.0,463.0,-69.0,499.0
19:53:15.553000,-43.0,-146.0,-77.0,-596.0,629.0,87.0,463.0,-69.0,499.0
19:53:15.557000,-49.0,-148.0,-58.0,-607.0,632.0,93.0,463.0,-69.0,499.0
19:53:15.562000,-53.0,-137.0,-37.0,-608.0,626.0,94.0,489.0,-72.0,480.0
19:53:15.567000,-56.0,-135.0,-5.0,-614.0,622.0,95.0,489.0,-72.0,480.0
19:53:15.572000,-51.0,-132.0,2.0,-630.0,631.0,99.0,490.0,-78.0,468.0
19:53:15.576000,-45.0,-127.0,-10.0,-648.0,650.0,101.0,490.0,-78.0,468.0
19:53:15.581000,-41.0,-127.0,-7.0,-645.0,649.0,109.0,490.0,-78.0,468.0
19:53:15.586000,-44.0,-128.0,28.0,-622.0,637.0,116.0,481.0,-70.0,477.0
19:53:15.591000,-48.0,-140.0,98.0,-598.0,624.0,124.0,481.0,-70.0,477.0
19:53:15.595000,-46.0,-145.0,162.0,-594.0,613.0,129.0,487.0,-67.0,471.0
19:53:15.600000,-46.0,-145.0,162.0,-610.0,621.0,124.0,487.0,-67.0,471.0
19:53:15.604000,-49.0,-142.0,172.0,-619.0,637.0,129.0,487.0,-67.0,471.0
