hh:mm:ss.ms,gyroX[mdps],gyroY[mdps],gyroZ[mdps],accX[mg],accY[mg],accZ[mg],magX[mG],magY[mG],magZ[mG]
19:35:20.042000,2.0,380.0,-448.0,587.0,797.0,-430.0,84.0,-253.0,588.0
19:35:20.048000,-30.0,391.0,-464.0,592.0,801.0,-455.0,93.0,-246.0,588.0
19:35:20.052000,-32.0,392.0,-446.0,530.0,801.0,-470.0,93.0,-246.0,588.0
19:35:20.057000,-9.0,388.0,-447.0,412.0,802.0,-479.0,85.0,-255.0,597.0
19:35:20.062000,0.0,383.0,-469.0,307.0,762.0,-480.0,85.0,-255.0,597.0
19:35:20.066000,13.0,379.0,-448.0,234.0,659.0,-484.0,85.0,-255.0,597.0
19:35:20.071000,48.0,377.0,-369.0,182.0,557.0,-488.0,82.0,-256.0,594.0
19:35:20.076000,109.0,380.0,-256.0,165.0,510.0,-481.0,82.0,-256.0,594.0
19:35:20.080000,186.0,380.0,-154.0,192.0,508.0,-459.0,67.0,-256.0,592.0
19:35:20.085000,271.0,369.0,-82.0,259.0,509.0,-428.0,67.0,-256.0,592.0
19:35:20.089000,348.0,352.0,-18.0,327.0,506.0,-398.0,67.0,-256.0,592.0
19:35:20.095000,428.0,332.0,62.0,357.0,522.0,-370.0,64.0,-258.0,586.0
19:35:20.099000,508.0,305.0,150.0,342.0,549.0,-340.0,64.0,-258.0,586.0
19:35:20.104000,576.0,271.0,224.0,342.0,549.0,-340.0,52.0,-252.0,600.0
19:35:20.109000,640.0,235.0,273.0,310.0,577.0,-315.0,52.0,-252.0,600.0
19:35:20.113000,696.0,203.0,305.0,288.0,603.0,-299.0,52.0,-252.0,600.0
19:35:20.118000,732.0,171.0,317.0,274.0,644.0,-287.0,63.0,-256.0,582.0
19:35:20.123000,745.0,142.0,303.0,259.0,740.0,-277.0,63.0,-256.0,582.0
19:35:20.127000,730.0,121.0,260.0,246.0,872.0,-267.0,58.0,-241.0,583.0
19:35:20.132000,673.0,101.0,215.0,245.0,991.0,-249.0,58.0,-241.0,583.0
19:35:20.136000,590.0,81.0,171.0,251.0,1083.0,-231.0,58.0,-241.0,583.0
19:35:20.142000,503.0,52.0,102.0,253.0,1145.0,-221.0,61.0,-238.0,567.0
19:35:20.146000,422.0,21.0,31.0,271.0,1169.0,-215.0,61.0,-238.0,567.0
19:35:20.151000,340.0,-11.0,-4.0,317.0,1140.0,-213.0,61.0,-231.0,570.0
19:35:20.156000,340.0,-11.0,-4.0,363.0,1087.0,-211.0,61.0,-231.0,570.0
19:35:20.160000,261.0,-48.0,-39.0,392.0,1030.0,-223.0,61.0,-231.0,570.0
19:35:20.165000,204.0,-74.0,-107.0,421.0,1011.0,-240.0,61.0,-225.0,573.0
19:35:20.170000,159.0,-91.0,-201.0,451.0,1060.0,-239.0,61.0,-225.0,573.0
19:35:20.174000,116.0,-102.0,-277.0,458.0,1107.0,-228.0,54.0,-219.0,574.0
19:35:20.179000,70.0,-112.0,-329.0,438.0,1107.0,-218.0,54.0,-219.0,574.0
19:35:20.183000,25.0,-112.0,-371.0,417.0,1048.0,-211.0,54.0,-219.0,574.0
19:35:20.189000,-7.0,-110.0,-396.0,422.0,950.0,-212.0,67.0,-225.0,570.0
19:35:20.193000,-2.0,-103.0,-398.0,440.0,834.0,-220.0,67.0,-225.0,570.0
19:35:20.198000,33.0,-83.0,-382.0,448.0,726.0,-224.0,54.0,-231.0,574.0
19:35:20.203000,75.0,-63.0,-342.0,434.0,677.0,-214.0,54.0,-231.0,574.0
19:35:20.207000,128.0,-50.0,-273.0,406.0,649.0,-218.0,54.0,-231.0,574.0
19:35:20.212000,216.0,-25.0,-208.0,417.0,631.0,-229.0,67.0,-216.0,561.0
19:35:20.217000,294.0,2.0,-182.0,417.0,631.0,-229.0,67.0,-216.0,561.0
19:35:20.221000,345.0,17.0,-193.0,444.0,654.0,-217.0,54.0,-231.0,562.0
19:35:20.226000,384.0,28.0,-169.0,483.0,748.0,-212.0,54.0,-231.0,562.0
19:35:20.230000,354.0,9.0,-144.0,514.0,958.0,-184.0,54.0,-231.0,562.0
19:35:20.236000,378.0,-11.0,-177.0,483.0,1057.0,-156.0,45.0,-231.0,570.0
19:35:20.240000,384.0,0.0,-174.0,481.0,899.0,-162.0,45.0,-231.0,570.0
19:35:20.245000,385.0,4.0,-125.0,516.0,777.0,-159.0,45.0,-228.0,579.0
19:35:20.250000,371.0,10.0,-92.0,522.0,842.0,-154.0,45.0,-228.0,579.0
19:35:20.254000,371.0,10.0,-92.0,511.0,964.0,-140.0,45.0,-228.0,579.0
19:35:20.259000,249.0,18.0,-116.0,498.0,1060.0,-128.0,52.0,-223.0,561.0
19:35:20.264000,249.0,18.0,-116.0,508.0,1062.0,-128.0,52.0,-223.0,561.0
19:35:20.268000,190.0,25.0,-119.0,537.0,988.0,-131.0,54.0,-216.0,568.0
19:35:20.273000,144.0,35.0,-106.0,555.0,949.0,-137.0,54.0,-216.0,568.0
19:35:20.277000,119.0,46.0,-98.0,553.0,971.0,-139.0,54.0,-216.0,568.0
19:35:20.283000,97.0,55.0,-120.0,532.0,987.0,-141.0,54.0,-220.0,562.0
19:35:20.287000,79.0,60.0,-167.0,521.0,947.0,-147.0,54.0,-220.0,562.0
19:35:20.292000,58.0,67.0,-179.0,527.0,890.0,-154.0,55.0,-217.0,561.0
19:35:20.297000,43.0,72.0,-163.0,526.0,854.0,-156.0,55.0,-217.0,561.0
19:35:20.301000,28.0,76.0,-148.0,518.0,836.0,-157.0,55.0,-217.0,561.0
19:35:20.306000,25.0,79.0,-133.0,518.0,824.0,-156.0,54.0,-222.0,565.0
19:35:20.311000,24.0,78.0,-121.0,531.0,797.0,-156.0,54.0,-222.0,565.0
19:35:20.315000,47.0,79.0,-104.0,531.0,797.0,-156.0,51.0,-228.0,553.0
19:35:20.320000,81.0,88.0,-100.0,544.0,768.0,-163.0,51.0,-228.0,553.0
19:35:20.324000,104.0,92.0,-114.0,544.0,768.0,-163.0,51.0,-228.0,553.0
19:35:20.330000,130.0,93.0,-138.0,553.0,816.0,-161.0,51.0,-219.0,565.0
19:35:20.334000,144.0,93.0,-148.0,555.0,882.0,-141.0,51.0,-219.0,565.0
19:35:20.339000,151.0,88.0,-165.0,555.0,882.0,-141.0,51.0,-228.0,559.0
19:35:20.344000,149.0,84.0,-176.0,547.0,877.0,-129.0,51.0,-228.0,559.0
19:35:20.348000,166.0,91.0,-177.0,552.0,856.0,-132.0,51.0,-228.0,559.0
19:35:20.353000,160.0,95.0,-212.0,561.0,947.0,-122.0,45.0,-220.0,558.0
19:35:20.358000,155.0,95.0,-217.0,573.0,998.0,-104.0,45.0,-220.0,558.0
19:35:20.362000,133.0,98.0,-176.0,561.0,940.0,-91.0,45.0,-219.0,565.0
19:35:20.367000,115.0,102.0,-109.0,485.0,930.0,-82.0,45.0,-219.0,565.0
19:35:20.371000,115.0,102.0,-109.0,399.0,974.0,-76.0,45.0,-219.0,565.0
19:35:20.377000,91.0,104.0,-48.0,389.0,983.0,-68.0,48.0,-222.0,555.0
19:35:20.381000,63.0,112.0,-38.0,442.0,961.0,-67.0,48.0,-222.0,555.0
19:35:20.386000,51.0,121.0,-40.0,512.0,917.0,-65.0,28.0,-220.0,573.0
19:35:20.391000,46.0,130.0,-4.0,541.0,875.0,-56.0,28.0,-220.0,573.0
19:35:20.395000,33.0,140.0,54.0,512.0,871.0,-45.0,28.0,-220.0,573.0
19:35:20.400000,14.0,148.0,86.0,482.0,891.0,-33.0,48.0,-219.0,543.0
19:35:20.405000,-3.0,155.0,76.0,496.0,875.0,-31.0,48.0,-219.0,543.0
19:35:20.409000,-2.0,160.0,69.0,536.0,799.0,-35.0,37.0,-213.0,549.0
19:35:20.414000,-4.0,168.0,80.0,563.0,754.0,-34.0,37.0,-213.0,549.0
19:35:20.418000,0.0,175.0,86.0,562.0,742.0,-43.0,37.0,-213.0,549.0
19:35:20.424000,12.0,184.0,67.0,544.0,733.0,-60.0,49.0,-222.0,549.0
19:35:20.428000,24.0,197.0,25.0,530.0,773.0,-73.0,49.0,-222.0,549.0
19:35:20.433000,22.0,204.0,-30.0,531.0,845.0,-80.0,42.0,-213.0,574.0
19:35:20.438000,15.0,208.0,-91.0,531.0,845.0,-80.0,42.0,-213.0,574.0
19:35:20.442000,10.0,213.0,-143.0,536.0,879.0,-93.0,42.0,-213.0,574.0
19:35:20.447000,9.0,212.0,-191.0,529.0,869.0,-111.0,30.0,-211.0,544.0
19:35:20.452000,11.0,214.0,-226.0,523.0,866.0,-125.0,30.0,-211.0,544.0
19:35:20.456000,11.0,216.0,-261.0,519.0,885.0,-136.0,25.0,-217.0,550.0
19:35:20.461000,11.0,214.0,-302.0,514.0,911.0,-147.0,25.0,-217.0,550.0
19:35:20.465000,4.0,205.0,-320.0,522.0,918.0,-148.0,25.0,-217.0,550.0
19:35:20.471000,-3.0,189.0,-287.0,538.0,888.0,-142.0,45.0,-217.0,547.0
19:35:20.475000,-8.0,173.0,-249.0,563.0,842.0,-137.0,45.0,-217.0,547.0
19:35:20.479000,-8.0,173.0,-249.0,607.0,803.0,-141.0,19.0,-220.0,547.0
19:35:20.485000,1.0,163.0,-216.0,639.0,773.0,-151.0,19.0,-220.0,547.0
19:35:20.489000,16.0,157.0,-178.0,639.0,784.0,-160.0,19.0,-220.0,547.0
19:35:20.494000,26.0,154.0,-159.0,624.0,845.0,-164.0,19.0,-225.0,544.0
19:35:20.499000,18.0,153.0,-153.0,607.0,898.0,-167.0,19.0,-225.0,544.0
19:35:20.503000,-5.0,156.0,-145.0,592.0,900.0,-171.0,22.0,-226.0,547.0
19:35:20.508000,-33.0,162.0,-129.0,586.0,869.0,-177.0,22.0,-226.0,547.0
19:35:20.512000,-56.0,172.0,-107.0,591.0,846.0,-185.0,22.0,-226.0,547.0
19:35:20.518000,-72.0,188.0,-92.0,604.0,850.0,-194.0,19.0,-235.0,534.0
19:35:20.522000,-79.0,212.0,-93.0,600.0,886.0,-199.0,19.0,-235.0,534.0
19:35:20.526000,-81.0,229.0,-128.0,584.0,938.0,-195.0,25.0,-220.0,537.0
19:35:20.532000,-85.0,240.0,-157.0,586.0,975.0,-188.0,25.0,-220.0,537.0
19:35:20.536000,-98.0,253.0,-170.0,578.0,987.0,-178.0,25.0,-220.0,537.0
19:35:20.541000,-113.0,266.0,-203.0,576.0,970.0,-171.0,31.0,-229.0,546.0
19:35:20.546000,-123.0,277.0,-238.0,576.0,970.0,-171.0,31.0,-229.0,546.0
19:35:20.550000,-123.0,284.0,-247.0,613.0,929.0,-170.0,18.0,-225.0,546.0
19:35:20.554000,-125.0,287.0,-235.0,654.0,893.0,-169.0,18.0,-225.0,546.0
19:35:20.559000,-130.0,287.0,-214.0,675.0,878.0,-166.0,18.0,-225.0,546.0
19:35:20.565000,-133.0,285.0,-202.0,683.0,877.0,-162.0,16.0,-241.0,541.0
19:35:20.569000,-128.0,283.0,-198.0,698.0,864.0,-162.0,16.0,-241.0,541.0
19:35:20.573000,-119.0,281.0,-182.0,732.0,830.0,-162.0,-3.0,-243.0,561.0
19:35:20.579000,-102.0,277.0,-152.0,769.0,793.0,-162.0,-3.0,-243.0,561.0
19:35:20.583000,-102.0,277.0,-152.0,787.0,775.0,-164.0,-3.0,-243.0,561.0
19:35:20.588000,-65.0,259.0,-121.0,790.0,782.0,-162.0,4.0,-237.0,535.0
19:35:20.593000,-65.0,259.0,-121.0,786.0,805.0,-157.0,4.0,-237.0,535.0
19:35:20.597000,-49.0,242.0,-127.0,789.0,834.0,-150.0,1.0,-234.0,529.0
19:35:20.602000,-35.0,222.0,-139.0,807.0,858.0,-138.0,1.0,-234.0,529.0
19:35:20.606000,-26.0,200.0,-149.0,823.0,867.0,-129.0,1.0,-234.0,529.0
19:35:20.611000,-13.0,177.0,-168.0,826.0,866.0,-123.0,6.0,-232.0,537.0
19:35:20.616000,4.0,155.0,-196.0,824.0,867.0,-118.0,6.0,-232.0,537.0
19:35:20.621000,26.0,131.0,-226.0,821.0,874.0,-112.0,0.0,-237.0,537.0
19:35:20.626000,44.0,107.0,-242.0,805.0,892.0,-105.0,0.0,-237.0,537.0
19:35:20.630000,61.0,86.0,-254.0,768.0,913.0,-100.0,0.0,-237.0,537.0
19:35:20.635000,74.0,71.0,-266.0,728.0,921.0,-97.0,1.0,-232.0,535.0
19:35:20.640000,82.0,61.0,-263.0,691.0,915.0,-96.0,1.0,-232.0,535.0
19:35:20.644000,87.0,57.0,-246.0,691.0,915.0,-96.0,-1.0,-247.0,540.0
19:35:20.649000,85.0,56.0,-221.0,629.0,898.0,-91.0,-1.0,-247.0,540.0
19:35:20.653000,86.0,61.0,-193.0,629.0,898.0,-91.0,-1.0,-247.0,540.0
19:35:20.658000,86.0,74.0,-164.0,605.0,879.0,-95.0,-1.0,-244.0,528.0
19:35:20.663000,89.0,91.0,-135.0,582.0,862.0,-97.0,-1.0,-244.0,528.0
19:35:20.677000,119.0,146.0,-93.0,547.0,796.0,-98.0,-21.0,-240.0,553.0
19:35:20.682000,130.0,163.0,-83.0,565.0,781.0,-95.0,-21.0,-240.0,553.0
19:35:20.687000,143.0,179.0,-70.0,581.0,742.0,-95.0,-21.0,-240.0,553.0
19:35:20.691000,156.0,198.0,-65.0,589.0,704.0,-95.0,-12.0,-247.0,529.0
19:35:20.696000,168.0,210.0,-70.0,601.0,703.0,-93.0,-12.0,-247.0,529.0
19:35:20.700000,168.0,210.0,-70.0,622.0,709.0,-93.0,-12.0,-247.0,529.0
19:35:20.705000,180.0,217.0,-77.0,640.0,699.0,-94.0,-6.0,-244.0,528.0
19:35:20.710000,188.0,219.0,-71.0,642.0,693.0,-93.0,-6.0,-244.0,528.0
19:35:20.715000,197.0,220.0,-53.0,630.0,694.0,-91.0,-15.0,-244.0,526.0
19:35:20.720000,205.0,215.0,-36.0,619.0,698.0,-92.0,-15.0,-244.0,526.0
19:35:20.724000,217.0,210.0,-35.0,620.0,705.0,-96.0,-27.0,-231.0,549.0
19:35:20.729000,236.0,203.0,-37.0,629.0,702.0,-96.0,-27.0,-231.0,549.0
19:35:20.733000,255.0,193.0,-28.0,636.0,693.0,-97.0,-27.0,-231.0,549.0
19:35:20.738000,269.0,184.0,-9.0,635.0,691.0,-99.0,-7.0,-235.0,528.0
19:35:20.743000,273.0,179.0,19.0,622.0,701.0,-101.0,-7.0,-235.0,528.0
19:35:20.748000,275.0,177.0,50.0,622.0,715.0,-108.0,-22.0,-232.0,520.0
19:35:20.752000,275.0,176.0,59.0,575.0,720.0,-117.0,-22.0,-232.0,520.0
19:35:20.757000,285.0,177.0,63.0,569.0,705.0,-129.0,-22.0,-232.0,520.0
19:35:20.762000,297.0,182.0,76.0,569.0,705.0,-129.0,-18.0,-238.0,517.0
19:35:20.767000,305.0,186.0,94.0,573.0,694.0,-136.0,-18.0,-238.0,517.0
19:35:20.771000,306.0,186.0,102.0,555.0,738.0,-141.0,-9.0,-234.0,516.0
19:35:20.776000,299.0,183.0,78.0,555.0,738.0,-141.0,-9.0,-234.0,516.0
19:35:20.780000,281.0,177.0,58.0,576.0,748.0,-147.0,-9.0,-234.0,516.0
19:35:20.785000,261.0,165.0,66.0,626.0,771.0,-156.0,-21.0,-229.0,516.0
19:35:20.790000,233.0,143.0,54.0,652.0,846.0,-157.0,-21.0,-229.0,516.0
19:35:20.795000,181.0,112.0,23.0,638.0,927.0,-145.0,-24.0,-223.0,514.0
19:35:20.799000,124.0,84.0,-18.0,615.0,987.0,-134.0,-24.0,-223.0,514.0
19:35:20.804000,124.0,84.0,-18.0,610.0,990.0,-135.0,-24.0,-223.0,514.0
19:35:20.809000,78.0,58.0,-37.0,627.0,934.0,-142.0,-18.0,-223.0,517.0
19:35:20.814000,47.0,35.0,-25.0,635.0,900.0,-148.0,-18.0,-223.0,517.0
19:35:20.818000,21.0,18.0,-13.0,611.0,902.0,-156.0,-18.0,-226.0,508.0
19:35:20.823000,5.0,5.0,-4.0,574.0,900.0,-166.0,-18.0,-226.0,508.0
19:35:20.827000,-11.0,-1.0,0.0,550.0,898.0,-178.0,-18.0,-226.0,508.0
19:35:20.832000,-33.0,-4.0,14.0,545.0,908.0,-191.0,-22.0,-222.0,517.0
19:35:20.837000,-44.0,-2.0,51.0,538.0,917.0,-196.0,-22.0,-222.0,517.0
19:35:20.842000,-71.0,0.0,88.0,520.0,922.0,-198.0,-16.0,-225.0,508.0
19:35:20.846000,-107.0,5.0,126.0,505.0,930.0,-208.0,-16.0,-225.0,508.0
19:35:20.851000,-143.0,5.0,169.0,499.0,938.0,-219.0,-16.0,-225.0,508.0
19:35:20.856000,-179.0,2.0,210.0,502.0,943.0,-220.0,-21.0,-222.0,514.0
19:35:20.861000,-214.0,-2.0,269.0,499.0,924.0,-198.0,-21.0,-222.0,514.0
19:35:20.865000,-249.0,-9.0,345.0,495.0,931.0,-189.0,-19.0,-228.0,529.0
19:35:20.870000,-283.0,-20.0,422.0,489.0,958.0,-189.0,-19.0,-228.0,529.0
19:35:20.874000,-334.0,-39.0,491.0,489.0,958.0,-189.0,-19.0,-228.0,529.0
19:35:20.879000,-381.0,-56.0,564.0,480.0,937.0,-183.0,-19.0,-223.0,519.0
19:35:20.884000,-424.0,-74.0,647.0,491.0,895.0,-175.0,-19.0,-223.0,519.0
19:35:20.889000,-458.0,-98.0,730.0,521.0,882.0,-154.0,-9.0,-211.0,522.0
19:35:20.893000,-501.0,-115.0,821.0,553.0,826.0,-130.0,-9.0,-211.0,522.0
19:35:20.898000,-529.0,-132.0,899.0,563.0,746.0,-104.0,-9.0,-211.0,522.0
19:35:20.903000,-556.0,-142.0,938.0,539.0,737.0,-79.0,-12.0,-220.0,523.0
19:35:20.908000,-580.0,-150.0,942.0,506.0,721.0,-62.0,-12.0,-220.0,523.0
19:35:20.912000,-580.0,-150.0,942.0,495.0,679.0,-43.0,-10.0,-225.0,525.0
19:35:20.917000,-613.0,-160.0,956.0,508.0,610.0,-20.0,-10.0,-225.0,525.0
19:35:20.921000,-613.0,-160.0,956.0,528.0,537.0,-9.0,-10.0,-225.0,525.0
19:35:20.926000,-621.0,-154.0,958.0,532.0,499.0,-6.0,-13.0,-208.0,526.0
19:35:20.931000,-623.0,-143.0,944.0,512.0,478.0,-5.0,-13.0,-208.0,526.0
19:35:20.936000,-624.0,-130.0,917.0,486.0,467.0,-13.0,-1.0,-225.0,535.0
19:35:20.940000,-619.0,-112.0,859.0,465.0,484.0,-20.0,-1.0,-225.0,535.0
19:35:20.945000,-616.0,-96.0,767.0,448.0,518.0,-22.0,-1.0,-225.0,535.0
19:35:20.950000,-618.0,-84.0,652.0,451.0,522.0,-27.0,10.0,-217.0,531.0
19:35:20.955000,-618.0,-74.0,539.0,490.0,479.0,-46.0,10.0,-217.0,531.0
19:35:20.959000,-609.0,-63.0,452.0,545.0,423.0,-78.0,9.0,-220.0,534.0
19:35:20.963000,-586.0,-56.0,389.0,565.0,406.0,-106.0,9.0,-220.0,534.0
19:35:20.968000,-557.0,-52.0,334.0,540.0,451.0,-127.0,9.0,-220.0,534.0
19:35:20.973000,-531.0,-51.0,253.0,513.0,516.0,-143.0,6.0,-223.0,538.0
19:35:20.978000,-497.0,-57.0,168.0,517.0,531.0,-154.0,6.0,-223.0,538.0
19:35:20.983000,-464.0,-62.0,104.0,517.0,531.0,-154.0,13.0,-220.0,535.0
19:35:20.987000,-428.0,-72.0,67.0,543.0,503.0,-162.0,13.0,-220.0,535.0
19:35:20.992000,-371.0,-88.0,45.0,571.0,473.0,-170.0,13.0,-220.0,535.0
19:35:20.997000,-310.0,-105.0,6.0,592.0,482.0,-175.0,15.0,-223.0,543.0
19:35:21.002000,-275.0,-119.0,-37.0,602.0,518.0,-169.0,15.0,-223.0,543.0
19:35:21.006000,-235.0,-131.0,-71.0,604.0,593.0,-163.0,9.0,-223.0,559.0
19:35:21.011000,-219.0,-142.0,-103.0,604.0,661.0,-152.0,9.0,-223.0,559.0
19:35:21.015000,-219.0,-142.0,-103.0,599.0,695.0,-138.0,9.0,-223.0,559.0
19:35:21.020000,-189.0,-153.0,-164.0,579.0,761.0,-134.0,15.0,-232.0,540.0
19:35:21.025000,-180.0,-149.0,-190.0,512.0,820.0,-139.0,15.0,-232.0,540.0
19:35:21.030000,-180.0,-149.0,-190.0,512.0,820.0,-139.0,18.0,-225.0,543.0
19:35:21.034000,-165.0,-139.0,-217.0,471.0,852.0,-145.0,18.0,-225.0,543.0
19:35:21.039000,-149.0,-125.0,-249.0,429.0,884.0,-147.0,18.0,-225.0,543.0
19:35:21.044000,-135.0,-107.0,-286.0,396.0,922.0,-140.0,18.0,-238.0,553.0
19:35:21.049000,-133.0,-87.0,-335.0,384.0,963.0,-122.0,18.0,-238.0,553.0
19:35:21.053000,-144.0,-67.0,-381.0,409.0,980.0,-118.0,16.0,-234.0,549.0
19:35:21.058000,-155.0,-49.0,-391.0,448.0,991.0,-120.0,16.0,-234.0,549.0
19:35:21.062000,-159.0,-39.0,-383.0,483.0,990.0,-128.0,16.0,-234.0,549.0
19:35:21.067000,-160.0,-31.0,-375.0,514.0,975.0,-145.0,10.0,-235.0,547.0
19:35:21.072000,-145.0,-25.0,-381.0,549.0,977.0,-154.0,10.0,-235.0,547.0
19:35:21.077000,-135.0,-19.0,-408.0,601.0,1002.0,-168.0,15.0,-238.0,543.0
19:35:21.081000,-132.0,-21.0,-439.0,652.0,1035.0,-189.0,15.0,-238.0,543.0
19:35:21.086000,-122.0,-23.0,-474.0,679.0,1042.0,-212.0,15.0,-238.0,543.0
19:35:21.091000,-107.0,-21.0,-508.0,679.0,1042.0,-212.0,6.0,-246.0,543.0
19:35:21.095000,-91.0,-23.0,-516.0,683.0,1078.0,-257.0,6.0,-246.0,543.0
19:35:21.100000,-86.0,-23.0,-506.0,683.0,1078.0,-257.0,-4.0,-252.0,562.0
19:35:21.105000,-89.0,-20.0,-504.0,646.0,1121.0,-258.0,-4.0,-252.0,562.0
19:35:21.110000,-99.0,-23.0,-515.0,613.0,1171.0,-261.0,13.0,-262.0,549.0
19:35:21.114000,-112.0,-16.0,-522.0,611.0,1210.0,-272.0,13.0,-262.0,549.0
19:35:21.118000,-123.0,-9.0,-520.0,604.0,1218.0,-286.0,13.0,-262.0,549.0
19:35:21.124000,-129.0,-12.0,-497.0,573.0,1213.0,-286.0,-3.0,-256.0,550.0
19:35:21.128000,-147.0,7.0,-448.0,554.0,1185.0,-293.0,-3.0,-256.0,550.0
19:35:21.133000,-158.0,19.0,-418.0,519.0,1180.0,-295.0,12.0,-256.0,555.0
19:35:21.138000,-158.0,19.0,-418.0,498.0,1203.0,-305.0,12.0,-256.0,555.0
19:35:21.142000,-166.0,40.0,-396.0,558.0,1138.0,-290.0,12.0,-256.0,555.0
19:35:21.147000,-203.0,53.0,-354.0,649.0,1058.0,-278.0,-1.0,-267.0,552.0
19:35:21.152000,-198.0,63.0,-309.0,683.0,1012.0,-298.0,-1.0,-267.0,552.0
19:35:21.157000,-205.0,75.0,-294.0,687.0,952.0,-304.0,4.0,-261.0,555.0
19:35:21.161000,-207.0,94.0,-282.0,719.0,910.0,-312.0,4.0,-261.0,555.0
19:35:21.165000,-195.0,108.0,-231.0,746.0,899.0,-315.0,4.0,-261.0,555.0
19:35:21.171000,-178.0,116.0,-162.0,726.0,909.0,-314.0,0.0,-277.0,555.0
19:35:21.175000,-159.0,130.0,-140.0,684.0,916.0,-311.0,0.0,-277.0,555.0
19:35:21.180000,-154.0,137.0,-148.0,674.0,893.0,-309.0,1.0,-276.0,561.0
19:35:21.185000,-153.0,145.0,-153.0,695.0,859.0,-307.0,1.0,-276.0,561.0
19:35:21.192000,-150.0,149.0,-122.0,761.0,749.0,-294.0,-7.0,-273.0,562.0
19:35:21.194000,-150.0,149.0,-122.0,761.0,749.0,-294.0,-7.0,-273.0,562.0
19:35:21.198000,-147.0,142.0,-81.0,761.0,683.0,-286.0,-7.0,-273.0,562.0
19:35:21.204000,-139.0,130.0,-25.0,800.0,683.0,-286.0,-9.0,-276.0,552.0
19:35:21.208000,-113.0,108.0,18.0,827.0,654.0,-280.0,-9.0,-276.0,552.0
19:35:21.213000,-82.0,94.0,32.0,850.0,619.0,-271.0,3.0,-276.0,556.0
19:35:21.218000,-65.0,75.0,33.0,874.0,584.0,-263.0,3.0,-276.0,556.0
19:35:21.222000,-39.0,55.0,27.0,886.0,606.0,-266.0,3.0,-276.0,556.0
19:35:21.227000,-30.0,31.0,20.0,884.0,644.0,-264.0,-4.0,-280.0,558.0
19:35:21.232000,-26.0,7.0,7.0,872.0,672.0,-258.0,-4.0,-280.0,558.0
19:35:21.236000,-26.0,7.0,7.0,862.0,693.0,-267.0,-6.0,-280.0,553.0
19:35:21.241000,-23.0,-35.0,9.0,841.0,702.0,-264.0,-6.0,-280.0,553.0
19:35:21.245000,-23.0,-35.0,9.0,816.0,713.0,-260.0,-6.0,-280.0,553.0
19:35:21.251000,-39.0,-47.0,25.0,796.0,721.0,-264.0,-15.0,-279.0,564.0
19:35:21.255000,-59.0,-57.0,38.0,778.0,700.0,-264.0,-15.0,-279.0,564.0
19:35:21.260000,-88.0,-65.0,60.0,771.0,650.0,-263.0,-10.0,-285.0,556.0
19:35:21.265000,-108.0,-72.0,112.0,785.0,593.0,-265.0,-10.0,-285.0,556.0
19:35:21.269000,-133.0,-70.0,168.0,764.0,593.0,-277.0,-10.0,-285.0,556.0
19:35:21.274000,-142.0,-74.0,188.0,696.0,662.0,-292.0,0.0,-283.0,558.0
19:35:21.279000,-152.0,-77.0,175.0,643.0,696.0,-301.0,0.0,-283.0,558.0
19:35:21.284000,-171.0,-81.0,156.0,610.0,692.0,-299.0,-9.0,-280.0,562.0
19:35:21.288000,-189.0,-84.0,132.0,599.0,769.0,-322.0,-9.0,-280.0,562.0
19:35:21.292000,-184.0,-98.0,95.0,596.0,789.0,-330.0,-9.0,-280.0,562.0
19:35:21.298000,-193.0,-113.0,50.0,604.0,652.0,-303.0,-4.0,-279.0,547.0
19:35:21.302000,-225.0,-120.0,43.0,615.0,586.0,-317.0,-4.0,-279.0,547.0
19:35:21.307000,-182.0,-136.0,66.0,615.0,586.0,-317.0,-6.0,-279.0,556.0
19:35:21.312000,-167.0,-148.0,63.0,614.0,616.0,-322.0,-6.0,-279.0,556.0
19:35:21.316000,-150.0,-158.0,37.0,601.0,656.0,-312.0,-6.0,-279.0,556.0
19:35:21.321000,-148.0,-161.0,9.0,566.0,689.0,-320.0,1.0,-283.0,553.0
19:35:21.326000,-144.0,-156.0,-20.0,516.0,762.0,-328.0,1.0,-283.0,553.0
19:35:21.340000,-182.0,-97.0,-27.0,387.0,695.0,-374.0,-3.0,-285.0,576.0
19:35:21.345000,-202.0,-81.0,-30.0,375.0,723.0,-369.0,-3.0,-285.0,576.0
19:35:21.349000,-200.0,-74.0,-42.0,376.0,711.0,-372.0,-3.0,-285.0,576.0
19:35:21.354000,-186.0,-69.0,-60.0,400.0,653.0,-381.0,1.0,-289.0,562.0
19:35:21.359000,-186.0,-69.0,-60.0,440.0,647.0,-386.0,1.0,-289.0,562.0
19:35:21.363000,-154.0,-70.0,-92.0,482.0,679.0,-393.0,1.0,-289.0,562.0
19:35:21.368000,-116.0,-75.0,-134.0,521.0,687.0,-396.0,13.0,-288.0,558.0
19:35:21.373000,-80.0,-83.0,-175.0,535.0,709.0,-401.0,13.0,-288.0,558.0
19:35:21.378000,-44.0,-91.0,-204.0,515.0,744.0,-409.0,7.0,-292.0,555.0
19:35:21.382000,-20.0,-91.0,-219.0,491.0,750.0,-411.0,7.0,-292.0,555.0
19:35:21.386000,0.0,-88.0,-216.0,486.0,779.0,-420.0,0.0,-294.0,570.0
19:35:21.392000,22.0,-74.0,-217.0,443.0,823.0,-424.0,0.0,-294.0,570.0
19:35:21.396000,31.0,-62.0,-233.0,399.0,832.0,-432.0,0.0,-294.0,570.0
19:35:21.401000,36.0,-41.0,-221.0,390.0,837.0,-444.0,-6.0,-289.0,567.0
19:35:21.406000,40.0,-20.0,-192.0,379.0,857.0,-447.0,-6.0,-289.0,567.0
19:35:21.410000,45.0,-11.0,-155.0,379.0,857.0,-447.0,9.0,-294.0,561.0
19:35:21.415000,42.0,-4.0,-92.0,413.0,857.0,-429.0,9.0,-294.0,561.0
19:35:21.419000,40.0,-2.0,-46.0,413.0,857.0,-429.0,9.0,-294.0,561.0
19:35:21.425000,22.0,-14.0,-7.0,410.0,907.0,-407.0,10.0,-292.0,559.0
19:35:21.429000,30.0,-26.0,-17.0,410.0,971.0,-391.0,10.0,-292.0,559.0
19:35:21.433000,28.0,-37.0,-44.0,466.0,971.0,-374.0,4.0,-297.0,553.0
19:35:21.439000,28.0,-44.0,4.0,466.0,971.0,-374.0,4.0,-297.0,553.0
19:35:21.443000,32.0,-46.0,81.0,553.0,880.0,-371.0,4.0,-297.0,553.0
19:35:21.448000,26.0,-42.0,123.0,590.0,835.0,-359.0,4.0,-289.0,567.0
19:35:21.453000,25.0,-32.0,126.0,593.0,847.0,-353.0,4.0,-289.0,567.0
19:35:21.457000,11.0,-18.0,121.0,581.0,873.0,-343.0,3.0,-291.0,561.0
19:35:21.462000,-7.0,0.0,123.0,568.0,872.0,-330.0,3.0,-291.0,561.0
19:35:21.466000,-7.0,0.0,123.0,560.0,835.0,-327.0,3.0,-291.0,561.0
19:35:21.472000,-21.0,23.0,122.0,555.0,772.0,-325.0,10.0,-295.0,559.0
19:35:21.476000,-35.0,52.0,115.0,551.0,714.0,-330.0,10.0,-295.0,559.0
19:35:21.481000,-49.0,85.0,112.0,543.0,678.0,-313.0,0.0,-301.0,564.0
19:35:21.486000,-50.0,105.0,127.0,564.0,653.0,-324.0,0.0,-301.0,564.0
19:35:21.490000,-48.0,137.0,146.0,601.0,667.0,-339.0,0.0,-301.0,564.0
19:35:21.495000,-50.0,168.0,103.0,630.0,677.0,-318.0,4.0,-283.0,552.0
19:35:21.500000,-55.0,190.0,42.0,644.0,647.0,-318.0,4.0,-283.0,552.0
19:35:21.504000,-60.0,203.0,38.0,636.0,603.0,-322.0,-3.0,-291.0,553.0
19:35:21.509000,-59.0,202.0,67.0,643.0,575.0,-331.0,-3.0,-291.0,553.0
19:35:21.513000,-44.0,201.0,44.0,686.0,599.0,-326.0,-3.0,-291.0,553.0
19:35:21.519000,-14.0,176.0,9.0,727.0,611.0,-312.0,7.0,-298.0,562.0
19:35:21.523000,-25.0,162.0,-13.0,719.0,582.0,-307.0,7.0,-298.0,562.0
19:35:21.528000,-21.0,132.0,-51.0,719.0,582.0,-307.0,10.0,-292.0,562.0
19:35:21.533000,-23.0,108.0,-46.0,728.0,546.0,-294.0,10.0,-292.0,562.0
19:35:21.537000,-16.0,82.0,8.0,728.0,546.0,-294.0,10.0,-292.0,562.0
19:35:21.542000,-21.0,32.0,49.0,735.0,554.0,-251.0,1.0,-292.0,555.0
19:35:21.547000,-25.0,3.0,25.0,775.0,607.0,-217.0,1.0,-292.0,555.0
19:35:21.551000,-46.0,-18.0,22.0,822.0,608.0,-226.0,-9.0,-292.0,558.0
19:35:21.556000,-28.0,-44.0,55.0,842.0,573.0,-219.0,-9.0,-292.0,558.0
19:35:21.560000,-28.0,-60.0,98.0,836.0,560.0,-210.0,-9.0,-292.0,558.0
19:35:21.566000,-28.0,-82.0,107.0,787.0,580.0,-207.0,1.0,-294.0,555.0
19:35:21.570000,-37.0,-93.0,72.0,712.0,629.0,-202.0,1.0,-294.0,555.0
19:35:21.575000,-37.0,-93.0,72.0,662.0,635.0,-210.0,-3.0,-292.0,559.0
19:35:21.580000,-35.0,-98.0,64.0,633.0,577.0,-188.0,-3.0,-292.0,559.0
19:35:21.584000,-47.0,-119.0,65.0,632.0,528.0,-185.0,-3.0,-292.0,559.0
19:35:21.589000,-17.0,-127.0,48.0,648.0,520.0,-209.0,-4.0,-289.0,570.0
19:35:21.594000,19.0,-137.0,45.0,662.0,544.0,-202.0,-4.0,-289.0,570.0
19:35:21.598000,31.0,-148.0,49.0,655.0,617.0,-213.0,3.0,-297.0,552.0
19:35:21.603000,57.0,-158.0,37.0,626.0,699.0,-216.0,3.0,-297.0,552.0
19:35:21.607000,39.0,-175.0,7.0,601.0,751.0,-211.0,3.0,-297.0,552.0
19:35:21.613000,30.0,-193.0,-35.0,594.0,753.0,-210.0,0.0,-292.0,549.0
19:35:21.617000,25.0,-221.0,-65.0,628.0,716.0,-218.0,0.0,-292.0,549.0
19:35:21.622000,34.0,-245.0,-65.0,684.0,690.0,-222.0,3.0,-288.0,562.0
19:35:21.627000,28.0,-280.0,-52.0,734.0,694.0,-216.0,3.0,-288.0,562.0
19:35:21.634000,33.0,-366.0,-39.0,767.0,745.0,-213.0,6.0,-301.0,571.0
19:35:21.636000,33.0,-366.0,-39.0,767.0,745.0,-213.0,6.0,-301.0,571.0
19:35:21.640000,30.0,-416.0,-31.0,767.0,745.0,-213.0,6.0,-301.0,571.0
19:35:21.645000,23.0,-459.0,-23.0,763.0,755.0,-218.0,3.0,-288.0,570.0
19:35:21.650000,5.0,-504.0,-16.0,751.0,757.0,-221.0,3.0,-288.0,570.0
19:35:21.655000,-25.0,-547.0,-9.0,737.0,761.0,-222.0,22.0,-292.0,558.0
19:35:21.660000,-35.0,-559.0,-10.0,691.0,794.0,-245.0,22.0,-292.0,558.0
19:35:21.664000,-48.0,-569.0,-15.0,645.0,847.0,-272.0,22.0,-292.0,558.0
19:35:21.669000,-105.0,-571.0,-56.0,628.0,894.0,-264.0,19.0,-297.0,567.0
19:35:21.674000,-132.0,-562.0,-119.0,629.0,925.0,-275.0,19.0,-297.0,567.0
19:35:21.678000,-147.0,-550.0,-166.0,623.0,945.0,-304.0,27.0,-298.0,562.0
19:35:21.683000,-168.0,-528.0,-200.0,591.0,972.0,-318.0,27.0,-298.0,562.0
19:35:21.687000,-168.0,-528.0,-200.0,554.0,1001.0,-333.0,27.0,-298.0,562.0
19:35:21.692000,-179.0,-507.0,-235.0,518.0,1024.0,-346.0,19.0,-300.0,568.0
19:35:21.697000,-195.0,-480.0,-274.0,495.0,1037.0,-352.0,19.0,-300.0,568.0
19:35:21.702000,-216.0,-455.0,-301.0,485.0,1052.0,-371.0,27.0,-298.0,571.0
19:35:21.707000,-209.0,-424.0,-312.0,478.0,1053.0,-387.0,27.0,-298.0,571.0
19:35:21.711000,-200.0,-406.0,-315.0,472.0,1041.0,-408.0,27.0,-298.0,571.0
19:35:21.716000,-170.0,-381.0,-303.0,473.0,1028.0,-426.0,34.0,-304.0,571.0
19:35:21.721000,-158.0,-356.0,-276.0,492.0,1012.0,-424.0,34.0,-304.0,571.0
19:35:21.725000,-135.0,-338.0,-235.0,508.0,1014.0,-436.0,19.0,-309.0,579.0
19:35:21.730000,-109.0,-324.0,-190.0,518.0,1022.0,-446.0,19.0,-309.0,579.0
19:35:21.734000,-93.0,-311.0,-135.0,534.0,1019.0,-446.0,19.0,-309.0,579.0
19:35:21.739000,-72.0,-308.0,-69.0,550.0,1007.0,-453.0,43.0,-301.0,574.0
19:35:21.744000,-54.0,-302.0,7.0,556.0,983.0,-452.0,43.0,-301.0,574.0
19:35:21.749000,-43.0,-304.0,85.0,556.0,983.0,-452.0,36.0,-304.0,583.0
19:35:21.754000,-31.0,-298.0,153.0,559.0,961.0,-454.0,36.0,-304.0,583.0
19:35:21.758000,-10.0,-301.0,212.0,572.0,942.0,-456.0,36.0,-304.0,583.0
19:35:21.763000,11.0,-291.0,256.0,592.0,926.0,-455.0,45.0,-307.0,583.0
19:35:21.768000,4.0,-291.0,296.0,610.0,916.0,-446.0,45.0,-307.0,583.0
19:35:21.772000,6.0,-286.0,338.0,622.0,905.0,-434.0,39.0,-312.0,571.0
19:35:21.777000,-8.0,-279.0,364.0,621.0,886.0,-427.0,39.0,-312.0,571.0
19:35:21.781000,-8.0,-279.0,364.0,616.0,854.0,-414.0,39.0,-312.0,571.0
19:35:21.786000,-31.0,-254.0,394.0,618.0,824.0,-403.0,48.0,-298.0,592.0
19:35:21.791000,-51.0,-236.0,395.0,626.0,803.0,-390.0,48.0,-298.0,592.0
19:35:21.796000,-51.0,-236.0,395.0,648.0,780.0,-380.0,52.0,-304.0,580.0
19:35:21.801000,-74.0,-219.0,389.0,679.0,750.0,-376.0,52.0,-304.0,580.0
19:35:21.805000,-89.0,-200.0,384.0,702.0,719.0,-369.0,52.0,-304.0,580.0
19:35:21.810000,-105.0,-185.0,378.0,713.0,694.0,-359.0,63.0,-291.0,585.0
19:35:21.814000,-119.0,-170.0,367.0,726.0,687.0,-359.0,63.0,-291.0,585.0
19:35:21.819000,-117.0,-154.0,333.0,754.0,669.0,-343.0,51.0,-298.0,588.0
19:35:21.824000,-135.0,-144.0,282.0,800.0,637.0,-326.0,51.0,-298.0,588.0
19:35:21.828000,-142.0,-137.0,241.0,850.0,600.0,-325.0,51.0,-298.0,588.0
19:35:21.833000,-143.0,-128.0,213.0,884.0,549.0,-318.0,57.0,-297.0,577.0
19:35:21.838000,-140.0,-119.0,189.0,907.0,499.0,-323.0,57.0,-297.0,577.0
19:35:21.843000,-119.0,-100.0,175.0,907.0,475.0,-323.0,54.0,-298.0,585.0
19:35:21.848000,-70.0,-81.0,177.0,868.0,504.0,-345.0,54.0,-298.0,585.0
19:35:21.852000,-35.0,-56.0,167.0,735.0,577.0,-343.0,54.0,-298.0,585.0
19:35:21.857000,-51.0,-46.0,133.0,543.0,604.0,-319.0,55.0,-298.0,583.0
19:35:21.862000,-77.0,-78.0,140.0,543.0,604.0,-319.0,55.0,-298.0,583.0
19:35:21.866000,-29.0,-115.0,191.0,362.0,591.0,-326.0,58.0,-301.0,583.0
19:35:21.871000,7.0,-145.0,252.0,230.0,595.0,-351.0,58.0,-301.0,583.0
19:35:21.875000,38.0,-154.0,158.0,186.0,625.0,-372.0,58.0,-301.0,583.0
19:35:21.880000,70.0,-151.0,55.0,240.0,677.0,-402.0,61.0,-294.0,586.0
19:35:21.885000,98.0,-151.0,71.0,363.0,664.0,-404.0,61.0,-294.0,586.0
19:35:21.890000,140.0,-143.0,104.0,453.0,602.0,-409.0,67.0,-286.0,589.0
19:35:21.895000,160.0,-143.0,38.0,475.0,595.0,-408.0,67.0,-286.0,589.0
19:35:21.899000,160.0,-143.0,38.0,562.0,624.0,-396.0,67.0,-286.0,589.0
19:35:21.904000,148.0,-143.0,-24.0,695.0,641.0,-395.0,61.0,-295.0,603.0
19:35:21.909000,142.0,-145.0,-15.0,780.0,642.0,-392.0,61.0,-295.0,603.0
19:35:21.913000,130.0,-144.0,34.0,813.0,666.0,-392.0,61.0,-295.0,603.0
19:35:21.918000,122.0,-141.0,18.0,796.0,735.0,-394.0,61.0,-295.0,603.0
19:35:21.922000,118.0,-135.0,-69.0,753.0,810.0,-385.0,61.0,-295.0,603.0
19:35:21.927000,92.0,-133.0,-178.0,679.0,863.0,-379.0,64.0,-297.0,585.0
19:35:21.932000,67.0,-135.0,-233.0,567.0,850.0,-389.0,64.0,-297.0,585.0
19:35:21.937000,45.0,-133.0,-240.0,459.0,795.0,-405.0,69.0,-297.0,592.0
19:35:21.942000,19.0,-105.0,-226.0,414.0,714.0,-416.0,69.0,-297.0,592.0
19:35:21.946000,18.0,-84.0,-151.0,416.0,631.0,-425.0,69.0,-297.0,592.0
19:35:21.951000,39.0,-50.0,-72.0,387.0,627.0,-421.0,72.0,-292.0,582.0
19:35:21.956000,44.0,-23.0,-49.0,348.0,662.0,-406.0,72.0,-292.0,582.0
19:35:21.960000,53.0,2.0,-61.0,348.0,662.0,-406.0,58.0,-301.0,586.0
19:35:21.965000,77.0,21.0,-49.0,359.0,610.0,-373.0,58.0,-301.0,586.0
19:35:21.969000,97.0,39.0,7.0,402.0,610.0,-373.0,58.0,-301.0,586.0
19:35:21.974000,147.0,60.0,91.0,421.0,558.0,-365.0,69.0,-289.0,583.0
19:35:21.979000,197.0,77.0,156.0,388.0,533.0,-366.0,69.0,-289.0,583.0
19:35:21.984000,250.0,93.0,186.0,341.0,569.0,-357.0,69.0,-288.0,585.0
19:35:21.989000,302.0,110.0,195.0,312.0,629.0,-358.0,69.0,-288.0,585.0
19:35:21.993000,329.0,121.0,200.0,292.0,704.0,-356.0,69.0,-288.0,585.0
19:35:21.998000,345.0,133.0,203.0,267.0,800.0,-352.0,57.0,-286.0,585.0
19:35:22.012000,302.0,163.0,235.0,164.0,926.0,-352.0,46.0,-274.0,601.0
19:35:22.017000,302.0,163.0,235.0,137.0,913.0,-356.0,63.0,-285.0,588.0
19:35:22.021000,269.0,175.0,216.0,145.0,923.0,-363.0,63.0,-285.0,588.0
19:35:22.026000,240.0,179.0,169.0,200.0,946.0,-365.0,63.0,-285.0,588.0
19:35:22.031000,210.0,177.0,126.0,273.0,959.0,-360.0,66.0,-277.0,573.0
19:35:22.036000,168.0,174.0,104.0,332.0,967.0,-360.0,66.0,-277.0,573.0
19:35:22.040000,144.0,171.0,87.0,373.0,926.0,-363.0,57.0,-283.0,577.0
19:35:22.045000,130.0,168.0,81.0,399.0,829.0,-370.0,57.0,-283.0,577.0
19:35:22.049000,143.0,174.0,88.0,410.0,750.0,-378.0,57.0,-283.0,577.0
19:35:22.054000,170.0,182.0,77.0,421.0,721.0,-369.0,61.0,-276.0,574.0
19:35:22.058000,181.0,184.0,67.0,443.0,738.0,-351.0,61.0,-276.0,574.0
19:35:22.064000,164.0,180.0,70.0,443.0,738.0,-351.0,55.0,-273.0,574.0
19:35:22.068000,154.0,175.0,58.0,433.0,804.0,-354.0,55.0,-273.0,574.0
19:35:22.072000,184.0,169.0,27.0,416.0,792.0,-368.0,55.0,-273.0,574.0
19:35:22.078000,255.0,161.0,0.0,416.0,792.0,-368.0,61.0,-271.0,582.0
19:35:22.083000,342.0,151.0,-28.0,404.0,760.0,-375.0,61.0,-271.0,582.0
19:35:22.087000,408.0,136.0,-35.0,405.0,725.0,-368.0,61.0,-258.0,574.0
19:35:22.092000,449.0,113.0,-14.0,414.0,700.0,-352.0,61.0,-258.0,574.0
19:35:22.096000,475.0,85.0,-2.0,416.0,735.0,-338.0,61.0,-258.0,574.0
19:35:22.101000,470.0,58.0,-18.0,412.0,835.0,-321.0,57.0,-265.0,573.0
19:35:22.106000,443.0,35.0,-32.0,428.0,921.0,-304.0,57.0,-265.0,573.0
19:35:22.111000,408.0,12.0,-12.0,478.0,936.0,-291.0,52.0,-264.0,583.0
19:35:22.115000,368.0,-2.0,17.0,523.0,919.0,-279.0,52.0,-264.0,583.0
19:35:22.119000,368.0,-2.0,17.0,525.0,938.0,-264.0,52.0,-264.0,583.0
19:35:22.125000,321.0,-13.0,28.0,489.0,984.0,-247.0,63.0,-259.0,565.0
19:35:22.130000,268.0,-18.0,21.0,439.0,1008.0,-236.0,63.0,-259.0,565.0
19:35:22.134000,218.0,-20.0,10.0,397.0,992.0,-232.0,51.0,-252.0,562.0
19:35:22.139000,175.0,-18.0,4.0,377.0,934.0,-236.0,51.0,-252.0,562.0
19:35:22.146000,137.0,0.0,0.0,394.0,798.0,-243.0,46.0,-255.0,567.0
19:35:22.148000,137.0,0.0,0.0,394.0,798.0,-243.0,46.0,-255.0,567.0
19:35:22.152000,141.0,16.0,-25.0,437.0,762.0,-243.0,46.0,-255.0,567.0
19:35:22.158000,142.0,32.0,-61.0,489.0,754.0,-241.0,51.0,-258.0,576.0
19:35:22.162000,149.0,44.0,-94.0,534.0,755.0,-240.0,51.0,-258.0,576.0
19:35:22.167000,145.0,54.0,-115.0,562.0,767.0,-239.0,46.0,-259.0,565.0
19:35:22.172000,146.0,60.0,-123.0,568.0,780.0,-241.0,46.0,-259.0,565.0
19:35:22.176000,142.0,65.0,-128.0,553.0,788.0,-244.0,46.0,-259.0,565.0
19:35:22.181000,140.0,74.0,-140.0,531.0,811.0,-243.0,54.0,-253.0,565.0
19:35:22.186000,133.0,83.0,-151.0,531.0,811.0,-243.0,54.0,-253.0,565.0
19:35:22.191000,126.0,94.0,-157.0,517.0,848.0,-242.0,49.0,-259.0,565.0
19:35:22.195000,111.0,105.0,-149.0,505.0,880.0,-242.0,49.0,-259.0,565.0
19:35:22.199000,93.0,115.0,-145.0,458.0,935.0,-235.0,55.0,-259.0,561.0
19:35:22.205000,78.0,124.0,-147.0,458.0,935.0,-235.0,55.0,-259.0,561.0
19:35:22.209000,63.0,129.0,-134.0,443.0,920.0,-235.0,55.0,-259.0,561.0
19:35:22.214000,55.0,136.0,-121.0,445.0,890.0,-239.0,55.0,-258.0,564.0
19:35:22.219000,55.0,138.0,-101.0,469.0,854.0,-248.0,55.0,-258.0,564.0
19:35:22.223000,56.0,142.0,-89.0,501.0,828.0,-252.0,43.0,-252.0,564.0
19:35:22.228000,56.0,143.0,-80.0,528.0,835.0,-256.0,43.0,-252.0,564.0
19:35:22.232000,56.0,143.0,-80.0,538.0,855.0,-258.0,43.0,-252.0,564.0
19:35:22.238000,53.0,142.0,-73.0,533.0,857.0,-264.0,42.0,-258.0,561.0
19:35:22.242000,53.0,142.0,-69.0,525.0,849.0,-271.0,42.0,-258.0,561.0
19:35:22.247000,56.0,147.0,-65.0,518.0,844.0,-274.0,36.0,-252.0,561.0
19:35:22.252000,55.0,154.0,-53.0,505.0,830.0,-275.0,36.0,-252.0,561.0
19:35:22.256000,49.0,163.0,-22.0,480.0,821.0,-276.0,36.0,-252.0,561.0
19:35:22.261000,44.0,174.0,7.0,454.0,834.0,-277.0,49.0,-258.0,547.0
19:35:22.266000,46.0,189.0,21.0,433.0,862.0,-279.0,49.0,-258.0,547.0
19:35:22.270000,56.0,206.0,6.0,420.0,879.0,-271.0,39.0,-258.0,553.0
19:35:22.275000,60.0,216.0,-15.0,427.0,863.0,-259.0,39.0,-258.0,553.0
19:35:22.279000,67.0,225.0,-27.0,462.0,819.0,-254.0,39.0,-258.0,553.0
19:35:22.285000,76.0,231.0,-38.0,521.0,772.0,-247.0,36.0,-261.0,558.0
19:35:22.289000,85.0,235.0,-47.0,586.0,752.0,-239.0,36.0,-261.0,558.0
19:35:22.294000,86.0,235.0,-48.0,586.0,752.0,-239.0,36.0,-262.0,552.0
19:35:22.299000,82.0,232.0,-53.0,662.0,791.0,-233.0,36.0,-262.0,552.0
19:35:22.303000,79.0,229.0,-81.0,662.0,791.0,-233.0,36.0,-262.0,552.0
19:35:22.308000,72.0,226.0,-128.0,672.0,814.0,-234.0,34.0,-261.0,561.0
19:35:22.313000,58.0,220.0,-171.0,674.0,830.0,-237.0,34.0,-261.0,561.0
19:35:22.317000,45.0,214.0,-205.0,668.0,835.0,-243.0,33.0,-264.0,552.0
19:35:22.322000,37.0,209.0,-245.0,655.0,830.0,-254.0,33.0,-264.0,552.0
19:35:22.326000,30.0,203.0,-291.0,652.0,827.0,-264.0,33.0,-264.0,552.0
19:35:22.332000,21.0,199.0,-320.0,668.0,829.0,-270.0,28.0,-255.0,546.0
19:35:22.336000,20.0,195.0,-347.0,682.0,841.0,-275.0,28.0,-255.0,546.0
19:35:22.341000,20.0,195.0,-347.0,675.0,857.0,-278.0,31.0,-255.0,552.0
19:35:22.346000,18.0,189.0,-378.0,657.0,869.0,-277.0,31.0,-255.0,552.0
19:35:22.350000,14.0,183.0,-406.0,652.0,882.0,-275.0,31.0,-255.0,552.0
19:35:22.355000,11.0,176.0,-418.0,662.0,889.0,-270.0,19.0,-265.0,571.0
19:35:22.360000,7.0,167.0,-411.0,667.0,884.0,-263.0,19.0,-265.0,571.0
19:35:22.364000,6.0,154.0,-387.0,656.0,870.0,-257.0,21.0,-268.0,553.0
19:35:22.369000,9.0,142.0,-354.0,643.0,855.0,-254.0,21.0,-268.0,553.0
19:35:22.373000,19.0,129.0,-314.0,651.0,840.0,-250.0,21.0,-268.0,553.0
19:35:22.379000,29.0,118.0,-270.0,666.0,828.0,-244.0,18.0,-264.0,549.0
19:35:22.383000,37.0,111.0,-233.0,681.0,833.0,-239.0,18.0,-264.0,549.0
19:35:22.388000,34.0,107.0,-197.0,693.0,851.0,-231.0,12.0,-265.0,546.0
19:35:22.393000,23.0,104.0,-154.0,696.0,858.0,-225.0,12.0,-265.0,546.0
19:35:22.397000,4.0,101.0,-109.0,695.0,839.0,-221.0,12.0,-265.0,546.0
19:35:22.402000,-9.0,103.0,-69.0,692.0,795.0,-218.0,19.0,-270.0,547.0
19:35:22.407000,-11.0,111.0,-42.0,692.0,795.0,-218.0,19.0,-270.0,547.0
19:35:22.411000,-2.0,123.0,-30.0,690.0,748.0,-217.0,19.0,-259.0,546.0
19:35:22.416000,8.0,140.0,-26.0,685.0,709.0,-212.0,19.0,-259.0,546.0
19:35:22.420000,21.0,161.0,-22.0,689.0,683.0,-208.0,19.0,-259.0,546.0
19:35:22.426000,34.0,182.0,-26.0,703.0,675.0,-206.0,12.0,-267.0,543.0
19:35:22.430000,46.0,207.0,-33.0,713.0,687.0,-206.0,12.0,-267.0,543.0
19:35:22.435000,47.0,231.0,-53.0,710.0,724.0,-203.0,16.0,-277.0,540.0
19:35:22.440000,38.0,256.0,-94.0,685.0,784.0,-191.0,16.0,-277.0,540.0
19:35:22.444000,38.0,256.0,-94.0,660.0,840.0,-180.0,16.0,-277.0,540.0
19:35:22.449000,0.0,296.0,-186.0,658.0,874.0,-175.0,12.0,-270.0,538.0
19:35:22.454000,0.0,296.0,-186.0,681.0,888.0,-175.0,12.0,-270.0,538.0
19:35:22.458000,-25.0,311.0,-225.0,711.0,895.0,-175.0,13.0,-277.0,534.0
19:35:22.463000,-45.0,319.0,-273.0,734.0,887.0,-174.0,13.0,-277.0,534.0
19:35:22.467000,-59.0,322.0,-327.0,769.0,856.0,-171.0,13.0,-277.0,534.0
19:35:22.473000,-70.0,320.0,-365.0,828.0,817.0,-167.0,0.0,-273.0,534.0
19:35:22.477000,-78.0,312.0,-367.0,888.0,772.0,-164.0,0.0,-273.0,534.0
19:35:22.482000,-79.0,303.0,-347.0,915.0,739.0,-164.0,3.0,-279.0,537.0
19:35:22.487000,-65.0,292.0,-349.0,904.0,721.0,-163.0,3.0,-279.0,537.0
19:35:22.491000,-39.0,281.0,-366.0,901.0,709.0,-160.0,3.0,-279.0,537.0
