hh:mm:ss.ms,gyroX[mdps],gyroY[mdps],gyroZ[mdps],accX[mg],accY[mg],accZ[mg],magX[mG],magY[mG],magZ[mG]
19:34:31.415000,275.0,199.0,-3426.0,-943.0,2350.0,162.0,132.0,-208.0,535.0
19:34:31.419000,138.0,452.0,-4976.0,450.0,3141.0,69.0,132.0,-208.0,535.0
19:34:31.424000,-368.0,381.0,-1443.0,2806.0,789.0,50.0,133.0,-204.0,529.0
19:34:31.429000,-683.0,198.0,1178.0,2710.0,-1446.0,324.0,133.0,-204.0,529.0
19:34:31.434000,-412.0,238.0,908.0,568.0,-854.0,-34.0,91.0,-216.0,547.0
19:34:31.438000,-21.0,223.0,84.0,-724.0,281.0,-380.0,91.0,-216.0,547.0
19:34:31.443000,-21.0,223.0,84.0,-630.0,655.0,-323.0,91.0,-216.0,547.0
19:34:31.448000,50.0,241.0,33.0,-80.0,663.0,-241.0,129.0,-214.0,528.0
19:34:31.453000,93.0,155.0,516.0,345.0,587.0,-241.0,129.0,-214.0,528.0
19:34:31.457000,105.0,159.0,846.0,480.0,596.0,-356.0,121.0,-214.0,526.0
19:34:31.462000,244.0,219.0,932.0,413.0,637.0,-268.0,121.0,-214.0,526.0
19:34:31.466000,182.0,173.0,877.0,389.0,738.0,-129.0,121.0,-214.0,526.0
19:34:31.471000,53.0,107.0,574.0,575.0,913.0,-254.0,115.0,-196.0,531.0
19:34:31.476000,42.0,122.0,315.0,780.0,929.0,-321.0,115.0,-196.0,531.0
19:34:31.481000,105.0,143.0,331.0,834.0,870.0,-282.0,115.0,-205.0,534.0
19:34:31.485000,81.0,140.0,368.0,721.0,900.0,-250.0,115.0,-205.0,534.0
19:34:31.490000,43.0,140.0,264.0,516.0,948.0,-250.0,115.0,-205.0,534.0
19:34:31.495000,6.0,139.0,84.0,341.0,899.0,-266.0,121.0,-202.0,544.0
19:34:31.500000,1.0,151.0,-26.0,251.0,769.0,-285.0,121.0,-202.0,544.0
19:34:31.504000,16.0,166.0,-21.0,251.0,769.0,-285.0,120.0,-213.0,517.0
19:34:31.509000,48.0,179.0,21.0,212.0,657.0,-290.0,120.0,-213.0,517.0
19:34:31.513000,84.0,191.0,43.0,176.0,630.0,-289.0,120.0,-213.0,517.0
19:34:31.518000,119.0,198.0,8.0,145.0,674.0,-279.0,106.0,-207.0,538.0
19:34:31.523000,156.0,211.0,-42.0,144.0,734.0,-269.0,106.0,-207.0,538.0
19:34:31.528000,176.0,216.0,-55.0,180.0,767.0,-253.0,111.0,-202.0,532.0
19:34:31.532000,176.0,201.0,0.0,223.0,774.0,-225.0,111.0,-202.0,532.0
19:34:31.537000,176.0,201.0,0.0,209.0,812.0,-217.0,111.0,-202.0,532.0
19:34:31.542000,233.0,193.0,-82.0,191.0,828.0,-216.0,120.0,-207.0,528.0
19:34:31.547000,257.0,197.0,-86.0,251.0,779.0,-211.0,120.0,-207.0,528.0
19:34:31.551000,257.0,197.0,-86.0,315.0,763.0,-213.0,109.0,-201.0,532.0
19:34:31.556000,284.0,191.0,-53.0,310.0,788.0,-211.0,109.0,-201.0,532.0
19:34:31.560000,286.0,187.0,-23.0,268.0,836.0,-216.0,109.0,-201.0,532.0
19:34:31.565000,279.0,194.0,-27.0,231.0,917.0,-230.0,103.0,-216.0,522.0
19:34:31.570000,266.0,210.0,-56.0,202.0,996.0,-239.0,103.0,-216.0,522.0
19:34:31.575000,242.0,222.0,-90.0,165.0,1052.0,-247.0,94.0,-196.0,538.0
19:34:31.579000,203.0,238.0,-107.0,120.0,1095.0,-259.0,94.0,-196.0,538.0
19:34:31.584000,152.0,256.0,-118.0,73.0,1136.0,-264.0,94.0,-196.0,538.0
19:34:31.589000,94.0,275.0,-154.0,47.0,1178.0,-268.0,106.0,-192.0,534.0
19:34:31.594000,34.0,289.0,-212.0,63.0,1202.0,-274.0,106.0,-192.0,534.0
19:34:31.598000,-31.0,298.0,-248.0,63.0,1207.0,-280.0,96.0,-207.0,520.0
19:34:31.603000,-97.0,301.0,-277.0,137.0,1193.0,-285.0,96.0,-207.0,520.0
19:34:31.607000,-159.0,303.0,-315.0,181.0,1151.0,-291.0,96.0,-207.0,520.0
19:34:31.612000,-217.0,313.0,-348.0,243.0,1099.0,-285.0,96.0,-204.0,526.0
19:34:31.617000,-260.0,310.0,-359.0,243.0,1099.0,-285.0,96.0,-204.0,526.0
19:34:31.622000,-260.0,305.0,-351.0,299.0,1030.0,-292.0,90.0,-201.0,523.0
19:34:31.626000,-235.0,297.0,-326.0,346.0,937.0,-309.0,90.0,-201.0,523.0
19:34:31.631000,-203.0,287.0,-307.0,375.0,866.0,-308.0,90.0,-201.0,523.0
19:34:31.636000,-154.0,278.0,-292.0,389.0,811.0,-307.0,93.0,-208.0,522.0
19:34:31.641000,-88.0,273.0,-281.0,404.0,746.0,-308.0,93.0,-208.0,522.0
19:34:31.645000,-8.0,268.0,-259.0,411.0,712.0,-315.0,84.0,-213.0,525.0
19:34:31.663000,161.0,238.0,-210.0,366.0,923.0,-254.0,72.0,-205.0,535.0
19:34:31.669000,172.0,223.0,-154.0,298.0,1120.0,-221.0,70.0,-222.0,525.0
19:34:31.673000,214.0,202.0,-128.0,256.0,1007.0,-202.0,70.0,-222.0,525.0
19:34:31.678000,214.0,211.0,-134.0,244.0,871.0,-191.0,79.0,-214.0,520.0
19:34:31.683000,207.0,221.0,-98.0,224.0,913.0,-179.0,79.0,-214.0,520.0
19:34:31.687000,208.0,228.0,-38.0,239.0,971.0,-167.0,79.0,-214.0,520.0
19:34:31.692000,186.0,245.0,12.0,309.0,1011.0,-146.0,76.0,-220.0,513.0
19:34:31.697000,144.0,259.0,56.0,376.0,1061.0,-128.0,76.0,-220.0,513.0
19:34:31.702000,119.0,263.0,74.0,434.0,1078.0,-124.0,75.0,-216.0,514.0
19:34:31.706000,115.0,268.0,93.0,466.0,1015.0,-133.0,75.0,-216.0,514.0
19:34:31.710000,123.0,277.0,92.0,452.0,968.0,-139.0,75.0,-216.0,514.0
19:34:31.716000,126.0,292.0,7.0,443.0,947.0,-139.0,75.0,-213.0,513.0
19:34:31.720000,120.0,305.0,-87.0,458.0,928.0,-130.0,75.0,-213.0,513.0
19:34:31.725000,102.0,308.0,-93.0,458.0,928.0,-130.0,64.0,-219.0,517.0
19:34:31.730000,84.0,300.0,-49.0,454.0,911.0,-128.0,64.0,-219.0,517.0
19:34:31.734000,70.0,283.0,-28.0,431.0,909.0,-132.0,64.0,-219.0,517.0
19:34:31.739000,64.0,263.0,-49.0,428.0,904.0,-134.0,72.0,-211.0,517.0
19:34:31.744000,67.0,244.0,-84.0,457.0,879.0,-138.0,72.0,-211.0,517.0
19:34:31.749000,71.0,224.0,-91.0,514.0,858.0,-139.0,66.0,-210.0,511.0
19:34:31.753000,67.0,200.0,-63.0,552.0,849.0,-132.0,66.0,-210.0,511.0
19:34:31.757000,67.0,200.0,-63.0,545.0,857.0,-122.0,66.0,-210.0,511.0
19:34:31.763000,61.0,165.0,21.0,515.0,861.0,-120.0,78.0,-213.0,508.0
19:34:31.767000,48.0,165.0,0.0,464.0,871.0,-118.0,78.0,-213.0,508.0
19:34:31.772000,48.0,165.0,0.0,415.0,926.0,-108.0,70.0,-207.0,516.0
19:34:31.777000,35.0,161.0,-49.0,410.0,961.0,-94.0,70.0,-207.0,516.0
19:34:31.781000,16.0,158.0,-25.0,424.0,933.0,-82.0,70.0,-207.0,516.0
19:34:31.786000,-4.0,154.0,56.0,406.0,886.0,-76.0,70.0,-210.0,508.0
19:34:31.791000,-30.0,154.0,108.0,373.0,873.0,-86.0,70.0,-210.0,508.0
19:34:31.796000,-41.0,163.0,91.0,383.0,879.0,-102.0,60.0,-216.0,510.0
19:34:31.800000,-44.0,173.0,72.0,425.0,844.0,-101.0,60.0,-216.0,510.0
19:34:31.804000,-70.0,177.0,77.0,437.0,828.0,-110.0,60.0,-216.0,510.0
19:34:31.810000,-65.0,178.0,41.0,424.0,867.0,-128.0,58.0,-213.0,499.0
19:34:31.814000,-60.0,163.0,-4.0,433.0,896.0,-135.0,58.0,-213.0,499.0
19:34:31.819000,-60.0,139.0,-27.0,455.0,942.0,-142.0,60.0,-211.0,507.0
19:34:31.824000,-84.0,122.0,-36.0,465.0,965.0,-148.0,60.0,-211.0,507.0
19:34:31.829000,-72.0,93.0,11.0,465.0,965.0,-148.0,51.0,-210.0,511.0
19:34:31.833000,-37.0,74.0,7.0,452.0,921.0,-166.0,51.0,-210.0,511.0
19:34:31.837000,-26.0,59.0,-119.0,434.0,910.0,-172.0,51.0,-210.0,511.0
19:34:31.843000,-25.0,39.0,-175.0,466.0,941.0,-155.0,61.0,-210.0,507.0
19:34:31.847000,-46.0,30.0,-114.0,521.0,961.0,-145.0,61.0,-210.0,507.0
19:34:31.852000,-84.0,21.0,-16.0,532.0,982.0,-131.0,55.0,-217.0,510.0
19:34:31.857000,-114.0,11.0,37.0,504.0,997.0,-119.0,55.0,-217.0,510.0
19:34:31.861000,-130.0,21.0,48.0,445.0,964.0,-127.0,55.0,-217.0,510.0
19:34:31.866000,-134.0,11.0,60.0,454.0,929.0,-123.0,60.0,-219.0,507.0
19:34:31.871000,-134.0,3.0,97.0,515.0,892.0,-117.0,60.0,-219.0,507.0
19:34:31.876000,-121.0,-10.0,139.0,524.0,831.0,-127.0,57.0,-217.0,504.0
19:34:31.880000,-121.0,-10.0,139.0,506.0,813.0,-140.0,57.0,-217.0,504.0
19:34:31.884000,-91.0,-20.0,122.0,483.0,859.0,-152.0,57.0,-217.0,504.0
19:34:31.890000,-66.0,-30.0,59.0,476.0,897.0,-163.0,58.0,-225.0,505.0
19:34:31.894000,-44.0,-38.0,2.0,497.0,906.0,-167.0,58.0,-225.0,505.0
19:34:31.899000,-36.0,-44.0,-39.0,538.0,912.0,-173.0,57.0,-219.0,502.0
19:34:31.904000,-8.0,-56.0,-58.0,538.0,923.0,-187.0,57.0,-219.0,502.0
19:34:31.911000,51.0,-83.0,-107.0,581.0,913.0,-174.0,67.0,-222.0,529.0
19:34:31.913000,51.0,-83.0,-107.0,581.0,913.0,-174.0,67.0,-222.0,529.0
19:34:31.917000,82.0,-102.0,-94.0,576.0,931.0,-189.0,67.0,-222.0,529.0
19:34:31.923000,110.0,-109.0,-93.0,521.0,995.0,-186.0,45.0,-223.0,508.0
19:34:31.927000,92.0,-108.0,-119.0,477.0,1067.0,-162.0,45.0,-223.0,508.0
19:34:31.932000,70.0,-119.0,-102.0,477.0,1067.0,-162.0,54.0,-219.0,505.0
19:34:31.936000,55.0,-113.0,-39.0,461.0,1068.0,-156.0,54.0,-219.0,505.0
19:34:31.941000,40.0,-93.0,6.0,461.0,1068.0,-156.0,54.0,-219.0,505.0
19:34:31.946000,40.0,-63.0,39.0,469.0,1086.0,-156.0,58.0,-223.0,513.0
19:34:31.951000,17.0,-41.0,100.0,475.0,1065.0,-146.0,58.0,-223.0,513.0
19:34:31.955000,21.0,-16.0,213.0,415.0,900.0,-154.0,57.0,-220.0,508.0
19:34:31.960000,43.0,5.0,282.0,415.0,900.0,-154.0,57.0,-220.0,508.0
19:34:31.964000,63.0,28.0,259.0,390.0,887.0,-159.0,57.0,-220.0,508.0
19:34:31.970000,82.0,42.0,213.0,429.0,884.0,-157.0,52.0,-223.0,514.0
19:34:31.974000,129.0,48.0,190.0,508.0,869.0,-157.0,52.0,-223.0,514.0
19:34:31.979000,175.0,56.0,186.0,590.0,836.0,-159.0,58.0,-213.0,514.0
19:34:31.984000,202.0,65.0,121.0,620.0,849.0,-157.0,58.0,-213.0,514.0
19:34:31.988000,202.0,65.0,121.0,584.0,968.0,-157.0,58.0,-213.0,514.0
19:34:31.993000,223.0,74.0,12.0,553.0,1070.0,-154.0,61.0,-213.0,511.0
19:34:31.998000,226.0,84.0,-44.0,542.0,1111.0,-145.0,61.0,-213.0,511.0
19:34:32.002000,211.0,95.0,-67.0,543.0,1141.0,-139.0,55.0,-213.0,510.0
19:34:32.007000,190.0,107.0,-89.0,561.0,1175.0,-139.0,55.0,-213.0,510.0
19:34:32.011000,172.0,120.0,-133.0,569.0,1189.0,-144.0,55.0,-213.0,510.0
19:34:32.017000,166.0,130.0,-182.0,562.0,1154.0,-145.0,40.0,-211.0,526.0
19:34:32.021000,172.0,129.0,-183.0,561.0,1111.0,-135.0,40.0,-211.0,526.0
19:34:32.026000,165.0,128.0,-168.0,570.0,1107.0,-141.0,55.0,-216.0,507.0
19:34:32.031000,140.0,153.0,-151.0,569.0,1083.0,-145.0,55.0,-216.0,507.0
19:34:32.035000,100.0,172.0,-86.0,564.0,1030.0,-131.0,55.0,-216.0,507.0
19:34:32.040000,104.0,158.0,-14.0,578.0,1055.0,-126.0,48.0,-220.0,505.0
19:34:32.045000,170.0,129.0,10.0,587.0,1082.0,-130.0,48.0,-220.0,505.0
19:34:32.049000,214.0,121.0,0.0,576.0,1085.0,-134.0,51.0,-205.0,523.0
19:34:32.054000,228.0,133.0,-44.0,576.0,1085.0,-134.0,51.0,-205.0,523.0
19:34:32.058000,235.0,140.0,-118.0,544.0,1126.0,-120.0,51.0,-205.0,523.0
19:34:32.064000,237.0,144.0,-162.0,523.0,1166.0,-108.0,46.0,-204.0,502.0
19:34:32.068000,250.0,128.0,-219.0,539.0,1232.0,-83.0,46.0,-204.0,502.0
19:34:32.073000,228.0,113.0,-243.0,557.0,1200.0,-50.0,49.0,-213.0,493.0
19:34:32.078000,219.0,105.0,-154.0,585.0,1082.0,-44.0,49.0,-213.0,493.0
19:34:32.082000,229.0,100.0,-40.0,594.0,1050.0,-40.0,49.0,-213.0,493.0
19:34:32.087000,236.0,114.0,-21.0,547.0,1048.0,-45.0,49.0,-207.0,504.0
19:34:32.092000,227.0,114.0,-74.0,510.0,1039.0,-30.0,49.0,-207.0,504.0
19:34:32.096000,227.0,114.0,-74.0,524.0,1028.0,-32.0,45.0,-202.0,504.0
19:34:32.101000,274.0,128.0,-123.0,568.0,993.0,-40.0,45.0,-202.0,504.0
19:34:32.105000,269.0,145.0,-163.0,598.0,949.0,-2.0,45.0,-202.0,504.0
19:34:32.111000,260.0,155.0,-146.0,589.0,924.0,-5.0,40.0,-205.0,499.0
19:34:32.115000,268.0,184.0,-140.0,541.0,920.0,-11.0,40.0,-205.0,499.0
19:34:32.120000,252.0,206.0,-154.0,495.0,916.0,5.0,39.0,-207.0,495.0
19:34:32.125000,244.0,217.0,-142.0,478.0,913.0,4.0,39.0,-207.0,495.0
19:34:32.129000,253.0,226.0,-111.0,479.0,907.0,-4.0,39.0,-207.0,495.0
19:34:32.134000,266.0,240.0,-70.0,483.0,929.0,-15.0,37.0,-196.0,498.0
19:34:32.139000,263.0,255.0,-36.0,462.0,1008.0,-12.0,37.0,-196.0,498.0
19:34:32.143000,231.0,260.0,-39.0,440.0,1114.0,-4.0,43.0,-204.0,508.0
19:34:32.148000,202.0,249.0,-67.0,450.0,1123.0,-2.0,43.0,-204.0,508.0
19:34:32.152000,185.0,225.0,-74.0,491.0,1001.0,-3.0,43.0,-204.0,508.0
19:34:32.158000,136.0,213.0,-17.0,527.0,907.0,-17.0,37.0,-202.0,490.0
19:34:32.162000,116.0,196.0,46.0,527.0,907.0,-17.0,37.0,-202.0,490.0
19:34:32.167000,121.0,192.0,37.0,521.0,899.0,-55.0,33.0,-198.0,483.0
19:34:32.172000,98.0,182.0,25.0,506.0,938.0,-79.0,33.0,-198.0,483.0
19:34:32.176000,60.0,162.0,72.0,498.0,954.0,-61.0,33.0,-198.0,483.0
19:34:32.181000,42.0,155.0,128.0,486.0,929.0,-64.0,42.0,-196.0,483.0
19:34:32.186000,19.0,131.0,150.0,476.0,914.0,-70.0,42.0,-196.0,483.0
19:34:32.190000,5.0,110.0,129.0,455.0,895.0,-67.0,33.0,-193.0,486.0
19:34:32.195000,-2.0,85.0,139.0,456.0,862.0,-73.0,33.0,-193.0,486.0
19:34:32.199000,-2.0,85.0,139.0,468.0,846.0,-68.0,33.0,-193.0,486.0
19:34:32.205000,-15.0,35.0,134.0,427.0,876.0,-61.0,34.0,-198.0,489.0
19:34:32.209000,-15.0,35.0,134.0,374.0,918.0,-52.0,34.0,-198.0,489.0
19:34:32.214000,-31.0,10.0,84.0,377.0,897.0,-44.0,27.0,-193.0,493.0
19:34:32.219000,-56.0,-11.0,84.0,409.0,837.0,-45.0,27.0,-193.0,493.0
19:34:32.223000,-66.0,-35.0,114.0,427.0,812.0,-56.0,27.0,-193.0,493.0
19:34:32.228000,-81.0,-53.0,139.0,424.0,834.0,-69.0,28.0,-195.0,498.0
19:34:32.233000,-104.0,-67.0,147.0,405.0,855.0,-89.0,28.0,-195.0,498.0
19:34:32.237000,-136.0,-68.0,151.0,384.0,849.0,-122.0,31.0,-192.0,487.0
19:34:32.242000,-160.0,-64.0,163.0,341.0,839.0,-148.0,31.0,-192.0,487.0
19:34:32.246000,-182.0,-64.0,172.0,289.0,834.0,-170.0,31.0,-192.0,487.0
19:34:32.252000,-189.0,-63.0,176.0,265.0,825.0,-191.0,37.0,-195.0,498.0
19:34:32.256000,-188.0,-57.0,175.0,256.0,813.0,-211.0,37.0,-195.0,498.0
19:34:32.261000,-182.0,-47.0,156.0,256.0,813.0,-211.0,36.0,-192.0,493.0
19:34:32.266000,-173.0,-40.0,142.0,221.0,808.0,-229.0,36.0,-192.0,493.0
19:34:32.270000,-175.0,-43.0,161.0,221.0,808.0,-229.0,36.0,-192.0,493.0
19:34:32.275000,-163.0,-30.0,163.0,208.0,802.0,-247.0,39.0,-192.0,501.0
19:34:32.280000,-163.0,-28.0,124.0,210.0,824.0,-254.0,39.0,-192.0,501.0
19:34:32.284000,-172.0,-24.0,126.0,252.0,833.0,-243.0,42.0,-187.0,496.0
19:34:32.289000,-185.0,-30.0,173.0,327.0,783.0,-236.0,42.0,-187.0,496.0
19:34:32.293000,-191.0,-32.0,184.0,377.0,783.0,-236.0,42.0,-187.0,496.0
19:34:32.299000,-198.0,-21.0,139.0,399.0,789.0,-242.0,27.0,-193.0,513.0
19:34:32.303000,-227.0,-14.0,103.0,438.0,802.0,-240.0,27.0,-193.0,513.0
19:34:32.308000,-262.0,-9.0,119.0,492.0,794.0,-221.0,31.0,-193.0,507.0
19:34:32.313000,-285.0,-2.0,175.0,524.0,763.0,-208.0,31.0,-193.0,507.0
19:34:32.317000,-285.0,-2.0,175.0,518.0,722.0,-209.0,31.0,-193.0,507.0
19:34:32.322000,-294.0,5.0,197.0,488.0,703.0,-207.0,36.0,-187.0,502.0
19:34:32.327000,-295.0,14.0,135.0,479.0,709.0,-197.0,36.0,-187.0,502.0
19:34:32.331000,-298.0,16.0,48.0,505.0,692.0,-176.0,40.0,-199.0,498.0
19:34:32.335000,-290.0,14.0,14.0,538.0,652.0,-176.0,40.0,-199.0,498.0
19:34:32.340000,-267.0,16.0,45.0,530.0,628.0,-174.0,40.0,-199.0,498.0
19:34:32.346000,-261.0,12.0,76.0,490.0,638.0,-167.0,42.0,-205.0,505.0
19:34:32.350000,-240.0,18.0,70.0,463.0,670.0,-162.0,42.0,-205.0,505.0
19:34:32.355000,-229.0,15.0,56.0,444.0,705.0,-143.0,45.0,-195.0,501.0
19:34:32.360000,-226.0,12.0,47.0,422.0,743.0,-123.0,45.0,-195.0,501.0
19:34:32.364000,-224.0,0.0,38.0,413.0,757.0,-90.0,45.0,-195.0,501.0
19:34:32.369000,-224.0,-19.0,39.0,445.0,708.0,-65.0,43.0,-205.0,508.0
19:34:32.374000,-212.0,-44.0,72.0,506.0,622.0,-46.0,43.0,-205.0,508.0
19:34:32.378000,-200.0,-70.0,126.0,506.0,622.0,-46.0,33.0,-190.0,508.0
19:34:32.383000,-186.0,-93.0,179.0,584.0,529.0,-10.0,33.0,-190.0,508.0
19:34:32.387000,-177.0,-112.0,221.0,584.0,529.0,-10.0,33.0,-190.0,508.0
19:34:32.393000,-159.0,-127.0,252.0,586.0,526.0,-5.0,36.0,-199.0,519.0
19:34:32.397000,-144.0,-143.0,282.0,571.0,544.0,-5.0,36.0,-199.0,519.0
19:34:32.402000,-135.0,-158.0,318.0,540.0,575.0,-8.0,42.0,-204.0,511.0
19:34:32.407000,-132.0,-174.0,340.0,501.0,616.0,-14.0,42.0,-204.0,511.0
19:34:32.411000,-137.0,-180.0,336.0,465.0,653.0,-30.0,42.0,-204.0,511.0
19:34:32.416000,-144.0,-185.0,329.0,441.0,692.0,-49.0,51.0,-202.0,507.0
19:34:32.421000,-158.0,-185.0,330.0,423.0,732.0,-72.0,51.0,-202.0,507.0
19:34:32.425000,-167.0,-185.0,315.0,405.0,775.0,-101.0,55.0,-204.0,522.0
19:34:32.430000,-167.0,-186.0,315.0,391.0,832.0,-131.0,55.0,-204.0,522.0
19:34:32.434000,-179.0,-182.0,296.0,378.0,912.0,-160.0,55.0,-204.0,522.0
19:34:32.440000,-198.0,-178.0,279.0,343.0,994.0,-179.0,30.0,-204.0,522.0
19:34:32.444000,-227.0,-173.0,242.0,306.0,1042.0,-182.0,30.0,-204.0,522.0
19:34:32.449000,-260.0,-176.0,201.0,289.0,1057.0,-190.0,42.0,-198.0,519.0
19:34:32.454000,-294.0,-176.0,187.0,291.0,1020.0,-207.0,42.0,-198.0,519.0
19:34:32.458000,-319.0,-172.0,191.0,308.0,949.0,-215.0,42.0,-198.0,519.0
19:34:32.463000,-327.0,-167.0,200.0,341.0,885.0,-228.0,51.0,-190.0,522.0
19:34:32.468000,-320.0,-158.0,208.0,373.0,857.0,-245.0,51.0,-190.0,522.0
19:34:32.472000,-299.0,-151.0,201.0,378.0,887.0,-257.0,48.0,-202.0,528.0
19:34:32.482000,-262.0,-136.0,107.0,355.0,956.0,-264.0,55.0,-213.0,529.0
19:34:32.486000,-249.0,-131.0,73.0,304.0,1053.0,-278.0,55.0,-213.0,529.0
19:34:32.491000,-238.0,-133.0,46.0,304.0,1053.0,-278.0,55.0,-213.0,529.0
19:34:32.496000,-217.0,-137.0,5.0,285.0,1054.0,-283.0,48.0,-202.0,526.0
19:34:32.501000,-182.0,-142.0,-58.0,281.0,1036.0,-287.0,48.0,-202.0,526.0
19:34:32.505000,-142.0,-149.0,-106.0,312.0,1015.0,-291.0,66.0,-208.0,525.0
19:34:32.510000,-118.0,-156.0,-100.0,371.0,1002.0,-287.0,66.0,-208.0,525.0
19:34:32.514000,-102.0,-161.0,-68.0,413.0,1015.0,-276.0,66.0,-208.0,525.0
19:34:32.519000,-102.0,-156.0,-60.0,409.0,1057.0,-263.0,55.0,-211.0,529.0
19:34:32.524000,-116.0,-142.0,-74.0,392.0,1104.0,-248.0,55.0,-211.0,529.0
19:34:32.529000,-130.0,-128.0,-84.0,384.0,1145.0,-243.0,43.0,-214.0,544.0
19:34:32.533000,-159.0,-116.0,-80.0,359.0,1175.0,-223.0,43.0,-214.0,544.0
19:34:32.538000,-159.0,-116.0,-80.0,318.0,1179.0,-207.0,43.0,-214.0,544.0
19:34:32.543000,-186.0,-91.0,-75.0,282.0,1167.0,-207.0,48.0,-214.0,534.0
19:34:32.548000,-218.0,-68.0,-68.0,254.0,1145.0,-203.0,48.0,-214.0,534.0
19:34:32.552000,-239.0,-42.0,-35.0,234.0,1108.0,-203.0,58.0,-211.0,534.0
19:34:32.557000,-261.0,-10.0,21.0,225.0,1076.0,-203.0,58.0,-211.0,534.0
19:34:32.561000,-289.0,21.0,66.0,233.0,1056.0,-204.0,58.0,-211.0,534.0
19:34:32.566000,-305.0,44.0,106.0,251.0,1021.0,-206.0,51.0,-214.0,534.0
19:34:32.571000,-305.0,65.0,121.0,301.0,953.0,-216.0,51.0,-214.0,534.0
19:34:32.576000,-305.0,88.0,106.0,376.0,873.0,-223.0,48.0,-223.0,541.0
19:34:32.580000,-288.0,97.0,81.0,424.0,837.0,-221.0,48.0,-223.0,541.0
19:34:32.585000,-261.0,96.0,46.0,452.0,838.0,-221.0,48.0,-223.0,541.0
19:34:32.590000,-233.0,95.0,9.0,478.0,862.0,-215.0,61.0,-217.0,535.0
19:34:32.595000,-206.0,85.0,-23.0,492.0,887.0,-210.0,61.0,-217.0,535.0
19:34:32.599000,-189.0,77.0,-60.0,492.0,887.0,-210.0,51.0,-217.0,535.0
19:34:32.604000,-178.0,74.0,-94.0,482.0,905.0,-206.0,51.0,-217.0,535.0
19:34:32.608000,-176.0,82.0,-123.0,467.0,914.0,-205.0,51.0,-217.0,535.0
19:34:32.613000,-181.0,66.0,-168.0,451.0,940.0,-183.0,49.0,-219.0,538.0
19:34:32.618000,-190.0,72.0,-201.0,437.0,932.0,-181.0,49.0,-219.0,538.0
19:34:32.623000,-204.0,72.0,-221.0,419.0,932.0,-181.0,49.0,-225.0,547.0
19:34:32.627000,-205.0,84.0,-245.0,416.0,910.0,-172.0,49.0,-225.0,547.0
19:34:32.632000,-205.0,84.0,-245.0,451.0,885.0,-171.0,49.0,-225.0,547.0
19:34:32.637000,-215.0,80.0,-277.0,488.0,836.0,-170.0,54.0,-229.0,546.0
19:34:32.642000,-199.0,74.0,-272.0,515.0,779.0,-183.0,54.0,-229.0,546.0
19:34:32.646000,-199.0,74.0,-272.0,534.0,731.0,-183.0,31.0,-231.0,547.0
19:34:32.651000,-195.0,67.0,-254.0,549.0,717.0,-191.0,31.0,-231.0,547.0
19:34:32.655000,-178.0,67.0,-267.0,567.0,734.0,-205.0,31.0,-231.0,547.0
19:34:32.660000,-177.0,62.0,-279.0,587.0,748.0,-207.0,46.0,-229.0,535.0
19:34:32.665000,-163.0,42.0,-254.0,588.0,751.0,-215.0,46.0,-229.0,535.0
19:34:32.670000,-142.0,18.0,-272.0,571.0,742.0,-227.0,42.0,-226.0,540.0
19:34:32.674000,-120.0,-1.0,-292.0,569.0,734.0,-233.0,42.0,-226.0,540.0
19:34:32.679000,-76.0,-16.0,-303.0,580.0,728.0,-222.0,42.0,-226.0,540.0
19:34:32.684000,-56.0,-31.0,-328.0,590.0,742.0,-222.0,37.0,-234.0,538.0
19:34:32.689000,-46.0,-28.0,-350.0,595.0,763.0,-230.0,37.0,-234.0,538.0
19:34:32.693000,-37.0,-31.0,-343.0,595.0,768.0,-221.0,46.0,-234.0,549.0
19:34:32.698000,-21.0,-46.0,-314.0,566.0,803.0,-223.0,46.0,-234.0,549.0
19:34:32.702000,9.0,-56.0,-287.0,525.0,825.0,-229.0,46.0,-234.0,549.0
19:34:32.707000,10.0,-45.0,-297.0,525.0,825.0,-229.0,37.0,-244.0,549.0
19:34:32.711000,4.0,-23.0,-301.0,456.0,860.0,-230.0,37.0,-244.0,549.0
19:34:32.717000,2.0,-6.0,-283.0,456.0,860.0,-230.0,28.0,-247.0,558.0
19:34:32.721000,-9.0,9.0,-253.0,426.0,882.0,-229.0,28.0,-247.0,558.0
19:34:32.726000,-25.0,18.0,-226.0,401.0,883.0,-228.0,28.0,-247.0,558.0
19:34:32.731000,-45.0,25.0,-186.0,380.0,875.0,-230.0,31.0,-243.0,549.0
19:34:32.736000,-74.0,29.0,-150.0,368.0,871.0,-231.0,31.0,-243.0,549.0
19:34:32.740000,-105.0,30.0,-140.0,373.0,883.0,-231.0,31.0,-241.0,546.0
19:34:32.745000,-133.0,32.0,-123.0,408.0,864.0,-241.0,31.0,-241.0,546.0
19:34:32.749000,-133.0,32.0,-123.0,457.0,810.0,-262.0,31.0,-241.0,546.0
19:34:32.754000,-151.0,30.0,-56.0,472.0,775.0,-270.0,39.0,-246.0,543.0
19:34:32.759000,-156.0,23.0,2.0,452.0,789.0,-283.0,39.0,-246.0,543.0
19:34:32.764000,-155.0,14.0,-7.0,439.0,838.0,-305.0,25.0,-244.0,538.0
19:34:32.768000,-155.0,7.0,-55.0,454.0,859.0,-321.0,25.0,-244.0,538.0
19:34:32.773000,-162.0,9.0,-108.0,474.0,845.0,-336.0,25.0,-244.0,538.0
19:34:32.778000,-156.0,3.0,-132.0,478.0,811.0,-345.0,43.0,-249.0,534.0
19:34:32.783000,-133.0,-6.0,-149.0,472.0,762.0,-356.0,43.0,-249.0,534.0
19:34:32.787000,-105.0,-7.0,-175.0,460.0,731.0,-369.0,34.0,-253.0,550.0
19:34:32.792000,-72.0,2.0,-203.0,453.0,734.0,-378.0,34.0,-253.0,550.0
19:34:32.796000,-25.0,10.0,-224.0,444.0,771.0,-372.0,34.0,-253.0,550.0
19:34:32.801000,16.0,10.0,-272.0,408.0,839.0,-381.0,37.0,-250.0,540.0
19:34:32.806000,55.0,16.0,-350.0,363.0,900.0,-389.0,37.0,-250.0,540.0
19:34:32.811000,92.0,24.0,-403.0,363.0,900.0,-389.0,34.0,-256.0,553.0
19:34:32.815000,134.0,16.0,-462.0,318.0,905.0,-365.0,34.0,-256.0,553.0
19:34:32.820000,160.0,33.0,-512.0,318.0,905.0,-365.0,34.0,-256.0,553.0
19:34:32.825000,181.0,51.0,-513.0,319.0,916.0,-379.0,45.0,-258.0,546.0
19:34:32.830000,188.0,72.0,-519.0,289.0,934.0,-377.0,45.0,-258.0,546.0
19:34:32.834000,196.0,94.0,-543.0,267.0,956.0,-377.0,31.0,-247.0,537.0
19:34:32.839000,197.0,109.0,-553.0,293.0,965.0,-372.0,31.0,-247.0,537.0
19:34:32.843000,188.0,119.0,-530.0,362.0,936.0,-363.0,31.0,-247.0,537.0
19:34:32.848000,191.0,126.0,-490.0,424.0,896.0,-356.0,27.0,-249.0,547.0
19:34:32.853000,204.0,123.0,-450.0,441.0,875.0,-360.0,27.0,-249.0,547.0
19:34:32.858000,214.0,114.0,-459.0,438.0,886.0,-341.0,19.0,-259.0,556.0
19:34:32.862000,213.0,110.0,-452.0,463.0,885.0,-320.0,19.0,-259.0,556.0
19:34:32.867000,213.0,110.0,-452.0,511.0,855.0,-317.0,19.0,-259.0,556.0
19:34:32.872000,207.0,102.0,-394.0,534.0,849.0,-309.0,27.0,-256.0,546.0
19:34:32.877000,196.0,93.0,-333.0,530.0,868.0,-305.0,27.0,-256.0,546.0
19:34:32.881000,189.0,81.0,-293.0,523.0,877.0,-298.0,22.0,-255.0,546.0
19:34:32.886000,177.0,67.0,-270.0,520.0,871.0,-289.0,22.0,-255.0,546.0
19:34:32.890000,168.0,53.0,-260.0,525.0,856.0,-281.0,22.0,-255.0,546.0
19:34:32.895000,151.0,38.0,-253.0,546.0,830.0,-277.0,18.0,-258.0,540.0
19:34:32.900000,139.0,23.0,-235.0,579.0,799.0,-275.0,18.0,-258.0,540.0
19:34:32.905000,126.0,6.0,-195.0,594.0,788.0,-274.0,16.0,-258.0,534.0
19:34:32.909000,111.0,-11.0,-157.0,583.0,797.0,-277.0,16.0,-258.0,534.0
19:34:32.914000,92.0,-28.0,-136.0,566.0,805.0,-277.0,16.0,-258.0,534.0
19:34:32.919000,70.0,-45.0,-120.0,561.0,799.0,-272.0,13.0,-259.0,538.0
19:34:32.924000,44.0,-64.0,-86.0,566.0,772.0,-264.0,13.0,-259.0,538.0
19:34:32.928000,20.0,-87.0,-37.0,566.0,772.0,-264.0,19.0,-265.0,544.0
19:34:32.933000,4.0,-111.0,11.0,576.0,732.0,-258.0,19.0,-265.0,544.0
19:34:32.937000,-4.0,-136.0,55.0,595.0,686.0,-254.0,19.0,-265.0,544.0
19:34:32.942000,-9.0,-161.0,91.0,622.0,645.0,-250.0,15.0,-258.0,543.0
19:34:32.947000,-3.0,-186.0,119.0,646.0,621.0,-248.0,15.0,-258.0,543.0
19:34:32.952000,0.0,-208.0,147.0,665.0,606.0,-244.0,12.0,-261.0,546.0
19:34:32.956000,2.0,-230.0,175.0,668.0,603.0,-239.0,12.0,-261.0,546.0
19:34:32.961000,2.0,-230.0,175.0,646.0,617.0,-236.0,12.0,-261.0,546.0
19:34:32.966000,5.0,-261.0,177.0,617.0,640.0,-234.0,22.0,-253.0,540.0
19:34:32.971000,3.0,-273.0,162.0,598.0,667.0,-228.0,22.0,-253.0,540.0
19:34:32.975000,3.0,-273.0,162.0,584.0,695.0,-223.0,27.0,-262.0,540.0
19:34:32.980000,-2.0,-282.0,143.0,561.0,721.0,-220.0,27.0,-262.0,540.0
19:34:32.984000,-4.0,-289.0,112.0,539.0,731.0,-217.0,27.0,-262.0,540.0
19:34:32.989000,-9.0,-292.0,74.0,532.0,720.0,-220.0,24.0,-256.0,544.0
19:34:32.994000,2.0,-298.0,49.0,531.0,707.0,-225.0,24.0,-256.0,544.0
19:34:32.999000,16.0,-305.0,38.0,522.0,716.0,-226.0,24.0,-258.0,558.0
19:34:33.003000,29.0,-311.0,34.0,506.0,753.0,-228.0,24.0,-258.0,558.0
19:34:33.008000,30.0,-315.0,19.0,492.0,799.0,-228.0,24.0,-258.0,558.0
19:34:33.013000,28.0,-319.0,-8.0,498.0,828.0,-224.0,37.0,-256.0,549.0
19:34:33.018000,12.0,-333.0,-14.0,523.0,819.0,-220.0,37.0,-256.0,549.0
19:34:33.022000,-2.0,-350.0,7.0,523.0,810.0,-220.0,28.0,-250.0,553.0
19:34:33.027000,-7.0,-364.0,21.0,523.0,829.0,-235.0,28.0,-250.0,553.0
19:34:33.031000,-14.0,-378.0,7.0,526.0,840.0,-240.0,28.0,-250.0,553.0
19:34:33.036000,-23.0,-392.0,11.0,526.0,840.0,-240.0,43.0,-258.0,549.0
19:34:33.041000,-33.0,-403.0,48.0,549.0,827.0,-246.0,43.0,-258.0,549.0
19:34:33.045000,-42.0,-416.0,84.0,550.0,822.0,-264.0,37.0,-250.0,571.0
19:34:33.050000,-39.0,-426.0,94.0,550.0,822.0,-264.0,37.0,-250.0,571.0
19:34:33.055000,-18.0,-453.0,99.0,531.0,843.0,-259.0,37.0,-250.0,571.0
19:34:33.060000,-62.0,-428.0,86.0,529.0,837.0,-297.0,46.0,-258.0,547.0
19:34:33.065000,-41.0,-456.0,72.0,532.0,851.0,-321.0,46.0,-258.0,547.0
19:34:33.069000,-19.0,-451.0,74.0,519.0,897.0,-308.0,51.0,-255.0,556.0
19:34:33.074000,-86.0,-452.0,82.0,542.0,896.0,-324.0,51.0,-255.0,556.0
19:34:33.078000,-86.0,-452.0,82.0,532.0,927.0,-354.0,51.0,-255.0,556.0
19:34:33.083000,-52.0,-452.0,56.0,469.0,981.0,-369.0,55.0,-262.0,558.0
19:34:33.088000,-57.0,-443.0,2.0,447.0,996.0,-370.0,55.0,-262.0,558.0
19:34:33.092000,-44.0,-438.0,-21.0,437.0,1014.0,-387.0,48.0,-253.0,559.0
19:34:33.097000,-26.0,-436.0,-18.0,406.0,1030.0,-390.0,48.0,-253.0,559.0
19:34:33.102000,-25.0,-431.0,-25.0,375.0,1058.0,-396.0,48.0,-253.0,559.0
19:34:33.106000,-4.0,-423.0,-51.0,369.0,1089.0,-397.0,43.0,-259.0,556.0
19:34:33.112000,8.0,-415.0,-70.0,386.0,1107.0,-381.0,43.0,-259.0,556.0
19:34:33.116000,14.0,-408.0,-79.0,385.0,1135.0,-382.0,60.0,-259.0,570.0
19:34:33.121000,36.0,-395.0,-91.0,361.0,1176.0,-387.0,60.0,-259.0,570.0
19:34:33.125000,28.0,-373.0,-97.0,340.0,1196.0,-360.0,60.0,-259.0,570.0
19:34:33.130000,18.0,-358.0,-90.0,312.0,1196.0,-349.0,61.0,-247.0,561.0
19:34:33.134000,28.0,-329.0,-79.0,300.0,1182.0,-336.0,61.0,-247.0,561.0
19:34:33.140000,26.0,-306.0,-46.0,305.0,1175.0,-326.0,57.0,-252.0,576.0
19:34:33.144000,51.0,-285.0,-14.0,305.0,1158.0,-306.0,57.0,-252.0,576.0
19:34:33.149000,48.0,-260.0,14.0,318.0,1158.0,-306.0,66.0,-253.0,571.0
19:34:33.154000,56.0,-242.0,39.0,345.0,1118.0,-269.0,66.0,-253.0,571.0
19:34:33.158000,85.0,-226.0,69.0,370.0,1092.0,-265.0,66.0,-253.0,571.0
19:34:33.163000,88.0,-218.0,102.0,395.0,1073.0,-247.0,70.0,-250.0,567.0
19:34:33.168000,88.0,-208.0,126.0,428.0,1070.0,-213.0,70.0,-250.0,567.0
19:34:33.173000,60.0,-177.0,125.0,479.0,1074.0,-191.0,69.0,-252.0,570.0
19:34:33.177000,45.0,-146.0,125.0,537.0,1067.0,-178.0,69.0,-252.0,570.0
19:34:33.181000,45.0,-146.0,125.0,602.0,1046.0,-165.0,69.0,-252.0,570.0
19:34:33.187000,-56.0,-45.0,198.0,698.0,1022.0,-161.0,81.0,-246.0,567.0
19:34:33.191000,-189.0,18.0,289.0,878.0,915.0,-121.0,81.0,-246.0,567.0
19:34:33.196000,-189.0,18.0,289.0,908.0,899.0,-121.0,70.0,-247.0,570.0
19:34:33.201000,-76.0,84.0,312.0,808.0,928.0,-222.0,70.0,-247.0,570.0
19:34:33.205000,-23.0,168.0,624.0,703.0,565.0,-245.0,70.0,-247.0,570.0
19:34:33.210000,-35.0,252.0,1519.0,250.0,349.0,-194.0,79.0,-249.0,570.0
19:34:33.215000,35.0,246.0,1984.0,-340.0,628.0,-171.0,79.0,-249.0,570.0
19:34:33.220000,58.0,229.0,1532.0,-618.0,1565.0,-105.0,78.0,-241.0,573.0
19:34:33.224000,-135.0,279.0,-495.0,-51.0,2179.0,-150.0,78.0,-241.0,573.0
19:34:33.232000,-394.0,233.0,-77.0,1111.0,243.0,-88.0,76.0,-258.0,570.0
19:34:33.234000,-394.0,233.0,-77.0,1111.0,243.0,-88.0,76.0,-258.0,570.0
19:34:33.238000,-380.0,219.0,844.0,377.0,297.0,-260.0,76.0,-258.0,570.0
19:34:33.243000,-249.0,260.0,598.0,6.0,604.0,-284.0,67.0,-246.0,565.0
19:34:33.248000,-188.0,212.0,160.0,169.0,686.0,-230.0,67.0,-246.0,565.0
19:34:33.253000,-211.0,158.0,64.0,169.0,686.0,-230.0,67.0,-244.0,568.0
19:34:33.257000,-224.0,128.0,164.0,454.0,646.0,-255.0,67.0,-244.0,568.0
19:34:33.261000,-217.0,107.0,291.0,585.0,584.0,-297.0,67.0,-244.0,568.0
19:34:33.267000,-199.0,112.0,360.0,574.0,546.0,-325.0,76.0,-241.0,568.0
19:34:33.271000,-158.0,131.0,459.0,618.0,520.0,-366.0,76.0,-241.0,568.0
19:34:33.276000,-153.0,178.0,517.0,663.0,578.0,-403.0,64.0,-244.0,567.0
19:34:33.281000,-155.0,213.0,417.0,687.0,790.0,-401.0,64.0,-244.0,567.0
19:34:33.285000,-127.0,241.0,74.0,716.0,997.0,-404.0,64.0,-244.0,567.0
19:34:33.290000,-142.0,259.0,-238.0,669.0,1019.0,-416.0,75.0,-247.0,576.0
19:34:33.295000,-146.0,261.0,-354.0,605.0,936.0,-404.0,75.0,-247.0,576.0
19:34:33.300000,-153.0,262.0,-368.0,552.0,838.0,-394.0,69.0,-246.0,559.0
19:34:33.304000,-153.0,262.0,-368.0,477.0,727.0,-395.0,69.0,-246.0,559.0
19:34:33.308000,-185.0,276.0,-343.0,366.0,646.0,-402.0,69.0,-246.0,559.0
19:34:33.314000,-201.0,280.0,-319.0,288.0,588.0,-419.0,66.0,-253.0,571.0
19:34:33.318000,-179.0,289.0,-256.0,253.0,548.0,-424.0,66.0,-253.0,571.0
19:34:33.322000,-149.0,295.0,-189.0,211.0,594.0,-425.0,58.0,-253.0,570.0
19:34:33.328000,-81.0,305.0,-167.0,215.0,664.0,-427.0,58.0,-253.0,570.0
19:34:33.332000,-12.0,315.0,-165.0,311.0,657.0,-411.0,58.0,-253.0,570.0
19:34:33.337000,44.0,320.0,-112.0,430.0,638.0,-383.0,57.0,-250.0,567.0
19:34:33.342000,113.0,291.0,-80.0,496.0,655.0,-381.0,57.0,-250.0,567.0
19:34:33.347000,184.0,261.0,-107.0,515.0,700.0,-374.0,54.0,-252.0,562.0
19:34:33.351000,186.0,236.0,-148.0,515.0,781.0,-365.0,54.0,-252.0,562.0
19:34:33.355000,203.0,224.0,-169.0,498.0,851.0,-375.0,54.0,-252.0,562.0
19:34:33.361000,214.0,198.0,-161.0,443.0,908.0,-367.0,51.0,-255.0,561.0
19:34:33.365000,203.0,172.0,-146.0,443.0,908.0,-367.0,51.0,-255.0,561.0
19:34:33.369000,173.0,154.0,-137.0,304.0,1096.0,-359.0,48.0,-261.0,556.0
19:34:33.375000,104.0,139.0,-123.0,304.0,1096.0,-359.0,48.0,-261.0,556.0
19:34:33.379000,46.0,112.0,-116.0,270.0,1128.0,-352.0,48.0,-261.0,556.0
19:34:33.384000,1.0,88.0,-118.0,257.0,1153.0,-356.0,42.0,-265.0,559.0
19:34:33.389000,-58.0,63.0,-113.0,269.0,1150.0,-358.0,42.0,-265.0,559.0
19:34:33.394000,-122.0,42.0,-72.0,309.0,1108.0,-350.0,52.0,-253.0,562.0
19:34:33.398000,-185.0,29.0,-67.0,342.0,1080.0,-345.0,52.0,-253.0,562.0
19:34:33.402000,-185.0,29.0,-67.0,358.0,1081.0,-332.0,52.0,-253.0,562.0
19:34:33.408000,-275.0,11.0,-10.0,392.0,1019.0,-324.0,46.0,-256.0,555.0
19:34:33.412000,-275.0,11.0,-10.0,424.0,926.0,-320.0,46.0,-256.0,555.0
19:34:33.416000,-288.0,7.0,58.0,441.0,842.0,-310.0,39.0,-265.0,559.0
19:34:33.422000,-277.0,2.0,107.0,467.0,735.0,-300.0,39.0,-265.0,559.0
19:34:33.426000,-258.0,3.0,141.0,488.0,643.0,-289.0,39.0,-265.0,559.0
19:34:33.431000,-240.0,9.0,179.0,488.0,592.0,-282.0,51.0,-255.0,558.0
19:34:33.436000,-173.0,7.0,233.0,461.0,556.0,-288.0,51.0,-255.0,558.0
19:34:33.441000,-79.0,10.0,259.0,411.0,565.0,-294.0,49.0,-259.0,558.0
19:34:33.445000,21.0,14.0,210.0,376.0,620.0,-294.0,49.0,-259.0,558.0
19:34:33.449000,113.0,17.0,158.0,360.0,696.0,-287.0,49.0,-259.0,558.0
19:34:33.455000,179.0,15.0,126.0,356.0,786.0,-276.0,42.0,-250.0,564.0
19:34:33.459000,219.0,12.0,82.0,381.0,837.0,-263.0,42.0,-250.0,564.0
19:34:33.464000,235.0,5.0,68.0,416.0,851.0,-248.0,45.0,-261.0,562.0
19:34:33.469000,238.0,-4.0,100.0,435.0,882.0,-236.0,45.0,-261.0,562.0
19:34:33.473000,233.0,-14.0,163.0,435.0,957.0,-212.0,45.0,-261.0,562.0
19:34:33.478000,202.0,-25.0,209.0,421.0,957.0,-212.0,40.0,-258.0,558.0
19:34:33.483000,160.0,-27.0,230.0,399.0,1043.0,-189.0,40.0,-258.0,558.0
19:34:33.488000,120.0,-20.0,219.0,393.0,1106.0,-174.0,49.0,-253.0,553.0
19:34:33.492000,81.0,-2.0,189.0,394.0,1143.0,-154.0,49.0,-253.0,553.0
19:34:33.496000,46.0,21.0,158.0,418.0,1156.0,-137.0,49.0,-253.0,553.0
19:34:33.502000,0.0,41.0,164.0,430.0,1100.0,-118.0,45.0,-246.0,561.0
19:34:33.506000,-25.0,64.0,206.0,411.0,975.0,-111.0,45.0,-246.0,561.0
19:34:33.510000,-25.0,64.0,206.0,417.0,825.0,-116.0,54.0,-244.0,565.0
19:34:33.516000,-31.0,91.0,287.0,382.0,743.0,-116.0,54.0,-244.0,565.0
19:34:33.520000,-31.0,91.0,287.0,317.0,745.0,-127.0,54.0,-244.0,565.0
19:34:33.525000,-23.0,100.0,320.0,296.0,739.0,-149.0,46.0,-253.0,552.0
19:34:33.530000,-23.0,121.0,368.0,303.0,740.0,-168.0,46.0,-253.0,552.0
19:34:33.535000,-16.0,137.0,395.0,342.0,752.0,-183.0,51.0,-247.0,559.0
19:34:33.539000,-7.0,148.0,386.0,408.0,754.0,-196.0,51.0,-247.0,559.0
19:34:33.543000,14.0,161.0,366.0,471.0,768.0,-208.0,51.0,-247.0,559.0
19:34:33.549000,39.0,170.0,342.0,503.0,787.0,-213.0,51.0,-247.0,555.0
19:34:33.553000,58.0,174.0,340.0,511.0,808.0,-216.0,51.0,-247.0,555.0
19:34:33.557000,68.0,178.0,322.0,491.0,860.0,-214.0,57.0,-243.0,549.0
19:34:33.563000,71.0,175.0,256.0,465.0,902.0,-208.0,57.0,-243.0,549.0
19:34:33.567000,73.0,163.0,189.0,467.0,867.0,-202.0,57.0,-243.0,549.0
19:34:33.572000,71.0,143.0,199.0,475.0,772.0,-200.0,37.0,-240.0,567.0
19:34:33.577000,73.0,126.0,247.0,470.0,710.0,-205.0,37.0,-240.0,567.0
19:34:33.582000,88.0,108.0,251.0,470.0,710.0,-205.0,51.0,-247.0,553.0
19:34:33.586000,124.0,94.0,224.0,471.0,709.0,-217.0,51.0,-247.0,553.0
19:34:33.590000,147.0,81.0,195.0,474.0,733.0,-221.0,51.0,-247.0,553.0
19:34:33.596000,156.0,67.0,153.0,463.0,803.0,-214.0,55.0,-244.0,550.0
19:34:33.600000,163.0,60.0,98.0,429.0,889.0,-215.0,55.0,-244.0,550.0
19:34:33.604000,144.0,54.0,60.0,386.0,940.0,-206.0,43.0,-231.0,550.0
19:34:33.610000,129.0,47.0,75.0,384.0,954.0,-186.0,43.0,-231.0,550.0
19:34:33.614000,121.0,40.0,91.0,402.0,903.0,-174.0,43.0,-231.0,550.0
19:34:33.619000,123.0,38.0,64.0,396.0,862.0,-165.0,39.0,-238.0,546.0
19:34:33.624000,133.0,25.0,44.0,407.0,825.0,-151.0,39.0,-238.0,546.0
19:34:33.629000,149.0,14.0,86.0,462.0,733.0,-146.0,40.0,-232.0,541.0
19:34:33.633000,149.0,14.0,86.0,510.0,658.0,-149.0,40.0,-232.0,541.0
19:34:33.637000,173.0,8.0,149.0,498.0,660.0,-146.0,40.0,-232.0,541.0
19:34:33.643000,201.0,1.0,175.0,467.0,712.0,-139.0,37.0,-235.0,547.0
19:34:33.647000,219.0,-2.0,162.0,473.0,789.0,-133.0,37.0,-235.0,547.0
19:34:33.652000,230.0,-1.0,128.0,508.0,837.0,-130.0,45.0,-232.0,544.0
19:34:33.657000,244.0,0.0,98.0,525.0,875.0,-125.0,45.0,-232.0,544.0
19:34:33.661000,237.0,-2.0,72.0,498.0,942.0,-122.0,45.0,-232.0,544.0
19:34:33.666000,227.0,-3.0,27.0,441.0,1001.0,-123.0,24.0,-231.0,547.0
19:34:33.671000,206.0,-2.0,-5.0,401.0,1045.0,-118.0,24.0,-231.0,547.0
19:34:33.676000,184.0,-2.0,-7.0,388.0,1063.0,-119.0,46.0,-231.0,546.0
19:34:33.680000,160.0,8.0,-39.0,405.0,1054.0,-121.0,46.0,-231.0,546.0
19:34:33.684000,135.0,18.0,-79.0,439.0,1009.0,-122.0,46.0,-231.0,546.0
19:34:33.690000,123.0,25.0,-67.0,455.0,977.0,-124.0,46.0,-229.0,553.0
19:34:33.694000,119.0,28.0,-21.0,455.0,977.0,-124.0,46.0,-229.0,553.0
19:34:33.699000,121.0,34.0,-16.0,437.0,1025.0,-130.0,42.0,-223.0,547.0
19:34:33.704000,95.0,39.0,-51.0,388.0,1096.0,-144.0,42.0,-223.0,547.0
19:34:33.708000,90.0,46.0,-72.0,388.0,1096.0,-144.0,42.0,-223.0,547.0
19:34:33.713000,72.0,49.0,-24.0,420.0,1116.0,-155.0,40.0,-223.0,544.0
19:34:33.718000,56.0,53.0,64.0,491.0,1066.0,-160.0,40.0,-223.0,544.0
19:34:33.723000,44.0,74.0,35.0,477.0,1061.0,-172.0,40.0,-226.0,534.0
19:34:33.727000,44.0,82.0,-23.0,380.0,1133.0,-173.0,40.0,-226.0,534.0
19:34:33.731000,44.0,82.0,-23.0,397.0,1149.0,-162.0,40.0,-226.0,534.0
19:34:33.737000,18.0,100.0,236.0,490.0,1055.0,-176.0,34.0,-223.0,540.0
19:34:33.741000,18.0,100.0,236.0,511.0,967.0,-194.0,34.0,-223.0,540.0
19:34:33.746000,18.0,101.0,333.0,503.0,938.0,-195.0,48.0,-222.0,541.0
19:34:33.751000,18.0,113.0,318.0,501.0,963.0,-207.0,48.0,-222.0,541.0
19:34:33.755000,55.0,119.0,233.0,518.0,976.0,-211.0,48.0,-222.0,541.0
19:34:33.760000,80.0,119.0,219.0,570.0,939.0,-207.0,42.0,-219.0,552.0
19:34:33.765000,93.0,116.0,275.0,580.0,918.0,-205.0,42.0,-219.0,552.0
19:34:33.770000,107.0,117.0,291.0,563.0,939.0,-203.0,40.0,-225.0,544.0
19:34:33.774000,126.0,120.0,268.0,552.0,966.0,-194.0,40.0,-225.0,544.0
19:34:33.778000,144.0,118.0,223.0,538.0,990.0,-181.0,40.0,-225.0,544.0
19:34:33.784000,166.0,116.0,171.0,523.0,1016.0,-168.0,34.0,-220.0,544.0
19:34:33.788000,172.0,110.0,153.0,499.0,1061.0,-154.0,34.0,-220.0,544.0
19:34:33.793000,165.0,105.0,124.0,499.0,1061.0,-154.0,46.0,-220.0,535.0
19:34:33.798000,144.0,105.0,70.0,473.0,1172.0,-141.0,46.0,-220.0,535.0
19:34:33.802000,119.0,105.0,39.0,473.0,1172.0,-141.0,46.0,-220.0,535.0
19:34:33.807000,99.0,109.0,46.0,514.0,1166.0,-144.0,34.0,-213.0,546.0
19:34:33.812000,96.0,116.0,48.0,532.0,1141.0,-155.0,34.0,-213.0,546.0
19:34:33.817000,100.0,122.0,33.0,499.0,1108.0,-166.0,40.0,-213.0,537.0
19:34:33.821000,107.0,133.0,2.0,453.0,1077.0,-178.0,40.0,-213.0,537.0
19:34:33.825000,117.0,140.0,-39.0,421.0,1068.0,-189.0,40.0,-213.0,537.0
19:34:33.831000,139.0,139.0,-61.0,424.0,1054.0,-197.0,31.0,-213.0,547.0
19:34:33.835000,166.0,134.0,-74.0,460.0,1021.0,-206.0,31.0,-213.0,547.0
19:34:33.840000,190.0,123.0,-109.0,477.0,999.0,-219.0,42.0,-207.0,538.0
19:34:33.844000,190.0,123.0,-109.0,482.0,1033.0,-217.0,42.0,-207.0,538.0
19:34:33.849000,233.0,95.0,-175.0,542.0,1070.0,-195.0,42.0,-207.0,538.0
19:34:33.854000,257.0,72.0,-233.0,598.0,1035.0,-200.0,42.0,-210.0,534.0
