hh:mm:ss.ms,gyroX[mdps],gyroY[mdps],gyroZ[mdps],accX[mg],accY[mg],accZ[mg],magX[mG],magY[mG],magZ[mG]
19:35:21.692000,-179.0,-507.0,-235.0,518.0,1024.0,-346.0,19.0,-300.0,568.0
19:35:21.697000,-195.0,-480.0,-274.0,495.0,1037.0,-352.0,19.0,-300.0,568.0
19:35:21.702000,-216.0,-455.0,-301.0,485.0,1052.0,-371.0,27.0,-298.0,571.0
19:35:21.707000,-209.0,-424.0,-312.0,478.0,1053.0,-387.0,27.0,-298.0,571.0
19:35:21.711000,-200.0,-406.0,-315.0,472.0,1041.0,-408.0,27.0,-298.0,571.0
19:35:21.716000,-170.0,-381.0,-303.0,473.0,1028.0,-426.0,34.0,-304.0,571.0
19:35:21.721000,-158.0,-356.0,-276.0,492.0,1012.0,-424.0,34.0,-304.0,571.0
19:35:21.725000,-135.0,-338.0,-235.0,508.0,1014.0,-436.0,19.0,-309.0,579.0
19:35:21.730000,-109.0,-324.0,-190.0,518.0,1022.0,-446.0,19.0,-309.0,579.0
19:35:21.734000,-93.0,-311.0,-135.0,534.0,1019.0,-446.0,19.0,-309.0,579.0
19:35:21.739000,-72.0,-308.0,-69.0,550.0,1007.0,-453.0,43.0,-301.0,574.0
19:35:21.744000,-54.0,-302.0,7.0,556.0,983.0,-452.0,43.0,-301.0,574.0
19:35:21.749000,-43.0,-304.0,85.0,556.0,983.0,-452.0,36.0,-304.0,583.0
19:35:21.754000,-31.0,-298.0,153.0,559.0,961.0,-454.0,36.0,-304.0,583.0
19:35:21.758000,-10.0,-301.0,212.0,572.0,942.0,-456.0,36.0,-304.0,583.0
19:35:21.763000,11.0,-291.0,256.0,592.0,926.0,-455.0,45.0,-307.0,583.0
19:35:21.768000,4.0,-291.0,296.0,610.0,916.0,-446.0,45.0,-307.0,583.0
19:35:21.772000,6.0,-286.0,338.0,622.0,905.0,-434.0,39.0,-312.0,571.0
19:35:21.777000,-8.0,-279.0,364.0,621.0,886.0,-427.0,39.0,-312.0,571.0
19:35:21.781000,-8.0,-279.0,364.0,616.0,854.0,-414.0,39.0,-312.0,571.0
19:35:21.786000,-31.0,-254.0,394.0,618.0,824.0,-403.0,48.0,-298.0,592.0
19:35:21.791000,-51.0,-236.0,395.0,626.0,803.0,-390.0,48.0,-298.0,592.0
19:35:21.796000,-51.0,-236.0,395.0,648.0,780.0,-380.0,52.0,-304.0,580.0
19:35:21.801000,-74.0,-219.0,389.0,679.0,750.0,-376.0,52.0,-304.0,580.0
19:35:21.805000,-89.0,-200.0,384.0,702.0,719.0,-369.0,52.0,-304.0,580.0
19:35:21.810000,-105.0,-185.0,378.0,713.0,694.0,-359.0,63.0,-291.0,585.0
19:35:21.814000,-119.0,-170.0,367.0,726.0,687.0,-359.0,63.0,-291.0,585.0
19:35:21.819000,-117.0,-154.0,333.0,754.0,669.0,-343.0,51.0,-298.0,588.0
19:35:21.824000,-135.0,-144.0,282.0,800.0,637.0,-326.0,51.0,-298.0,588.0
19:35:21.828000,-142.0,-137.0,241.0,850.0,600.0,-325.0,51.0,-298.0,588.0
19:35:21.833000,-143.0,-128.0,213.0,884.0,549.0,-318.0,57.0,-297.0,577.0
19:35:21.838000,-140.0,-119.0,189.0,907.0,499.0,-323.0,57.0,-297.0,577.0
19:35:21.843000,-119.0,-100.0,175.0,907.0,475.0,-323.0,54.0,-298.0,585.0
19:35:21.848000,-70.0,-81.0,177.0,868.0,504.0,-345.0,54.0,-298.0,585.0
19:35:21.852000,-35.0,-56.0,167.0,735.0,577.0,-343.0,54.0,-298.0,585.0
19:35:21.857000,-51.0,-46.0,133.0,543.0,604.0,-319.0,55.0,-298.0,583.0
19:35:21.862000,-77.0,-78.0,140.0,543.0,604.0,-319.0,55.0,-298.0,583.0
19:35:21.866000,-29.0,-115.0,191.0,362.0,591.0,-326.0,58.0,-301.0,583.0
19:35:21.871000,7.0,-145.0,252.0,230.0,595.0,-351.0,58.0,-301.0,583.0
19:35:21.875000,38.0,-154.0,158.0,186.0,625.0,-372.0,58.0,-301.0,583.0
19:35:21.880000,70.0,-151.0,55.0,240.0,677.0,-402.0,61.0,-294.0,586.0
19:35:21.885000,98.0,-151.0,71.0,363.0,664.0,-404.0,61.0,-294.0,586.0
19:35:21.890000,140.0,-143.0,104.0,453.0,602.0,-409.0,67.0,-286.0,589.0
19:35:21.895000,160.0,-143.0,38.0,475.0,595.0,-408.0,67.0,-286.0,589.0
19:35:21.899000,160.0,-143.0,38.0,562.0,624.0,-396.0,67.0,-286.0,589.0
19:35:21.904000,148.0,-143.0,-24.0,695.0,641.0,-395.0,61.0,-295.0,603.0
19:35:21.909000,142.0,-145.0,-15.0,780.0,642.0,-392.0,61.0,-295.0,603.0
19:35:21.913000,130.0,-144.0,34.0,813.0,666.0,-392.0,61.0,-295.0,603.0
19:35:21.918000,122.0,-141.0,18.0,796.0,735.0,-394.0,61.0,-295.0,603.0
19:35:21.922000,118.0,-135.0,-69.0,753.0,810.0,-385.0,61.0,-295.0,603.0
19:35:21.927000,92.0,-133.0,-178.0,679.0,863.0,-379.0,64.0,-297.0,585.0
19:35:21.932000,67.0,-135.0,-233.0,567.0,850.0,-389.0,64.0,-297.0,585.0
19:35:21.937000,45.0,-133.0,-240.0,459.0,795.0,-405.0,69.0,-297.0,592.0
19:35:21.942000,19.0,-105.0,-226.0,414.0,714.0,-416.0,69.0,-297.0,592.0
19:35:21.946000,18.0,-84.0,-151.0,416.0,631.0,-425.0,69.0,-297.0,592.0
19:35:21.951000,39.0,-50.0,-72.0,387.0,627.0,-421.0,72.0,-292.0,582.0
19:35:21.956000,44.0,-23.0,-49.0,348.0,662.0,-406.0,72.0,-292.0,582.0
19:35:21.960000,53.0,2.0,-61.0,348.0,662.0,-406.0,58.0,-301.0,586.0
19:35:21.965000,77.0,21.0,-49.0,359.0,610.0,-373.0,58.0,-301.0,586.0
19:35:21.969000,97.0,39.0,7.0,402.0,610.0,-373.0,58.0,-301.0,586.0
19:35:21.974000,147.0,60.0,91.0,421.0,558.0,-365.0,69.0,-289.0,583.0
19:35:21.979000,197.0,77.0,156.0,388.0,533.0,-366.0,69.0,-289.0,583.0
19:35:21.984000,250.0,93.0,186.0,341.0,569.0,-357.0,69.0,-288.0,585.0
19:35:21.989000,302.0,110.0,195.0,312.0,629.0,-358.0,69.0,-288.0,585.0
19:35:21.993000,329.0,121.0,200.0,292.0,704.0,-356.0,69.0,-288.0,585.0
19:35:21.998000,345.0,133.0,203.0,267.0,800.0,-352.0,57.0,-286.0,585.0
19:35:22.012000,302.0,163.0,235.0,164.0,926.0,-352.0,46.0,-274.0,601.0
19:35:22.017000,302.0,163.0,235.0,137.0,913.0,-356.0,63.0,-285.0,588.0
19:35:22.021000,269.0,175.0,216.0,145.0,923.0,-363.0,63.0,-285.0,588.0
19:35:22.026000,240.0,179.0,169.0,200.0,946.0,-365.0,63.0,-285.0,588.0
19:35:22.031000,210.0,177.0,126.0,273.0,959.0,-360.0,66.0,-277.0,573.0
19:35:22.036000,168.0,174.0,104.0,332.0,967.0,-360.0,66.0,-277.0,573.0
19:35:22.040000,144.0,171.0,87.0,373.0,926.0,-363.0,57.0,-283.0,577.0
19:35:22.045000,130.0,168.0,81.0,399.0,829.0,-370.0,57.0,-283.0,577.0
19:35:22.049000,143.0,174.0,88.0,410.0,750.0,-378.0,57.0,-283.0,577.0
19:35:22.054000,170.0,182.0,77.0,421.0,721.0,-369.0,61.0,-276.0,574.0
19:35:22.058000,181.0,184.0,67.0,443.0,738.0,-351.0,61.0,-276.0,574.0
19:35:22.064000,164.0,180.0,70.0,443.0,738.0,-351.0,55.0,-273.0,574.0
19:35:22.068000,154.0,175.0,58.0,433.0,804.0,-354.0,55.0,-273.0,574.0
19:35:22.072000,184.0,169.0,27.0,416.0,792.0,-368.0,55.0,-273.0,574.0
19:35:22.078000,255.0,161.0,0.0,416.0,792.0,-368.0,61.0,-271.0,582.0
19:35:22.083000,342.0,151.0,-28.0,404.0,760.0,-375.0,61.0,-271.0,582.0
19:35:22.087000,408.0,136.0,-35.0,405.0,725.0,-368.0,61.0,-258.0,574.0
19:35:22.092000,449.0,113.0,-14.0,414.0,700.0,-352.0,61.0,-258.0,574.0
19:35:22.096000,475.0,85.0,-2.0,416.0,735.0,-338.0,61.0,-258.0,574.0
19:35:22.101000,470.0,58.0,-18.0,412.0,835.0,-321.0,57.0,-265.0,573.0
19:35:22.106000,443.0,35.0,-32.0,428.0,921.0,-304.0,57.0,-265.0,573.0
19:35:22.111000,408.0,12.0,-12.0,478.0,936.0,-291.0,52.0,-264.0,583.0
19:35:22.115000,368.0,-2.0,17.0,523.0,919.0,-279.0,52.0,-264.0,583.0
19:35:22.119000,368.0,-2.0,17.0,525.0,938.0,-264.0,52.0,-264.0,583.0
19:35:22.125000,321.0,-13.0,28.0,489.0,984.0,-247.0,63.0,-259.0,565.0
19:35:22.130000,268.0,-18.0,21.0,439.0,1008.0,-236.0,63.0,-259.0,565.0
19:35:22.134000,218.0,-20.0,10.0,397.0,992.0,-232.0,51.0,-252.0,562.0
19:35:22.139000,175.0,-18.0,4.0,377.0,934.0,-236.0,51.0,-252.0,562.0
19:35:22.146000,137.0,0.0,0.0,394.0,798.0,-243.0,46.0,-255.0,567.0
19:35:22.148000,137.0,0.0,0.0,394.0,798.0,-243.0,46.0,-255.0,567.0
19:35:22.152000,141.0,16.0,-25.0,437.0,762.0,-243.0,46.0,-255.0,567.0
19:35:22.158000,142.0,32.0,-61.0,489.0,754.0,-241.0,51.0,-258.0,576.0
19:35:22.162000,149.0,44.0,-94.0,534.0,755.0,-240.0,51.0,-258.0,576.0
19:35:22.167000,145.0,54.0,-115.0,562.0,767.0,-239.0,46.0,-259.0,565.0
19:35:22.172000,146.0,60.0,-123.0,568.0,780.0,-241.0,46.0,-259.0,565.0
19:35:22.176000,142.0,65.0,-128.0,553.0,788.0,-244.0,46.0,-259.0,565.0
19:35:22.181000,140.0,74.0,-140.0,531.0,811.0,-243.0,54.0,-253.0,565.0
19:35:22.186000,133.0,83.0,-151.0,531.0,811.0,-243.0,54.0,-253.0,565.0
19:35:22.191000,126.0,94.0,-157.0,517.0,848.0,-242.0,49.0,-259.0,565.0
19:35:22.195000,111.0,105.0,-149.0,505.0,880.0,-242.0,49.0,-259.0,565.0
19:35:22.199000,93.0,115.0,-145.0,458.0,935.0,-235.0,55.0,-259.0,561.0
19:35:22.205000,78.0,124.0,-147.0,458.0,935.0,-235.0,55.0,-259.0,561.0
19:35:22.209000,63.0,129.0,-134.0,443.0,920.0,-235.0,55.0,-259.0,561.0
19:35:22.214000,55.0,136.0,-121.0,445.0,890.0,-239.0,55.0,-258.0,564.0
19:35:22.219000,55.0,138.0,-101.0,469.0,854.0,-248.0,55.0,-258.0,564.0
19:35:22.223000,56.0,142.0,-89.0,501.0,828.0,-252.0,43.0,-252.0,564.0
19:35:22.228000,56.0,143.0,-80.0,528.0,835.0,-256.0,43.0,-252.0,564.0
19:35:22.232000,56.0,143.0,-80.0,538.0,855.0,-258.0,43.0,-252.0,564.0
19:35:22.238000,53.0,142.0,-73.0,533.0,857.0,-264.0,42.0,-258.0,561.0
19:35:22.242000,53.0,142.0,-69.0,525.0,849.0,-271.0,42.0,-258.0,561.0
19:35:22.247000,56.0,147.0,-65.0,518.0,844.0,-274.0,36.0,-252.0,561.0
19:35:22.252000,55.0,154.0,-53.0,505.0,830.0,-275.0,36.0,-252.0,561.0
19:35:22.256000,49.0,163.0,-22.0,480.0,821.0,-276.0,36.0,-252.0,561.0
19:35:22.261000,44.0,174.0,7.0,454.0,834.0,-277.0,49.0,-258.0,547.0
19:35:22.266000,46.0,189.0,21.0,433.0,862.0,-279.0,49.0,-258.0,547.0
19:35:22.270000,56.0,206.0,6.0,420.0,879.0,-271.0,39.0,-258.0,553.0
19:35:22.275000,60.0,216.0,-15.0,427.0,863.0,-259.0,39.0,-258.0,553.0
19:35:22.279000,67.0,225.0,-27.0,462.0,819.0,-254.0,39.0,-258.0,553.0
19:35:22.285000,76.0,231.0,-38.0,521.0,772.0,-247.0,36.0,-261.0,558.0
19:35:22.289000,85.0,235.0,-47.0,586.0,752.0,-239.0,36.0,-261.0,558.0
19:35:22.294000,86.0,235.0,-48.0,586.0,752.0,-239.0,36.0,-262.0,552.0
19:35:22.299000,82.0,232.0,-53.0,662.0,791.0,-233.0,36.0,-262.0,552.0
19:35:22.303000,79.0,229.0,-81.0,662.0,791.0,-233.0,36.0,-262.0,552.0
19:35:22.308000,72.0,226.0,-128.0,672.0,814.0,-234.0,34.0,-261.0,561.0
19:35:22.313000,58.0,220.0,-171.0,674.0,830.0,-237.0,34.0,-261.0,561.0
19:35:22.317000,45.0,214.0,-205.0,668.0,835.0,-243.0,33.0,-264.0,552.0
19:35:22.322000,37.0,209.0,-245.0,655.0,830.0,-254.0,33.0,-264.0,552.0
19:35:22.326000,30.0,203.0,-291.0,652.0,827.0,-264.0,33.0,-264.0,552.0
19:35:22.332000,21.0,199.0,-320.0,668.0,829.0,-270.0,28.0,-255.0,546.0
19:35:22.336000,20.0,195.0,-347.0,682.0,841.0,-275.0,28.0,-255.0,546.0
19:35:22.341000,20.0,195.0,-347.0,675.0,857.0,-278.0,31.0,-255.0,552.0
19:35:22.346000,18.0,189.0,-378.0,657.0,869.0,-277.0,31.0,-255.0,552.0
19:35:22.350000,14.0,183.0,-406.0,652.0,882.0,-275.0,31.0,-255.0,552.0
19:35:22.355000,11.0,176.0,-418.0,662.0,889.0,-270.0,19.0,-265.0,571.0
19:35:22.360000,7.0,167.0,-411.0,667.0,884.0,-263.0,19.0,-265.0,571.0
19:35:22.364000,6.0,154.0,-387.0,656.0,870.0,-257.0,21.0,-268.0,553.0
19:35:22.369000,9.0,142.0,-354.0,643.0,855.0,-254.0,21.0,-268.0,553.0
19:35:22.373000,19.0,129.0,-314.0,651.0,840.0,-250.0,21.0,-268.0,553.0
19:35:22.379000,29.0,118.0,-270.0,666.0,828.0,-244.0,18.0,-264.0,549.0
19:35:22.383000,37.0,111.0,-233.0,681.0,833.0,-239.0,18.0,-264.0,549.0
19:35:22.388000,34.0,107.0,-197.0,693.0,851.0,-231.0,12.0,-265.0,546.0
19:35:22.393000,23.0,104.0,-154.0,696.0,858.0,-225.0,12.0,-265.0,546.0
19:35:22.397000,4.0,101.0,-109.0,695.0,839.0,-221.0,12.0,-265.0,546.0
19:35:22.402000,-9.0,103.0,-69.0,692.0,795.0,-218.0,19.0,-270.0,547.0
19:35:22.407000,-11.0,111.0,-42.0,692.0,795.0,-218.0,19.0,-270.0,547.0
19:35:22.411000,-2.0,123.0,-30.0,690.0,748.0,-217.0,19.0,-259.0,546.0
19:35:22.416000,8.0,140.0,-26.0,685.0,709.0,-212.0,19.0,-259.0,546.0
19:35:22.420000,21.0,161.0,-22.0,689.0,683.0,-208.0,19.0,-259.0,546.0
19:35:22.426000,34.0,182.0,-26.0,703.0,675.0,-206.0,12.0,-267.0,543.0
19:35:22.430000,46.0,207.0,-33.0,713.0,687.0,-206.0,12.0,-267.0,543.0
19:35:22.435000,47.0,231.0,-53.0,710.0,724.0,-203.0,16.0,-277.0,540.0
19:35:22.440000,38.0,256.0,-94.0,685.0,784.0,-191.0,16.0,-277.0,540.0
19:35:22.444000,38.0,256.0,-94.0,660.0,840.0,-180.0,16.0,-277.0,540.0
19:35:22.449000,0.0,296.0,-186.0,658.0,874.0,-175.0,12.0,-270.0,538.0
19:35:22.454000,0.0,296.0,-186.0,681.0,888.0,-175.0,12.0,-270.0,538.0
19:35:22.458000,-25.0,311.0,-225.0,711.0,895.0,-175.0,13.0,-277.0,534.0
19:35:22.463000,-45.0,319.0,-273.0,734.0,887.0,-174.0,13.0,-277.0,534.0
19:35:22.467000,-59.0,322.0,-327.0,769.0,856.0,-171.0,13.0,-277.0,534.0
19:35:22.473000,-70.0,320.0,-365.0,828.0,817.0,-167.0,0.0,-273.0,534.0
19:35:22.477000,-78.0,312.0,-367.0,888.0,772.0,-164.0,0.0,-273.0,534.0
19:35:22.482000,-79.0,303.0,-347.0,915.0,739.0,-164.0,3.0,-279.0,537.0
19:35:22.487000,-65.0,292.0,-349.0,904.0,721.0,-163.0,3.0,-279.0,537.0
19:35:22.491000,-39.0,281.0,-366.0,901.0,709.0,-160.0,3.0,-279.0,537.0
19:35:22.496000,-10.0,265.0,-360.0,908.0,717.0,-155.0,-3.0,-280.0,550.0
19:35:22.501000,23.0,249.0,-339.0,896.0,739.0,-150.0,-3.0,-280.0,550.0
19:35:22.505000,63.0,232.0,-321.0,896.0,739.0,-150.0,0.0,-279.0,532.0
19:35:22.510000,92.0,214.0,-308.0,866.0,788.0,-130.0,0.0,-279.0,532.0
19:35:22.514000,111.0,195.0,-294.0,866.0,788.0,-130.0,0.0,-279.0,532.0
19:35:22.520000,120.0,176.0,-254.0,856.0,832.0,-116.0,-6.0,-282.0,541.0
19:35:22.524000,136.0,161.0,-207.0,835.0,859.0,-105.0,-6.0,-282.0,541.0
19:35:22.529000,147.0,147.0,-182.0,798.0,879.0,-95.0,-15.0,-285.0,522.0
19:35:22.534000,161.0,143.0,-166.0,776.0,899.0,-77.0,-15.0,-285.0,522.0
19:35:22.538000,168.0,174.0,-145.0,777.0,901.0,-97.0,-15.0,-285.0,522.0
19:35:22.543000,182.0,154.0,-85.0,772.0,838.0,-89.0,-13.0,-279.0,537.0
19:35:22.548000,193.0,151.0,-78.0,749.0,821.0,-60.0,-13.0,-279.0,537.0
19:35:22.552000,186.0,166.0,-76.0,750.0,848.0,-77.0,-6.0,-277.0,529.0
19:35:22.557000,185.0,193.0,-23.0,756.0,845.0,-91.0,-6.0,-277.0,529.0
19:35:22.561000,185.0,193.0,-23.0,721.0,810.0,-90.0,-6.0,-277.0,529.0
19:35:22.567000,182.0,203.0,21.0,676.0,728.0,-97.0,-13.0,-273.0,534.0
19:35:22.571000,191.0,230.0,53.0,642.0,714.0,-116.0,-13.0,-273.0,534.0
19:35:22.576000,213.0,253.0,55.0,631.0,736.0,-121.0,-18.0,-277.0,529.0
19:35:22.580000,243.0,270.0,45.0,649.0,729.0,-128.0,-18.0,-277.0,529.0
19:35:22.585000,283.0,284.0,30.0,670.0,680.0,-130.0,-18.0,-277.0,529.0
19:35:22.590000,296.0,301.0,47.0,675.0,638.0,-131.0,-10.0,-276.0,517.0
19:35:22.595000,317.0,315.0,85.0,664.0,658.0,-140.0,-10.0,-276.0,517.0
19:35:22.599000,338.0,326.0,98.0,644.0,686.0,-143.0,-24.0,-282.0,525.0
19:35:22.604000,352.0,338.0,86.0,635.0,695.0,-143.0,-24.0,-282.0,525.0
19:35:22.608000,361.0,349.0,84.0,644.0,695.0,-140.0,-24.0,-282.0,525.0
19:35:22.614000,372.0,352.0,95.0,654.0,687.0,-134.0,-18.0,-288.0,516.0
19:35:22.618000,371.0,354.0,97.0,658.0,680.0,-131.0,-18.0,-288.0,516.0
19:35:22.623000,370.0,353.0,87.0,658.0,680.0,-131.0,-28.0,-259.0,510.0
19:35:22.628000,373.0,345.0,76.0,664.0,681.0,-130.0,-28.0,-259.0,510.0
19:35:22.632000,374.0,340.0,51.0,653.0,717.0,-123.0,-28.0,-259.0,510.0
19:35:22.637000,364.0,326.0,38.0,653.0,717.0,-123.0,-28.0,-270.0,504.0
19:35:22.642000,358.0,314.0,49.0,649.0,696.0,-117.0,-28.0,-270.0,504.0
19:35:22.646000,350.0,306.0,46.0,643.0,685.0,-115.0,-22.0,-264.0,519.0
19:35:22.651000,338.0,295.0,31.0,634.0,677.0,-108.0,-22.0,-264.0,519.0
19:35:22.655000,338.0,295.0,31.0,633.0,680.0,-107.0,-22.0,-264.0,519.0
19:35:22.661000,318.0,280.0,0.0,637.0,686.0,-103.0,-28.0,-261.0,502.0
19:35:22.665000,308.0,275.0,-4.0,642.0,661.0,-103.0,-28.0,-261.0,502.0
19:35:22.670000,308.0,275.0,-4.0,636.0,633.0,-108.0,-31.0,-264.0,504.0
19:35:22.675000,299.0,274.0,-4.0,626.0,607.0,-111.0,-31.0,-264.0,504.0
19:35:22.684000,294.0,282.0,7.0,594.0,596.0,-135.0,-31.0,-264.0,504.0
19:35:22.688000,308.0,290.0,-16.0,583.0,600.0,-147.0,-39.0,-250.0,511.0
19:35:22.693000,315.0,300.0,-43.0,602.0,612.0,-155.0,-39.0,-255.0,492.0
19:35:22.698000,305.0,305.0,-46.0,620.0,644.0,-167.0,-39.0,-255.0,492.0
19:35:22.703000,305.0,307.0,-41.0,619.0,696.0,-173.0,-46.0,-258.0,496.0
19:35:22.708000,289.0,303.0,-57.0,615.0,747.0,-164.0,-46.0,-258.0,496.0
19:35:22.712000,270.0,289.0,-74.0,617.0,802.0,-152.0,-46.0,-258.0,496.0
19:35:22.717000,245.0,266.0,-82.0,616.0,847.0,-133.0,-34.0,-249.0,492.0
19:35:22.722000,216.0,237.0,-95.0,625.0,862.0,-119.0,-34.0,-249.0,492.0
19:35:22.726000,182.0,210.0,-101.0,647.0,842.0,-113.0,-55.0,-247.0,492.0
19:35:22.731000,149.0,182.0,-81.0,647.0,815.0,-117.0,-55.0,-247.0,492.0
19:35:22.736000,127.0,153.0,-56.0,659.0,815.0,-117.0,-54.0,-247.0,498.0
19:35:22.740000,109.0,126.0,-36.0,656.0,811.0,-125.0,-54.0,-247.0,498.0
19:35:22.745000,92.0,101.0,-18.0,653.0,811.0,-135.0,-54.0,-247.0,498.0
19:35:22.750000,75.0,75.0,-1.0,654.0,808.0,-146.0,-43.0,-247.0,480.0
19:35:22.755000,51.0,51.0,20.0,658.0,826.0,-157.0,-43.0,-247.0,480.0
19:35:22.759000,8.0,26.0,67.0,657.0,854.0,-162.0,-39.0,-250.0,483.0
19:35:22.764000,-39.0,4.0,124.0,635.0,902.0,-165.0,-39.0,-250.0,483.0
19:35:22.768000,-39.0,4.0,124.0,592.0,965.0,-170.0,-39.0,-250.0,483.0
19:35:22.773000,-169.0,-39.0,188.0,547.0,1026.0,-170.0,-54.0,-247.0,481.0
19:35:22.778000,-244.0,-64.0,224.0,518.0,1062.0,-169.0,-54.0,-247.0,481.0
19:35:22.783000,-244.0,-64.0,224.0,508.0,1067.0,-170.0,-61.0,-244.0,502.0
19:35:22.787000,-317.0,-91.0,270.0,510.0,1046.0,-166.0,-61.0,-244.0,502.0
19:35:22.792000,-391.0,-118.0,322.0,523.0,1006.0,-163.0,-61.0,-244.0,502.0
19:35:22.797000,-450.0,-142.0,377.0,540.0,957.0,-162.0,-45.0,-247.0,484.0
19:35:22.802000,-501.0,-167.0,439.0,549.0,901.0,-158.0,-45.0,-247.0,484.0
19:35:22.806000,-547.0,-190.0,522.0,549.0,844.0,-165.0,-36.0,-252.0,487.0
19:35:22.811000,-592.0,-212.0,626.0,533.0,785.0,-146.0,-36.0,-252.0,487.0
19:35:22.815000,-644.0,-240.0,736.0,515.0,736.0,-126.0,-36.0,-252.0,487.0
19:35:22.820000,-673.0,-262.0,838.0,507.0,706.0,-127.0,-39.0,-246.0,513.0
19:35:22.825000,-700.0,-284.0,917.0,508.0,672.0,-115.0,-39.0,-246.0,513.0
19:35:22.830000,-721.0,-304.0,994.0,508.0,672.0,-115.0,-36.0,-237.0,495.0
19:35:22.834000,-745.0,-319.0,1067.0,499.0,582.0,-92.0,-36.0,-237.0,495.0
19:35:22.839000,-770.0,-330.0,1122.0,483.0,532.0,-86.0,-36.0,-237.0,495.0
19:35:22.844000,-791.0,-333.0,1169.0,483.0,532.0,-86.0,-39.0,-243.0,505.0
19:35:22.849000,-809.0,-326.0,1195.0,482.0,488.0,-88.0,-39.0,-243.0,505.0
19:35:22.853000,-823.0,-313.0,1180.0,489.0,467.0,-96.0,-25.0,-252.0,501.0
19:35:22.858000,-830.0,-298.0,1128.0,490.0,481.0,-106.0,-25.0,-252.0,501.0
19:35:22.862000,-832.0,-288.0,1061.0,492.0,512.0,-120.0,-25.0,-252.0,501.0
19:35:22.867000,-837.0,-280.0,986.0,490.0,541.0,-133.0,-22.0,-249.0,513.0
19:35:22.872000,-840.0,-270.0,899.0,479.0,556.0,-151.0,-22.0,-249.0,513.0
19:35:22.877000,-835.0,-257.0,810.0,476.0,557.0,-171.0,-22.0,-249.0,508.0
19:35:22.881000,-835.0,-257.0,810.0,478.0,548.0,-189.0,-22.0,-249.0,508.0
19:35:22.886000,-826.0,-244.0,725.0,478.0,546.0,-206.0,-22.0,-249.0,508.0
19:35:22.891000,-806.0,-227.0,625.0,482.0,552.0,-227.0,-15.0,-253.0,519.0
19:35:22.896000,-777.0,-212.0,513.0,495.0,555.0,-246.0,-15.0,-253.0,519.0
19:35:22.900000,-744.0,-197.0,408.0,502.0,555.0,-258.0,-9.0,-247.0,523.0
19:35:22.905000,-708.0,-185.0,319.0,495.0,548.0,-264.0,-9.0,-247.0,523.0
19:35:22.909000,-672.0,-171.0,242.0,488.0,536.0,-263.0,-9.0,-247.0,523.0
19:35:22.914000,-639.0,-154.0,182.0,491.0,515.0,-261.0,-15.0,-255.0,532.0
19:35:22.919000,-599.0,-137.0,133.0,503.0,488.0,-262.0,-15.0,-255.0,532.0
19:35:22.924000,-543.0,-118.0,77.0,527.0,476.0,-264.0,6.0,-249.0,529.0
19:35:22.928000,-478.0,-100.0,14.0,554.0,482.0,-265.0,6.0,-249.0,529.0
19:35:22.933000,-413.0,-89.0,-51.0,569.0,514.0,-262.0,6.0,-249.0,529.0
19:35:22.938000,-350.0,-82.0,-124.0,573.0,569.0,-252.0,6.0,-258.0,528.0
19:35:22.943000,-289.0,-88.0,-204.0,579.0,616.0,-238.0,6.0,-258.0,528.0
19:35:22.947000,-236.0,-102.0,-275.0,579.0,616.0,-238.0,-7.0,-258.0,531.0
19:35:22.952000,-192.0,-120.0,-332.0,600.0,649.0,-227.0,-7.0,-258.0,531.0
19:35:22.956000,-154.0,-140.0,-375.0,689.0,703.0,-206.0,6.0,-267.0,535.0
19:35:22.961000,-118.0,-158.0,-404.0,689.0,703.0,-206.0,6.0,-267.0,535.0
19:35:22.965000,-97.0,-172.0,-431.0,732.0,734.0,-198.0,6.0,-267.0,535.0
19:35:22.971000,-89.0,-178.0,-443.0,757.0,769.0,-193.0,-15.0,-261.0,529.0
19:35:22.975000,-91.0,-178.0,-443.0,758.0,826.0,-187.0,-15.0,-261.0,529.0
19:35:22.980000,-99.0,-175.0,-458.0,730.0,900.0,-180.0,-1.0,-262.0,532.0
19:35:22.985000,-114.0,-168.0,-495.0,679.0,972.0,-174.0,-1.0,-262.0,532.0
19:35:22.989000,-114.0,-168.0,-495.0,625.0,1015.0,-166.0,-1.0,-262.0,532.0
19:35:22.994000,-109.0,-149.0,-532.0,588.0,1010.0,-166.0,-3.0,-280.0,543.0
19:35:22.999000,-109.0,-149.0,-532.0,573.0,968.0,-168.0,-3.0,-280.0,543.0
19:35:23.004000,-105.0,-130.0,-518.0,573.0,928.0,-185.0,-18.0,-280.0,544.0
19:35:23.008000,-88.0,-107.0,-511.0,539.0,910.0,-182.0,-18.0,-280.0,544.0
19:35:23.012000,-62.0,-81.0,-514.0,514.0,901.0,-181.0,-18.0,-280.0,544.0
19:35:23.018000,-29.0,-56.0,-515.0,533.0,905.0,-212.0,1.0,-291.0,528.0
19:35:23.022000,12.0,-32.0,-524.0,532.0,940.0,-224.0,1.0,-291.0,528.0
19:35:23.027000,47.0,-12.0,-529.0,518.0,987.0,-228.0,-10.0,-282.0,532.0
19:35:23.032000,71.0,2.0,-518.0,515.0,1025.0,-243.0,-10.0,-282.0,532.0
19:35:23.036000,97.0,15.0,-516.0,526.0,1045.0,-258.0,-10.0,-282.0,532.0
19:35:23.041000,119.0,30.0,-525.0,549.0,1049.0,-255.0,-1.0,-297.0,528.0
19:35:23.046000,134.0,42.0,-525.0,594.0,1035.0,-254.0,-1.0,-297.0,528.0
19:35:23.051000,152.0,48.0,-514.0,594.0,1035.0,-254.0,0.0,-288.0,532.0
19:35:23.055000,170.0,53.0,-497.0,676.0,1007.0,-261.0,0.0,-288.0,532.0
19:35:23.059000,193.0,55.0,-469.0,676.0,1012.0,-261.0,0.0,-288.0,532.0
19:35:23.065000,217.0,53.0,-438.0,653.0,1012.0,-260.0,-6.0,-295.0,525.0
19:35:23.069000,237.0,47.0,-425.0,640.0,1030.0,-257.0,-6.0,-295.0,525.0
19:35:23.074000,267.0,44.0,-415.0,663.0,1045.0,-266.0,-12.0,-295.0,529.0
19:35:23.079000,284.0,40.0,-382.0,684.0,1034.0,-269.0,-12.0,-295.0,529.0
19:35:23.083000,295.0,32.0,-315.0,710.0,1012.0,-265.0,-12.0,-295.0,529.0
19:35:23.088000,310.0,23.0,-234.0,739.0,1002.0,-267.0,-10.0,-291.0,528.0
19:35:23.093000,328.0,11.0,-166.0,743.0,1021.0,-272.0,-10.0,-291.0,528.0
19:35:23.098000,329.0,4.0,-116.0,718.0,1073.0,-280.0,-10.0,-294.0,541.0
19:35:23.102000,305.0,-8.0,-60.0,687.0,1134.0,-279.0,-10.0,-294.0,541.0
19:35:23.106000,305.0,-8.0,-60.0,674.0,1166.0,-274.0,-10.0,-294.0,541.0
19:35:23.112000,272.0,-23.0,8.0,673.0,1167.0,-277.0,-6.0,-294.0,529.0
19:35:23.116000,238.0,-42.0,72.0,679.0,1145.0,-279.0,-6.0,-294.0,529.0
19:35:23.121000,207.0,-63.0,140.0,702.0,1097.0,-276.0,-19.0,-288.0,529.0
19:35:23.126000,178.0,-81.0,215.0,724.0,1039.0,-270.0,-19.0,-288.0,529.0
19:35:23.130000,145.0,-96.0,291.0,734.0,995.0,-259.0,-19.0,-288.0,529.0
19:35:23.135000,106.0,-118.0,362.0,732.0,963.0,-258.0,-4.0,-291.0,532.0
19:35:23.140000,81.0,-132.0,427.0,720.0,927.0,-256.0,-4.0,-291.0,532.0
19:35:23.145000,56.0,-146.0,478.0,706.0,885.0,-247.0,-19.0,-279.0,537.0
19:35:23.149000,42.0,-160.0,520.0,698.0,846.0,-246.0,-19.0,-279.0,537.0
19:35:23.153000,30.0,-170.0,563.0,687.0,819.0,-241.0,-19.0,-279.0,537.0
19:35:23.159000,24.0,-182.0,592.0,680.0,793.0,-236.0,-6.0,-274.0,520.0
19:35:23.163000,2.0,-181.0,604.0,684.0,759.0,-240.0,-6.0,-274.0,520.0
19:35:23.168000,-5.0,-186.0,613.0,684.0,759.0,-240.0,-6.0,-277.0,528.0
19:35:23.173000,-19.0,-186.0,613.0,688.0,726.0,-239.0,-6.0,-277.0,528.0
19:35:23.177000,-21.0,-186.0,602.0,698.0,686.0,-242.0,-6.0,-277.0,528.0
19:35:23.182000,-30.0,-182.0,574.0,709.0,650.0,-247.0,-7.0,-273.0,529.0
19:35:23.187000,-35.0,-183.0,532.0,720.0,631.0,-253.0,-7.0,-273.0,529.0
19:35:23.192000,-35.0,-177.0,504.0,720.0,631.0,-253.0,-12.0,-268.0,529.0
19:35:23.196000,-33.0,-173.0,462.0,711.0,636.0,-261.0,-12.0,-268.0,529.0
19:35:23.200000,-28.0,-174.0,389.0,698.0,658.0,-259.0,-12.0,-268.0,529.0
19:35:23.206000,-14.0,-177.0,322.0,699.0,665.0,-266.0,6.0,-267.0,534.0
19:35:23.210000,-4.0,-174.0,283.0,713.0,642.0,-273.0,6.0,-267.0,534.0
19:35:23.215000,9.0,-169.0,252.0,716.0,624.0,-274.0,18.0,-265.0,538.0
19:35:23.220000,9.0,-169.0,252.0,682.0,630.0,-275.0,18.0,-265.0,538.0
19:35:23.224000,25.0,-172.0,196.0,691.0,650.0,-292.0,18.0,-265.0,538.0
19:35:23.229000,37.0,-162.0,125.0,735.0,662.0,-303.0,10.0,-261.0,535.0
19:35:23.234000,48.0,-158.0,70.0,733.0,673.0,-296.0,10.0,-261.0,535.0
19:35:23.239000,56.0,-158.0,32.0,722.0,675.0,-295.0,12.0,-264.0,541.0
19:35:23.243000,62.0,-153.0,12.0,714.0,666.0,-299.0,12.0,-264.0,541.0
19:35:23.247000,65.0,-143.0,11.0,698.0,671.0,-294.0,12.0,-264.0,541.0
19:35:23.253000,58.0,-139.0,13.0,667.0,694.0,-301.0,9.0,-268.0,534.0
19:35:23.257000,60.0,-128.0,9.0,628.0,721.0,-313.0,9.0,-268.0,534.0
19:35:23.262000,56.0,-115.0,7.0,584.0,747.0,-318.0,13.0,-271.0,540.0
19:35:23.267000,58.0,-106.0,20.0,542.0,768.0,-323.0,13.0,-271.0,540.0
19:35:23.271000,58.0,-94.0,46.0,501.0,787.0,-326.0,13.0,-271.0,540.0
19:35:23.276000,61.0,-85.0,60.0,457.0,819.0,-328.0,16.0,-259.0,549.0
19:35:23.281000,56.0,-75.0,56.0,428.0,840.0,-325.0,16.0,-259.0,549.0
19:35:23.286000,53.0,-68.0,63.0,428.0,840.0,-325.0,-7.0,-252.0,544.0
19:35:23.290000,48.0,-61.0,87.0,426.0,833.0,-325.0,-7.0,-252.0,544.0
19:35:23.294000,26.0,-51.0,96.0,442.0,817.0,-321.0,-7.0,-252.0,544.0
19:35:23.300000,18.0,-49.0,100.0,459.0,839.0,-314.0,10.0,-255.0,541.0
19:35:23.304000,7.0,-44.0,95.0,470.0,850.0,-311.0,10.0,-255.0,541.0
19:35:23.309000,5.0,-36.0,56.0,473.0,820.0,-316.0,6.0,-267.0,546.0
19:35:23.314000,-8.0,-31.0,0.0,479.0,808.0,-316.0,6.0,-267.0,546.0
19:35:23.318000,-8.0,-31.0,0.0,492.0,807.0,-316.0,6.0,-267.0,546.0
19:35:23.323000,4.0,-31.0,-80.0,493.0,802.0,-325.0,15.0,-264.0,540.0
19:35:23.328000,4.0,-31.0,-80.0,478.0,794.0,-326.0,15.0,-264.0,540.0
19:35:23.342000,43.0,-27.0,-181.0,467.0,691.0,-329.0,3.0,-270.0,546.0
19:35:23.346000,74.0,-18.0,-193.0,444.0,701.0,-338.0,3.0,-270.0,546.0
19:35:23.351000,109.0,-8.0,-232.0,436.0,739.0,-345.0,3.0,-270.0,546.0
19:35:23.356000,135.0,3.0,-276.0,439.0,775.0,-344.0,24.0,-261.0,537.0
19:35:23.361000,143.0,11.0,-294.0,437.0,804.0,-345.0,24.0,-261.0,537.0
19:35:23.365000,156.0,16.0,-298.0,424.0,829.0,-351.0,24.0,-261.0,537.0
19:35:23.370000,164.0,25.0,-324.0,411.0,866.0,-357.0,4.0,-258.0,540.0
19:35:23.375000,168.0,32.0,-359.0,399.0,918.0,-362.0,4.0,-258.0,540.0
19:35:23.380000,163.0,38.0,-394.0,399.0,918.0,-362.0,6.0,-262.0,537.0
19:35:23.384000,147.0,42.0,-424.0,385.0,983.0,-373.0,6.0,-262.0,537.0
19:35:23.389000,135.0,45.0,-446.0,385.0,973.0,-384.0,9.0,-264.0,526.0
19:35:23.394000,126.0,42.0,-449.0,385.0,973.0,-384.0,9.0,-264.0,526.0
19:35:23.398000,115.0,37.0,-432.0,392.0,933.0,-389.0,9.0,-264.0,526.0
19:35:23.403000,110.0,32.0,-427.0,395.0,908.0,-392.0,9.0,-268.0,531.0
19:35:23.408000,97.0,17.0,-410.0,405.0,912.0,-385.0,9.0,-268.0,531.0
19:35:23.413000,82.0,0.0,-371.0,444.0,907.0,-377.0,-6.0,-268.0,540.0
19:35:23.417000,74.0,-14.0,-343.0,476.0,896.0,-380.0,-6.0,-268.0,540.0
19:35:23.421000,74.0,-14.0,-343.0,488.0,880.0,-385.0,-6.0,-268.0,540.0
19:35:23.427000,67.0,-44.0,-317.0,492.0,837.0,-384.0,4.0,-273.0,535.0
19:35:23.431000,60.0,-61.0,-275.0,486.0,788.0,-382.0,4.0,-273.0,535.0
19:35:23.435000,60.0,-61.0,-275.0,478.0,764.0,-387.0,-6.0,-279.0,535.0
19:35:23.441000,56.0,-76.0,-243.0,480.0,742.0,-392.0,-6.0,-279.0,535.0
19:35:23.445000,46.0,-92.0,-206.0,508.0,712.0,-392.0,-6.0,-279.0,535.0
19:35:23.450000,34.0,-109.0,-163.0,547.0,701.0,-391.0,-6.0,-262.0,540.0
19:35:23.455000,36.0,-130.0,-133.0,576.0,667.0,-386.0,-6.0,-262.0,540.0
19:35:23.460000,41.0,-149.0,-109.0,601.0,631.0,-379.0,9.0,-270.0,538.0
19:35:23.464000,53.0,-168.0,-88.0,607.0,654.0,-370.0,9.0,-270.0,538.0
19:35:23.468000,58.0,-187.0,-90.0,591.0,687.0,-363.0,9.0,-270.0,538.0
19:35:23.474000,60.0,-203.0,-117.0,568.0,723.0,-360.0,3.0,-270.0,537.0
19:35:23.478000,61.0,-224.0,-151.0,537.0,756.0,-355.0,3.0,-270.0,537.0
19:35:23.482000,67.0,-238.0,-177.0,537.0,721.0,-362.0,3.0,-280.0,537.0
19:35:23.488000,57.0,-237.0,-224.0,550.0,696.0,-375.0,3.0,-280.0,537.0
19:35:23.492000,37.0,-235.0,-265.0,529.0,751.0,-383.0,3.0,-280.0,537.0
19:35:23.497000,42.0,-246.0,-302.0,529.0,782.0,-376.0,9.0,-285.0,534.0
19:35:23.502000,0.0,-254.0,-356.0,502.0,782.0,-376.0,9.0,-285.0,534.0
19:35:23.507000,-11.0,-269.0,-382.0,490.0,771.0,-375.0,4.0,-274.0,535.0
19:35:23.511000,-20.0,-284.0,-400.0,501.0,742.0,-386.0,4.0,-274.0,535.0
19:35:23.515000,-37.0,-301.0,-419.0,524.0,698.0,-381.0,4.0,-274.0,535.0
19:35:23.521000,-51.0,-312.0,-424.0,539.0,654.0,-376.0,-3.0,-279.0,534.0
19:35:23.525000,-39.0,-334.0,-431.0,562.0,627.0,-371.0,-3.0,-279.0,534.0
19:35:23.529000,-25.0,-357.0,-431.0,605.0,609.0,-358.0,4.0,-283.0,546.0
19:35:23.535000,-7.0,-375.0,-429.0,643.0,573.0,-347.0,4.0,-283.0,546.0
19:35:23.539000,-7.0,-375.0,-429.0,680.0,520.0,-336.0,4.0,-283.0,546.0
19:35:23.544000,28.0,-417.0,-361.0,702.0,476.0,-322.0,10.0,-285.0,531.0
19:35:23.549000,28.0,-417.0,-361.0,696.0,467.0,-315.0,10.0,-285.0,531.0
19:35:23.554000,42.0,-422.0,-345.0,691.0,468.0,-296.0,4.0,-285.0,540.0
19:35:23.558000,54.0,-432.0,-359.0,700.0,474.0,-281.0,4.0,-285.0,540.0
19:35:23.562000,83.0,-434.0,-369.0,706.0,469.0,-269.0,4.0,-285.0,540.0
19:35:23.568000,102.0,-436.0,-367.0,704.0,451.0,-258.0,10.0,-289.0,549.0
19:35:23.572000,136.0,-429.0,-358.0,692.0,432.0,-251.0,10.0,-289.0,549.0
19:35:23.576000,158.0,-416.0,-347.0,670.0,417.0,-244.0,16.0,-295.0,550.0
19:35:23.581000,187.0,-401.0,-341.0,642.0,429.0,-245.0,16.0,-295.0,550.0
19:35:23.586000,219.0,-381.0,-353.0,620.0,460.0,-245.0,16.0,-295.0,550.0
19:35:23.591000,253.0,-360.0,-371.0,609.0,487.0,-245.0,18.0,-288.0,541.0
19:35:23.596000,284.0,-337.0,-385.0,611.0,497.0,-244.0,18.0,-288.0,541.0
19:35:23.601000,317.0,-315.0,-384.0,611.0,497.0,-244.0,15.0,-288.0,541.0
19:35:23.605000,351.0,-291.0,-372.0,624.0,486.0,-231.0,15.0,-288.0,541.0
19:35:23.609000,394.0,-272.0,-345.0,624.0,486.0,-231.0,15.0,-288.0,541.0
19:35:23.615000,423.0,-246.0,-305.0,641.0,463.0,-226.0,19.0,-294.0,547.0
19:35:23.619000,463.0,-230.0,-245.0,670.0,441.0,-219.0,19.0,-294.0,547.0
19:35:23.623000,495.0,-215.0,-200.0,660.0,498.0,-171.0,19.0,-291.0,546.0
19:35:23.629000,511.0,-207.0,-170.0,660.0,498.0,-171.0,19.0,-291.0,546.0
19:35:23.633000,511.0,-205.0,-146.0,671.0,566.0,-157.0,19.0,-291.0,546.0
19:35:23.638000,501.0,-214.0,-121.0,701.0,649.0,-131.0,33.0,-291.0,549.0
19:35:23.643000,478.0,-207.0,-102.0,745.0,721.0,-135.0,33.0,-291.0,549.0
19:35:23.648000,358.0,-186.0,-100.0,742.0,773.0,-105.0,27.0,-277.0,544.0
19:35:23.652000,333.0,-212.0,-72.0,728.0,829.0,-68.0,27.0,-277.0,544.0
19:35:23.656000,333.0,-212.0,-72.0,741.0,857.0,-78.0,27.0,-277.0,544.0
19:35:23.662000,265.0,-205.0,-81.0,743.0,856.0,-75.0,24.0,-285.0,538.0
19:35:23.666000,214.0,-214.0,-94.0,752.0,870.0,-65.0,24.0,-285.0,538.0
19:35:23.671000,170.0,-219.0,-143.0,786.0,883.0,-53.0,34.0,-276.0,555.0
19:35:23.676000,100.0,-226.0,-155.0,812.0,900.0,-45.0,34.0,-276.0,555.0
19:35:23.680000,44.0,-235.0,-151.0,816.0,913.0,-30.0,34.0,-276.0,555.0
19:35:23.685000,-24.0,-250.0,-144.0,828.0,907.0,-25.0,21.0,-277.0,544.0
19:35:23.690000,-74.0,-259.0,-128.0,837.0,897.0,-22.0,21.0,-277.0,544.0
19:35:23.695000,-143.0,-268.0,-108.0,843.0,895.0,-9.0,28.0,-277.0,535.0
19:35:23.699000,-206.0,-276.0,-80.0,846.0,894.0,-7.0,28.0,-277.0,535.0
19:35:23.703000,-266.0,-280.0,-44.0,838.0,882.0,-12.0,28.0,-277.0,535.0
19:35:23.709000,-310.0,-280.0,-4.0,813.0,865.0,-25.0,30.0,-282.0,555.0
19:35:23.713000,-340.0,-274.0,25.0,794.0,831.0,-42.0,30.0,-282.0,555.0
19:35:23.718000,-367.0,-255.0,58.0,794.0,831.0,-42.0,21.0,-277.0,564.0
19:35:23.723000,-374.0,-244.0,113.0,794.0,766.0,-58.0,21.0,-277.0,564.0
19:35:23.727000,-342.0,-224.0,176.0,782.0,689.0,-89.0,21.0,-277.0,564.0
19:35:23.732000,-304.0,-198.0,225.0,746.0,626.0,-118.0,37.0,-286.0,556.0
19:35:23.737000,-254.0,-169.0,254.0,701.0,596.0,-137.0,37.0,-286.0,556.0
19:35:23.742000,-198.0,-140.0,270.0,667.0,603.0,-162.0,39.0,-288.0,552.0
19:35:23.746000,-141.0,-116.0,274.0,649.0,625.0,-179.0,39.0,-288.0,552.0
19:35:23.750000,-141.0,-116.0,274.0,639.0,647.0,-191.0,39.0,-288.0,552.0
19:35:23.756000,-23.0,-70.0,240.0,643.0,672.0,-195.0,34.0,-289.0,553.0
19:35:23.760000,28.0,-47.0,205.0,665.0,706.0,-194.0,34.0,-289.0,553.0
19:35:23.765000,28.0,-47.0,205.0,701.0,758.0,-192.0,43.0,-294.0,555.0
19:35:23.770000,65.0,-25.0,165.0,746.0,819.0,-190.0,43.0,-294.0,555.0
19:35:23.774000,93.0,0.0,112.0,801.0,870.0,-179.0,43.0,-294.0,555.0
19:35:23.779000,100.0,20.0,51.0,853.0,911.0,-170.0,40.0,-291.0,558.0
19:35:23.784000,100.0,43.0,-30.0,921.0,940.0,-168.0,40.0,-291.0,558.0
19:35:23.789000,66.0,69.0,-48.0,1100.0,874.0,-168.0,48.0,-282.0,549.0
19:35:23.793000,86.0,111.0,87.0,1126.0,914.0,-204.0,48.0,-282.0,549.0
19:35:23.797000,177.0,184.0,161.0,915.0,1125.0,-225.0,48.0,-282.0,549.0
19:35:23.803000,116.0,282.0,144.0,720.0,1260.0,-184.0,33.0,-291.0,547.0
19:35:23.807000,66.0,300.0,194.0,474.0,1243.0,-165.0,33.0,-291.0,547.0
19:35:23.812000,62.0,274.0,396.0,474.0,1141.0,-153.0,37.0,-295.0,559.0
19:35:23.816000,-21.0,227.0,630.0,-43.0,1094.0,-176.0,37.0,-295.0,559.0
19:35:23.821000,-4.0,186.0,685.0,-69.0,1124.0,-247.0,37.0,-295.0,559.0
19:35:23.826000,20.0,190.0,588.0,-69.0,1177.0,-247.0,37.0,-282.0,552.0
19:35:23.831000,17.0,144.0,564.0,136.0,1177.0,-232.0,37.0,-282.0,552.0
19:35:23.835000,85.0,81.0,569.0,374.0,1286.0,-218.0,33.0,-280.0,553.0
19:35:23.840000,126.0,-35.0,593.0,472.0,1382.0,-201.0,33.0,-280.0,553.0
19:35:23.844000,65.0,-78.0,646.0,484.0,1315.0,-192.0,33.0,-280.0,553.0
19:35:23.850000,-53.0,-164.0,735.0,494.0,1146.0,-174.0,33.0,-270.0,561.0
19:35:23.854000,-123.0,-172.0,894.0,588.0,942.0,-177.0,33.0,-270.0,561.0
19:35:23.859000,-137.0,-130.0,1024.0,767.0,761.0,-263.0,36.0,-271.0,549.0
19:35:23.864000,-161.0,-116.0,1026.0,908.0,635.0,-286.0,36.0,-271.0,549.0
19:35:23.868000,-161.0,-116.0,1026.0,976.0,554.0,-274.0,36.0,-271.0,549.0
19:35:23.873000,-107.0,-141.0,984.0,995.0,552.0,-283.0,40.0,-270.0,550.0
19:35:23.878000,-38.0,-135.0,970.0,987.0,584.0,-293.0,40.0,-270.0,550.0
19:35:23.882000,-28.0,-123.0,1003.0,919.0,625.0,-283.0,48.0,-265.0,555.0
19:35:23.887000,-32.0,-133.0,973.0,825.0,696.0,-292.0,48.0,-265.0,555.0
19:35:23.891000,-21.0,-141.0,859.0,793.0,762.0,-314.0,48.0,-265.0,555.0
19:35:23.897000,-4.0,-142.0,715.0,816.0,778.0,-330.0,58.0,-271.0,549.0
19:35:23.901000,-7.0,-135.0,602.0,805.0,736.0,-344.0,58.0,-271.0,549.0
19:35:23.906000,-9.0,-135.0,525.0,732.0,653.0,-355.0,52.0,-259.0,555.0
19:35:23.911000,9.0,-130.0,452.0,642.0,553.0,-372.0,52.0,-259.0,555.0
19:35:23.915000,65.0,-128.0,378.0,571.0,468.0,-386.0,52.0,-259.0,555.0
19:35:23.920000,139.0,-117.0,316.0,525.0,415.0,-390.0,51.0,-256.0,555.0
19:35:23.925000,219.0,-103.0,291.0,474.0,411.0,-386.0,51.0,-256.0,555.0
19:35:23.929000,304.0,-86.0,291.0,474.0,411.0,-386.0,64.0,-258.0,556.0
19:35:23.934000,374.0,-65.0,254.0,293.0,530.0,-361.0,64.0,-258.0,556.0
19:35:23.938000,441.0,-35.0,168.0,293.0,530.0,-361.0,64.0,-258.0,556.0
19:35:23.944000,501.0,0.0,85.0,226.0,555.0,-351.0,58.0,-258.0,550.0
19:35:23.948000,560.0,40.0,43.0,209.0,591.0,-331.0,58.0,-258.0,550.0
19:35:23.953000,594.0,83.0,16.0,209.0,591.0,-331.0,73.0,-247.0,558.0
19:35:23.958000,608.0,123.0,-12.0,212.0,697.0,-310.0,73.0,-247.0,558.0
19:35:23.962000,607.0,161.0,-58.0,210.0,823.0,-290.0,73.0,-247.0,558.0
19:35:23.967000,592.0,193.0,-104.0,217.0,923.0,-270.0,54.0,-244.0,550.0
19:35:23.972000,559.0,223.0,-121.0,240.0,965.0,-252.0,54.0,-244.0,550.0
19:35:23.976000,525.0,241.0,-138.0,273.0,973.0,-240.0,51.0,-244.0,546.0
19:35:23.981000,490.0,259.0,-170.0,326.0,958.0,-238.0,51.0,-244.0,546.0
19:35:23.985000,490.0,259.0,-170.0,391.0,949.0,-243.0,51.0,-244.0,546.0
19:35:23.991000,456.0,275.0,-205.0,432.0,1023.0,-245.0,58.0,-231.0,550.0
19:35:24.005000,320.0,262.0,-230.0,597.0,828.0,-280.0,45.0,-234.0,555.0
19:35:24.009000,259.0,237.0,-300.0,670.0,908.0,-298.0,58.0,-237.0,540.0
19:35:24.014000,186.0,203.0,-374.0,727.0,1073.0,-299.0,58.0,-237.0,540.0
19:35:24.018000,137.0,161.0,-432.0,755.0,1162.0,-299.0,58.0,-237.0,540.0
19:35:24.023000,62.0,139.0,-511.0,777.0,1204.0,-302.0,52.0,-241.0,544.0
19:35:24.028000,-18.0,109.0,-571.0,768.0,1249.0,-295.0,52.0,-241.0,544.0
19:35:24.033000,-104.0,77.0,-612.0,768.0,1249.0,-295.0,42.0,-243.0,544.0
19:35:24.038000,-179.0,53.0,-623.0,628.0,1258.0,-297.0,42.0,-243.0,544.0
19:35:24.042000,-246.0,32.0,-597.0,528.0,1194.0,-299.0,42.0,-243.0,544.0
19:35:24.047000,-287.0,15.0,-547.0,528.0,1194.0,-299.0,42.0,-244.0,541.0
19:35:24.051000,-296.0,10.0,-472.0,380.0,1002.0,-331.0,42.0,-244.0,541.0
19:35:24.056000,-292.0,15.0,-392.0,380.0,1002.0,-331.0,39.0,-249.0,546.0
19:35:24.061000,-286.0,20.0,-310.0,332.0,962.0,-335.0,39.0,-249.0,546.0
19:35:24.065000,-274.0,23.0,-232.0,317.0,947.0,-333.0,39.0,-249.0,546.0
19:35:24.070000,-250.0,28.0,-170.0,337.0,947.0,-332.0,43.0,-255.0,550.0
19:35:24.075000,-226.0,29.0,-139.0,361.0,966.0,-331.0,43.0,-255.0,550.0
19:35:24.080000,-201.0,28.0,-127.0,367.0,987.0,-323.0,36.0,-253.0,544.0
19:35:24.085000,-187.0,33.0,-115.0,345.0,979.0,-312.0,36.0,-253.0,544.0
19:35:24.089000,-187.0,33.0,-115.0,314.0,937.0,-299.0,36.0,-253.0,544.0
19:35:24.094000,-177.0,37.0,-84.0,321.0,887.0,-288.0,33.0,-256.0,549.0
19:35:24.098000,-160.0,44.0,-48.0,367.0,858.0,-282.0,33.0,-256.0,549.0
19:35:24.103000,-135.0,60.0,-37.0,413.0,852.0,-277.0,40.0,-258.0,564.0
19:35:24.108000,-109.0,72.0,-42.0,449.0,838.0,-281.0,40.0,-258.0,564.0
19:35:24.112000,-77.0,96.0,-22.0,469.0,811.0,-287.0,40.0,-258.0,564.0
19:35:24.117000,-39.0,113.0,21.0,454.0,793.0,-287.0,46.0,-250.0,543.0
19:35:24.122000,-3.0,128.0,56.0,411.0,792.0,-290.0,46.0,-250.0,543.0
19:35:24.127000,37.0,140.0,60.0,381.0,788.0,-298.0,25.0,-256.0,540.0
19:35:24.132000,83.0,155.0,44.0,380.0,794.0,-306.0,25.0,-256.0,540.0
19:35:24.136000,133.0,170.0,-4.0,400.0,822.0,-304.0,25.0,-256.0,540.0
19:35:24.141000,171.0,177.0,-51.0,444.0,853.0,-299.0,24.0,-255.0,553.0
19:35:24.146000,209.0,182.0,-55.0,482.0,857.0,-290.0,24.0,-255.0,553.0
