hh:mm:ss.ms,gyroX[mdps],gyroY[mdps],gyroZ[mdps],accX[mg],accY[mg],accZ[mg],magX[mG],magY[mG],magZ[mG]
19:36:47.739000,1546.0,2086.0,1503.0,-1032.0,-210.0,-15.0,0.0,0.0,0.0
19:36:47.744000,1476.0,2104.0,1460.0,-1017.0,-172.0,-68.0,0.0,0.0,0.0
19:36:47.749000,1405.0,2109.0,1425.0,-1017.0,-172.0,-68.0,0.0,0.0,0.0
19:36:47.753000,1316.0,2109.0,1370.0,-1014.0,-123.0,-135.0,0.0,0.0,0.0
19:36:47.758000,1229.0,2096.0,1302.0,-1014.0,-123.0,-135.0,0.0,0.0,0.0
19:36:47.763000,1131.0,2074.0,1223.0,-1014.0,-123.0,-135.0,0.0,0.0,0.0
19:36:47.767000,1043.0,2039.0,1140.0,-951.0,-126.0,-208.0,0.0,0.0,0.0
19:36:47.772000,967.0,2002.0,1057.0,-951.0,-126.0,-208.0,0.0,0.0,0.0
19:36:47.777000,899.0,1960.0,973.0,-819.0,-198.0,-299.0,0.0,0.0,0.0
19:36:47.782000,839.0,1921.0,882.0,-819.0,-198.0,-299.0,0.0,0.0,0.0
19:36:47.786000,786.0,1878.0,809.0,-690.0,-241.0,-399.0,0.0,0.0,0.0
19:36:47.791000,716.0,1827.0,724.0,-690.0,-241.0,-399.0,0.0,0.0,0.0
19:36:47.796000,651.0,1773.0,640.0,-603.0,-197.0,-474.0,0.0,0.0,0.0
19:36:47.800000,591.0,1719.0,569.0,-603.0,-197.0,-474.0,0.0,0.0,0.0
19:36:47.805000,591.0,1719.0,569.0,-552.0,-150.0,-523.0,0.0,0.0,0.0
19:36:47.810000,522.0,1666.0,522.0,-552.0,-150.0,-523.0,0.0,0.0,0.0
19:36:47.814000,458.0,1615.0,491.0,-547.0,-134.0,-557.0,0.0,0.0,0.0
19:36:47.819000,394.0,1566.0,468.0,-547.0,-134.0,-557.0,0.0,0.0,0.0
19:36:47.824000,340.0,1516.0,471.0,-575.0,-158.0,-564.0,0.0,0.0,0.0
19:36:47.829000,306.0,1472.0,487.0,-575.0,-158.0,-564.0,0.0,0.0,0.0
19:36:47.833000,305.0,1444.0,499.0,-598.0,-272.0,-560.0,0.0,0.0,0.0
19:36:47.838000,330.0,1426.0,498.0,-598.0,-272.0,-560.0,0.0,0.0,0.0
19:36:47.843000,380.0,1421.0,488.0,-606.0,-427.0,-568.0,0.0,0.0,0.0
19:36:47.847000,436.0,1422.0,493.0,-606.0,-427.0,-568.0,0.0,0.0,0.0
19:36:47.852000,487.0,1439.0,512.0,-647.0,-493.0,-589.0,0.0,0.0,0.0
19:36:47.857000,546.0,1469.0,518.0,-647.0,-493.0,-589.0,0.0,0.0,0.0
19:36:47.861000,578.0,1501.0,525.0,-747.0,-403.0,-596.0,0.0,0.0,0.0
19:36:47.866000,583.0,1532.0,527.0,-747.0,-403.0,-596.0,0.0,0.0,0.0
19:36:47.871000,578.0,1568.0,536.0,-835.0,-315.0,-584.0,0.0,0.0,0.0
19:36:47.876000,597.0,1606.0,555.0,-835.0,-315.0,-584.0,0.0,0.0,0.0
19:36:47.880000,657.0,1635.0,571.0,-835.0,-315.0,-584.0,0.0,0.0,0.0
19:36:47.885000,721.0,1669.0,595.0,-805.0,-439.0,-589.0,0.0,0.0,0.0
19:36:47.890000,781.0,1706.0,616.0,-805.0,-439.0,-589.0,0.0,0.0,0.0
19:36:47.894000,828.0,1729.0,635.0,-657.0,-580.0,-619.0,0.0,0.0,0.0
19:36:47.899000,865.0,1750.0,623.0,-657.0,-580.0,-619.0,0.0,0.0,0.0
19:36:47.904000,885.0,1785.0,599.0,-550.0,-502.0,-649.0,0.0,0.0,0.0
19:36:47.908000,870.0,1808.0,641.0,-550.0,-502.0,-649.0,0.0,0.0,0.0
19:36:47.913000,870.0,1808.0,641.0,-537.0,-341.0,-649.0,0.0,0.0,0.0
19:36:47.918000,842.0,1813.0,727.0,-537.0,-341.0,-649.0,0.0,0.0,0.0
19:36:47.923000,779.0,1808.0,787.0,-566.0,-212.0,-596.0,0.0,0.0,0.0
19:36:47.927000,692.0,1805.0,763.0,-566.0,-212.0,-596.0,0.0,0.0,0.0
19:36:47.932000,588.0,1796.0,738.0,-522.0,-73.0,-516.0,0.0,0.0,0.0
19:36:47.937000,492.0,1774.0,726.0,-522.0,-73.0,-516.0,0.0,0.0,0.0
19:36:47.941000,371.0,1742.0,733.0,-356.0,19.0,-453.0,0.0,0.0,0.0
19:36:47.946000,233.0,1683.0,765.0,-356.0,19.0,-453.0,0.0,0.0,0.0
19:36:47.951000,82.0,1605.0,791.0,-209.0,78.0,-414.0,0.0,0.0,0.0
19:36:47.955000,-77.0,1508.0,772.0,-209.0,78.0,-414.0,0.0,0.0,0.0
19:36:47.960000,-254.0,1390.0,706.0,-108.0,189.0,-386.0,0.0,0.0,0.0
19:36:47.965000,-455.0,1246.0,632.0,-108.0,189.0,-386.0,0.0,0.0,0.0
19:36:47.970000,-652.0,1077.0,576.0,44.0,254.0,-373.0,0.0,0.0,0.0
19:36:47.974000,-833.0,903.0,524.0,44.0,254.0,-373.0,0.0,0.0,0.0
19:36:47.979000,-1013.0,718.0,462.0,44.0,254.0,-373.0,0.0,0.0,0.0
19:36:47.984000,-1179.0,532.0,380.0,244.0,179.0,-398.0,0.0,0.0,0.0
19:36:47.988000,-1339.0,339.0,253.0,353.0,94.0,-457.0,0.0,0.0,0.0
19:36:47.993000,-1489.0,136.0,102.0,353.0,94.0,-457.0,0.0,0.0,0.0
19:36:47.998000,-1605.0,-74.0,-31.0,353.0,94.0,-457.0,0.0,0.0,0.0
19:36:48.002000,-1686.0,-291.0,-144.0,356.0,-1.0,-505.0,0.0,0.0,0.0
19:36:48.007000,-1738.0,-513.0,-240.0,356.0,-1.0,-505.0,0.0,0.0,0.0
19:36:48.012000,-1754.0,-721.0,-348.0,342.0,-232.0,-542.0,0.0,0.0,0.0
19:36:48.016000,-1751.0,-919.0,-466.0,342.0,-232.0,-542.0,0.0,0.0,0.0
19:36:48.021000,-1751.0,-919.0,-466.0,278.0,-500.0,-601.0,0.0,0.0,0.0
19:36:48.026000,-1717.0,-1105.0,-576.0,278.0,-500.0,-601.0,0.0,0.0,0.0
19:36:48.031000,-1673.0,-1269.0,-666.0,135.0,-634.0,-649.0,0.0,0.0,0.0
19:36:48.035000,-1640.0,-1415.0,-754.0,135.0,-634.0,-649.0,0.0,0.0,0.0
19:36:48.040000,-1611.0,-1535.0,-864.0,13.0,-601.0,-659.0,0.0,0.0,0.0
19:36:48.045000,-1589.0,-1638.0,-983.0,13.0,-601.0,-659.0,0.0,0.0,0.0
19:36:48.049000,-1572.0,-1726.0,-1082.0,-73.0,-505.0,-661.0,0.0,0.0,0.0
19:36:48.054000,-1558.0,-1800.0,-1140.0,-73.0,-505.0,-661.0,0.0,0.0,0.0
19:36:48.059000,-1544.0,-1865.0,-1144.0,-182.0,-460.0,-665.0,0.0,0.0,0.0
19:36:48.063000,-1536.0,-1916.0,-1145.0,-182.0,-460.0,-665.0,0.0,0.0,0.0
19:36:48.068000,-1539.0,-1957.0,-1176.0,-304.0,-460.0,-677.0,0.0,0.0,0.0
19:36:48.073000,-1536.0,-1994.0,-1178.0,-304.0,-460.0,-677.0,0.0,0.0,0.0
19:36:48.078000,-1513.0,-2037.0,-1141.0,-387.0,-549.0,-691.0,0.0,0.0,0.0
19:36:48.082000,-1463.0,-2083.0,-1109.0,-387.0,-549.0,-691.0,0.0,0.0,0.0
19:36:48.087000,-1446.0,-2126.0,-1089.0,-387.0,-549.0,-691.0,0.0,0.0,0.0
19:36:48.092000,-1420.0,-2161.0,-1027.0,-508.0,-683.0,-678.0,0.0,0.0,0.0
19:36:48.096000,-1357.0,-2186.0,-912.0,-580.0,-813.0,-663.0,0.0,0.0,0.0
19:36:48.101000,-1308.0,-2204.0,-830.0,-580.0,-813.0,-663.0,0.0,0.0,0.0
19:36:48.106000,-1241.0,-2206.0,-811.0,-580.0,-813.0,-663.0,0.0,0.0,0.0
19:36:48.110000,-1158.0,-2198.0,-856.0,-615.0,-935.0,-666.0,0.0,0.0,0.0
19:36:48.115000,-1089.0,-2191.0,-919.0,-615.0,-935.0,-666.0,0.0,0.0,0.0
19:36:48.120000,-1004.0,-2195.0,-990.0,-712.0,-931.0,-648.0,0.0,0.0,0.0
19:36:48.125000,-920.0,-2213.0,-1092.0,-712.0,-931.0,-648.0,0.0,0.0,0.0
19:36:48.129000,-741.0,-2213.0,-1092.0,-721.0,-859.0,-609.0,0.0,0.0,0.0
19:36:48.134000,-877.0,-2225.0,-1129.0,-721.0,-859.0,-609.0,0.0,0.0,0.0
19:36:48.139000,-823.0,-2243.0,-1120.0,-615.0,-878.0,-557.0,0.0,0.0,0.0
19:36:48.143000,-760.0,-2252.0,-1154.0,-615.0,-878.0,-557.0,0.0,0.0,0.0
19:36:48.148000,-703.0,-2251.0,-1199.0,-506.0,-920.0,-496.0,0.0,0.0,0.0
19:36:48.153000,-639.0,-2252.0,-1227.0,-506.0,-920.0,-496.0,0.0,0.0,0.0
19:36:48.157000,-581.0,-2247.0,-1269.0,-496.0,-876.0,-429.0,0.0,0.0,0.0
19:36:48.162000,-539.0,-2251.0,-1332.0,-496.0,-876.0,-429.0,0.0,0.0,0.0
19:36:48.167000,-510.0,-2242.0,-1363.0,-539.0,-840.0,-347.0,0.0,0.0,0.0
19:36:48.172000,-472.0,-2219.0,-1313.0,-539.0,-840.0,-347.0,0.0,0.0,0.0
19:36:48.176000,-440.0,-2183.0,-1280.0,-544.0,-826.0,-269.0,0.0,0.0,0.0
19:36:48.181000,-402.0,-2158.0,-1329.0,-544.0,-826.0,-269.0,0.0,0.0,0.0
19:36:48.186000,-378.0,-2139.0,-1360.0,-573.0,-767.0,-193.0,0.0,0.0,0.0
19:36:48.190000,-359.0,-2118.0,-1323.0,-573.0,-767.0,-193.0,0.0,0.0,0.0
19:36:48.195000,-359.0,-2107.0,-1262.0,-573.0,-767.0,-193.0,0.0,0.0,0.0
19:36:48.200000,-376.0,-2100.0,-1223.0,-629.0,-706.0,-94.0,0.0,0.0,0.0
19:36:48.204000,-379.0,-2093.0,-1228.0,-629.0,-706.0,-94.0,0.0,0.0,0.0
19:36:48.209000,-371.0,-2070.0,-1190.0,-606.0,-646.0,-8.0,0.0,0.0,0.0
19:36:48.214000,-342.0,-2047.0,-1099.0,-606.0,-646.0,-8.0,0.0,0.0,0.0
19:36:48.219000,-308.0,-1968.0,-1064.0,-679.0,-645.0,25.0,0.0,0.0,0.0
19:36:48.223000,-287.0,-1899.0,-1057.0,-679.0,-645.0,25.0,0.0,0.0,0.0
19:36:48.228000,-300.0,-1823.0,-1050.0,-680.0,-562.0,50.0,0.0,0.0,0.0
19:36:48.233000,-306.0,-1724.0,-1005.0,-680.0,-562.0,50.0,0.0,0.0,0.0
19:36:48.237000,-296.0,-1617.0,-935.0,-687.0,-407.0,74.0,0.0,0.0,0.0
19:36:48.242000,-296.0,-1617.0,-935.0,-687.0,-407.0,74.0,0.0,0.0,0.0
19:36:48.247000,-268.0,-1500.0,-886.0,-891.0,-382.0,82.0,0.0,0.0,0.0
19:36:48.251000,-233.0,-1374.0,-877.0,-891.0,-382.0,82.0,0.0,0.0,0.0
19:36:48.256000,-186.0,-1238.0,-831.0,-980.0,-427.0,91.0,0.0,0.0,0.0
19:36:48.261000,-141.0,-1092.0,-728.0,-980.0,-427.0,91.0,0.0,0.0,0.0
19:36:48.266000,-103.0,-943.0,-613.0,-977.0,-506.0,90.0,0.0,0.0,0.0
19:36:48.270000,-46.0,-773.0,-518.0,-977.0,-506.0,90.0,0.0,0.0,0.0
19:36:48.275000,24.0,-618.0,-461.0,-986.0,-547.0,74.0,0.0,0.0,0.0
19:36:48.280000,125.0,-462.0,-343.0,-986.0,-547.0,74.0,0.0,0.0,0.0
19:36:48.284000,166.0,-287.0,-158.0,-1039.0,-542.0,53.0,0.0,0.0,0.0
19:36:48.289000,224.0,-123.0,-37.0,-1039.0,-542.0,53.0,0.0,0.0,0.0
19:36:48.294000,279.0,56.0,-18.0,-1136.0,-452.0,36.0,0.0,0.0,0.0
19:36:48.298000,315.0,215.0,11.0,-1136.0,-452.0,36.0,0.0,0.0,0.0
19:36:48.303000,345.0,394.0,133.0,-1136.0,-452.0,36.0,0.0,0.0,0.0
19:36:48.308000,403.0,541.0,284.0,-1164.0,-371.0,17.0,0.0,0.0,0.0
19:36:48.313000,431.0,718.0,428.0,-1157.0,-373.0,13.0,0.0,0.0,0.0
19:36:48.317000,452.0,881.0,564.0,-1157.0,-373.0,13.0,0.0,0.0,0.0
19:36:48.322000,491.0,1063.0,662.0,-1157.0,-373.0,13.0,0.0,0.0,0.0
19:36:48.327000,522.0,1229.0,690.0,-1169.0,-377.0,3.0,0.0,0.0,0.0
19:36:48.331000,538.0,1396.0,716.0,-1169.0,-377.0,3.0,0.0,0.0,0.0
19:36:48.336000,539.0,1558.0,812.0,-1164.0,-366.0,-32.0,0.0,0.0,0.0
19:36:48.341000,547.0,1706.0,904.0,-1164.0,-366.0,-32.0,0.0,0.0,0.0
19:36:48.345000,536.0,1856.0,973.0,-1204.0,-343.0,-72.0,0.0,0.0,0.0
19:36:48.350000,536.0,1856.0,973.0,-1204.0,-343.0,-72.0,0.0,0.0,0.0
19:36:48.355000,543.0,1986.0,1057.0,-1229.0,-376.0,-111.0,0.0,0.0,0.0
19:36:48.360000,571.0,2109.0,1108.0,-1229.0,-376.0,-111.0,0.0,0.0,0.0
19:36:48.364000,595.0,2233.0,1108.0,-1183.0,-434.0,-159.0,0.0,0.0,0.0
19:36:48.369000,581.0,2368.0,1149.0,-1183.0,-434.0,-159.0,0.0,0.0,0.0
19:36:48.374000,617.0,2464.0,1217.0,-1103.0,-515.0,-224.0,0.0,0.0,0.0
19:36:48.378000,625.0,2566.0,1316.0,-1103.0,-515.0,-224.0,0.0,0.0,0.0
19:36:48.383000,655.0,2642.0,1392.0,-1065.0,-576.0,-299.0,0.0,0.0,0.0
19:36:48.388000,697.0,2695.0,1380.0,-1065.0,-576.0,-299.0,0.0,0.0,0.0
19:36:48.392000,699.0,2751.0,1339.0,-1020.0,-585.0,-377.0,0.0,0.0,0.0
19:36:48.397000,758.0,2767.0,1286.0,-1020.0,-585.0,-377.0,0.0,0.0,0.0
19:36:48.402000,792.0,2780.0,1318.0,-869.0,-671.0,-467.0,0.0,0.0,0.0
19:36:48.407000,855.0,2765.0,1367.0,-869.0,-671.0,-467.0,0.0,0.0,0.0
19:36:48.411000,912.0,2760.0,1353.0,-869.0,-671.0,-467.0,0.0,0.0,0.0
19:36:48.416000,1001.0,2757.0,1342.0,-754.0,-809.0,-577.0,0.0,0.0,0.0
19:36:48.421000,1090.0,2732.0,1304.0,-754.0,-809.0,-577.0,0.0,0.0,0.0
19:36:48.425000,1150.0,2730.0,1234.0,-747.0,-883.0,-694.0,0.0,0.0,0.0
19:36:48.430000,1249.0,2660.0,1075.0,-747.0,-883.0,-694.0,0.0,0.0,0.0
19:36:48.435000,1303.0,2577.0,1003.0,-687.0,-846.0,-806.0,0.0,0.0,0.0
19:36:48.439000,1334.0,2457.0,1012.0,-687.0,-846.0,-806.0,0.0,0.0,0.0
19:36:48.444000,1393.0,2305.0,1081.0,-584.0,-831.0,-904.0,0.0,0.0,0.0
19:36:48.449000,1412.0,2171.0,1033.0,-584.0,-831.0,-904.0,0.0,0.0,0.0
19:36:48.454000,1377.0,2030.0,863.0,-529.0,-787.0,-993.0,0.0,0.0,0.0
19:36:48.458000,1377.0,2030.0,863.0,-529.0,-787.0,-993.0,0.0,0.0,0.0
19:36:48.463000,1327.0,1885.0,765.0,-400.0,-579.0,-1056.0,0.0,0.0,0.0
19:36:48.468000,1257.0,1712.0,637.0,-400.0,-579.0,-1056.0,0.0,0.0,0.0
19:36:48.472000,1131.0,1555.0,506.0,-184.0,-408.0,-1067.0,0.0,0.0,0.0
19:36:48.477000,1015.0,1372.0,465.0,-184.0,-408.0,-1067.0,0.0,0.0,0.0
19:36:48.482000,918.0,1211.0,492.0,-18.0,-447.0,-1075.0,0.0,0.0,0.0
19:36:48.486000,885.0,1050.0,456.0,-18.0,-447.0,-1075.0,0.0,0.0,0.0
19:36:48.491000,848.0,931.0,439.0,1.0,-580.0,-1087.0,0.0,0.0,0.0
19:36:48.496000,809.0,828.0,388.0,1.0,-580.0,-1087.0,0.0,0.0,0.0
19:36:48.501000,819.0,729.0,352.0,-135.0,-675.0,-1085.0,0.0,0.0,0.0
19:36:48.505000,827.0,658.0,295.0,-135.0,-675.0,-1085.0,0.0,0.0,0.0
19:36:48.510000,910.0,608.0,205.0,-281.0,-783.0,-1081.0,0.0,0.0,0.0
19:36:48.515000,1014.0,588.0,137.0,-281.0,-783.0,-1081.0,0.0,0.0,0.0
19:36:48.519000,1144.0,577.0,102.0,-360.0,-900.0,-1074.0,0.0,0.0,0.0
19:36:48.524000,1179.0,562.0,51.0,-360.0,-900.0,-1074.0,0.0,0.0,0.0
19:36:48.529000,1171.0,541.0,-36.0,-360.0,-900.0,-1074.0,0.0,0.0,0.0
19:36:48.533000,1231.0,507.0,-91.0,-443.0,-821.0,-1042.0,0.0,0.0,0.0
19:36:48.538000,1253.0,487.0,-158.0,-450.0,-635.0,-1002.0,0.0,0.0,0.0
19:36:48.543000,1260.0,452.0,-187.0,-450.0,-635.0,-1002.0,0.0,0.0,0.0
19:36:48.548000,1325.0,430.0,-210.0,-450.0,-635.0,-1002.0,0.0,0.0,0.0
19:36:48.552000,1365.0,392.0,-226.0,-354.0,-607.0,-988.0,0.0,0.0,0.0
19:36:48.557000,1322.0,352.0,-294.0,-354.0,-607.0,-988.0,0.0,0.0,0.0
19:36:48.562000,1267.0,301.0,-330.0,-307.0,-505.0,-956.0,0.0,0.0,0.0
19:36:48.566000,1191.0,242.0,-345.0,-307.0,-505.0,-956.0,0.0,0.0,0.0
19:36:48.571000,1191.0,242.0,-345.0,-302.0,-290.0,-919.0,0.0,0.0,0.0
19:36:48.576000,1130.0,172.0,-366.0,-302.0,-290.0,-919.0,0.0,0.0,0.0
19:36:48.580000,1033.0,87.0,-409.0,-261.0,-165.0,-891.0,0.0,0.0,0.0
19:36:48.585000,926.0,3.0,-445.0,-261.0,-165.0,-891.0,0.0,0.0,0.0
19:36:48.590000,816.0,-103.0,-452.0,-240.0,-73.0,-850.0,0.0,0.0,0.0
19:36:48.595000,681.0,-210.0,-473.0,-240.0,-73.0,-850.0,0.0,0.0,0.0
19:36:48.599000,536.0,-336.0,-494.0,-291.0,36.0,-798.0,0.0,0.0,0.0
19:36:48.604000,377.0,-467.0,-573.0,-291.0,36.0,-798.0,0.0,0.0,0.0
19:36:48.609000,226.0,-605.0,-674.0,-406.0,90.0,-737.0,0.0,0.0,0.0
19:36:48.613000,55.0,-763.0,-773.0,-406.0,90.0,-737.0,0.0,0.0,0.0
19:36:48.618000,-118.0,-913.0,-858.0,-450.0,145.0,-678.0,0.0,0.0,0.0
19:36:48.623000,-343.0,-1079.0,-963.0,-450.0,145.0,-678.0,0.0,0.0,0.0
19:36:48.627000,-560.0,-1239.0,-1066.0,-372.0,244.0,-632.0,0.0,0.0,0.0
19:36:48.632000,-763.0,-1407.0,-1148.0,-372.0,244.0,-632.0,0.0,0.0,0.0
19:36:48.637000,-963.0,-1565.0,-1241.0,-372.0,244.0,-632.0,0.0,0.0,0.0
19:36:48.642000,-1163.0,-1718.0,-1330.0,-304.0,315.0,-594.0,0.0,0.0,0.0
19:36:48.646000,-1355.0,-1867.0,-1408.0,-304.0,315.0,-594.0,0.0,0.0,0.0
19:36:48.651000,-1541.0,-2006.0,-1439.0,-322.0,290.0,-550.0,0.0,0.0,0.0
19:36:48.656000,-1723.0,-2142.0,-1477.0,-322.0,290.0,-550.0,0.0,0.0,0.0
19:36:48.660000,-1897.0,-2256.0,-1521.0,-384.0,228.0,-499.0,0.0,0.0,0.0
19:36:48.665000,-2067.0,-2376.0,-1581.0,-384.0,228.0,-499.0,0.0,0.0,0.0
19:36:48.670000,-2219.0,-2480.0,-1625.0,-451.0,232.0,-441.0,0.0,0.0,0.0
19:36:48.674000,-2370.0,-2590.0,-1669.0,-451.0,232.0,-441.0,0.0,0.0,0.0
19:36:48.679000,-2370.0,-2590.0,-1669.0,-545.0,212.0,-380.0,0.0,0.0,0.0
19:36:48.684000,-2496.0,-2683.0,-1712.0,-545.0,212.0,-380.0,0.0,0.0,0.0
19:36:48.689000,-2643.0,-2781.0,-1745.0,-613.0,135.0,-317.0,0.0,0.0,0.0
19:36:48.693000,-2751.0,-2864.0,-1797.0,-613.0,135.0,-317.0,0.0,0.0,0.0
19:36:48.698000,-2863.0,-2948.0,-1863.0,-613.0,89.0,-249.0,0.0,0.0,0.0
19:36:48.703000,-2961.0,-3028.0,-1946.0,-613.0,89.0,-249.0,0.0,0.0,0.0
19:36:48.707000,-3075.0,-3110.0,-2009.0,-615.0,72.0,-163.0,0.0,0.0,0.0
19:36:48.712000,-3174.0,-3194.0,-2056.0,-615.0,72.0,-163.0,0.0,0.0,0.0
19:36:48.717000,-3263.0,-3273.0,-2098.0,-672.0,30.0,-56.0,0.0,0.0,0.0
19:36:48.721000,-3355.0,-3353.0,-2139.0,-672.0,30.0,-56.0,0.0,0.0,0.0
19:36:48.726000,-3455.0,-3437.0,-2162.0,-695.0,1.0,71.0,0.0,0.0,0.0
19:36:48.731000,-3545.0,-3510.0,-2216.0,-695.0,1.0,71.0,0.0,0.0,0.0
19:36:48.736000,-3660.0,-3592.0,-2275.0,-682.0,33.0,215.0,0.0,0.0,0.0
19:36:48.740000,-3788.0,-3669.0,-2306.0,-682.0,33.0,215.0,0.0,0.0,0.0
19:36:48.745000,-3920.0,-3758.0,-2299.0,-682.0,33.0,215.0,0.0,0.0,0.0
19:36:48.750000,-4043.0,-3846.0,-2303.0,-693.0,98.0,360.0,0.0,0.0,0.0
19:36:48.754000,-4183.0,-3939.0,-2342.0,-693.0,98.0,360.0,0.0,0.0,0.0
19:36:48.759000,-4320.0,-4034.0,-2371.0,-729.0,209.0,524.0,0.0,0.0,0.0
19:36:48.764000,-4433.0,-4123.0,-2358.0,-729.0,209.0,524.0,0.0,0.0,0.0
19:36:48.768000,-4538.0,-4204.0,-2319.0,-776.0,254.0,695.0,0.0,0.0,0.0
19:36:48.773000,-4624.0,-4274.0,-2295.0,-776.0,254.0,695.0,0.0,0.0,0.0
19:36:48.778000,-4692.0,-4345.0,-2271.0,-854.0,177.0,862.0,0.0,0.0,0.0
19:36:48.783000,-4742.0,-4403.0,-2193.0,-854.0,177.0,862.0,0.0,0.0,0.0
19:36:48.787000,-4742.0,-4403.0,-2193.0,-937.0,91.0,1015.0,0.0,0.0,0.0
19:36:48.792000,-4776.0,-4447.0,-2090.0,-937.0,91.0,1015.0,0.0,0.0,0.0
19:36:48.797000,-4799.0,-4480.0,-1999.0,-987.0,44.0,1142.0,0.0,0.0,0.0
19:36:48.801000,-4813.0,-4503.0,-1937.0,-987.0,44.0,1142.0,0.0,0.0,0.0
19:36:48.806000,-4816.0,-4522.0,-1869.0,-1053.0,43.0,1256.0,0.0,0.0,0.0
19:36:48.811000,-4800.0,-4524.0,-1797.0,-1053.0,43.0,1256.0,0.0,0.0,0.0
19:36:48.815000,-4776.0,-4521.0,-1727.0,-1113.0,-5.0,1351.0,0.0,0.0,0.0
19:36:48.820000,-4732.0,-4505.0,-1653.0,-1113.0,-5.0,1351.0,0.0,0.0,0.0
19:36:48.825000,-4680.0,-4473.0,-1565.0,-1118.0,-122.0,1403.0,0.0,0.0,0.0
19:36:48.830000,-4612.0,-4413.0,-1481.0,-1118.0,-122.0,1403.0,0.0,0.0,0.0
19:36:48.834000,-4545.0,-4337.0,-1435.0,-1100.0,-202.0,1402.0,0.0,0.0,0.0
19:36:48.839000,-4463.0,-4239.0,-1428.0,-1100.0,-202.0,1402.0,0.0,0.0,0.0
19:36:48.844000,-4416.0,-4141.0,-1448.0,-1137.0,-121.0,1369.0,0.0,0.0,0.0
19:36:48.848000,-4386.0,-4033.0,-1489.0,-1137.0,-121.0,1369.0,0.0,0.0,0.0
19:36:48.853000,-4361.0,-3927.0,-1537.0,-1137.0,-121.0,1369.0,0.0,0.0,0.0
19:36:48.858000,-4337.0,-3819.0,-1575.0,-1148.0,108.0,1307.0,0.0,0.0,0.0
19:36:48.862000,-4319.0,-3741.0,-1627.0,-1108.0,314.0,1264.0,0.0,0.0,0.0
19:36:48.867000,-4264.0,-3658.0,-1689.0,-1108.0,314.0,1264.0,0.0,0.0,0.0
19:36:48.872000,-4166.0,-3567.0,-1723.0,-1108.0,314.0,1264.0,0.0,0.0,0.0
19:36:48.877000,-4034.0,-3477.0,-1708.0,-1052.0,297.0,1211.0,0.0,0.0,0.0
19:36:48.881000,-3877.0,-3378.0,-1626.0,-1052.0,297.0,1211.0,0.0,0.0,0.0
19:36:48.886000,-3710.0,-3291.0,-1565.0,-1023.0,163.0,1103.0,0.0,0.0,0.0
19:36:48.891000,-3549.0,-3211.0,-1526.0,-1023.0,163.0,1103.0,0.0,0.0,0.0
19:36:48.895000,-3549.0,-3211.0,-1526.0,-1030.0,121.0,995.0,0.0,0.0,0.0
19:36:48.900000,-3392.0,-3131.0,-1460.0,-1030.0,121.0,995.0,0.0,0.0,0.0
19:36:48.905000,-3245.0,-3070.0,-1370.0,-952.0,161.0,921.0,0.0,0.0,0.0
19:36:48.909000,-3083.0,-3018.0,-1268.0,-952.0,161.0,921.0,0.0,0.0,0.0
19:36:48.914000,-2958.0,-2963.0,-1138.0,-709.0,214.0,874.0,0.0,0.0,0.0
19:36:48.919000,-2877.0,-2887.0,-1022.0,-709.0,214.0,874.0,0.0,0.0,0.0
19:36:48.924000,-2795.0,-2793.0,-980.0,-452.0,314.0,825.0,0.0,0.0,0.0
19:36:48.928000,-2705.0,-2701.0,-947.0,-452.0,314.0,825.0,0.0,0.0,0.0
19:36:48.933000,-2646.0,-2608.0,-883.0,-422.0,510.0,781.0,0.0,0.0,0.0
19:36:48.938000,-2576.0,-2508.0,-811.0,-422.0,510.0,781.0,0.0,0.0,0.0
19:36:48.942000,-2462.0,-2405.0,-765.0,-565.0,635.0,723.0,0.0,0.0,0.0
19:36:48.947000,-2328.0,-2290.0,-709.0,-565.0,635.0,723.0,0.0,0.0,0.0
19:36:48.952000,-2188.0,-2204.0,-637.0,-689.0,592.0,668.0,0.0,0.0,0.0
19:36:48.956000,-2083.0,-2133.0,-569.0,-689.0,592.0,668.0,0.0,0.0,0.0
19:36:48.961000,-2016.0,-2058.0,-502.0,-689.0,592.0,668.0,0.0,0.0,0.0
19:36:48.966000,-1927.0,-1962.0,-410.0,-716.0,493.0,633.0,0.0,0.0,0.0
19:36:48.971000,-1840.0,-1869.0,-326.0,-642.0,447.0,561.0,0.0,0.0,0.0
19:36:48.975000,-1764.0,-1778.0,-235.0,-642.0,447.0,561.0,0.0,0.0,0.0
19:36:48.980000,-1696.0,-1689.0,-182.0,-642.0,447.0,561.0,0.0,0.0,0.0
19:36:48.985000,-1621.0,-1591.0,-177.0,-594.0,469.0,471.0,0.0,0.0,0.0
19:36:48.989000,-1556.0,-1483.0,-144.0,-594.0,469.0,471.0,0.0,0.0,0.0
19:36:48.994000,-1492.0,-1389.0,-74.0,-628.0,560.0,400.0,0.0,0.0,0.0
19:36:48.999000,-1429.0,-1302.0,-37.0,-628.0,560.0,400.0,0.0,0.0,0.0
19:36:49.003000,-1394.0,-1218.0,-53.0,-635.0,627.0,353.0,0.0,0.0,0.0
19:36:49.008000,-1394.0,-1218.0,-53.0,-635.0,627.0,353.0,0.0,0.0,0.0
19:36:49.013000,-1337.0,-1149.0,-84.0,-557.0,625.0,333.0,0.0,0.0,0.0
19:36:49.018000,-1262.0,-1080.0,-119.0,-557.0,625.0,333.0,0.0,0.0,0.0
19:36:49.022000,-1190.0,-1019.0,-141.0,-442.0,678.0,315.0,0.0,0.0,0.0
19:36:49.027000,-1119.0,-968.0,-123.0,-442.0,678.0,315.0,0.0,0.0,0.0
19:36:49.032000,-1066.0,-918.0,-105.0,-356.0,763.0,292.0,0.0,0.0,0.0
19:36:49.036000,-835.0,-801.0,-182.0,-356.0,763.0,292.0,0.0,0.0,0.0
19:36:49.041000,-841.0,-793.0,-242.0,-269.0,751.0,330.0,0.0,0.0,0.0
19:36:49.046000,-792.0,-786.0,-112.0,-269.0,751.0,330.0,0.0,0.0,0.0
19:36:49.050000,-704.0,-721.0,45.0,-329.0,638.0,377.0,0.0,0.0,0.0
19:36:49.055000,-711.0,-674.0,100.0,-329.0,638.0,377.0,0.0,0.0,0.0
19:36:49.060000,-655.0,-639.0,160.0,-537.0,622.0,366.0,0.0,0.0,0.0
19:36:49.065000,-583.0,-560.0,232.0,-537.0,622.0,366.0,0.0,0.0,0.0
19:36:49.069000,-492.0,-492.0,233.0,-537.0,622.0,366.0,0.0,0.0,0.0
19:36:49.074000,-459.0,-430.0,275.0,-660.0,726.0,356.0,0.0,0.0,0.0
19:36:49.079000,-422.0,-371.0,334.0,-660.0,726.0,356.0,0.0,0.0,0.0
19:36:49.083000,-427.0,-317.0,322.0,-521.0,882.0,379.0,0.0,0.0,0.0
19:36:49.088000,-458.0,-271.0,320.0,-521.0,882.0,379.0,0.0,0.0,0.0
19:36:49.093000,-487.0,-222.0,288.0,-332.0,1003.0,433.0,0.0,0.0,0.0
19:36:49.097000,-496.0,-158.0,238.0,-332.0,1003.0,433.0,0.0,0.0,0.0
19:36:49.102000,-514.0,-123.0,235.0,-280.0,991.0,455.0,0.0,0.0,0.0
19:36:49.107000,-542.0,-86.0,266.0,-280.0,991.0,455.0,0.0,0.0,0.0
19:36:49.112000,-586.0,-63.0,294.0,-262.0,947.0,449.0,0.0,0.0,0.0
19:36:49.116000,-586.0,-63.0,294.0,-262.0,947.0,449.0,0.0,0.0,0.0
19:36:49.121000,-595.0,-45.0,293.0,-293.0,894.0,438.0,0.0,0.0,0.0
19:36:49.126000,-587.0,-30.0,251.0,-293.0,894.0,438.0,0.0,0.0,0.0
19:36:49.130000,-585.0,-15.0,219.0,-252.0,802.0,422.0,0.0,0.0,0.0
19:36:49.135000,-559.0,4.0,217.0,-252.0,802.0,422.0,0.0,0.0,0.0
19:36:49.140000,-546.0,13.0,252.0,-172.0,753.0,420.0,0.0,0.0,0.0
19:36:49.144000,-545.0,11.0,266.0,-172.0,753.0,420.0,0.0,0.0,0.0
19:36:49.149000,-542.0,15.0,222.0,-212.0,785.0,418.0,0.0,0.0,0.0
19:36:49.154000,-527.0,37.0,157.0,-212.0,785.0,418.0,0.0,0.0,0.0
19:36:49.159000,-509.0,49.0,115.0,-212.0,808.0,409.0,0.0,0.0,0.0
19:36:49.163000,-487.0,61.0,82.0,-212.0,808.0,409.0,0.0,0.0,0.0
19:36:49.168000,-476.0,73.0,62.0,-129.0,830.0,398.0,0.0,0.0,0.0
19:36:49.173000,-483.0,85.0,43.0,-129.0,830.0,398.0,0.0,0.0,0.0
19:36:49.177000,-476.0,98.0,19.0,-129.0,830.0,398.0,0.0,0.0,0.0
19:36:49.182000,-476.0,100.0,7.0,-128.0,853.0,386.0,0.0,0.0,0.0
19:36:49.187000,-479.0,104.0,-18.0,-128.0,853.0,386.0,0.0,0.0,0.0
19:36:49.191000,-476.0,105.0,-52.0,-172.0,853.0,377.0,0.0,0.0,0.0
19:36:49.196000,-478.0,105.0,-72.0,-172.0,853.0,377.0,0.0,0.0,0.0
19:36:49.201000,-465.0,97.0,-98.0,-163.0,870.0,371.0,0.0,0.0,0.0
19:36:49.206000,-438.0,93.0,-103.0,-163.0,870.0,371.0,0.0,0.0,0.0
19:36:49.210000,-423.0,84.0,-116.0,-109.0,869.0,359.0,0.0,0.0,0.0
19:36:49.215000,-397.0,75.0,-151.0,-109.0,869.0,359.0,0.0,0.0,0.0
19:36:49.220000,-379.0,68.0,-158.0,-77.0,848.0,346.0,0.0,0.0,0.0
19:36:49.224000,-379.0,68.0,-158.0,-77.0,848.0,346.0,0.0,0.0,0.0
19:36:49.229000,-350.0,63.0,-129.0,-75.0,859.0,329.0,0.0,0.0,0.0
19:36:49.234000,-347.0,58.0,-112.0,-75.0,859.0,329.0,0.0,0.0,0.0
19:36:49.238000,-350.0,43.0,-105.0,-86.0,924.0,321.0,0.0,0.0,0.0
19:36:49.243000,-345.0,35.0,-109.0,-86.0,924.0,321.0,0.0,0.0,0.0
19:36:49.248000,-357.0,26.0,-93.0,-83.0,947.0,329.0,0.0,0.0,0.0
19:36:49.253000,-349.0,19.0,-63.0,-83.0,947.0,329.0,0.0,0.0,0.0
19:36:49.257000,-329.0,20.0,-38.0,-74.0,916.0,325.0,0.0,0.0,0.0
19:36:49.262000,-320.0,23.0,-9.0,-74.0,916.0,325.0,0.0,0.0,0.0
19:36:49.267000,-299.0,25.0,13.0,-81.0,903.0,321.0,0.0,0.0,0.0
19:36:49.271000,-280.0,23.0,18.0,-81.0,903.0,321.0,0.0,0.0,0.0
19:36:49.276000,-260.0,20.0,4.0,-65.0,901.0,332.0,0.0,0.0,0.0
19:36:49.281000,-236.0,14.0,-2.0,-65.0,901.0,332.0,0.0,0.0,0.0
19:36:49.285000,-210.0,10.0,-18.0,-29.0,899.0,348.0,0.0,0.0,0.0
19:36:49.290000,-196.0,7.0,-42.0,-29.0,899.0,348.0,0.0,0.0,0.0
19:36:49.295000,-168.0,0.0,-63.0,-29.0,899.0,348.0,0.0,0.0,0.0
19:36:49.300000,-154.0,-5.0,-80.0,19.0,909.0,359.0,0.0,0.0,0.0
19:36:49.304000,-148.0,-16.0,-96.0,19.0,909.0,359.0,0.0,0.0,0.0
19:36:49.309000,-143.0,-25.0,-107.0,57.0,941.0,364.0,0.0,0.0,0.0
19:36:49.314000,-140.0,-35.0,-98.0,57.0,941.0,364.0,0.0,0.0,0.0
19:36:49.318000,-130.0,-47.0,-79.0,46.0,957.0,364.0,0.0,0.0,0.0
19:36:49.323000,-117.0,-55.0,-76.0,46.0,957.0,364.0,0.0,0.0,0.0
19:36:49.328000,-102.0,-63.0,-78.0,0.0,949.0,362.0,0.0,0.0,0.0
19:36:49.332000,-84.0,-68.0,-73.0,0.0,949.0,362.0,0.0,0.0,0.0
19:36:49.337000,-84.0,-68.0,-73.0,-13.0,941.0,360.0,0.0,0.0,0.0
19:36:49.342000,-67.0,-70.0,-49.0,-13.0,941.0,360.0,0.0,0.0,0.0
19:36:49.347000,-52.0,-72.0,-25.0,-3.0,936.0,357.0,0.0,0.0,0.0
19:36:49.351000,-35.0,-70.0,-14.0,-3.0,936.0,357.0,0.0,0.0,0.0
19:36:49.356000,-11.0,-66.0,-5.0,-25.0,917.0,355.0,0.0,0.0,0.0
19:36:49.361000,9.0,-57.0,11.0,-25.0,917.0,355.0,0.0,0.0,0.0
19:36:49.365000,30.0,-46.0,39.0,-57.0,882.0,357.0,0.0,0.0,0.0
19:36:49.370000,50.0,-37.0,53.0,-57.0,882.0,357.0,0.0,0.0,0.0
19:36:49.375000,73.0,-20.0,35.0,-98.0,884.0,361.0,0.0,0.0,0.0
19:36:49.379000,93.0,-5.0,-7.0,-98.0,884.0,361.0,0.0,0.0,0.0
19:36:49.384000,104.0,8.0,-51.0,-128.0,925.0,363.0,0.0,0.0,0.0
19:36:49.389000,112.0,23.0,-83.0,-128.0,925.0,363.0,0.0,0.0,0.0
19:36:49.394000,121.0,30.0,-102.0,-127.0,949.0,364.0,0.0,0.0,0.0
19:36:49.398000,130.0,39.0,-132.0,-127.0,949.0,364.0,0.0,0.0,0.0
19:36:49.403000,136.0,46.0,-175.0,-127.0,949.0,364.0,0.0,0.0,0.0
19:36:49.408000,148.0,47.0,-207.0,-122.0,963.0,359.0,0.0,0.0,0.0
19:36:49.412000,165.0,48.0,-225.0,-122.0,963.0,359.0,0.0,0.0,0.0
19:36:49.417000,184.0,46.0,-245.0,-109.0,964.0,350.0,0.0,0.0,0.0
19:36:49.422000,212.0,46.0,-274.0,-109.0,964.0,350.0,0.0,0.0,0.0
19:36:49.426000,244.0,49.0,-298.0,-97.0,943.0,333.0,0.0,0.0,0.0
19:36:49.431000,281.0,51.0,-310.0,-97.0,943.0,333.0,0.0,0.0,0.0
19:36:49.436000,319.0,60.0,-304.0,-88.0,921.0,309.0,0.0,0.0,0.0
19:36:49.441000,347.0,72.0,-289.0,-88.0,921.0,309.0,0.0,0.0,0.0
19:36:49.445000,347.0,72.0,-289.0,-102.0,916.0,288.0,0.0,0.0,0.0
19:36:49.450000,371.0,86.0,-263.0,-102.0,916.0,288.0,0.0,0.0,0.0
19:36:49.455000,389.0,100.0,-238.0,-137.0,924.0,277.0,0.0,0.0,0.0
19:36:49.459000,403.0,119.0,-214.0,-137.0,924.0,277.0,0.0,0.0,0.0
19:36:49.464000,414.0,141.0,-182.0,-154.0,932.0,268.0,0.0,0.0,0.0
19:36:49.469000,422.0,162.0,-150.0,-154.0,932.0,268.0,0.0,0.0,0.0
19:36:49.473000,428.0,179.0,-125.0,-146.0,949.0,264.0,0.0,0.0,0.0
19:36:49.478000,436.0,193.0,-105.0,-146.0,949.0,264.0,0.0,0.0,0.0
19:36:49.483000,451.0,210.0,-91.0,-123.0,968.0,261.0,0.0,0.0,0.0
19:36:49.488000,468.0,233.0,-102.0,-123.0,968.0,261.0,0.0,0.0,0.0
19:36:49.492000,487.0,261.0,-109.0,-117.0,979.0,261.0,0.0,0.0,0.0
19:36:49.497000,513.0,292.0,-102.0,-117.0,979.0,261.0,0.0,0.0,0.0
19:36:49.502000,546.0,332.0,-79.0,-144.0,955.0,260.0,0.0,0.0,0.0
19:36:49.506000,585.0,379.0,-59.0,-144.0,955.0,260.0,0.0,0.0,0.0
19:36:49.511000,636.0,430.0,-59.0,-144.0,955.0,260.0,0.0,0.0,0.0
19:36:49.516000,700.0,483.0,-71.0,-197.0,923.0,246.0,0.0,0.0,0.0
19:36:49.520000,779.0,539.0,-77.0,-197.0,923.0,246.0,0.0,0.0,0.0
19:36:49.525000,876.0,597.0,-85.0,-249.0,894.0,227.0,0.0,0.0,0.0
19:36:49.530000,999.0,662.0,-89.0,-249.0,894.0,227.0,0.0,0.0,0.0
19:36:49.535000,1124.0,731.0,-74.0,-271.0,829.0,206.0,0.0,0.0,0.0
19:36:49.539000,1250.0,800.0,-32.0,-271.0,829.0,206.0,0.0,0.0,0.0
19:36:49.544000,1379.0,863.0,29.0,-272.0,746.0,206.0,0.0,0.0,0.0
19:36:49.549000,1508.0,920.0,105.0,-272.0,746.0,206.0,0.0,0.0,0.0
19:36:49.553000,1508.0,920.0,105.0,-264.0,696.0,244.0,0.0,0.0,0.0
19:36:49.558000,1641.0,975.0,175.0,-264.0,696.0,244.0,0.0,0.0,0.0
19:36:49.563000,1759.0,1023.0,249.0,-252.0,711.0,294.0,0.0,0.0,0.0
19:36:49.567000,1866.0,1071.0,341.0,-252.0,711.0,294.0,0.0,0.0,0.0
19:36:49.572000,1966.0,1117.0,434.0,-240.0,754.0,335.0,0.0,0.0,0.0
19:36:49.577000,2058.0,1162.0,519.0,-240.0,754.0,335.0,0.0,0.0,0.0
19:36:49.582000,2139.0,1208.0,602.0,-239.0,791.0,372.0,0.0,0.0,0.0
19:36:49.586000,2212.0,1256.0,673.0,-239.0,791.0,372.0,0.0,0.0,0.0
19:36:49.591000,2278.0,1302.0,730.0,-257.0,809.0,419.0,0.0,0.0,0.0
19:36:49.596000,2345.0,1342.0,780.0,-257.0,809.0,419.0,0.0,0.0,0.0
19:36:49.600000,2414.0,1381.0,823.0,-281.0,761.0,459.0,0.0,0.0,0.0
19:36:49.605000,2471.0,1417.0,864.0,-281.0,761.0,459.0,0.0,0.0,0.0
19:36:49.610000,2531.0,1460.0,928.0,-307.0,652.0,484.0,0.0,0.0,0.0
19:36:49.614000,2595.0,1509.0,991.0,-307.0,652.0,484.0,0.0,0.0,0.0
19:36:49.619000,2643.0,1542.0,1028.0,-307.0,652.0,484.0,0.0,0.0,0.0
19:36:49.624000,2683.0,1574.0,1038.0,-331.0,617.0,510.0,0.0,0.0,0.0
19:36:49.628000,2725.0,1605.0,1038.0,-331.0,617.0,510.0,0.0,0.0,0.0
19:36:49.633000,2756.0,1637.0,1032.0,-368.0,648.0,528.0,0.0,0.0,0.0
19:36:49.638000,2772.0,1661.0,1032.0,-368.0,648.0,528.0,0.0,0.0,0.0
19:36:49.643000,2775.0,1687.0,1052.0,-418.0,650.0,542.0,0.0,0.0,0.0
19:36:49.647000,2787.0,1724.0,1075.0,-418.0,650.0,542.0,0.0,0.0,0.0
19:36:49.652000,2806.0,1761.0,1064.0,-459.0,639.0,549.0,0.0,0.0,0.0
19:36:49.657000,2826.0,1797.0,1045.0,-459.0,639.0,549.0,0.0,0.0,0.0
19:36:49.661000,2826.0,1797.0,1045.0,-527.0,612.0,544.0,0.0,0.0,0.0
19:36:49.666000,2840.0,1828.0,1055.0,-527.0,612.0,544.0,0.0,0.0,0.0
19:36:49.671000,2849.0,1856.0,1089.0,-565.0,545.0,551.0,0.0,0.0,0.0
19:36:49.675000,2859.0,1879.0,1133.0,-565.0,545.0,551.0,0.0,0.0,0.0
19:36:49.680000,2879.0,1894.0,1170.0,-551.0,457.0,557.0,0.0,0.0,0.0
19:36:49.685000,2915.0,1909.0,1188.0,-551.0,457.0,557.0,0.0,0.0,0.0
19:36:49.690000,2956.0,1925.0,1210.0,-540.0,355.0,541.0,0.0,0.0,0.0
19:36:49.694000,2999.0,1934.0,1255.0,-540.0,355.0,541.0,0.0,0.0,0.0
19:36:49.699000,3039.0,1941.0,1303.0,-552.0,303.0,529.0,0.0,0.0,0.0
19:36:49.704000,3061.0,1936.0,1341.0,-552.0,303.0,529.0,0.0,0.0,0.0
19:36:49.708000,3076.0,1939.0,1371.0,-609.0,328.0,528.0,0.0,0.0,0.0
19:36:49.713000,3082.0,1946.0,1403.0,-609.0,328.0,528.0,0.0,0.0,0.0
19:36:49.718000,3087.0,1962.0,1464.0,-668.0,287.0,537.0,0.0,0.0,0.0
19:36:49.722000,3096.0,1988.0,1525.0,-668.0,287.0,537.0,0.0,0.0,0.0
19:36:49.727000,3112.0,2018.0,1556.0,-668.0,287.0,537.0,0.0,0.0,0.0
19:36:49.732000,3126.0,2058.0,1584.0,-699.0,151.0,563.0,0.0,0.0,0.0
19:36:49.737000,3148.0,2107.0,1599.0,-699.0,151.0,563.0,0.0,0.0,0.0
19:36:49.741000,3166.0,2145.0,1589.0,-743.0,44.0,614.0,0.0,0.0,0.0
19:36:49.746000,3191.0,2184.0,1586.0,-743.0,44.0,614.0,0.0,0.0,0.0
19:36:49.751000,3236.0,2219.0,1603.0,-818.0,-68.0,672.0,0.0,0.0,0.0
19:36:49.755000,3301.0,2246.0,1611.0,-818.0,-68.0,672.0,0.0,0.0,0.0
19:36:49.760000,3366.0,2272.0,1596.0,-896.0,-212.0,699.0,0.0,0.0,0.0
19:36:49.765000,3422.0,2303.0,1579.0,-896.0,-212.0,699.0,0.0,0.0,0.0
19:36:49.769000,3469.0,2331.0,1589.0,-953.0,-264.0,712.0,0.0,0.0,0.0
19:36:49.774000,3469.0,2331.0,1589.0,-953.0,-264.0,712.0,0.0,0.0,0.0
19:36:49.779000,3515.0,2347.0,1615.0,-962.0,-272.0,723.0,0.0,0.0,0.0
19:36:49.784000,3560.0,2359.0,1658.0,-962.0,-272.0,723.0,0.0,0.0,0.0
19:36:49.788000,3609.0,2377.0,1708.0,-912.0,-353.0,729.0,0.0,0.0,0.0
19:36:49.793000,3663.0,2414.0,1799.0,-912.0,-353.0,729.0,0.0,0.0,0.0
19:36:49.798000,3737.0,2450.0,1891.0,-876.0,-465.0,734.0,0.0,0.0,0.0
19:36:49.802000,3817.0,2490.0,1937.0,-876.0,-465.0,734.0,0.0,0.0,0.0
19:36:49.807000,3896.0,2534.0,1955.0,-925.0,-533.0,748.0,0.0,0.0,0.0
19:36:49.812000,3982.0,2582.0,1974.0,-925.0,-533.0,748.0,0.0,0.0,0.0
19:36:49.816000,4078.0,2632.0,2015.0,-967.0,-607.0,792.0,0.0,0.0,0.0
19:36:49.821000,4172.0,2679.0,2054.0,-967.0,-607.0,792.0,0.0,0.0,0.0
19:36:49.826000,4255.0,2744.0,2058.0,-971.0,-669.0,855.0,0.0,0.0,0.0
19:36:49.831000,4316.0,2819.0,2054.0,-971.0,-669.0,855.0,0.0,0.0,0.0
19:36:49.835000,4339.0,2900.0,2065.0,-971.0,-669.0,855.0,0.0,0.0,0.0
19:36:49.840000,4309.0,2986.0,2072.0,-1008.0,-600.0,908.0,0.0,0.0,0.0
19:36:49.845000,4260.0,3074.0,2085.0,-1008.0,-600.0,908.0,0.0,0.0,0.0
19:36:49.849000,4211.0,3156.0,2097.0,-1051.0,-445.0,937.0,0.0,0.0,0.0
19:36:49.854000,4167.0,3234.0,2087.0,-1051.0,-445.0,937.0,0.0,0.0,0.0
19:36:49.859000,4138.0,3307.0,2051.0,-1089.0,-446.0,919.0,0.0,0.0,0.0
19:36:49.863000,4130.0,3366.0,2008.0,-1089.0,-446.0,919.0,0.0,0.0,0.0
19:36:49.868000,4122.0,3416.0,1988.0,-1124.0,-615.0,837.0,0.0,0.0,0.0
19:36:49.873000,4101.0,3458.0,1979.0,-1124.0,-615.0,837.0,0.0,0.0,0.0
19:36:49.878000,4056.0,3490.0,1930.0,-1143.0,-748.0,721.0,0.0,0.0,0.0
19:36:49.882000,4056.0,3490.0,1930.0,-1143.0,-748.0,721.0,0.0,0.0,0.0
19:36:49.887000,3976.0,3514.0,1852.0,-1149.0,-702.0,600.0,0.0,0.0,0.0
19:36:49.892000,3876.0,3525.0,1818.0,-1149.0,-702.0,600.0,0.0,0.0,0.0
19:36:49.896000,3762.0,3525.0,1824.0,-1123.0,-530.0,485.0,0.0,0.0,0.0
19:36:49.901000,3621.0,3513.0,1803.0,-1123.0,-530.0,485.0,0.0,0.0,0.0
19:36:49.906000,3462.0,3475.0,1736.0,-1012.0,-402.0,367.0,0.0,0.0,0.0
19:36:49.910000,3297.0,3412.0,1670.0,-1012.0,-402.0,367.0,0.0,0.0,0.0
19:36:49.915000,3130.0,3328.0,1607.0,-846.0,-374.0,217.0,0.0,0.0,0.0
19:36:49.920000,2972.0,3229.0,1542.0,-846.0,-374.0,217.0,0.0,0.0,0.0
19:36:49.925000,2814.0,3117.0,1503.0,-719.0,-398.0,30.0,0.0,0.0,0.0
19:36:49.929000,2637.0,2977.0,1500.0,-719.0,-398.0,30.0,0.0,0.0,0.0
19:36:49.934000,2451.0,2829.0,1512.0,-634.0,-384.0,-153.0,0.0,0.0,0.0
19:36:49.939000,2276.0,2678.0,1507.0,-634.0,-384.0,-153.0,0.0,0.0,0.0
19:36:49.943000,2116.0,2512.0,1435.0,-634.0,-384.0,-153.0,0.0,0.0,0.0
19:36:49.948000,1951.0,2322.0,1320.0,-599.0,-358.0,-334.0,0.0,0.0,0.0
19:36:49.953000,1796.0,2116.0,1220.0,-599.0,-358.0,-334.0,0.0,0.0,0.0
19:36:49.957000,1644.0,1906.0,1138.0,-529.0,-401.0,-512.0,0.0,0.0,0.0
19:36:49.962000,1478.0,1685.0,1048.0,-529.0,-401.0,-512.0,0.0,0.0,0.0
19:36:49.967000,1320.0,1456.0,935.0,-352.0,-450.0,-640.0,0.0,0.0,0.0
19:36:49.972000,1171.0,1222.0,800.0,-352.0,-450.0,-640.0,0.0,0.0,0.0
19:36:49.976000,1030.0,995.0,661.0,-189.0,-449.0,-714.0,0.0,0.0,0.0
19:36:49.981000,903.0,774.0,532.0,-189.0,-449.0,-714.0,0.0,0.0,0.0
19:36:49.986000,793.0,567.0,408.0,-99.0,-498.0,-762.0,0.0,0.0,0.0
19:36:49.990000,793.0,567.0,408.0,-99.0,-498.0,-762.0,0.0,0.0,0.0
19:36:49.995000,695.0,372.0,245.0,-134.0,-567.0,-788.0,0.0,0.0,0.0
19:36:50.000000,613.0,189.0,65.0,-134.0,-567.0,-788.0,0.0,0.0,0.0
19:36:50.004000,536.0,12.0,-81.0,-279.0,-584.0,-793.0,0.0,0.0,0.0
19:36:50.009000,444.0,-163.0,-207.0,-279.0,-584.0,-793.0,0.0,0.0,0.0
19:36:50.014000,347.0,-339.0,-340.0,-420.0,-540.0,-779.0,0.0,0.0,0.0
19:36:50.019000,246.0,-517.0,-490.0,-420.0,-540.0,-779.0,0.0,0.0,0.0
19:36:50.023000,144.0,-692.0,-644.0,-453.0,-462.0,-759.0,0.0,0.0,0.0
19:36:50.028000,43.0,-866.0,-801.0,-453.0,-462.0,-759.0,0.0,0.0,0.0
19:36:50.033000,-54.0,-1041.0,-921.0,-361.0,-439.0,-722.0,0.0,0.0,0.0
19:36:50.037000,-147.0,-1218.0,-998.0,-361.0,-439.0,-722.0,0.0,0.0,0.0
19:36:50.042000,-228.0,-1386.0,-1080.0,-245.0,-513.0,-663.0,0.0,0.0,0.0
19:36:50.047000,-284.0,-1539.0,-1174.0,-245.0,-513.0,-663.0,0.0,0.0,0.0
19:36:50.051000,-312.0,-1673.0,-1266.0,-214.0,-620.0,-617.0,0.0,0.0,0.0
19:36:50.056000,-326.0,-1792.0,-1348.0,-214.0,-620.0,-617.0,0.0,0.0,0.0
19:36:50.061000,-343.0,-1890.0,-1424.0,-214.0,-620.0,-617.0,0.0,0.0,0.0
19:36:50.066000,-370.0,-1974.0,-1495.0,-302.0,-616.0,-579.0,0.0,0.0,0.0
19:36:50.070000,-403.0,-2053.0,-1556.0,-302.0,-616.0,-579.0,0.0,0.0,0.0
19:36:50.075000,-434.0,-2119.0,-1602.0,-455.0,-507.0,-522.0,0.0,0.0,0.0
19:36:50.080000,-455.0,-2171.0,-1651.0,-455.0,-507.0,-522.0,0.0,0.0,0.0
19:36:50.084000,-472.0,-2212.0,-1684.0,-571.0,-436.0,-457.0,0.0,0.0,0.0
19:36:50.089000,-490.0,-2243.0,-1658.0,-571.0,-436.0,-457.0,0.0,0.0,0.0
19:36:50.094000,-495.0,-2269.0,-1589.0,-620.0,-475.0,-396.0,0.0,0.0,0.0
19:36:50.098000,-491.0,-2284.0,-1531.0,-620.0,-475.0,-396.0,0.0,0.0,0.0
19:36:50.103000,-491.0,-2284.0,-1531.0,-651.0,-528.0,-332.0,0.0,0.0,0.0
19:36:50.108000,-478.0,-2291.0,-1484.0,-651.0,-528.0,-332.0,0.0,0.0,0.0
19:36:50.113000,-459.0,-2286.0,-1459.0,-714.0,-528.0,-267.0,0.0,0.0,0.0
19:36:50.117000,-435.0,-2275.0,-1442.0,-714.0,-528.0,-267.0,0.0,0.0,0.0
19:36:50.122000,-406.0,-2253.0,-1410.0,-805.0,-530.0,-206.0,0.0,0.0,0.0
19:36:50.127000,-381.0,-2220.0,-1361.0,-805.0,-530.0,-206.0,0.0,0.0,0.0
19:36:50.131000,-364.0,-2183.0,-1313.0,-901.0,-520.0,-145.0,0.0,0.0,0.0
19:36:50.136000,-364.0,-2139.0,-1282.0,-901.0,-520.0,-145.0,0.0,0.0,0.0
19:36:50.141000,-359.0,-2095.0,-1269.0,-965.0,-480.0,-100.0,0.0,0.0,0.0
19:36:50.145000,-350.0,-2044.0,-1278.0,-965.0,-480.0,-100.0,0.0,0.0,0.0
19:36:50.150000,-344.0,-1995.0,-1293.0,-972.0,-435.0,-86.0,0.0,0.0,0.0
19:36:50.155000,-352.0,-1944.0,-1276.0,-972.0,-435.0,-86.0,0.0,0.0,0.0
19:36:50.160000,-354.0,-1890.0,-1271.0,-972.0,-435.0,-86.0,0.0,0.0,0.0
