hh:mm:ss.ms,gyroX[mdps],gyroY[mdps],gyroZ[mdps],accX[mg],accY[mg],accZ[mg],magX[mG],magY[mG],magZ[mG]
19:36:28.320000,2996.0,2370.0,276.0,-600.0,293.0,982.0,0.0,0.0,0.0
19:36:28.325000,2996.0,2370.0,276.0,-600.0,293.0,982.0,0.0,0.0,0.0
19:36:28.329000,2913.0,2405.0,363.0,-706.0,289.0,960.0,0.0,0.0,0.0
19:36:28.334000,2845.0,2430.0,455.0,-706.0,289.0,960.0,0.0,0.0,0.0
19:36:28.338000,2816.0,2438.0,464.0,-832.0,147.0,921.0,0.0,0.0,0.0
19:36:28.344000,2797.0,2433.0,445.0,-832.0,147.0,921.0,0.0,0.0,0.0
19:36:28.348000,2782.0,2420.0,441.0,-920.0,-79.0,898.0,0.0,0.0,0.0
19:36:28.353000,2769.0,2396.0,438.0,-920.0,-79.0,898.0,0.0,0.0,0.0
19:36:28.358000,2753.0,2357.0,424.0,-866.0,-188.0,900.0,0.0,0.0,0.0
19:36:28.362000,2721.0,2316.0,410.0,-866.0,-188.0,900.0,0.0,0.0,0.0
19:36:28.367000,2678.0,2261.0,375.0,-759.0,-148.0,917.0,0.0,0.0,0.0
19:36:28.372000,2626.0,2207.0,310.0,-759.0,-148.0,917.0,0.0,0.0,0.0
19:36:28.376000,2545.0,2161.0,275.0,-653.0,-92.0,930.0,0.0,0.0,0.0
19:36:28.381000,2445.0,2104.0,273.0,-653.0,-92.0,930.0,0.0,0.0,0.0
19:36:28.386000,2354.0,2047.0,252.0,-653.0,-92.0,930.0,0.0,0.0,0.0
19:36:28.391000,2261.0,1991.0,207.0,-574.0,-78.0,928.0,0.0,0.0,0.0
19:36:28.395000,2164.0,1933.0,155.0,-574.0,-78.0,928.0,0.0,0.0,0.0
19:36:28.400000,2063.0,1883.0,121.0,-555.0,-70.0,912.0,0.0,0.0,0.0
19:36:28.405000,1957.0,1837.0,101.0,-555.0,-70.0,912.0,0.0,0.0,0.0
19:36:28.409000,1856.0,1796.0,84.0,-581.0,-15.0,876.0,0.0,0.0,0.0
19:36:28.414000,1755.0,1758.0,78.0,-581.0,-15.0,876.0,0.0,0.0,0.0
19:36:28.419000,1653.0,1721.0,107.0,-648.0,48.0,818.0,0.0,0.0,0.0
19:36:28.423000,1561.0,1680.0,144.0,-648.0,48.0,818.0,0.0,0.0,0.0
19:36:28.428000,1487.0,1642.0,156.0,-698.0,15.0,762.0,0.0,0.0,0.0
19:36:28.433000,1487.0,1642.0,156.0,-698.0,15.0,762.0,0.0,0.0,0.0
19:36:28.438000,1423.0,1603.0,144.0,-708.0,-86.0,716.0,0.0,0.0,0.0
19:36:28.442000,1370.0,1567.0,146.0,-708.0,-86.0,716.0,0.0,0.0,0.0
19:36:28.447000,1330.0,1533.0,184.0,-704.0,-154.0,661.0,0.0,0.0,0.0
19:36:28.452000,1297.0,1505.0,217.0,-704.0,-154.0,661.0,0.0,0.0,0.0
19:36:28.456000,1261.0,1481.0,201.0,-748.0,-124.0,599.0,0.0,0.0,0.0
19:36:28.461000,1216.0,1455.0,163.0,-748.0,-124.0,599.0,0.0,0.0,0.0
19:36:28.466000,1172.0,1423.0,161.0,-777.0,-100.0,546.0,0.0,0.0,0.0
19:36:28.470000,1132.0,1395.0,188.0,-777.0,-100.0,546.0,0.0,0.0,0.0
19:36:28.475000,1082.0,1372.0,206.0,-731.0,-144.0,502.0,0.0,0.0,0.0
19:36:28.480000,1029.0,1348.0,203.0,-731.0,-144.0,502.0,0.0,0.0,0.0
19:36:28.485000,972.0,1323.0,198.0,-712.0,-139.0,466.0,0.0,0.0,0.0
19:36:28.489000,917.0,1293.0,202.0,-712.0,-139.0,466.0,0.0,0.0,0.0
19:36:28.494000,849.0,1260.0,215.0,-712.0,-108.0,466.0,0.0,0.0,0.0
19:36:28.499000,771.0,1223.0,241.0,-725.0,-103.0,437.0,0.0,0.0,0.0
19:36:28.503000,691.0,1180.0,266.0,-725.0,-103.0,437.0,0.0,0.0,0.0
19:36:28.508000,620.0,1139.0,264.0,-738.0,-61.0,409.0,0.0,0.0,0.0
19:36:28.513000,552.0,1094.0,252.0,-738.0,-61.0,409.0,0.0,0.0,0.0
19:36:28.517000,497.0,1049.0,249.0,-733.0,-26.0,371.0,0.0,0.0,0.0
19:36:28.522000,447.0,1008.0,256.0,-733.0,-26.0,371.0,0.0,0.0,0.0
19:36:28.527000,400.0,974.0,277.0,-723.0,-67.0,315.0,0.0,0.0,0.0
19:36:28.532000,363.0,938.0,315.0,-723.0,-67.0,315.0,0.0,0.0,0.0
19:36:28.536000,326.0,907.0,309.0,-762.0,-194.0,245.0,0.0,0.0,0.0
19:36:28.541000,326.0,907.0,309.0,-762.0,-194.0,245.0,0.0,0.0,0.0
19:36:28.546000,318.0,890.0,268.0,-860.0,-343.0,177.0,0.0,0.0,0.0
19:36:28.550000,310.0,872.0,242.0,-860.0,-343.0,177.0,0.0,0.0,0.0
19:36:28.555000,299.0,862.0,214.0,-919.0,-425.0,138.0,0.0,0.0,0.0
19:36:28.560000,292.0,842.0,199.0,-919.0,-425.0,138.0,0.0,0.0,0.0
19:36:28.564000,282.0,823.0,186.0,-899.0,-441.0,120.0,0.0,0.0,0.0
19:36:28.569000,283.0,807.0,142.0,-899.0,-441.0,120.0,0.0,0.0,0.0
19:36:28.573000,284.0,791.0,82.0,-849.0,-452.0,92.0,0.0,0.0,0.0
19:36:28.579000,275.0,772.0,45.0,-849.0,-452.0,92.0,0.0,0.0,0.0
19:36:28.583000,273.0,746.0,30.0,-799.0,-436.0,65.0,0.0,0.0,0.0
19:36:28.588000,266.0,723.0,37.0,-799.0,-436.0,65.0,0.0,0.0,0.0
19:36:28.593000,268.0,698.0,53.0,-792.0,-433.0,41.0,0.0,0.0,0.0
19:36:28.597000,271.0,671.0,72.0,-792.0,-433.0,41.0,0.0,0.0,0.0
19:36:28.602000,279.0,650.0,89.0,-824.0,-470.0,6.0,0.0,0.0,0.0
19:36:28.607000,284.0,637.0,99.0,-824.0,-470.0,6.0,0.0,0.0,0.0
19:36:28.611000,277.0,613.0,109.0,-824.0,-470.0,6.0,0.0,0.0,0.0
19:36:28.616000,271.0,590.0,131.0,-880.0,-440.0,-24.0,0.0,0.0,0.0
19:36:28.621000,263.0,565.0,147.0,-880.0,-440.0,-24.0,0.0,0.0,0.0
19:36:28.626000,264.0,542.0,146.0,-939.0,-408.0,-43.0,0.0,0.0,0.0
19:36:28.630000,277.0,520.0,141.0,-939.0,-408.0,-43.0,0.0,0.0,0.0
19:36:28.635000,297.0,494.0,128.0,-966.0,-446.0,-63.0,0.0,0.0,0.0
19:36:28.640000,329.0,463.0,116.0,-966.0,-446.0,-63.0,0.0,0.0,0.0
19:36:28.644000,360.0,429.0,113.0,-968.0,-497.0,-82.0,0.0,0.0,0.0
19:36:28.649000,391.0,395.0,96.0,-968.0,-497.0,-82.0,0.0,0.0,0.0
19:36:28.654000,391.0,395.0,96.0,-940.0,-535.0,-95.0,0.0,0.0,0.0
19:36:28.658000,416.0,360.0,79.0,-940.0,-535.0,-95.0,0.0,0.0,0.0
19:36:28.663000,443.0,328.0,78.0,-869.0,-539.0,-97.0,0.0,0.0,0.0
19:36:28.668000,455.0,295.0,85.0,-869.0,-539.0,-97.0,0.0,0.0,0.0
19:36:28.673000,445.0,262.0,79.0,-829.0,-475.0,-81.0,0.0,0.0,0.0
19:36:28.677000,434.0,233.0,59.0,-829.0,-475.0,-81.0,0.0,0.0,0.0
19:36:28.682000,415.0,211.0,57.0,-837.0,-419.0,-55.0,0.0,0.0,0.0
19:36:28.687000,399.0,189.0,58.0,-837.0,-419.0,-55.0,0.0,0.0,0.0
19:36:28.691000,373.0,168.0,36.0,-835.0,-443.0,-37.0,0.0,0.0,0.0
19:36:28.696000,350.0,150.0,23.0,-835.0,-443.0,-37.0,0.0,0.0,0.0
19:36:28.701000,325.0,135.0,16.0,-827.0,-470.0,-35.0,0.0,0.0,0.0
19:36:28.705000,309.0,117.0,-4.0,-827.0,-470.0,-35.0,0.0,0.0,0.0
19:36:28.710000,293.0,102.0,-21.0,-831.0,-432.0,-45.0,0.0,0.0,0.0
19:36:28.715000,285.0,86.0,-47.0,-831.0,-432.0,-45.0,0.0,0.0,0.0
19:36:28.720000,278.0,65.0,-73.0,-831.0,-432.0,-45.0,0.0,0.0,0.0
19:36:28.724000,277.0,47.0,-83.0,-843.0,-425.0,-54.0,0.0,0.0,0.0
19:36:28.729000,277.0,32.0,-114.0,-843.0,-425.0,-54.0,0.0,0.0,0.0
19:36:28.734000,292.0,16.0,-170.0,-836.0,-474.0,-73.0,0.0,0.0,0.0
19:36:28.738000,307.0,0.0,-230.0,-836.0,-474.0,-73.0,0.0,0.0,0.0
19:36:28.743000,301.0,-23.0,-267.0,-825.0,-443.0,-93.0,0.0,0.0,0.0
19:36:28.748000,287.0,-48.0,-261.0,-825.0,-443.0,-93.0,0.0,0.0,0.0
19:36:28.752000,283.0,-73.0,-235.0,-813.0,-378.0,-94.0,0.0,0.0,0.0
19:36:28.757000,286.0,-97.0,-223.0,-813.0,-378.0,-94.0,0.0,0.0,0.0
19:36:28.762000,286.0,-97.0,-223.0,-795.0,-414.0,-89.0,0.0,0.0,0.0
19:36:28.766000,293.0,-119.0,-199.0,-795.0,-414.0,-89.0,0.0,0.0,0.0
19:36:28.771000,302.0,-138.0,-149.0,-787.0,-463.0,-82.0,0.0,0.0,0.0
19:36:28.776000,305.0,-150.0,-107.0,-787.0,-463.0,-82.0,0.0,0.0,0.0
19:36:28.781000,308.0,-154.0,-85.0,-822.0,-424.0,-78.0,0.0,0.0,0.0
19:36:28.785000,310.0,-153.0,-77.0,-822.0,-424.0,-78.0,0.0,0.0,0.0
19:36:28.790000,303.0,-146.0,-78.0,-907.0,-351.0,-76.0,0.0,0.0,0.0
19:36:28.795000,296.0,-140.0,-72.0,-907.0,-351.0,-76.0,0.0,0.0,0.0
19:36:28.799000,294.0,-135.0,-50.0,-980.0,-349.0,-69.0,0.0,0.0,0.0
19:36:28.804000,296.0,-128.0,-25.0,-980.0,-349.0,-69.0,0.0,0.0,0.0
19:36:28.809000,301.0,-119.0,-16.0,-1015.0,-393.0,-67.0,0.0,0.0,0.0
19:36:28.813000,314.0,-110.0,-22.0,-1015.0,-393.0,-67.0,0.0,0.0,0.0
19:36:28.818000,333.0,-101.0,-35.0,-1040.0,-392.0,-61.0,0.0,0.0,0.0
19:36:28.823000,352.0,-91.0,-58.0,-1040.0,-392.0,-61.0,0.0,0.0,0.0
19:36:28.828000,380.0,-81.0,-105.0,-1040.0,-392.0,-61.0,0.0,0.0,0.0
19:36:28.832000,411.0,-65.0,-161.0,-1052.0,-354.0,-57.0,0.0,0.0,0.0
19:36:28.837000,441.0,-49.0,-213.0,-1052.0,-354.0,-57.0,0.0,0.0,0.0
19:36:28.842000,480.0,-30.0,-256.0,-1062.0,-344.0,-62.0,0.0,0.0,0.0
19:36:28.846000,514.0,-8.0,-251.0,-1062.0,-344.0,-62.0,0.0,0.0,0.0
19:36:28.851000,555.0,12.0,-226.0,-1105.0,-367.0,-66.0,0.0,0.0,0.0
19:36:28.856000,583.0,39.0,-246.0,-1105.0,-367.0,-66.0,0.0,0.0,0.0
19:36:28.860000,608.0,65.0,-274.0,-1145.0,-396.0,-72.0,0.0,0.0,0.0
19:36:28.865000,626.0,89.0,-271.0,-1145.0,-396.0,-72.0,0.0,0.0,0.0
19:36:28.870000,626.0,89.0,-271.0,-1126.0,-404.0,-87.0,0.0,0.0,0.0
19:36:28.875000,634.0,108.0,-251.0,-1126.0,-404.0,-87.0,0.0,0.0,0.0
19:36:28.879000,625.0,123.0,-242.0,-1104.0,-340.0,-110.0,0.0,0.0,0.0
19:36:28.884000,602.0,132.0,-252.0,-1104.0,-340.0,-110.0,0.0,0.0,0.0
19:36:28.889000,571.0,128.0,-275.0,-1109.0,-220.0,-140.0,0.0,0.0,0.0
19:36:28.893000,529.0,116.0,-300.0,-1109.0,-220.0,-140.0,0.0,0.0,0.0
19:36:28.898000,471.0,91.0,-317.0,-1083.0,-107.0,-170.0,0.0,0.0,0.0
19:36:28.903000,413.0,54.0,-328.0,-1083.0,-107.0,-170.0,0.0,0.0,0.0
19:36:28.907000,350.0,7.0,-337.0,-1021.0,-26.0,-195.0,0.0,0.0,0.0
19:36:28.912000,286.0,-49.0,-344.0,-1021.0,-26.0,-195.0,0.0,0.0,0.0
19:36:28.917000,224.0,-112.0,-324.0,-936.0,-1.0,-214.0,0.0,0.0,0.0
19:36:28.922000,164.0,-181.0,-270.0,-936.0,-1.0,-214.0,0.0,0.0,0.0
19:36:28.926000,107.0,-250.0,-198.0,-885.0,-40.0,-231.0,0.0,0.0,0.0
19:36:28.931000,48.0,-322.0,-123.0,-885.0,-40.0,-231.0,0.0,0.0,0.0
19:36:28.936000,-3.0,-389.0,-79.0,-885.0,-40.0,-231.0,0.0,0.0,0.0
19:36:28.940000,-49.0,-453.0,-60.0,-914.0,-73.0,-246.0,0.0,0.0,0.0
19:36:28.945000,-90.0,-514.0,-47.0,-914.0,-73.0,-246.0,0.0,0.0,0.0
19:36:28.950000,-139.0,-569.0,-42.0,-962.0,-61.0,-255.0,0.0,0.0,0.0
19:36:28.954000,-184.0,-620.0,-20.0,-962.0,-61.0,-255.0,0.0,0.0,0.0
19:36:28.959000,-217.0,-662.0,-6.0,-975.0,-72.0,-253.0,0.0,0.0,0.0
19:36:28.964000,-240.0,-695.0,-24.0,-975.0,-72.0,-253.0,0.0,0.0,0.0
19:36:28.969000,-255.0,-723.0,-56.0,-980.0,-118.0,-248.0,0.0,0.0,0.0
19:36:28.973000,-263.0,-745.0,-74.0,-980.0,-118.0,-248.0,0.0,0.0,0.0
19:36:28.978000,-270.0,-763.0,-86.0,-997.0,-159.0,-244.0,0.0,0.0,0.0
19:36:28.983000,-270.0,-763.0,-86.0,-997.0,-159.0,-244.0,0.0,0.0,0.0
19:36:28.987000,-272.0,-775.0,-107.0,-1027.0,-176.0,-239.0,0.0,0.0,0.0
19:36:28.992000,-276.0,-786.0,-149.0,-1027.0,-176.0,-239.0,0.0,0.0,0.0
19:36:28.997000,-286.0,-801.0,-196.0,-1051.0,-126.0,-225.0,0.0,0.0,0.0
19:36:29.001000,-298.0,-817.0,-235.0,-1051.0,-126.0,-225.0,0.0,0.0,0.0
19:36:29.006000,-317.0,-829.0,-256.0,-1032.0,-52.0,-197.0,0.0,0.0,0.0
19:36:29.011000,-346.0,-842.0,-252.0,-1032.0,-52.0,-197.0,0.0,0.0,0.0
19:36:29.016000,-382.0,-849.0,-235.0,-992.0,0.0,-161.0,0.0,0.0,0.0
19:36:29.020000,-422.0,-855.0,-220.0,-992.0,0.0,-161.0,0.0,0.0,0.0
19:36:29.025000,-466.0,-857.0,-205.0,-960.0,35.0,-113.0,0.0,0.0,0.0
19:36:29.030000,-507.0,-856.0,-188.0,-960.0,35.0,-113.0,0.0,0.0,0.0
19:36:29.034000,-536.0,-859.0,-161.0,-949.0,23.0,-65.0,0.0,0.0,0.0
19:36:29.039000,-546.0,-870.0,-139.0,-949.0,23.0,-65.0,0.0,0.0,0.0
19:36:29.043000,-541.0,-883.0,-148.0,-949.0,23.0,-65.0,0.0,0.0,0.0
19:36:29.048000,-519.0,-899.0,-177.0,-955.0,-36.0,-38.0,0.0,0.0,0.0
19:36:29.053000,-488.0,-917.0,-193.0,-955.0,-36.0,-38.0,0.0,0.0,0.0
19:36:29.058000,-443.0,-943.0,-203.0,-976.0,-84.0,-16.0,0.0,0.0,0.0
19:36:29.063000,-401.0,-963.0,-225.0,-976.0,-84.0,-16.0,0.0,0.0,0.0
19:36:29.067000,-352.0,-968.0,-263.0,-1099.0,-105.0,30.0,0.0,0.0,0.0
19:36:29.072000,-290.0,-942.0,-341.0,-1099.0,-105.0,30.0,0.0,0.0,0.0
19:36:29.077000,-335.0,-897.0,-413.0,-1138.0,-120.0,92.0,0.0,0.0,0.0
19:36:29.081000,-406.0,-840.0,-434.0,-1138.0,-120.0,92.0,0.0,0.0,0.0
19:36:29.086000,-399.0,-797.0,-457.0,-908.0,-78.0,132.0,0.0,0.0,0.0
19:36:29.091000,-399.0,-797.0,-457.0,-908.0,-78.0,132.0,0.0,0.0,0.0
19:36:29.095000,-479.0,-760.0,-490.0,-788.0,145.0,164.0,0.0,0.0,0.0
19:36:29.100000,-563.0,-709.0,-478.0,-788.0,145.0,164.0,0.0,0.0,0.0
19:36:29.105000,-616.0,-709.0,-411.0,-877.0,243.0,183.0,0.0,0.0,0.0
19:36:29.110000,-655.0,-669.0,-354.0,-877.0,243.0,183.0,0.0,0.0,0.0
19:36:29.114000,-657.0,-650.0,-352.0,-949.0,-15.0,144.0,0.0,0.0,0.0
19:36:29.119000,-560.0,-634.0,-381.0,-949.0,-15.0,144.0,0.0,0.0,0.0
19:36:29.124000,-492.0,-627.0,-359.0,-998.0,-178.0,61.0,0.0,0.0,0.0
19:36:29.128000,-460.0,-643.0,-526.0,-998.0,-178.0,61.0,0.0,0.0,0.0
19:36:29.133000,-405.0,-651.0,-1019.0,-964.0,112.0,3.0,0.0,0.0,0.0
19:36:29.138000,-375.0,-651.0,-1258.0,-964.0,112.0,3.0,0.0,0.0,0.0
19:36:29.142000,-354.0,-650.0,-933.0,-723.0,113.0,-3.0,0.0,0.0,0.0
19:36:29.147000,-303.0,-680.0,-428.0,-723.0,113.0,-3.0,0.0,0.0,0.0
19:36:29.152000,-236.0,-691.0,-245.0,-748.0,-256.0,1.0,0.0,0.0,0.0
19:36:29.157000,-170.0,-689.0,-186.0,-748.0,-256.0,1.0,0.0,0.0,0.0
19:36:29.161000,-109.0,-673.0,-53.0,-748.0,-256.0,1.0,0.0,0.0,0.0
19:36:29.166000,-80.0,-658.0,14.0,-1054.0,-296.0,-6.0,0.0,0.0,0.0
19:36:29.171000,-65.0,-638.0,-24.0,-1054.0,-296.0,-6.0,0.0,0.0,0.0
19:36:29.175000,-62.0,-623.0,-51.0,-1152.0,-140.0,14.0,0.0,0.0,0.0
19:36:29.180000,-51.0,-613.0,-189.0,-1152.0,-140.0,14.0,0.0,0.0,0.0
19:36:29.185000,-63.0,-604.0,-348.0,-1071.0,67.0,62.0,0.0,0.0,0.0
19:36:29.189000,-102.0,-597.0,-379.0,-1071.0,67.0,62.0,0.0,0.0,0.0
19:36:29.194000,-123.0,-595.0,-317.0,-835.0,105.0,112.0,0.0,0.0,0.0
19:36:29.199000,-123.0,-595.0,-317.0,-835.0,105.0,112.0,0.0,0.0,0.0
19:36:29.204000,-141.0,-585.0,-275.0,-656.0,-74.0,154.0,0.0,0.0,0.0
19:36:29.208000,-147.0,-574.0,-298.0,-656.0,-74.0,154.0,0.0,0.0,0.0
19:36:29.213000,-132.0,-569.0,-324.0,-690.0,-189.0,177.0,0.0,0.0,0.0
19:36:29.218000,-123.0,-563.0,-296.0,-690.0,-189.0,177.0,0.0,0.0,0.0
19:36:29.222000,-133.0,-555.0,-240.0,-772.0,-162.0,193.0,0.0,0.0,0.0
19:36:29.227000,-147.0,-541.0,-212.0,-772.0,-162.0,193.0,0.0,0.0,0.0
19:36:29.232000,-162.0,-524.0,-236.0,-870.0,-70.0,205.0,0.0,0.0,0.0
19:36:29.236000,-182.0,-499.0,-280.0,-870.0,-70.0,205.0,0.0,0.0,0.0
19:36:29.241000,-196.0,-469.0,-278.0,-992.0,-36.0,203.0,0.0,0.0,0.0
19:36:29.246000,-203.0,-434.0,-233.0,-992.0,-36.0,203.0,0.0,0.0,0.0
19:36:29.251000,-208.0,-399.0,-192.0,-1082.0,-59.0,198.0,0.0,0.0,0.0
19:36:29.255000,-212.0,-362.0,-150.0,-1082.0,-59.0,198.0,0.0,0.0,0.0
19:36:29.260000,-216.0,-317.0,-151.0,-1082.0,-67.0,198.0,0.0,0.0,0.0
19:36:29.265000,-219.0,-281.0,-184.0,-1123.0,-67.0,192.0,0.0,0.0,0.0
19:36:29.269000,-207.0,-261.0,-175.0,-1071.0,-76.0,175.0,0.0,0.0,0.0
19:36:29.274000,-191.0,-245.0,-105.0,-1071.0,-76.0,175.0,0.0,0.0,0.0
19:36:29.278000,-203.0,-228.0,-51.0,-1071.0,-76.0,175.0,0.0,0.0,0.0
19:36:29.283000,-228.0,-207.0,-58.0,-1008.0,-53.0,163.0,0.0,0.0,0.0
19:36:29.288000,-251.0,-189.0,-99.0,-1008.0,-53.0,163.0,0.0,0.0,0.0
19:36:29.293000,-261.0,-180.0,-121.0,-933.0,0.0,155.0,0.0,0.0,0.0
19:36:29.298000,-275.0,-173.0,-123.0,-933.0,0.0,155.0,0.0,0.0,0.0
19:36:29.302000,-288.0,-161.0,-128.0,-825.0,19.0,150.0,0.0,0.0,0.0
19:36:29.307000,-288.0,-161.0,-128.0,-825.0,19.0,150.0,0.0,0.0,0.0
19:36:29.312000,-289.0,-143.0,-163.0,-807.0,-1.0,148.0,0.0,0.0,0.0
19:36:29.316000,-287.0,-123.0,-225.0,-807.0,-1.0,148.0,0.0,0.0,0.0
19:36:29.321000,-286.0,-104.0,-198.0,-839.0,-62.0,153.0,0.0,0.0,0.0
19:36:29.326000,-274.0,-88.0,-132.0,-839.0,-62.0,153.0,0.0,0.0,0.0
19:36:29.330000,-252.0,-74.0,-128.0,-894.0,-129.0,171.0,0.0,0.0,0.0
19:36:29.335000,-238.0,-56.0,-135.0,-894.0,-129.0,171.0,0.0,0.0,0.0
19:36:29.340000,-221.0,-39.0,-121.0,-930.0,-164.0,192.0,0.0,0.0,0.0
19:36:29.345000,-196.0,-20.0,-112.0,-930.0,-164.0,192.0,0.0,0.0,0.0
19:36:29.349000,-168.0,-1.0,-128.0,-929.0,-159.0,214.0,0.0,0.0,0.0
19:36:29.354000,-138.0,16.0,-158.0,-929.0,-159.0,214.0,0.0,0.0,0.0
19:36:29.359000,-123.0,37.0,-146.0,-891.0,-122.0,240.0,0.0,0.0,0.0
19:36:29.363000,-107.0,52.0,-134.0,-891.0,-122.0,240.0,0.0,0.0,0.0
19:36:29.368000,-100.0,63.0,-161.0,-832.0,-82.0,272.0,0.0,0.0,0.0
19:36:29.373000,-98.0,69.0,-198.0,-832.0,-82.0,272.0,0.0,0.0,0.0
19:36:29.377000,-81.0,67.0,-196.0,-832.0,-82.0,272.0,0.0,0.0,0.0
19:36:29.382000,-85.0,58.0,-178.0,-810.0,-85.0,306.0,0.0,0.0,0.0
19:36:29.387000,-78.0,51.0,-186.0,-810.0,-85.0,306.0,0.0,0.0,0.0
19:36:29.392000,-67.0,42.0,-203.0,-818.0,-98.0,327.0,0.0,0.0,0.0
19:36:29.396000,-67.0,32.0,-189.0,-818.0,-98.0,327.0,0.0,0.0,0.0
19:36:29.401000,-75.0,19.0,-165.0,-812.0,-93.0,354.0,0.0,0.0,0.0
19:36:29.406000,-82.0,13.0,-164.0,-812.0,-93.0,354.0,0.0,0.0,0.0
19:36:29.410000,-66.0,14.0,-213.0,-812.0,-104.0,387.0,0.0,0.0,0.0
19:36:29.415000,-41.0,9.0,-264.0,-812.0,-104.0,387.0,0.0,0.0,0.0
19:36:29.420000,-41.0,9.0,-264.0,-853.0,-115.0,406.0,0.0,0.0,0.0
19:36:29.424000,-15.0,5.0,-288.0,-853.0,-115.0,406.0,0.0,0.0,0.0
19:36:29.429000,0.0,8.0,-265.0,-902.0,-146.0,410.0,0.0,0.0,0.0
19:36:29.434000,16.0,15.0,-256.0,-902.0,-146.0,410.0,0.0,0.0,0.0
19:36:29.439000,35.0,29.0,-307.0,-985.0,-145.0,399.0,0.0,0.0,0.0
19:36:29.443000,46.0,51.0,-378.0,-985.0,-145.0,399.0,0.0,0.0,0.0
19:36:29.448000,48.0,70.0,-384.0,-1012.0,-116.0,400.0,0.0,0.0,0.0
19:36:29.453000,44.0,84.0,-343.0,-1012.0,-116.0,400.0,0.0,0.0,0.0
19:36:29.457000,44.0,103.0,-334.0,-982.0,-87.0,409.0,0.0,0.0,0.0
19:36:29.462000,39.0,128.0,-366.0,-982.0,-87.0,409.0,0.0,0.0,0.0
19:36:29.467000,44.0,147.0,-382.0,-973.0,-29.0,411.0,0.0,0.0,0.0
19:36:29.471000,37.0,164.0,-379.0,-973.0,-29.0,411.0,0.0,0.0,0.0
19:36:29.476000,42.0,177.0,-389.0,-962.0,15.0,411.0,0.0,0.0,0.0
19:36:29.481000,32.0,192.0,-381.0,-962.0,15.0,411.0,0.0,0.0,0.0
19:36:29.486000,25.0,205.0,-339.0,-962.0,15.0,411.0,0.0,0.0,0.0
19:36:29.490000,21.0,215.0,-307.0,-952.0,25.0,414.0,0.0,0.0,0.0
19:36:29.495000,11.0,221.0,-246.0,-952.0,25.0,414.0,0.0,0.0,0.0
19:36:29.500000,-13.0,240.0,-201.0,-954.0,23.0,413.0,0.0,0.0,0.0
19:36:29.504000,-18.0,251.0,-200.0,-954.0,23.0,413.0,0.0,0.0,0.0
19:36:29.509000,-14.0,254.0,-179.0,-969.0,17.0,404.0,0.0,0.0,0.0
19:36:29.513000,-14.0,254.0,-179.0,-969.0,17.0,404.0,0.0,0.0,0.0
19:36:29.518000,-36.0,273.0,-136.0,-965.0,0.0,390.0,0.0,0.0,0.0
19:36:29.523000,-42.0,278.0,-128.0,-965.0,0.0,390.0,0.0,0.0,0.0
19:36:29.528000,-42.0,278.0,-128.0,-956.0,16.0,378.0,0.0,0.0,0.0
19:36:29.533000,-53.0,279.0,-119.0,-956.0,16.0,378.0,0.0,0.0,0.0
19:36:29.537000,-66.0,276.0,-111.0,-957.0,31.0,368.0,0.0,0.0,0.0
19:36:29.542000,-81.0,268.0,-101.0,-957.0,31.0,368.0,0.0,0.0,0.0
19:36:29.547000,-98.0,255.0,-74.0,-933.0,-4.0,359.0,0.0,0.0,0.0
19:36:29.551000,-121.0,247.0,-36.0,-933.0,-4.0,359.0,0.0,0.0,0.0
19:36:29.556000,-127.0,234.0,-37.0,-905.0,-15.0,347.0,0.0,0.0,0.0
19:36:29.561000,-118.0,219.0,-62.0,-905.0,-15.0,347.0,0.0,0.0,0.0
19:36:29.565000,-108.0,204.0,-57.0,-885.0,-32.0,334.0,0.0,0.0,0.0
19:36:29.570000,-88.0,196.0,-39.0,-885.0,-32.0,334.0,0.0,0.0,0.0
19:36:29.575000,-39.0,184.0,-25.0,-885.0,-63.0,334.0,0.0,0.0,0.0
19:36:29.580000,7.0,163.0,-24.0,-867.0,-92.0,320.0,0.0,0.0,0.0
19:36:29.584000,40.0,155.0,-21.0,-884.0,-116.0,313.0,0.0,0.0,0.0
19:36:29.589000,70.0,142.0,-11.0,-884.0,-116.0,313.0,0.0,0.0,0.0
19:36:29.594000,105.0,136.0,-12.0,-884.0,-116.0,313.0,0.0,0.0,0.0
19:36:29.598000,137.0,128.0,-26.0,-926.0,-95.0,321.0,0.0,0.0,0.0
19:36:29.603000,168.0,132.0,-43.0,-926.0,-95.0,321.0,0.0,0.0,0.0
19:36:29.608000,213.0,130.0,-65.0,-962.0,-64.0,327.0,0.0,0.0,0.0
19:36:29.612000,251.0,133.0,-91.0,-962.0,-64.0,327.0,0.0,0.0,0.0
19:36:29.617000,287.0,138.0,-91.0,-1005.0,-42.0,336.0,0.0,0.0,0.0
19:36:29.622000,326.0,150.0,-98.0,-1005.0,-42.0,336.0,0.0,0.0,0.0
19:36:29.627000,386.0,162.0,-98.0,-1042.0,-77.0,346.0,0.0,0.0,0.0
19:36:29.631000,438.0,172.0,-85.0,-1042.0,-77.0,346.0,0.0,0.0,0.0
19:36:29.636000,438.0,172.0,-85.0,-1067.0,-116.0,356.0,0.0,0.0,0.0
19:36:29.641000,483.0,196.0,-64.0,-1067.0,-116.0,356.0,0.0,0.0,0.0
19:36:29.645000,524.0,227.0,-49.0,-1092.0,-98.0,360.0,0.0,0.0,0.0
19:36:29.650000,575.0,264.0,-27.0,-1092.0,-98.0,360.0,0.0,0.0,0.0
19:36:29.655000,610.0,310.0,2.0,-1127.0,-61.0,365.0,0.0,0.0,0.0
19:36:29.659000,641.0,365.0,11.0,-1127.0,-61.0,365.0,0.0,0.0,0.0
19:36:29.664000,658.0,431.0,19.0,-1174.0,-9.0,381.0,0.0,0.0,0.0
19:36:29.669000,681.0,502.0,16.0,-1174.0,-9.0,381.0,0.0,0.0,0.0
19:36:29.674000,706.0,569.0,13.0,-1213.0,20.0,401.0,0.0,0.0,0.0
19:36:29.678000,729.0,639.0,5.0,-1213.0,20.0,401.0,0.0,0.0,0.0
19:36:29.683000,753.0,717.0,-23.0,-1241.0,22.0,408.0,0.0,0.0,0.0
19:36:29.688000,794.0,797.0,-56.0,-1241.0,22.0,408.0,0.0,0.0,0.0
19:36:29.692000,853.0,865.0,-75.0,-1233.0,-14.0,387.0,0.0,0.0,0.0
19:36:29.697000,907.0,941.0,-68.0,-1233.0,-14.0,387.0,0.0,0.0,0.0
19:36:29.702000,973.0,1021.0,-53.0,-1233.0,-14.0,387.0,0.0,0.0,0.0
19:36:29.706000,1040.0,1114.0,-39.0,-1218.0,-79.0,339.0,0.0,0.0,0.0
19:36:29.711000,1090.0,1188.0,-35.0,-1218.0,-79.0,339.0,0.0,0.0,0.0
19:36:29.716000,1148.0,1275.0,-30.0,-1222.0,-64.0,283.0,0.0,0.0,0.0
19:36:29.721000,1189.0,1355.0,-16.0,-1222.0,-64.0,283.0,0.0,0.0,0.0
19:36:29.725000,1209.0,1446.0,-4.0,-1211.0,-8.0,245.0,0.0,0.0,0.0
19:36:29.730000,1261.0,1526.0,4.0,-1211.0,-8.0,245.0,0.0,0.0,0.0
19:36:29.735000,1282.0,1604.0,-8.0,-1186.0,20.0,222.0,0.0,0.0,0.0
19:36:29.739000,1307.0,1677.0,-12.0,-1186.0,20.0,222.0,0.0,0.0,0.0
19:36:29.744000,1373.0,1738.0,-6.0,-1148.0,-14.0,207.0,0.0,0.0,0.0
19:36:29.748000,1373.0,1738.0,-6.0,-1148.0,-14.0,207.0,0.0,0.0,0.0
19:36:29.753000,1421.0,1783.0,8.0,-1092.0,-80.0,184.0,0.0,0.0,0.0
19:36:29.758000,1480.0,1840.0,37.0,-1092.0,-80.0,184.0,0.0,0.0,0.0
19:36:29.763000,1527.0,1878.0,53.0,-1066.0,-70.0,163.0,0.0,0.0,0.0
19:36:29.768000,1566.0,1894.0,56.0,-1066.0,-70.0,163.0,0.0,0.0,0.0
19:36:29.772000,1605.0,1915.0,49.0,-1052.0,-2.0,166.0,0.0,0.0,0.0
19:36:29.777000,1644.0,1948.0,35.0,-1052.0,-2.0,166.0,0.0,0.0,0.0
19:36:29.782000,1694.0,1963.0,-4.0,-1013.0,38.0,121.0,0.0,0.0,0.0
19:36:29.786000,1731.0,1985.0,-5.0,-1013.0,38.0,121.0,0.0,0.0,0.0
19:36:29.791000,1750.0,1990.0,46.0,-981.0,60.0,38.0,0.0,0.0,0.0
19:36:29.796000,1761.0,1994.0,130.0,-981.0,60.0,38.0,0.0,0.0,0.0
19:36:29.800000,1768.0,2014.0,203.0,-1066.0,59.0,-37.0,0.0,0.0,0.0
19:36:29.805000,1757.0,2035.0,243.0,-1066.0,59.0,-37.0,0.0,0.0,0.0
19:36:29.810000,1742.0,2059.0,259.0,-1173.0,70.0,-61.0,0.0,0.0,0.0
19:36:29.815000,1740.0,2097.0,310.0,-1173.0,70.0,-61.0,0.0,0.0,0.0
19:36:29.819000,1740.0,2163.0,408.0,-1173.0,70.0,-61.0,0.0,0.0,0.0
19:36:29.824000,1725.0,2251.0,456.0,-1202.0,98.0,-124.0,0.0,0.0,0.0
19:36:29.829000,1712.0,2282.0,446.0,-1202.0,98.0,-124.0,0.0,0.0,0.0
19:36:29.833000,1700.0,2301.0,464.0,-1332.0,138.0,-197.0,0.0,0.0,0.0
19:36:29.838000,1680.0,2324.0,534.0,-1332.0,138.0,-197.0,0.0,0.0,0.0
19:36:29.843000,1659.0,2358.0,588.0,-1303.0,95.0,-160.0,0.0,0.0,0.0
19:36:29.847000,1662.0,2384.0,630.0,-1303.0,95.0,-160.0,0.0,0.0,0.0
19:36:29.852000,1658.0,2408.0,658.0,-1151.0,95.0,-133.0,0.0,0.0,0.0
19:36:29.857000,1658.0,2408.0,658.0,-1151.0,95.0,-133.0,0.0,0.0,0.0
19:36:29.862000,1632.0,2432.0,644.0,-1176.0,189.0,-116.0,0.0,0.0,0.0
19:36:29.866000,1583.0,2461.0,620.0,-1176.0,189.0,-116.0,0.0,0.0,0.0
19:36:29.871000,1513.0,2497.0,622.0,-1203.0,253.0,-79.0,0.0,0.0,0.0
19:36:29.876000,1443.0,2537.0,659.0,-1203.0,253.0,-79.0,0.0,0.0,0.0
19:36:29.880000,1390.0,2569.0,732.0,-1141.0,204.0,-46.0,0.0,0.0,0.0
19:36:29.885000,1362.0,2601.0,822.0,-1141.0,204.0,-46.0,0.0,0.0,0.0
19:36:29.890000,1367.0,2641.0,889.0,-1085.0,56.0,-46.0,0.0,0.0,0.0
19:36:29.894000,1386.0,2685.0,924.0,-1085.0,56.0,-46.0,0.0,0.0,0.0
19:36:29.899000,1410.0,2741.0,950.0,-1140.0,28.0,-84.0,0.0,0.0,0.0
19:36:29.904000,1431.0,2804.0,956.0,-1140.0,28.0,-84.0,0.0,0.0,0.0
19:36:29.909000,1435.0,2872.0,954.0,-1249.0,110.0,-130.0,0.0,0.0,0.0
19:36:29.913000,1421.0,2933.0,961.0,-1249.0,110.0,-130.0,0.0,0.0,0.0
19:36:29.918000,1385.0,2984.0,981.0,-1249.0,110.0,-130.0,0.0,0.0,0.0
19:36:29.923000,1330.0,3028.0,1012.0,-1258.0,233.0,-159.0,0.0,0.0,0.0
19:36:29.927000,1260.0,3061.0,1050.0,-1086.0,349.0,-175.0,0.0,0.0,0.0
19:36:29.932000,1185.0,3066.0,1093.0,-1086.0,349.0,-175.0,0.0,0.0,0.0
19:36:29.937000,1108.0,3050.0,1132.0,-1086.0,349.0,-175.0,0.0,0.0,0.0
19:36:29.941000,1033.0,3017.0,1167.0,-806.0,427.0,-188.0,0.0,0.0,0.0
19:36:29.946000,966.0,2970.0,1213.0,-806.0,427.0,-188.0,0.0,0.0,0.0
19:36:29.951000,917.0,2919.0,1279.0,-531.0,401.0,-224.0,0.0,0.0,0.0
19:36:29.956000,886.0,2863.0,1358.0,-531.0,401.0,-224.0,0.0,0.0,0.0
19:36:29.960000,879.0,2799.0,1428.0,-326.0,263.0,-327.0,0.0,0.0,0.0
19:36:29.965000,879.0,2799.0,1428.0,-326.0,263.0,-327.0,0.0,0.0,0.0
19:36:29.970000,879.0,2733.0,1475.0,-280.0,132.0,-459.0,0.0,0.0,0.0
19:36:29.974000,880.0,2660.0,1498.0,-280.0,132.0,-459.0,0.0,0.0,0.0
19:36:29.979000,881.0,2577.0,1516.0,-341.0,44.0,-527.0,0.0,0.0,0.0
19:36:29.983000,888.0,2490.0,1553.0,-341.0,44.0,-527.0,0.0,0.0,0.0
19:36:29.988000,898.0,2391.0,1575.0,-318.0,-14.0,-546.0,0.0,0.0,0.0
19:36:29.993000,899.0,2286.0,1565.0,-318.0,-14.0,-546.0,0.0,0.0,0.0
19:36:29.998000,882.0,2179.0,1540.0,-217.0,52.0,-576.0,0.0,0.0,0.0
19:36:30.003000,835.0,2071.0,1511.0,-217.0,52.0,-576.0,0.0,0.0,0.0
19:36:30.007000,761.0,1967.0,1481.0,-137.0,204.0,-606.0,0.0,0.0,0.0
19:36:30.012000,680.0,1862.0,1457.0,-137.0,204.0,-606.0,0.0,0.0,0.0
19:36:30.017000,594.0,1754.0,1430.0,-64.0,219.0,-622.0,0.0,0.0,0.0
19:36:30.021000,539.0,1650.0,1377.0,-64.0,219.0,-622.0,0.0,0.0,0.0
19:36:30.026000,503.0,1540.0,1360.0,-64.0,94.0,-622.0,0.0,0.0,0.0
19:36:30.031000,469.0,1429.0,1382.0,10.0,94.0,-644.0,0.0,0.0,0.0
19:36:30.035000,436.0,1325.0,1344.0,10.0,94.0,-644.0,0.0,0.0,0.0
19:36:30.040000,448.0,1218.0,1239.0,-2.0,-2.0,-677.0,0.0,0.0,0.0
19:36:30.045000,465.0,1114.0,1185.0,-2.0,-2.0,-677.0,0.0,0.0,0.0
19:36:30.050000,474.0,1021.0,1220.0,-57.0,-85.0,-715.0,0.0,0.0,0.0
19:36:30.054000,518.0,933.0,1205.0,-57.0,-85.0,-715.0,0.0,0.0,0.0
19:36:30.059000,556.0,858.0,1083.0,-132.0,-128.0,-761.0,0.0,0.0,0.0
19:36:30.064000,577.0,793.0,961.0,-132.0,-128.0,-761.0,0.0,0.0,0.0
19:36:30.068000,584.0,720.0,912.0,-229.0,-55.0,-789.0,0.0,0.0,0.0
19:36:30.073000,584.0,720.0,912.0,-229.0,-55.0,-789.0,0.0,0.0,0.0
19:36:30.078000,576.0,658.0,917.0,-265.0,7.0,-791.0,0.0,0.0,0.0
19:36:30.082000,571.0,595.0,914.0,-265.0,7.0,-791.0,0.0,0.0,0.0
19:36:30.087000,569.0,534.0,897.0,-264.0,-3.0,-797.0,0.0,0.0,0.0
19:36:30.092000,571.0,478.0,865.0,-264.0,-3.0,-797.0,0.0,0.0,0.0
19:36:30.097000,563.0,416.0,849.0,-242.0,-1.0,-803.0,0.0,0.0,0.0
19:36:30.101000,542.0,366.0,852.0,-242.0,-1.0,-803.0,0.0,0.0,0.0
19:36:30.106000,520.0,315.0,830.0,-234.0,27.0,-808.0,0.0,0.0,0.0
19:36:30.111000,504.0,261.0,798.0,-234.0,27.0,-808.0,0.0,0.0,0.0
19:36:30.115000,480.0,214.0,768.0,-206.0,25.0,-821.0,0.0,0.0,0.0
19:36:30.120000,473.0,174.0,718.0,-206.0,25.0,-821.0,0.0,0.0,0.0
19:36:30.125000,469.0,134.0,667.0,-210.0,-19.0,-829.0,0.0,0.0,0.0
19:36:30.129000,460.0,105.0,611.0,-210.0,-19.0,-829.0,0.0,0.0,0.0
19:36:30.134000,457.0,82.0,543.0,-263.0,-47.0,-838.0,0.0,0.0,0.0
19:36:30.139000,454.0,63.0,473.0,-263.0,-47.0,-838.0,0.0,0.0,0.0
19:36:30.144000,446.0,51.0,406.0,-263.0,-47.0,-838.0,0.0,0.0,0.0
19:36:30.148000,436.0,39.0,347.0,-284.0,-28.0,-844.0,0.0,0.0,0.0
19:36:30.153000,426.0,30.0,288.0,-284.0,-28.0,-844.0,0.0,0.0,0.0
19:36:30.158000,417.0,26.0,219.0,-332.0,0.0,-846.0,0.0,0.0,0.0
19:36:30.162000,415.0,23.0,160.0,-332.0,0.0,-846.0,0.0,0.0,0.0
19:36:30.167000,420.0,24.0,135.0,-382.0,-1.0,-839.0,0.0,0.0,0.0
19:36:30.172000,430.0,29.0,133.0,-382.0,-1.0,-839.0,0.0,0.0,0.0
19:36:30.176000,442.0,36.0,134.0,-378.0,-42.0,-831.0,0.0,0.0,0.0
19:36:30.181000,452.0,47.0,134.0,-378.0,-42.0,-831.0,0.0,0.0,0.0
19:36:30.186000,452.0,47.0,134.0,-356.0,-49.0,-832.0,0.0,0.0,0.0
19:36:30.191000,459.0,64.0,130.0,-356.0,-49.0,-832.0,0.0,0.0,0.0
19:36:30.195000,466.0,80.0,127.0,-381.0,-16.0,-839.0,0.0,0.0,0.0
19:36:30.200000,474.0,102.0,135.0,-381.0,-16.0,-839.0,0.0,0.0,0.0
19:36:30.205000,478.0,125.0,159.0,-420.0,-19.0,-849.0,0.0,0.0,0.0
19:36:30.209000,478.0,147.0,193.0,-420.0,-19.0,-849.0,0.0,0.0,0.0
19:36:30.214000,471.0,169.0,226.0,-424.0,-24.0,-859.0,0.0,0.0,0.0
19:36:30.218000,459.0,189.0,250.0,-424.0,-24.0,-859.0,0.0,0.0,0.0
19:36:30.223000,441.0,205.0,261.0,-394.0,2.0,-867.0,0.0,0.0,0.0
19:36:30.228000,420.0,219.0,263.0,-394.0,2.0,-867.0,0.0,0.0,0.0
19:36:30.233000,392.0,229.0,263.0,-343.0,32.0,-869.0,0.0,0.0,0.0
19:36:30.238000,363.0,238.0,257.0,-343.0,32.0,-869.0,0.0,0.0,0.0
19:36:30.242000,334.0,245.0,238.0,-302.0,47.0,-874.0,0.0,0.0,0.0
19:36:30.247000,305.0,252.0,211.0,-302.0,47.0,-874.0,0.0,0.0,0.0
19:36:30.252000,277.0,261.0,182.0,-302.0,47.0,-874.0,0.0,0.0,0.0
19:36:30.256000,247.0,267.0,157.0,-284.0,53.0,-885.0,0.0,0.0,0.0
19:36:30.261000,220.0,270.0,135.0,-284.0,53.0,-885.0,0.0,0.0,0.0
19:36:30.266000,200.0,269.0,119.0,-268.0,34.0,-899.0,0.0,0.0,0.0
19:36:30.270000,191.0,266.0,112.0,-268.0,34.0,-899.0,0.0,0.0,0.0
19:36:30.275000,194.0,261.0,110.0,-229.0,-25.0,-913.0,0.0,0.0,0.0
19:36:30.280000,205.0,259.0,105.0,-229.0,-25.0,-913.0,0.0,0.0,0.0
19:36:30.285000,217.0,254.0,95.0,-189.0,-80.0,-928.0,0.0,0.0,0.0
19:36:30.289000,231.0,250.0,87.0,-189.0,-80.0,-928.0,0.0,0.0,0.0
19:36:30.294000,231.0,250.0,87.0,-172.0,-92.0,-939.0,0.0,0.0,0.0
19:36:30.299000,249.0,245.0,78.0,-172.0,-92.0,-939.0,0.0,0.0,0.0
19:36:30.303000,268.0,240.0,60.0,-170.0,-85.0,-944.0,0.0,0.0,0.0
19:36:30.308000,284.0,233.0,42.0,-170.0,-85.0,-944.0,0.0,0.0,0.0
19:36:30.313000,303.0,226.0,31.0,-176.0,-70.0,-948.0,0.0,0.0,0.0
19:36:30.317000,319.0,221.0,23.0,-176.0,-70.0,-948.0,0.0,0.0,0.0
19:36:30.322000,335.0,216.0,15.0,-187.0,-52.0,-951.0,0.0,0.0,0.0
19:36:30.327000,347.0,210.0,9.0,-187.0,-52.0,-951.0,0.0,0.0,0.0
19:36:30.332000,354.0,200.0,8.0,-191.0,-21.0,-947.0,0.0,0.0,0.0
19:36:30.336000,354.0,188.0,14.0,-191.0,-21.0,-947.0,0.0,0.0,0.0
19:36:30.341000,354.0,174.0,28.0,-171.0,-21.0,-931.0,0.0,0.0,0.0
19:36:30.346000,355.0,164.0,46.0,-171.0,-21.0,-931.0,0.0,0.0,0.0
19:36:30.350000,350.0,155.0,67.0,-152.0,-28.0,-912.0,0.0,0.0,0.0
19:36:30.355000,334.0,149.0,79.0,-152.0,-28.0,-912.0,0.0,0.0,0.0
19:36:30.360000,310.0,147.0,86.0,-152.0,-28.0,-912.0,0.0,0.0,0.0
19:36:30.364000,285.0,147.0,81.0,-166.0,19.0,-900.0,0.0,0.0,0.0
19:36:30.369000,256.0,151.0,62.0,-166.0,19.0,-900.0,0.0,0.0,0.0
19:36:30.374000,222.0,154.0,48.0,-204.0,81.0,-900.0,0.0,0.0,0.0
19:36:30.378000,193.0,154.0,46.0,-204.0,81.0,-900.0,0.0,0.0,0.0
19:36:30.383000,161.0,153.0,37.0,-227.0,97.0,-907.0,0.0,0.0,0.0
19:36:30.388000,134.0,156.0,-3.0,-227.0,97.0,-907.0,0.0,0.0,0.0
19:36:30.393000,109.0,158.0,-28.0,-243.0,81.0,-914.0,0.0,0.0,0.0
19:36:30.397000,91.0,162.0,-8.0,-243.0,81.0,-914.0,0.0,0.0,0.0
19:36:30.402000,91.0,162.0,-8.0,-248.0,31.0,-926.0,0.0,0.0,0.0
19:36:30.407000,75.0,170.0,9.0,-248.0,31.0,-926.0,0.0,0.0,0.0
19:36:30.411000,60.0,178.0,-2.0,-274.0,2.0,-943.0,0.0,0.0,0.0
19:36:30.416000,43.0,185.0,-19.0,-274.0,2.0,-943.0,0.0,0.0,0.0
19:36:30.421000,26.0,191.0,-34.0,-299.0,25.0,-955.0,0.0,0.0,0.0
19:36:30.425000,14.0,195.0,-60.0,-299.0,25.0,-955.0,0.0,0.0,0.0
19:36:30.430000,7.0,196.0,-93.0,-275.0,35.0,-957.0,0.0,0.0,0.0
19:36:30.435000,2.0,196.0,-118.0,-275.0,35.0,-957.0,0.0,0.0,0.0
19:36:30.440000,-2.0,194.0,-129.0,-238.0,28.0,-953.0,0.0,0.0,0.0
19:36:30.444000,-4.0,193.0,-134.0,-238.0,28.0,-953.0,0.0,0.0,0.0
19:36:30.449000,-11.0,195.0,-147.0,-228.0,41.0,-950.0,0.0,0.0,0.0
19:36:30.453000,-23.0,197.0,-158.0,-228.0,41.0,-950.0,0.0,0.0,0.0
19:36:30.458000,-35.0,198.0,-164.0,-242.0,70.0,-950.0,0.0,0.0,0.0
19:36:30.463000,-41.0,196.0,-158.0,-242.0,70.0,-950.0,0.0,0.0,0.0
19:36:30.468000,-48.0,190.0,-144.0,-242.0,70.0,-950.0,0.0,0.0,0.0
19:36:30.472000,-56.0,182.0,-135.0,-225.0,70.0,-949.0,0.0,0.0,0.0
19:36:30.477000,-67.0,166.0,-121.0,-225.0,70.0,-949.0,0.0,0.0,0.0
19:36:30.482000,-77.0,148.0,-101.0,-194.0,69.0,-948.0,0.0,0.0,0.0
19:36:30.487000,-87.0,127.0,-83.0,-194.0,69.0,-948.0,0.0,0.0,0.0
19:36:30.491000,-105.0,98.0,-71.0,-167.0,87.0,-942.0,0.0,0.0,0.0
19:36:30.496000,-119.0,74.0,-67.0,-167.0,87.0,-942.0,0.0,0.0,0.0
19:36:30.501000,-130.0,47.0,-63.0,-136.0,102.0,-931.0,0.0,0.0,0.0
19:36:30.505000,-138.0,24.0,-58.0,-136.0,102.0,-931.0,0.0,0.0,0.0
19:36:30.510000,-151.0,2.0,-61.0,-135.0,94.0,-918.0,0.0,0.0,0.0
19:36:30.515000,-151.0,2.0,-61.0,-135.0,94.0,-918.0,0.0,0.0,0.0
19:36:30.519000,-166.0,-18.0,-65.0,-170.0,89.0,-906.0,0.0,0.0,0.0
19:36:30.524000,-181.0,-38.0,-81.0,-170.0,89.0,-906.0,0.0,0.0,0.0
19:36:30.529000,-200.0,-59.0,-106.0,-185.0,98.0,-894.0,0.0,0.0,0.0
19:36:30.534000,-215.0,-81.0,-137.0,-185.0,98.0,-894.0,0.0,0.0,0.0
19:36:30.538000,-228.0,-105.0,-171.0,-158.0,107.0,-891.0,0.0,0.0,0.0
19:36:30.543000,-242.0,-129.0,-205.0,-158.0,107.0,-891.0,0.0,0.0,0.0
19:36:30.548000,-261.0,-157.0,-234.0,-136.0,137.0,-897.0,0.0,0.0,0.0
19:36:30.552000,-282.0,-184.0,-262.0,-136.0,137.0,-897.0,0.0,0.0,0.0
19:36:30.557000,-309.0,-214.0,-290.0,-130.0,191.0,-901.0,0.0,0.0,0.0
19:36:30.562000,-341.0,-247.0,-319.0,-130.0,191.0,-901.0,0.0,0.0,0.0
19:36:30.566000,-375.0,-281.0,-340.0,-106.0,231.0,-900.0,0.0,0.0,0.0
19:36:30.571000,-415.0,-317.0,-347.0,-106.0,231.0,-900.0,0.0,0.0,0.0
19:36:30.576000,-455.0,-355.0,-352.0,-106.0,231.0,-900.0,0.0,0.0,0.0
19:36:30.581000,-502.0,-394.0,-357.0,-84.0,258.0,-898.0,0.0,0.0,0.0
19:36:30.585000,-552.0,-432.0,-366.0,-84.0,258.0,-898.0,0.0,0.0,0.0
19:36:30.590000,-608.0,-473.0,-379.0,-88.0,292.0,-895.0,0.0,0.0,0.0
19:36:30.595000,-672.0,-514.0,-406.0,-88.0,292.0,-895.0,0.0,0.0,0.0
19:36:30.599000,-744.0,-558.0,-447.0,-98.0,342.0,-894.0,0.0,0.0,0.0
19:36:30.604000,-818.0,-609.0,-485.0,-98.0,342.0,-894.0,0.0,0.0,0.0
19:36:30.609000,-896.0,-665.0,-517.0,-88.0,383.0,-893.0,0.0,0.0,0.0
19:36:30.613000,-972.0,-723.0,-555.0,-88.0,383.0,-893.0,0.0,0.0,0.0
19:36:30.618000,-1052.0,-787.0,-605.0,-55.0,404.0,-898.0,0.0,0.0,0.0
19:36:30.623000,-1052.0,-787.0,-605.0,-55.0,404.0,-898.0,0.0,0.0,0.0
19:36:30.628000,-1138.0,-855.0,-665.0,-37.0,458.0,-907.0,0.0,0.0,0.0
19:36:30.632000,-1228.0,-921.0,-730.0,-37.0,458.0,-907.0,0.0,0.0,0.0
19:36:30.637000,-1327.0,-983.0,-786.0,-51.0,525.0,-893.0,0.0,0.0,0.0
19:36:30.642000,-1430.0,-1040.0,-828.0,-51.0,525.0,-893.0,0.0,0.0,0.0
19:36:30.646000,-1532.0,-1091.0,-856.0,-99.0,532.0,-858.0,0.0,0.0,0.0
19:36:30.651000,-1631.0,-1135.0,-872.0,-99.0,532.0,-858.0,0.0,0.0,0.0
19:36:30.656000,-1733.0,-1176.0,-889.0,-179.0,509.0,-815.0,0.0,0.0,0.0
19:36:30.660000,-1838.0,-1215.0,-911.0,-179.0,509.0,-815.0,0.0,0.0,0.0
19:36:30.665000,-1945.0,-1252.0,-942.0,-262.0,505.0,-757.0,0.0,0.0,0.0
19:36:30.670000,-2038.0,-1286.0,-966.0,-262.0,505.0,-757.0,0.0,0.0,0.0
19:36:30.675000,-2113.0,-1320.0,-963.0,-316.0,427.0,-699.0,0.0,0.0,0.0
19:36:30.679000,-2175.0,-1348.0,-956.0,-316.0,427.0,-699.0,0.0,0.0,0.0
19:36:30.684000,-2221.0,-1369.0,-967.0,-316.0,427.0,-699.0,0.0,0.0,0.0
19:36:30.688000,-2258.0,-1381.0,-984.0,-368.0,284.0,-659.0,0.0,0.0,0.0
19:36:30.693000,-2293.0,-1390.0,-989.0,-368.0,284.0,-659.0,0.0,0.0,0.0
19:36:30.698000,-2324.0,-1402.0,-991.0,-442.0,165.0,-634.0,0.0,0.0,0.0
19:36:30.703000,-2351.0,-1414.0,-994.0,-442.0,165.0,-634.0,0.0,0.0,0.0
19:36:30.707000,-2375.0,-1426.0,-1008.0,-506.0,76.0,-629.0,0.0,0.0,0.0
19:36:30.712000,-2402.0,-1436.0,-1029.0,-506.0,76.0,-629.0,0.0,0.0,0.0
19:36:30.717000,-2417.0,-1450.0,-1073.0,-554.0,21.0,-646.0,0.0,0.0,0.0
19:36:30.722000,-2440.0,-1472.0,-1117.0,-554.0,21.0,-646.0,0.0,0.0,0.0
19:36:30.726000,-2465.0,-1500.0,-1141.0,-590.0,0.0,-670.0,0.0,0.0,0.0
19:36:30.731000,-2465.0,-1500.0,-1141.0,-590.0,0.0,-670.0,0.0,0.0,0.0
19:36:30.736000,-2475.0,-1539.0,-1189.0,-625.0,13.0,-690.0,0.0,0.0,0.0
19:36:30.740000,-2490.0,-1585.0,-1256.0,-625.0,13.0,-690.0,0.0,0.0,0.0
