hh:mm:ss.ms,gyroX[mdps],gyroY[mdps],gyroZ[mdps],accX[mg],accY[mg],accZ[mg],magX[mG],magY[mG],magZ[mG]
19:37:04.578000,3087.0,2074.0,320.0,-483.0,320.0,1013.0,0.0,0.0,0.0
19:37:04.583000,3106.0,2148.0,317.0,-483.0,320.0,1013.0,0.0,0.0,0.0
19:37:04.588000,3138.0,2225.0,421.0,-619.0,151.0,1030.0,0.0,0.0,0.0
19:37:04.592000,3170.0,2276.0,420.0,-619.0,151.0,1030.0,0.0,0.0,0.0
19:37:04.597000,3194.0,2368.0,408.0,-733.0,148.0,1074.0,0.0,0.0,0.0
19:37:04.602000,3164.0,2438.0,382.0,-733.0,148.0,1074.0,0.0,0.0,0.0
19:37:04.606000,3112.0,2522.0,387.0,-733.0,148.0,1074.0,0.0,0.0,0.0
19:37:04.611000,3046.0,2606.0,417.0,-882.0,393.0,1101.0,0.0,0.0,0.0
19:37:04.616000,2972.0,2674.0,403.0,-882.0,393.0,1101.0,0.0,0.0,0.0
19:37:04.621000,2902.0,2737.0,403.0,-1006.0,471.0,1137.0,0.0,0.0,0.0
19:37:04.625000,2838.0,2776.0,409.0,-1006.0,471.0,1137.0,0.0,0.0,0.0
19:37:04.630000,2788.0,2809.0,343.0,-1073.0,232.0,1174.0,0.0,0.0,0.0
19:37:04.635000,2769.0,2847.0,329.0,-1073.0,232.0,1174.0,0.0,0.0,0.0
19:37:04.639000,2754.0,2887.0,325.0,-1045.0,-101.0,1191.0,0.0,0.0,0.0
19:37:04.644000,2753.0,2911.0,281.0,-1045.0,-101.0,1191.0,0.0,0.0,0.0
19:37:04.649000,2788.0,2898.0,181.0,-1005.0,-224.0,1182.0,0.0,0.0,0.0
19:37:04.653000,2788.0,2898.0,181.0,-1005.0,-224.0,1182.0,0.0,0.0,0.0
19:37:04.658000,2820.0,2872.0,56.0,-912.0,-255.0,1170.0,0.0,0.0,0.0
19:37:04.663000,2839.0,2846.0,-60.0,-912.0,-255.0,1170.0,0.0,0.0,0.0
19:37:04.668000,2843.0,2796.0,-135.0,-725.0,-277.0,1186.0,0.0,0.0,0.0
19:37:04.672000,2812.0,2737.0,-106.0,-725.0,-277.0,1186.0,0.0,0.0,0.0
19:37:04.677000,2765.0,2662.0,-54.0,-507.0,-210.0,1196.0,0.0,0.0,0.0
19:37:04.682000,2715.0,2585.0,-57.0,-507.0,-210.0,1196.0,0.0,0.0,0.0
19:37:04.686000,2639.0,2508.0,-80.0,-355.0,-125.0,1168.0,0.0,0.0,0.0
19:37:04.691000,2544.0,2436.0,-54.0,-355.0,-125.0,1168.0,0.0,0.0,0.0
19:37:04.696000,2446.0,2358.0,-9.0,-303.0,-64.0,1117.0,0.0,0.0,0.0
19:37:04.700000,2337.0,2281.0,28.0,-303.0,-64.0,1117.0,0.0,0.0,0.0
19:37:04.705000,2219.0,2201.0,41.0,-343.0,17.0,1067.0,0.0,0.0,0.0
19:37:04.710000,2114.0,2137.0,-41.0,-343.0,17.0,1067.0,0.0,0.0,0.0
19:37:04.715000,2016.0,2072.0,-80.0,-354.0,32.0,1001.0,0.0,0.0,0.0
19:37:04.719000,1928.0,2007.0,-63.0,-354.0,32.0,1001.0,0.0,0.0,0.0
19:37:04.723000,1855.0,1945.0,-32.0,-354.0,32.0,1001.0,0.0,0.0,0.0
19:37:04.729000,1775.0,1887.0,-11.0,-348.0,-16.0,918.0,0.0,0.0,0.0
19:37:04.733000,1700.0,1834.0,-9.0,-348.0,-16.0,918.0,0.0,0.0,0.0
19:37:04.738000,1624.0,1786.0,-20.0,-446.0,12.0,849.0,0.0,0.0,0.0
19:37:04.743000,1543.0,1743.0,2.0,-446.0,12.0,849.0,0.0,0.0,0.0
19:37:04.747000,1477.0,1701.0,24.0,-559.0,47.0,787.0,0.0,0.0,0.0
19:37:04.752000,1424.0,1675.0,-46.0,-559.0,47.0,787.0,0.0,0.0,0.0
19:37:04.757000,1351.0,1641.0,-109.0,-640.0,46.0,711.0,0.0,0.0,0.0
19:37:04.762000,1281.0,1605.0,-88.0,-640.0,46.0,711.0,0.0,0.0,0.0
19:37:04.766000,1281.0,1605.0,-88.0,-679.0,10.0,631.0,0.0,0.0,0.0
19:37:04.771000,1212.0,1568.0,-25.0,-679.0,10.0,631.0,0.0,0.0,0.0
19:37:04.776000,1144.0,1528.0,9.0,-710.0,-15.0,573.0,0.0,0.0,0.0
19:37:04.780000,1066.0,1477.0,16.0,-710.0,-15.0,573.0,0.0,0.0,0.0
19:37:04.785000,996.0,1431.0,14.0,-717.0,31.0,532.0,0.0,0.0,0.0
19:37:04.790000,935.0,1388.0,32.0,-717.0,31.0,532.0,0.0,0.0,0.0
19:37:04.794000,865.0,1347.0,98.0,-671.0,42.0,497.0,0.0,0.0,0.0
19:37:04.799000,804.0,1307.0,184.0,-671.0,42.0,497.0,0.0,0.0,0.0
19:37:04.804000,753.0,1267.0,263.0,-683.0,-29.0,458.0,0.0,0.0,0.0
19:37:04.809000,716.0,1234.0,329.0,-683.0,-29.0,458.0,0.0,0.0,0.0
19:37:04.813000,693.0,1213.0,396.0,-753.0,-171.0,393.0,0.0,0.0,0.0
19:37:04.818000,683.0,1183.0,448.0,-753.0,-171.0,393.0,0.0,0.0,0.0
19:37:04.823000,673.0,1158.0,445.0,-828.0,-284.0,340.0,0.0,0.0,0.0
19:37:04.827000,657.0,1135.0,431.0,-828.0,-284.0,340.0,0.0,0.0,0.0
19:37:04.832000,637.0,1108.0,426.0,-828.0,-284.0,340.0,0.0,0.0,0.0
19:37:04.837000,613.0,1085.0,421.0,-856.0,-277.0,317.0,0.0,0.0,0.0
19:37:04.841000,580.0,1062.0,427.0,-856.0,-277.0,317.0,0.0,0.0,0.0
19:37:04.846000,539.0,1039.0,430.0,-849.0,-207.0,286.0,0.0,0.0,0.0
19:37:04.851000,494.0,1012.0,413.0,-849.0,-207.0,286.0,0.0,0.0,0.0
19:37:04.856000,446.0,982.0,371.0,-882.0,-128.0,245.0,0.0,0.0,0.0
19:37:04.860000,393.0,952.0,331.0,-882.0,-128.0,245.0,0.0,0.0,0.0
19:37:04.865000,346.0,921.0,326.0,-921.0,-81.0,208.0,0.0,0.0,0.0
19:37:04.870000,297.0,882.0,329.0,-921.0,-81.0,208.0,0.0,0.0,0.0
19:37:04.874000,297.0,882.0,329.0,-925.0,-107.0,179.0,0.0,0.0,0.0
19:37:04.879000,249.0,853.0,301.0,-925.0,-107.0,179.0,0.0,0.0,0.0
19:37:04.884000,211.0,830.0,259.0,-918.0,-161.0,147.0,0.0,0.0,0.0
19:37:04.888000,168.0,812.0,230.0,-918.0,-161.0,147.0,0.0,0.0,0.0
19:37:04.893000,123.0,793.0,224.0,-922.0,-180.0,116.0,0.0,0.0,0.0
19:37:04.898000,94.0,778.0,205.0,-922.0,-180.0,116.0,0.0,0.0,0.0
19:37:04.903000,42.0,760.0,196.0,-948.0,-204.0,62.0,0.0,0.0,0.0
19:37:04.907000,-19.0,742.0,185.0,-948.0,-204.0,62.0,0.0,0.0,0.0
19:37:04.912000,-52.0,725.0,141.0,-950.0,-223.0,-4.0,0.0,0.0,0.0
19:37:04.917000,-48.0,702.0,77.0,-950.0,-223.0,-4.0,0.0,0.0,0.0
19:37:04.921000,-18.0,686.0,69.0,-864.0,-357.0,-49.0,0.0,0.0,0.0
19:37:04.926000,25.0,669.0,91.0,-864.0,-357.0,-49.0,0.0,0.0,0.0
19:37:04.931000,93.0,641.0,56.0,-820.0,-533.0,-78.0,0.0,0.0,0.0
19:37:04.935000,168.0,611.0,-12.0,-820.0,-533.0,-78.0,0.0,0.0,0.0
19:37:04.940000,230.0,584.0,-47.0,-820.0,-533.0,-78.0,0.0,0.0,0.0
19:37:04.945000,290.0,554.0,-39.0,-825.0,-612.0,-95.0,0.0,0.0,0.0
19:37:04.950000,323.0,524.0,-12.0,-825.0,-612.0,-95.0,0.0,0.0,0.0
19:37:04.954000,332.0,492.0,-13.0,-819.0,-615.0,-91.0,0.0,0.0,0.0
19:37:04.959000,320.0,455.0,-46.0,-819.0,-615.0,-91.0,0.0,0.0,0.0
19:37:04.964000,319.0,413.0,-98.0,-836.0,-500.0,-75.0,0.0,0.0,0.0
19:37:04.968000,311.0,370.0,-158.0,-836.0,-500.0,-75.0,0.0,0.0,0.0
19:37:04.973000,301.0,317.0,-173.0,-820.0,-435.0,-72.0,0.0,0.0,0.0
19:37:04.978000,290.0,260.0,-174.0,-820.0,-435.0,-72.0,0.0,0.0,0.0
19:37:04.982000,290.0,260.0,-174.0,-797.0,-464.0,-72.0,0.0,0.0,0.0
19:37:04.987000,283.0,204.0,-225.0,-797.0,-464.0,-72.0,0.0,0.0,0.0
19:37:04.992000,298.0,153.0,-298.0,-760.0,-511.0,-79.0,0.0,0.0,0.0
19:37:04.997000,335.0,113.0,-342.0,-760.0,-511.0,-79.0,0.0,0.0,0.0
19:37:05.001000,369.0,74.0,-353.0,-730.0,-573.0,-91.0,0.0,0.0,0.0
19:37:05.006000,384.0,27.0,-386.0,-730.0,-573.0,-91.0,0.0,0.0,0.0
19:37:05.011000,388.0,-22.0,-426.0,-750.0,-584.0,-63.0,0.0,0.0,0.0
19:37:05.015000,403.0,-60.0,-436.0,-750.0,-584.0,-63.0,0.0,0.0,0.0
19:37:05.020000,434.0,-81.0,-418.0,-739.0,-649.0,-27.0,0.0,0.0,0.0
19:37:05.025000,473.0,-87.0,-360.0,-739.0,-649.0,-27.0,0.0,0.0,0.0
19:37:05.029000,508.0,-79.0,-306.0,-743.0,-708.0,-20.0,0.0,0.0,0.0
19:37:05.034000,520.0,-61.0,-294.0,-743.0,-708.0,-20.0,0.0,0.0,0.0
19:37:05.039000,500.0,-44.0,-329.0,-873.0,-522.0,-21.0,0.0,0.0,0.0
19:37:05.044000,458.0,-31.0,-375.0,-873.0,-522.0,-21.0,0.0,0.0,0.0
19:37:05.048000,410.0,-21.0,-403.0,-873.0,-522.0,-21.0,0.0,0.0,0.0
19:37:05.053000,354.0,-16.0,-380.0,-1022.0,-282.0,-32.0,0.0,0.0,0.0
19:37:05.058000,308.0,-20.0,-307.0,-1022.0,-282.0,-32.0,0.0,0.0,0.0
19:37:05.062000,273.0,-26.0,-210.0,-1098.0,-203.0,-58.0,0.0,0.0,0.0
19:37:05.067000,246.0,-28.0,-114.0,-1098.0,-203.0,-58.0,0.0,0.0,0.0
19:37:05.072000,226.0,-29.0,-27.0,-1116.0,-228.0,-91.0,0.0,0.0,0.0
19:37:05.076000,216.0,-28.0,59.0,-1116.0,-228.0,-91.0,0.0,0.0,0.0
19:37:05.081000,212.0,-32.0,130.0,-1105.0,-278.0,-137.0,0.0,0.0,0.0
19:37:05.086000,214.0,-40.0,168.0,-1105.0,-278.0,-137.0,0.0,0.0,0.0
19:37:05.091000,214.0,-40.0,168.0,-1096.0,-320.0,-185.0,0.0,0.0,0.0
19:37:05.095000,227.0,-55.0,187.0,-1096.0,-320.0,-185.0,0.0,0.0,0.0
19:37:05.100000,231.0,-77.0,225.0,-1068.0,-353.0,-216.0,0.0,0.0,0.0
19:37:05.105000,239.0,-99.0,247.0,-1068.0,-353.0,-216.0,0.0,0.0,0.0
19:37:05.109000,256.0,-121.0,249.0,-1030.0,-377.0,-233.0,0.0,0.0,0.0
19:37:05.114000,280.0,-143.0,226.0,-1030.0,-377.0,-233.0,0.0,0.0,0.0
19:37:05.119000,310.0,-162.0,189.0,-1013.0,-389.0,-241.0,0.0,0.0,0.0
19:37:05.123000,336.0,-178.0,160.0,-1013.0,-389.0,-241.0,0.0,0.0,0.0
19:37:05.128000,353.0,-195.0,149.0,-996.0,-395.0,-232.0,0.0,0.0,0.0
19:37:05.142000,372.0,-238.0,196.0,-984.0,-382.0,-212.0,0.0,0.0,0.0
19:37:05.147000,373.0,-242.0,202.0,-1000.0,-361.0,-194.0,0.0,0.0,0.0
19:37:05.152000,380.0,-249.0,182.0,-1000.0,-361.0,-194.0,0.0,0.0,0.0
19:37:05.156000,392.0,-254.0,189.0,-1000.0,-361.0,-194.0,0.0,0.0,0.0
19:37:05.161000,400.0,-259.0,235.0,-1023.0,-371.0,-176.0,0.0,0.0,0.0
19:37:05.166000,409.0,-261.0,271.0,-1023.0,-371.0,-176.0,0.0,0.0,0.0
19:37:05.170000,423.0,-257.0,290.0,-1047.0,-393.0,-150.0,0.0,0.0,0.0
19:37:05.175000,443.0,-249.0,294.0,-1047.0,-393.0,-150.0,0.0,0.0,0.0
19:37:05.180000,451.0,-237.0,280.0,-1076.0,-389.0,-123.0,0.0,0.0,0.0
19:37:05.185000,448.0,-228.0,257.0,-1076.0,-389.0,-123.0,0.0,0.0,0.0
19:37:05.189000,448.0,-217.0,245.0,-1089.0,-375.0,-95.0,0.0,0.0,0.0
19:37:05.194000,445.0,-203.0,230.0,-1089.0,-375.0,-95.0,0.0,0.0,0.0
19:37:05.199000,445.0,-186.0,203.0,-1082.0,-375.0,-76.0,0.0,0.0,0.0
19:37:05.203000,445.0,-186.0,203.0,-1082.0,-375.0,-76.0,0.0,0.0,0.0
19:37:05.208000,443.0,-170.0,163.0,-1080.0,-373.0,-72.0,0.0,0.0,0.0
19:37:05.213000,436.0,-155.0,119.0,-1080.0,-373.0,-72.0,0.0,0.0,0.0
19:37:05.217000,426.0,-142.0,79.0,-1080.0,-349.0,-70.0,0.0,0.0,0.0
19:37:05.222000,416.0,-131.0,58.0,-1080.0,-349.0,-70.0,0.0,0.0,0.0
19:37:05.227000,401.0,-126.0,44.0,-1070.0,-318.0,-69.0,0.0,0.0,0.0
19:37:05.232000,384.0,-125.0,20.0,-1070.0,-318.0,-69.0,0.0,0.0,0.0
19:37:05.236000,370.0,-126.0,-6.0,-1056.0,-313.0,-75.0,0.0,0.0,0.0
19:37:05.241000,368.0,-132.0,-37.0,-1056.0,-313.0,-75.0,0.0,0.0,0.0
19:37:05.246000,370.0,-140.0,-56.0,-1023.0,-337.0,-91.0,0.0,0.0,0.0
19:37:05.250000,373.0,-150.0,-72.0,-1023.0,-337.0,-91.0,0.0,0.0,0.0
19:37:05.255000,370.0,-166.0,-89.0,-976.0,-338.0,-109.0,0.0,0.0,0.0
19:37:05.260000,361.0,-184.0,-106.0,-976.0,-338.0,-109.0,0.0,0.0,0.0
19:37:05.264000,354.0,-205.0,-137.0,-976.0,-338.0,-109.0,0.0,0.0,0.0
19:37:05.269000,328.0,-235.0,-152.0,-929.0,-276.0,-124.0,0.0,0.0,0.0
19:37:05.274000,294.0,-266.0,-150.0,-929.0,-276.0,-124.0,0.0,0.0,0.0
19:37:05.279000,251.0,-301.0,-166.0,-885.0,-238.0,-135.0,0.0,0.0,0.0
19:37:05.283000,210.0,-337.0,-204.0,-885.0,-238.0,-135.0,0.0,0.0,0.0
19:37:05.288000,159.0,-377.0,-233.0,-856.0,-200.0,-150.0,0.0,0.0,0.0
19:37:05.293000,116.0,-413.0,-259.0,-856.0,-200.0,-150.0,0.0,0.0,0.0
19:37:05.297000,66.0,-457.0,-269.0,-833.0,-132.0,-177.0,0.0,0.0,0.0
19:37:05.302000,8.0,-501.0,-257.0,-833.0,-132.0,-177.0,0.0,0.0,0.0
19:37:05.307000,-43.0,-545.0,-244.0,-817.0,-109.0,-204.0,0.0,0.0,0.0
19:37:05.311000,-43.0,-545.0,-244.0,-817.0,-109.0,-204.0,0.0,0.0,0.0
19:37:05.316000,-93.0,-592.0,-243.0,-833.0,-85.0,-223.0,0.0,0.0,0.0
19:37:05.321000,-141.0,-646.0,-255.0,-833.0,-85.0,-223.0,0.0,0.0,0.0
19:37:05.326000,-192.0,-702.0,-294.0,-855.0,-24.0,-225.0,0.0,0.0,0.0
19:37:05.330000,-242.0,-763.0,-333.0,-855.0,-24.0,-225.0,0.0,0.0,0.0
19:37:05.335000,-289.0,-831.0,-349.0,-818.0,10.0,-208.0,0.0,0.0,0.0
19:37:05.340000,-329.0,-905.0,-347.0,-818.0,10.0,-208.0,0.0,0.0,0.0
19:37:05.344000,-361.0,-984.0,-352.0,-754.0,-11.0,-177.0,0.0,0.0,0.0
19:37:05.349000,-380.0,-1064.0,-348.0,-754.0,-11.0,-177.0,0.0,0.0,0.0
19:37:05.354000,-404.0,-1148.0,-327.0,-699.0,-39.0,-131.0,0.0,0.0,0.0
19:37:05.358000,-427.0,-1235.0,-310.0,-699.0,-39.0,-131.0,0.0,0.0,0.0
19:37:05.363000,-445.0,-1318.0,-302.0,-673.0,31.0,-65.0,0.0,0.0,0.0
19:37:05.368000,-458.0,-1400.0,-275.0,-673.0,31.0,-65.0,0.0,0.0,0.0
19:37:05.373000,-476.0,-1475.0,-253.0,-673.0,31.0,-65.0,0.0,0.0,0.0
19:37:05.377000,-530.0,-1537.0,-304.0,-710.0,221.0,37.0,0.0,0.0,0.0
19:37:05.382000,-586.0,-1596.0,-426.0,-710.0,221.0,37.0,0.0,0.0,0.0
19:37:05.387000,-661.0,-1640.0,-533.0,-713.0,455.0,204.0,0.0,0.0,0.0
19:37:05.391000,-772.0,-1674.0,-501.0,-713.0,455.0,204.0,0.0,0.0,0.0
19:37:05.396000,-867.0,-1697.0,-350.0,-630.0,434.0,407.0,0.0,0.0,0.0
19:37:05.401000,-938.0,-1718.0,-210.0,-630.0,434.0,407.0,0.0,0.0,0.0
19:37:05.405000,-1001.0,-1736.0,-144.0,-729.0,150.0,504.0,0.0,0.0,0.0
19:37:05.410000,-1053.0,-1752.0,-196.0,-729.0,150.0,504.0,0.0,0.0,0.0
19:37:05.415000,-1107.0,-1766.0,-313.0,-1049.0,64.0,442.0,0.0,0.0,0.0
19:37:05.420000,-1107.0,-1766.0,-313.0,-1049.0,64.0,442.0,0.0,0.0,0.0
19:37:05.424000,-1166.0,-1785.0,-383.0,-1174.0,214.0,349.0,0.0,0.0,0.0
19:37:05.429000,-1224.0,-1805.0,-389.0,-1174.0,214.0,349.0,0.0,0.0,0.0
19:37:05.434000,-1264.0,-1822.0,-353.0,-1048.0,246.0,288.0,0.0,0.0,0.0
19:37:05.438000,-1289.0,-1842.0,-332.0,-1048.0,246.0,288.0,0.0,0.0,0.0
19:37:05.443000,-1292.0,-1852.0,-371.0,-926.0,96.0,211.0,0.0,0.0,0.0
19:37:05.448000,-1264.0,-1857.0,-417.0,-926.0,96.0,211.0,0.0,0.0,0.0
19:37:05.452000,-1241.0,-1866.0,-478.0,-835.0,-8.0,126.0,0.0,0.0,0.0
19:37:05.457000,-1229.0,-1888.0,-543.0,-835.0,-8.0,126.0,0.0,0.0,0.0
19:37:05.462000,-1213.0,-1916.0,-507.0,-736.0,41.0,103.0,0.0,0.0,0.0
19:37:05.467000,-1207.0,-1950.0,-326.0,-736.0,41.0,103.0,0.0,0.0,0.0
19:37:05.471000,-1201.0,-1980.0,-163.0,-717.0,91.0,142.0,0.0,0.0,0.0
19:37:05.476000,-1163.0,-1997.0,20.0,-717.0,91.0,142.0,0.0,0.0,0.0
19:37:05.481000,-1099.0,-2010.0,203.0,-800.0,-62.0,194.0,0.0,0.0,0.0
19:37:05.485000,-1029.0,-2008.0,298.0,-800.0,-62.0,194.0,0.0,0.0,0.0
19:37:05.490000,-981.0,-1999.0,282.0,-800.0,-62.0,194.0,0.0,0.0,0.0
19:37:05.495000,-914.0,-1983.0,207.0,-913.0,-228.0,250.0,0.0,0.0,0.0
19:37:05.499000,-837.0,-1951.0,230.0,-913.0,-228.0,250.0,0.0,0.0,0.0
19:37:05.504000,-775.0,-1924.0,373.0,-957.0,-296.0,314.0,0.0,0.0,0.0
19:37:05.509000,-735.0,-1883.0,443.0,-957.0,-296.0,314.0,0.0,0.0,0.0
19:37:05.514000,-700.0,-1825.0,439.0,-918.0,-318.0,383.0,0.0,0.0,0.0
19:37:05.518000,-677.0,-1761.0,327.0,-918.0,-318.0,383.0,0.0,0.0,0.0
19:37:05.523000,-649.0,-1682.0,247.0,-881.0,-279.0,437.0,0.0,0.0,0.0
19:37:05.528000,-640.0,-1603.0,214.0,-881.0,-279.0,437.0,0.0,0.0,0.0
19:37:05.532000,-640.0,-1603.0,214.0,-825.0,-286.0,465.0,0.0,0.0,0.0
19:37:05.537000,-616.0,-1521.0,205.0,-825.0,-286.0,465.0,0.0,0.0,0.0
19:37:05.542000,-611.0,-1440.0,179.0,-811.0,-291.0,482.0,0.0,0.0,0.0
19:37:05.546000,-604.0,-1365.0,168.0,-811.0,-291.0,482.0,0.0,0.0,0.0
19:37:05.551000,-613.0,-1293.0,144.0,-852.0,-217.0,492.0,0.0,0.0,0.0
19:37:05.556000,-623.0,-1227.0,98.0,-852.0,-217.0,492.0,0.0,0.0,0.0
19:37:05.561000,-627.0,-1162.0,6.0,-878.0,-119.0,488.0,0.0,0.0,0.0
19:37:05.565000,-613.0,-1101.0,-43.0,-878.0,-119.0,488.0,0.0,0.0,0.0
19:37:05.570000,-607.0,-1029.0,-51.0,-919.0,-80.0,477.0,0.0,0.0,0.0
19:37:05.575000,-551.0,-964.0,-28.0,-919.0,-80.0,477.0,0.0,0.0,0.0
19:37:05.579000,-494.0,-899.0,-2.0,-998.0,-146.0,480.0,0.0,0.0,0.0
19:37:05.584000,-406.0,-817.0,-37.0,-998.0,-146.0,480.0,0.0,0.0,0.0
19:37:05.589000,-327.0,-744.0,-74.0,-1063.0,-171.0,501.0,0.0,0.0,0.0
19:37:05.593000,-254.0,-676.0,-207.0,-1063.0,-171.0,501.0,0.0,0.0,0.0
19:37:05.598000,-203.0,-620.0,-242.0,-1063.0,-171.0,501.0,0.0,0.0,0.0
19:37:05.603000,-158.0,-557.0,-105.0,-1012.0,-97.0,533.0,0.0,0.0,0.0
19:37:05.608000,-128.0,-518.0,198.0,-1012.0,-97.0,533.0,0.0,0.0,0.0
19:37:05.612000,-115.0,-478.0,306.0,-920.0,-115.0,563.0,0.0,0.0,0.0
19:37:05.617000,-75.0,-432.0,254.0,-920.0,-115.0,563.0,0.0,0.0,0.0
19:37:05.622000,-39.0,-378.0,252.0,-902.0,-147.0,585.0,0.0,0.0,0.0
19:37:05.626000,-30.0,-342.0,140.0,-902.0,-147.0,585.0,0.0,0.0,0.0
19:37:05.631000,-29.0,-317.0,-358.0,-889.0,-21.0,624.0,0.0,0.0,0.0
19:37:05.636000,-22.0,-252.0,-632.0,-889.0,-21.0,624.0,0.0,0.0,0.0
19:37:05.640000,-22.0,-252.0,-632.0,-700.0,24.0,660.0,0.0,0.0,0.0
19:37:05.645000,-34.0,-184.0,-90.0,-700.0,24.0,660.0,0.0,0.0,0.0
19:37:05.650000,-72.0,-204.0,258.0,-618.0,-147.0,673.0,0.0,0.0,0.0
19:37:05.654000,11.0,-109.0,451.0,-618.0,-147.0,673.0,0.0,0.0,0.0
19:37:05.659000,6.0,-116.0,427.0,-845.0,-158.0,693.0,0.0,0.0,0.0
19:37:05.664000,72.0,-4.0,123.0,-845.0,-158.0,693.0,0.0,0.0,0.0
19:37:05.669000,130.0,8.0,627.0,-939.0,-152.0,702.0,0.0,0.0,0.0
19:37:05.673000,154.0,51.0,79.0,-939.0,-152.0,702.0,0.0,0.0,0.0
19:37:05.678000,168.0,120.0,5.0,-832.0,-217.0,690.0,0.0,0.0,0.0
19:37:05.683000,187.0,168.0,-67.0,-832.0,-217.0,690.0,0.0,0.0,0.0
19:37:05.687000,200.0,200.0,538.0,-714.0,-314.0,686.0,0.0,0.0,0.0
19:37:05.692000,200.0,210.0,657.0,-714.0,-314.0,686.0,0.0,0.0,0.0
19:37:05.697000,202.0,254.0,399.0,-764.0,-236.0,688.0,0.0,0.0,0.0
19:37:05.701000,224.0,280.0,247.0,-764.0,-236.0,688.0,0.0,0.0,0.0
19:37:05.706000,204.0,304.0,162.0,-764.0,-236.0,688.0,0.0,0.0,0.0
19:37:05.711000,175.0,325.0,82.0,-805.0,-20.0,700.0,0.0,0.0,0.0
19:37:05.716000,151.0,351.0,21.0,-805.0,-20.0,700.0,0.0,0.0,0.0
19:37:05.720000,138.0,387.0,-9.0,-714.0,-5.0,716.0,0.0,0.0,0.0
19:37:05.725000,125.0,417.0,-56.0,-714.0,-5.0,716.0,0.0,0.0,0.0
19:37:05.730000,102.0,455.0,-91.0,-705.0,-10.0,715.0,0.0,0.0,0.0
19:37:05.734000,83.0,488.0,-105.0,-705.0,-10.0,715.0,0.0,0.0,0.0
19:37:05.739000,76.0,523.0,-133.0,-726.0,-73.0,711.0,0.0,0.0,0.0
19:37:05.744000,67.0,555.0,-169.0,-726.0,-73.0,711.0,0.0,0.0,0.0
19:37:05.748000,67.0,555.0,-169.0,-757.0,-119.0,707.0,0.0,0.0,0.0
19:37:05.753000,60.0,575.0,-175.0,-757.0,-119.0,707.0,0.0,0.0,0.0
19:37:05.758000,65.0,590.0,-130.0,-772.0,-146.0,706.0,0.0,0.0,0.0
19:37:05.763000,81.0,609.0,-104.0,-772.0,-146.0,706.0,0.0,0.0,0.0
19:37:05.767000,101.0,629.0,-116.0,-763.0,-196.0,704.0,0.0,0.0,0.0
19:37:05.772000,128.0,653.0,-139.0,-763.0,-196.0,704.0,0.0,0.0,0.0
19:37:05.777000,152.0,678.0,-147.0,-731.0,-228.0,710.0,0.0,0.0,0.0
19:37:05.781000,177.0,701.0,-131.0,-731.0,-228.0,710.0,0.0,0.0,0.0
19:37:05.786000,203.0,725.0,-99.0,-710.0,-255.0,725.0,0.0,0.0,0.0
19:37:05.791000,233.0,746.0,-95.0,-710.0,-255.0,725.0,0.0,0.0,0.0
19:37:05.795000,259.0,771.0,-128.0,-734.0,-266.0,733.0,0.0,0.0,0.0
19:37:05.800000,268.0,794.0,-168.0,-734.0,-266.0,733.0,0.0,0.0,0.0
19:37:05.805000,262.0,821.0,-205.0,-735.0,-223.0,742.0,0.0,0.0,0.0
19:37:05.810000,245.0,846.0,-231.0,-735.0,-223.0,742.0,0.0,0.0,0.0
19:37:05.814000,229.0,866.0,-244.0,-735.0,-223.0,742.0,0.0,0.0,0.0
19:37:05.819000,217.0,882.0,-268.0,-721.0,-148.0,756.0,0.0,0.0,0.0
19:37:05.824000,200.0,898.0,-329.0,-721.0,-148.0,756.0,0.0,0.0,0.0
19:37:05.828000,186.0,914.0,-393.0,-716.0,-83.0,770.0,0.0,0.0,0.0
19:37:05.833000,169.0,934.0,-396.0,-716.0,-83.0,770.0,0.0,0.0,0.0
19:37:05.838000,167.0,947.0,-375.0,-694.0,-85.0,780.0,0.0,0.0,0.0
19:37:05.842000,163.0,960.0,-363.0,-694.0,-85.0,780.0,0.0,0.0,0.0
19:37:05.847000,165.0,970.0,-357.0,-687.0,-128.0,775.0,0.0,0.0,0.0
19:37:05.852000,151.0,976.0,-366.0,-687.0,-128.0,775.0,0.0,0.0,0.0
19:37:05.857000,151.0,976.0,-366.0,-715.0,-105.0,767.0,0.0,0.0,0.0
19:37:05.861000,127.0,989.0,-388.0,-715.0,-105.0,767.0,0.0,0.0,0.0
19:37:05.866000,105.0,996.0,-415.0,-718.0,-55.0,756.0,0.0,0.0,0.0
19:37:05.871000,99.0,997.0,-411.0,-718.0,-55.0,756.0,0.0,0.0,0.0
19:37:05.875000,92.0,995.0,-377.0,-706.0,-77.0,743.0,0.0,0.0,0.0
19:37:05.880000,70.0,989.0,-326.0,-706.0,-77.0,743.0,0.0,0.0,0.0
19:37:05.885000,48.0,987.0,-308.0,-742.0,-108.0,730.0,0.0,0.0,0.0
19:37:05.889000,28.0,982.0,-305.0,-742.0,-108.0,730.0,0.0,0.0,0.0
19:37:05.894000,6.0,970.0,-295.0,-791.0,-96.0,712.0,0.0,0.0,0.0
19:37:05.899000,-16.0,961.0,-284.0,-791.0,-96.0,712.0,0.0,0.0,0.0
19:37:05.904000,-39.0,959.0,-284.0,-805.0,-71.0,690.0,0.0,0.0,0.0
19:37:05.908000,-56.0,956.0,-295.0,-805.0,-71.0,690.0,0.0,0.0,0.0
19:37:05.913000,-69.0,952.0,-301.0,-814.0,-85.0,661.0,0.0,0.0,0.0
19:37:05.918000,-73.0,949.0,-289.0,-814.0,-85.0,661.0,0.0,0.0,0.0
19:37:05.922000,-65.0,948.0,-272.0,-814.0,-85.0,661.0,0.0,0.0,0.0
19:37:05.927000,-52.0,947.0,-263.0,-849.0,-136.0,629.0,0.0,0.0,0.0
19:37:05.932000,-32.0,948.0,-276.0,-849.0,-136.0,629.0,0.0,0.0,0.0
19:37:05.936000,-17.0,953.0,-300.0,-920.0,-142.0,592.0,0.0,0.0,0.0
19:37:05.941000,-3.0,960.0,-312.0,-920.0,-142.0,592.0,0.0,0.0,0.0
19:37:05.946000,18.0,967.0,-299.0,-978.0,-126.0,558.0,0.0,0.0,0.0
19:37:05.951000,40.0,974.0,-283.0,-978.0,-126.0,558.0,0.0,0.0,0.0
19:37:05.955000,61.0,981.0,-271.0,-1003.0,-137.0,528.0,0.0,0.0,0.0
19:37:05.960000,81.0,989.0,-271.0,-1003.0,-137.0,528.0,0.0,0.0,0.0
19:37:05.965000,109.0,997.0,-271.0,-1013.0,-143.0,503.0,0.0,0.0,0.0
19:37:05.969000,109.0,997.0,-271.0,-1013.0,-143.0,503.0,0.0,0.0,0.0
19:37:05.974000,132.0,1011.0,-288.0,-1013.0,-152.0,469.0,0.0,0.0,0.0
19:37:05.979000,161.0,1031.0,-325.0,-1013.0,-152.0,469.0,0.0,0.0,0.0
19:37:05.983000,193.0,1056.0,-343.0,-1013.0,-172.0,422.0,0.0,0.0,0.0
19:37:05.988000,226.0,1073.0,-340.0,-1013.0,-172.0,422.0,0.0,0.0,0.0
19:37:05.993000,261.0,1083.0,-317.0,-1031.0,-204.0,373.0,0.0,0.0,0.0
19:37:05.998000,299.0,1096.0,-295.0,-1031.0,-204.0,373.0,0.0,0.0,0.0
19:37:06.002000,336.0,1106.0,-287.0,-1054.0,-211.0,335.0,0.0,0.0,0.0
19:37:06.007000,368.0,1109.0,-292.0,-1054.0,-211.0,335.0,0.0,0.0,0.0
19:37:06.012000,406.0,1110.0,-305.0,-1029.0,-190.0,307.0,0.0,0.0,0.0
19:37:06.016000,456.0,1106.0,-324.0,-1029.0,-190.0,307.0,0.0,0.0,0.0
19:37:06.021000,520.0,1102.0,-336.0,-955.0,-221.0,280.0,0.0,0.0,0.0
19:37:06.026000,587.0,1092.0,-336.0,-955.0,-221.0,280.0,0.0,0.0,0.0
19:37:06.030000,648.0,1077.0,-321.0,-955.0,-221.0,280.0,0.0,0.0,0.0
19:37:06.035000,699.0,1057.0,-307.0,-887.0,-249.0,263.0,0.0,0.0,0.0
19:37:06.040000,743.0,1041.0,-301.0,-887.0,-249.0,263.0,0.0,0.0,0.0
19:37:06.045000,779.0,1029.0,-301.0,-873.0,-208.0,250.0,0.0,0.0,0.0
19:37:06.049000,807.0,1029.0,-292.0,-873.0,-208.0,250.0,0.0,0.0,0.0
19:37:06.054000,833.0,1038.0,-261.0,-901.0,-148.0,212.0,0.0,0.0,0.0
19:37:06.059000,847.0,1042.0,-233.0,-901.0,-148.0,212.0,0.0,0.0,0.0
19:37:06.063000,847.0,1048.0,-226.0,-943.0,-70.0,170.0,0.0,0.0,0.0
19:37:06.067000,847.0,1048.0,-226.0,-943.0,-70.0,170.0,0.0,0.0,0.0
19:37:06.073000,830.0,1077.0,-256.0,-970.0,47.0,143.0,0.0,0.0,0.0
19:37:06.077000,830.0,1077.0,-256.0,-970.0,47.0,143.0,0.0,0.0,0.0
19:37:06.082000,839.0,1096.0,-280.0,-958.0,87.0,115.0,0.0,0.0,0.0
19:37:06.087000,865.0,1121.0,-290.0,-958.0,87.0,115.0,0.0,0.0,0.0
19:37:06.092000,914.0,1147.0,-284.0,-942.0,-1.0,90.0,0.0,0.0,0.0
19:37:06.096000,970.0,1175.0,-270.0,-942.0,-1.0,90.0,0.0,0.0,0.0
19:37:06.101000,1036.0,1200.0,-255.0,-960.0,-85.0,81.0,0.0,0.0,0.0
19:37:06.106000,1113.0,1225.0,-249.0,-960.0,-85.0,81.0,0.0,0.0,0.0
19:37:06.110000,1193.0,1248.0,-228.0,-969.0,-129.0,100.0,0.0,0.0,0.0
19:37:06.115000,1283.0,1286.0,-183.0,-969.0,-129.0,100.0,0.0,0.0,0.0
19:37:06.120000,1369.0,1330.0,-137.0,-1002.0,-159.0,111.0,0.0,0.0,0.0
19:37:06.124000,1456.0,1381.0,-91.0,-1002.0,-159.0,111.0,0.0,0.0,0.0
19:37:06.129000,1537.0,1435.0,-35.0,-1101.0,-138.0,90.0,0.0,0.0,0.0
19:37:06.134000,1604.0,1481.0,13.0,-1101.0,-138.0,90.0,0.0,0.0,0.0
19:37:06.139000,1668.0,1537.0,64.0,-1101.0,-138.0,90.0,0.0,0.0,0.0
19:37:06.143000,1703.0,1603.0,114.0,-1160.0,-100.0,78.0,0.0,0.0,0.0
19:37:06.148000,1752.0,1669.0,156.0,-1160.0,-100.0,78.0,0.0,0.0,0.0
19:37:06.153000,1799.0,1737.0,179.0,-1168.0,-63.0,71.0,0.0,0.0,0.0
19:37:06.157000,1834.0,1809.0,194.0,-1168.0,-63.0,71.0,0.0,0.0,0.0
19:37:06.162000,1851.0,1887.0,217.0,-1183.0,-27.0,37.0,0.0,0.0,0.0
19:37:06.167000,1855.0,1957.0,226.0,-1183.0,-27.0,37.0,0.0,0.0,0.0
19:37:06.171000,1862.0,2033.0,239.0,-1206.0,19.0,-38.0,0.0,0.0,0.0
19:37:06.176000,1873.0,2086.0,264.0,-1206.0,19.0,-38.0,0.0,0.0,0.0
19:37:06.181000,1883.0,2138.0,308.0,-1234.0,46.0,-92.0,0.0,0.0,0.0
19:37:06.186000,1883.0,2138.0,308.0,-1234.0,46.0,-92.0,0.0,0.0,0.0
19:37:06.190000,1894.0,2180.0,377.0,-1212.0,-30.0,-57.0,0.0,0.0,0.0
19:37:06.195000,1896.0,2198.0,434.0,-1212.0,-30.0,-57.0,0.0,0.0,0.0
19:37:06.200000,1930.0,2190.0,461.0,-1042.0,-57.0,67.0,0.0,0.0,0.0
19:37:06.204000,1975.0,2193.0,487.0,-1042.0,-57.0,67.0,0.0,0.0,0.0
19:37:06.209000,2007.0,2209.0,519.0,-891.0,35.0,93.0,0.0,0.0,0.0
19:37:06.214000,2017.0,2232.0,541.0,-891.0,35.0,93.0,0.0,0.0,0.0
19:37:06.218000,1988.0,2259.0,606.0,-1023.0,164.0,-64.0,0.0,0.0,0.0
19:37:06.223000,1909.0,2282.0,697.0,-1023.0,164.0,-64.0,0.0,0.0,0.0
19:37:06.228000,1786.0,2296.0,751.0,-1293.0,340.0,-233.0,0.0,0.0,0.0
19:37:06.233000,1659.0,2277.0,770.0,-1293.0,340.0,-233.0,0.0,0.0,0.0
19:37:06.237000,1517.0,2258.0,834.0,-1249.0,484.0,-245.0,0.0,0.0,0.0
19:37:06.242000,1358.0,2246.0,945.0,-1249.0,484.0,-245.0,0.0,0.0,0.0
19:37:06.247000,1210.0,2217.0,1004.0,-906.0,560.0,-173.0,0.0,0.0,0.0
19:37:06.251000,1092.0,2190.0,980.0,-914.0,560.0,-173.0,0.0,0.0,0.0
19:37:06.256000,996.0,2163.0,989.0,-914.0,560.0,-173.0,0.0,0.0,0.0
19:37:06.261000,905.0,2138.0,1105.0,-636.0,471.0,-174.0,0.0,0.0,0.0
19:37:06.265000,851.0,2123.0,1211.0,-636.0,471.0,-174.0,0.0,0.0,0.0
19:37:06.270000,848.0,2116.0,1225.0,-580.0,142.0,-210.0,0.0,0.0,0.0
19:37:06.275000,891.0,2118.0,1194.0,-580.0,142.0,-210.0,0.0,0.0,0.0
19:37:06.280000,951.0,2141.0,1195.0,-702.0,-149.0,-255.0,0.0,0.0,0.0
19:37:06.284000,1036.0,2177.0,1207.0,-702.0,-149.0,-255.0,0.0,0.0,0.0
19:37:06.289000,1123.0,2229.0,1169.0,-895.0,-236.0,-293.0,0.0,0.0,0.0
19:37:06.294000,1205.0,2287.0,1066.0,-895.0,-236.0,-293.0,0.0,0.0,0.0
19:37:06.298000,1205.0,2287.0,1066.0,-1146.0,-156.0,-310.0,0.0,0.0,0.0
19:37:06.303000,1278.0,2368.0,980.0,-1146.0,-156.0,-310.0,0.0,0.0,0.0
19:37:06.308000,1330.0,2467.0,996.0,-1361.0,-109.0,-307.0,0.0,0.0,0.0
19:37:06.312000,1367.0,2571.0,1078.0,-1361.0,-109.0,-307.0,0.0,0.0,0.0
19:37:06.317000,1386.0,2687.0,1094.0,-1529.0,-114.0,-289.0,0.0,0.0,0.0
19:37:06.322000,1385.0,2788.0,1099.0,-1529.0,-114.0,-289.0,0.0,0.0,0.0
19:37:06.327000,1354.0,2868.0,1187.0,-1553.0,-53.0,-256.0,0.0,0.0,0.0
19:37:06.331000,1311.0,2939.0,1276.0,-1553.0,-53.0,-256.0,0.0,0.0,0.0
19:37:06.336000,1264.0,3006.0,1298.0,-1363.0,44.0,-244.0,0.0,0.0,0.0
19:37:06.341000,1215.0,3059.0,1285.0,-1363.0,44.0,-244.0,0.0,0.0,0.0
19:37:06.345000,1163.0,3080.0,1306.0,-1023.0,133.0,-255.0,0.0,0.0,0.0
19:37:06.350000,1108.0,3080.0,1321.0,-1023.0,133.0,-255.0,0.0,0.0,0.0
19:37:06.355000,1066.0,3046.0,1330.0,-663.0,144.0,-279.0,0.0,0.0,0.0
19:37:06.359000,1040.0,3014.0,1343.0,-663.0,144.0,-279.0,0.0,0.0,0.0
19:37:06.364000,1020.0,2973.0,1309.0,-663.0,144.0,-279.0,0.0,0.0,0.0
19:37:06.369000,1020.0,2899.0,1255.0,-443.0,95.0,-346.0,0.0,0.0,0.0
19:37:06.374000,1031.0,2804.0,1219.0,-443.0,95.0,-346.0,0.0,0.0,0.0
19:37:06.378000,1052.0,2708.0,1220.0,-262.0,2.0,-410.0,0.0,0.0,0.0
19:37:06.383000,1081.0,2611.0,1236.0,-262.0,2.0,-410.0,0.0,0.0,0.0
19:37:06.388000,1119.0,2507.0,1225.0,-52.0,-121.0,-490.0,0.0,0.0,0.0
19:37:06.392000,1162.0,2403.0,1249.0,-52.0,-121.0,-490.0,0.0,0.0,0.0
19:37:06.397000,1190.0,2293.0,1272.0,36.0,-229.0,-583.0,0.0,0.0,0.0
19:37:06.402000,1208.0,2191.0,1269.0,36.0,-229.0,-583.0,0.0,0.0,0.0
19:37:06.406000,1208.0,2191.0,1269.0,0.0,-228.0,-642.0,0.0,0.0,0.0
19:37:06.411000,1204.0,2105.0,1264.0,0.0,-228.0,-642.0,0.0,0.0,0.0
19:37:06.416000,1169.0,2017.0,1245.0,-40.0,-33.0,-696.0,0.0,0.0,0.0
19:37:06.421000,1100.0,1933.0,1220.0,-40.0,-33.0,-696.0,0.0,0.0,0.0
19:37:06.425000,1018.0,1857.0,1154.0,-75.0,191.0,-757.0,0.0,0.0,0.0
19:37:06.430000,930.0,1792.0,1100.0,-75.0,191.0,-757.0,0.0,0.0,0.0
19:37:06.435000,830.0,1724.0,1081.0,-115.0,265.0,-805.0,0.0,0.0,0.0
19:37:06.439000,737.0,1650.0,1066.0,-115.0,265.0,-805.0,0.0,0.0,0.0
19:37:06.444000,667.0,1576.0,1047.0,-105.0,231.0,-830.0,0.0,0.0,0.0
19:37:06.449000,621.0,1505.0,1026.0,-105.0,231.0,-830.0,0.0,0.0,0.0
19:37:06.453000,603.0,1439.0,1016.0,-66.0,121.0,-857.0,0.0,0.0,0.0
19:37:06.458000,599.0,1371.0,977.0,-66.0,121.0,-857.0,0.0,0.0,0.0
19:37:06.463000,614.0,1309.0,905.0,-76.0,29.0,-889.0,0.0,0.0,0.0
19:37:06.468000,640.0,1250.0,862.0,-76.0,29.0,-889.0,0.0,0.0,0.0
19:37:06.472000,672.0,1195.0,875.0,-76.0,29.0,-889.0,0.0,0.0,0.0
19:37:06.477000,701.0,1139.0,888.0,-117.0,0.0,-923.0,0.0,0.0,0.0
19:37:06.482000,718.0,1087.0,872.0,-117.0,0.0,-923.0,0.0,0.0,0.0
19:37:06.486000,720.0,1032.0,809.0,-170.0,32.0,-948.0,0.0,0.0,0.0
19:37:06.491000,727.0,990.0,765.0,-170.0,32.0,-948.0,0.0,0.0,0.0
19:37:06.496000,726.0,945.0,786.0,-188.0,114.0,-962.0,0.0,0.0,0.0
19:37:06.500000,709.0,901.0,824.0,-188.0,114.0,-962.0,0.0,0.0,0.0
19:37:06.505000,668.0,849.0,814.0,-147.0,155.0,-960.0,0.0,0.0,0.0
19:37:06.510000,624.0,797.0,752.0,-147.0,155.0,-960.0,0.0,0.0,0.0
19:37:06.515000,624.0,797.0,752.0,-86.0,225.0,-947.0,0.0,0.0,0.0
19:37:06.519000,582.0,742.0,714.0,-86.0,225.0,-947.0,0.0,0.0,0.0
19:37:06.524000,539.0,688.0,711.0,-6.0,286.0,-951.0,0.0,0.0,0.0
19:37:06.528000,491.0,633.0,693.0,-6.0,286.0,-951.0,0.0,0.0,0.0
19:37:06.533000,448.0,576.0,625.0,-25.0,263.0,-964.0,0.0,0.0,0.0
19:37:06.538000,403.0,518.0,571.0,-25.0,263.0,-964.0,0.0,0.0,0.0
19:37:06.542000,361.0,450.0,577.0,-36.0,215.0,-969.0,0.0,0.0,0.0
19:37:06.547000,332.0,385.0,608.0,-36.0,215.0,-969.0,0.0,0.0,0.0
19:37:06.552000,299.0,322.0,620.0,33.0,186.0,-981.0,0.0,0.0,0.0
19:37:06.557000,280.0,259.0,595.0,33.0,186.0,-981.0,0.0,0.0,0.0
19:37:06.562000,263.0,196.0,570.0,24.0,157.0,-986.0,0.0,0.0,0.0
19:37:06.566000,249.0,140.0,555.0,24.0,157.0,-986.0,0.0,0.0,0.0
19:37:06.571000,252.0,95.0,528.0,-23.0,93.0,-971.0,0.0,0.0,0.0
19:37:06.576000,255.0,56.0,492.0,-23.0,93.0,-971.0,0.0,0.0,0.0
19:37:06.580000,266.0,21.0,475.0,-23.0,93.0,-971.0,0.0,0.0,0.0
19:37:06.585000,280.0,-12.0,477.0,-37.0,20.0,-946.0,0.0,0.0,0.0
19:37:06.590000,298.0,-42.0,474.0,-37.0,20.0,-946.0,0.0,0.0,0.0
19:37:06.594000,322.0,-61.0,449.0,-23.0,-22.0,-920.0,0.0,0.0,0.0
19:37:06.599000,343.0,-76.0,406.0,-23.0,-22.0,-920.0,0.0,0.0,0.0
19:37:06.604000,360.0,-84.0,368.0,-50.0,-26.0,-900.0,0.0,0.0,0.0
19:37:06.609000,373.0,-85.0,339.0,-50.0,-26.0,-900.0,0.0,0.0,0.0
19:37:06.613000,382.0,-81.0,315.0,-120.0,-11.0,-883.0,0.0,0.0,0.0
19:37:06.618000,387.0,-69.0,290.0,-120.0,-11.0,-883.0,0.0,0.0,0.0
19:37:06.623000,387.0,-69.0,290.0,-160.0,7.0,-874.0,0.0,0.0,0.0
19:37:06.627000,387.0,-52.0,272.0,-160.0,7.0,-874.0,0.0,0.0,0.0
19:37:06.632000,380.0,-33.0,256.0,-170.0,27.0,-868.0,0.0,0.0,0.0
19:37:06.637000,362.0,-14.0,238.0,-170.0,27.0,-868.0,0.0,0.0,0.0
19:37:06.641000,338.0,9.0,221.0,-174.0,56.0,-864.0,0.0,0.0,0.0
19:37:06.646000,311.0,28.0,207.0,-174.0,56.0,-864.0,0.0,0.0,0.0
19:37:06.651000,280.0,44.0,199.0,-154.0,67.0,-859.0,0.0,0.0,0.0
19:37:06.656000,253.0,58.0,195.0,-154.0,67.0,-859.0,0.0,0.0,0.0
19:37:06.660000,235.0,74.0,189.0,-119.0,39.0,-854.0,0.0,0.0,0.0
19:37:06.665000,225.0,92.0,176.0,-119.0,39.0,-854.0,0.0,0.0,0.0
19:37:06.670000,219.0,109.0,157.0,-120.0,0.0,-857.0,0.0,0.0,0.0
19:37:06.674000,217.0,123.0,133.0,-120.0,0.0,-857.0,0.0,0.0,0.0
19:37:06.679000,214.0,133.0,100.0,-129.0,-7.0,-859.0,0.0,0.0,0.0
19:37:06.684000,215.0,142.0,67.0,-129.0,-7.0,-859.0,0.0,0.0,0.0
19:37:06.688000,217.0,149.0,49.0,-129.0,-7.0,-859.0,0.0,0.0,0.0
19:37:06.693000,221.0,154.0,37.0,-101.0,-10.0,-861.0,0.0,0.0,0.0
19:37:06.698000,223.0,157.0,21.0,-101.0,-10.0,-861.0,0.0,0.0,0.0
19:37:06.703000,222.0,158.0,-3.0,-66.0,-14.0,-861.0,0.0,0.0,0.0
19:37:06.707000,221.0,156.0,-21.0,-66.0,-14.0,-861.0,0.0,0.0,0.0
19:37:06.712000,217.0,156.0,-45.0,-45.0,14.0,-867.0,0.0,0.0,0.0
19:37:06.717000,212.0,158.0,-65.0,-45.0,14.0,-867.0,0.0,0.0,0.0
19:37:06.721000,203.0,156.0,-88.0,-55.0,69.0,-888.0,0.0,0.0,0.0
19:37:06.726000,185.0,144.0,-112.0,-55.0,69.0,-888.0,0.0,0.0,0.0
19:37:06.731000,180.0,133.0,-115.0,-71.0,82.0,-887.0,0.0,0.0,0.0
19:37:06.735000,180.0,133.0,-115.0,-71.0,82.0,-887.0,0.0,0.0,0.0
19:37:06.740000,199.0,126.0,-98.0,1.0,-17.0,-877.0,0.0,0.0,0.0
19:37:06.745000,224.0,118.0,-93.0,1.0,-17.0,-877.0,0.0,0.0,0.0
19:37:06.750000,239.0,108.0,-108.0,68.0,-43.0,-885.0,0.0,0.0,0.0
19:37:06.754000,245.0,99.0,-127.0,68.0,-43.0,-885.0,0.0,0.0,0.0
19:37:06.759000,247.0,94.0,-140.0,56.0,46.0,-894.0,0.0,0.0,0.0
19:37:06.764000,252.0,94.0,-146.0,56.0,46.0,-894.0,0.0,0.0,0.0
19:37:06.768000,255.0,96.0,-153.0,19.0,96.0,-909.0,0.0,0.0,0.0
19:37:06.773000,245.0,99.0,-164.0,19.0,96.0,-909.0,0.0,0.0,0.0
19:37:06.778000,222.0,100.0,-164.0,-31.0,160.0,-910.0,0.0,0.0,0.0
19:37:06.782000,196.0,102.0,-150.0,-31.0,160.0,-910.0,0.0,0.0,0.0
19:37:06.787000,170.0,102.0,-118.0,-48.0,188.0,-899.0,0.0,0.0,0.0
19:37:06.792000,147.0,105.0,-70.0,-48.0,188.0,-899.0,0.0,0.0,0.0
19:37:06.797000,123.0,101.0,-23.0,-48.0,188.0,-899.0,0.0,0.0,0.0
19:37:06.801000,98.0,95.0,11.0,-30.0,138.0,-886.0,0.0,0.0,0.0
19:37:06.806000,73.0,89.0,36.0,-30.0,138.0,-886.0,0.0,0.0,0.0
19:37:06.811000,46.0,88.0,58.0,9.0,100.0,-880.0,0.0,0.0,0.0
19:37:06.815000,16.0,83.0,70.0,9.0,100.0,-880.0,0.0,0.0,0.0
19:37:06.820000,-10.0,78.0,75.0,22.0,113.0,-895.0,0.0,0.0,0.0
19:37:06.825000,-33.0,74.0,74.0,22.0,113.0,-895.0,0.0,0.0,0.0
19:37:06.829000,-46.0,67.0,79.0,-8.0,113.0,-926.0,0.0,0.0,0.0
19:37:06.834000,-46.0,67.0,79.0,-8.0,113.0,-926.0,0.0,0.0,0.0
19:37:06.839000,-46.0,59.0,106.0,-26.0,43.0,-961.0,0.0,0.0,0.0
19:37:06.844000,-46.0,59.0,106.0,-26.0,43.0,-961.0,0.0,0.0,0.0
19:37:06.848000,-36.0,60.0,115.0,-39.0,-19.0,-992.0,0.0,0.0,0.0
19:37:06.853000,-27.0,60.0,114.0,-39.0,-19.0,-992.0,0.0,0.0,0.0
19:37:06.858000,-18.0,60.0,105.0,-79.0,-18.0,-1017.0,0.0,0.0,0.0
19:37:06.862000,-8.0,60.0,101.0,-79.0,-18.0,-1017.0,0.0,0.0,0.0
19:37:06.867000,3.0,58.0,100.0,-113.0,-6.0,-1034.0,0.0,0.0,0.0
19:37:06.872000,18.0,52.0,91.0,-113.0,-6.0,-1034.0,0.0,0.0,0.0
19:37:06.876000,32.0,46.0,73.0,-120.0,-11.0,-1038.0,0.0,0.0,0.0
19:37:06.881000,46.0,35.0,59.0,-120.0,-11.0,-1038.0,0.0,0.0,0.0
19:37:06.886000,54.0,17.0,49.0,-93.0,-7.0,-1028.0,0.0,0.0,0.0
19:37:06.891000,56.0,-4.0,39.0,-93.0,-7.0,-1028.0,0.0,0.0,0.0
19:37:06.895000,49.0,-30.0,28.0,-43.0,23.0,-1017.0,0.0,0.0,0.0
19:37:06.900000,37.0,-63.0,16.0,-43.0,23.0,-1017.0,0.0,0.0,0.0
19:37:06.905000,25.0,-101.0,8.0,-43.0,23.0,-1017.0,0.0,0.0,0.0
19:37:06.909000,16.0,-140.0,6.0,-9.0,52.0,-1012.0,0.0,0.0,0.0
19:37:06.914000,7.0,-182.0,7.0,-9.0,52.0,-1012.0,0.0,0.0,0.0
19:37:06.919000,0.0,-227.0,-2.0,11.0,53.0,-1008.0,0.0,0.0,0.0
19:37:06.923000,-9.0,-275.0,-23.0,11.0,53.0,-1008.0,0.0,0.0,0.0
19:37:06.928000,-28.0,-331.0,-44.0,31.0,82.0,-1003.0,0.0,0.0,0.0
19:37:06.933000,-58.0,-390.0,-66.0,31.0,82.0,-1003.0,0.0,0.0,0.0
19:37:06.938000,-109.0,-457.0,-93.0,41.0,161.0,-988.0,0.0,0.0,0.0
19:37:06.942000,-182.0,-531.0,-126.0,41.0,161.0,-988.0,0.0,0.0,0.0
19:37:06.947000,-275.0,-619.0,-170.0,51.0,272.0,-959.0,0.0,0.0,0.0
19:37:06.952000,-275.0,-619.0,-170.0,51.0,272.0,-959.0,0.0,0.0,0.0
19:37:06.956000,-385.0,-718.0,-213.0,87.0,395.0,-929.0,0.0,0.0,0.0
19:37:06.961000,-515.0,-832.0,-249.0,87.0,395.0,-929.0,0.0,0.0,0.0
19:37:06.966000,-665.0,-958.0,-276.0,138.0,512.0,-903.0,0.0,0.0,0.0
19:37:06.970000,-833.0,-1094.0,-303.0,138.0,512.0,-903.0,0.0,0.0,0.0
19:37:06.975000,-1008.0,-1240.0,-347.0,165.0,631.0,-877.0,0.0,0.0,0.0
19:37:06.980000,-1187.0,-1396.0,-415.0,165.0,631.0,-877.0,0.0,0.0,0.0
19:37:06.985000,-1366.0,-1557.0,-497.0,180.0,717.0,-842.0,0.0,0.0,0.0
19:37:06.989000,-1546.0,-1716.0,-589.0,180.0,717.0,-842.0,0.0,0.0,0.0
19:37:06.994000,-1725.0,-1870.0,-688.0,181.0,737.0,-795.0,0.0,0.0,0.0
19:37:06.999000,-1901.0,-2022.0,-777.0,181.0,737.0,-795.0,0.0,0.0,0.0
19:37:07.003000,-2071.0,-2169.0,-852.0,129.0,714.0,-744.0,0.0,0.0,0.0
19:37:07.008000,-2231.0,-2307.0,-930.0,129.0,714.0,-744.0,0.0,0.0,0.0
