hh:mm:ss.ms,gyroX[mdps],gyroY[mdps],gyroZ[mdps],accX[mg],accY[mg],accZ[mg],magX[mG],magY[mG],magZ[mG]
19:37:20.106000,2873.0,1864.0,366.0,-506.0,216.0,1021.0,0.0,0.0,0.0
19:37:20.111000,2873.0,1925.0,399.0,-506.0,216.0,1021.0,0.0,0.0,0.0
19:37:20.115000,2858.0,1987.0,452.0,-642.0,325.0,1084.0,0.0,0.0,0.0
19:37:20.120000,2828.0,2045.0,466.0,-642.0,325.0,1084.0,0.0,0.0,0.0
19:37:20.125000,2788.0,2095.0,469.0,-808.0,392.0,1115.0,0.0,0.0,0.0
19:37:20.130000,2754.0,2143.0,482.0,-808.0,392.0,1115.0,0.0,0.0,0.0
19:37:20.134000,2728.0,2189.0,496.0,-948.0,314.0,1132.0,0.0,0.0,0.0
19:37:20.139000,2707.0,2241.0,511.0,-948.0,314.0,1132.0,0.0,0.0,0.0
19:37:20.144000,2686.0,2296.0,498.0,-1002.0,162.0,1168.0,0.0,0.0,0.0
19:37:20.148000,2660.0,2351.0,470.0,-1002.0,162.0,1168.0,0.0,0.0,0.0
19:37:20.153000,2627.0,2412.0,436.0,-1002.0,162.0,1168.0,0.0,0.0,0.0
19:37:20.158000,2613.0,2471.0,399.0,-1005.0,83.0,1204.0,0.0,0.0,0.0
19:37:20.162000,2613.0,2523.0,343.0,-1005.0,83.0,1204.0,0.0,0.0,0.0
19:37:20.167000,2609.0,2558.0,282.0,-1028.0,56.0,1191.0,0.0,0.0,0.0
19:37:20.172000,2598.0,2585.0,234.0,-1028.0,56.0,1191.0,0.0,0.0,0.0
19:37:20.177000,2585.0,2611.0,174.0,-1069.0,13.0,1185.0,0.0,0.0,0.0
19:37:20.181000,2566.0,2630.0,108.0,-1069.0,13.0,1185.0,0.0,0.0,0.0
19:37:20.186000,2535.0,2651.0,46.0,-1042.0,-5.0,1217.0,0.0,0.0,0.0
19:37:20.191000,2535.0,2651.0,46.0,-1042.0,-5.0,1217.0,0.0,0.0,0.0
19:37:20.195000,2493.0,2674.0,0.0,-965.0,21.0,1235.0,0.0,0.0,0.0
19:37:20.200000,2436.0,2695.0,-35.0,-965.0,21.0,1235.0,0.0,0.0,0.0
19:37:20.205000,2372.0,2711.0,-67.0,-913.0,62.0,1226.0,0.0,0.0,0.0
19:37:20.209000,2298.0,2719.0,-114.0,-913.0,62.0,1226.0,0.0,0.0,0.0
19:37:20.214000,2214.0,2722.0,-157.0,-900.0,108.0,1195.0,0.0,0.0,0.0
19:37:20.219000,2125.0,2722.0,-190.0,-900.0,108.0,1195.0,0.0,0.0,0.0
19:37:20.224000,2040.0,2713.0,-219.0,-904.0,142.0,1143.0,0.0,0.0,0.0
19:37:20.228000,1958.0,2701.0,-238.0,-904.0,142.0,1143.0,0.0,0.0,0.0
19:37:20.233000,1881.0,2684.0,-264.0,-911.0,140.0,1079.0,0.0,0.0,0.0
19:37:20.238000,1801.0,2664.0,-305.0,-911.0,140.0,1079.0,0.0,0.0,0.0
19:37:20.242000,1720.0,2637.0,-359.0,-896.0,124.0,1017.0,0.0,0.0,0.0
19:37:20.247000,1635.0,2606.0,-430.0,-896.0,124.0,1017.0,0.0,0.0,0.0
19:37:20.252000,1543.0,2573.0,-499.0,-841.0,117.0,953.0,0.0,0.0,0.0
19:37:20.256000,1453.0,2537.0,-534.0,-841.0,117.0,953.0,0.0,0.0,0.0
19:37:20.261000,1366.0,2494.0,-533.0,-841.0,117.0,953.0,0.0,0.0,0.0
19:37:20.266000,1285.0,2451.0,-531.0,-790.0,92.0,868.0,0.0,0.0,0.0
19:37:20.271000,1207.0,2408.0,-541.0,-790.0,92.0,868.0,0.0,0.0,0.0
19:37:20.275000,1133.0,2360.0,-550.0,-791.0,79.0,768.0,0.0,0.0,0.0
19:37:20.280000,1065.0,2308.0,-555.0,-791.0,79.0,768.0,0.0,0.0,0.0
19:37:20.285000,1002.0,2250.0,-552.0,-817.0,98.0,674.0,0.0,0.0,0.0
19:37:20.289000,945.0,2193.0,-543.0,-817.0,98.0,674.0,0.0,0.0,0.0
19:37:20.294000,896.0,2132.0,-515.0,-823.0,102.0,592.0,0.0,0.0,0.0
19:37:20.299000,847.0,2074.0,-474.0,-823.0,102.0,592.0,0.0,0.0,0.0
19:37:20.303000,847.0,2074.0,-474.0,-815.0,96.0,522.0,0.0,0.0,0.0
19:37:20.308000,804.0,2015.0,-442.0,-815.0,96.0,522.0,0.0,0.0,0.0
19:37:20.313000,761.0,1955.0,-427.0,-796.0,114.0,467.0,0.0,0.0,0.0
19:37:20.318000,713.0,1897.0,-410.0,-796.0,114.0,467.0,0.0,0.0,0.0
19:37:20.322000,665.0,1841.0,-378.0,-799.0,136.0,417.0,0.0,0.0,0.0
19:37:20.327000,620.0,1789.0,-363.0,-799.0,136.0,417.0,0.0,0.0,0.0
19:37:20.332000,576.0,1742.0,-365.0,-856.0,137.0,363.0,0.0,0.0,0.0
19:37:20.336000,533.0,1702.0,-366.0,-856.0,137.0,363.0,0.0,0.0,0.0
19:37:20.341000,485.0,1671.0,-368.0,-945.0,84.0,278.0,0.0,0.0,0.0
19:37:20.346000,467.0,1646.0,-338.0,-945.0,84.0,278.0,0.0,0.0,0.0
19:37:20.350000,450.0,1606.0,-324.0,-990.0,12.0,183.0,0.0,0.0,0.0
19:37:20.355000,429.0,1568.0,-323.0,-990.0,12.0,183.0,0.0,0.0,0.0
19:37:20.360000,400.0,1518.0,-296.0,-985.0,24.0,128.0,0.0,0.0,0.0
19:37:20.365000,372.0,1465.0,-291.0,-985.0,24.0,128.0,0.0,0.0,0.0
19:37:20.369000,360.0,1411.0,-320.0,-985.0,24.0,128.0,0.0,0.0,0.0
19:37:20.374000,362.0,1356.0,-301.0,-939.0,31.0,88.0,0.0,0.0,0.0
19:37:20.378000,369.0,1304.0,-238.0,-861.0,-13.0,43.0,0.0,0.0,0.0
19:37:20.383000,373.0,1254.0,-183.0,-861.0,-13.0,43.0,0.0,0.0,0.0
19:37:20.388000,375.0,1204.0,-168.0,-861.0,-13.0,43.0,0.0,0.0,0.0
19:37:20.393000,368.0,1152.0,-179.0,-847.0,9.0,1.0,0.0,0.0,0.0
19:37:20.397000,358.0,1096.0,-193.0,-847.0,9.0,1.0,0.0,0.0,0.0
19:37:20.402000,340.0,1040.0,-182.0,-863.0,91.0,-29.0,0.0,0.0,0.0
19:37:20.407000,318.0,987.0,-158.0,-863.0,91.0,-29.0,0.0,0.0,0.0
19:37:20.412000,318.0,987.0,-158.0,-846.0,127.0,-55.0,0.0,0.0,0.0
19:37:20.416000,303.0,933.0,-140.0,-846.0,127.0,-55.0,0.0,0.0,0.0
19:37:20.421000,283.0,885.0,-126.0,-822.0,111.0,-77.0,0.0,0.0,0.0
19:37:20.426000,257.0,841.0,-101.0,-822.0,111.0,-77.0,0.0,0.0,0.0
19:37:20.430000,234.0,795.0,-74.0,-773.0,91.0,-85.0,0.0,0.0,0.0
19:37:20.435000,205.0,756.0,-46.0,-773.0,91.0,-85.0,0.0,0.0,0.0
19:37:20.440000,176.0,725.0,-38.0,-738.0,104.0,-92.0,0.0,0.0,0.0
19:37:20.444000,147.0,696.0,-49.0,-738.0,104.0,-92.0,0.0,0.0,0.0
19:37:20.449000,119.0,672.0,-49.0,-765.0,106.0,-114.0,0.0,0.0,0.0
19:37:20.454000,90.0,648.0,-46.0,-765.0,106.0,-114.0,0.0,0.0,0.0
19:37:20.459000,65.0,630.0,-42.0,-819.0,82.0,-144.0,0.0,0.0,0.0
19:37:20.463000,50.0,613.0,-44.0,-819.0,82.0,-144.0,0.0,0.0,0.0
19:37:20.468000,22.0,599.0,-45.0,-864.0,89.0,-172.0,0.0,0.0,0.0
19:37:20.473000,1.0,578.0,-42.0,-864.0,89.0,-172.0,0.0,0.0,0.0
19:37:20.477000,-11.0,560.0,-53.0,-864.0,89.0,-172.0,0.0,0.0,0.0
19:37:20.482000,-18.0,537.0,-60.0,-882.0,87.0,-193.0,0.0,0.0,0.0
19:37:20.487000,-17.0,519.0,-35.0,-882.0,87.0,-193.0,0.0,0.0,0.0
19:37:20.491000,-16.0,498.0,0.0,-875.0,32.0,-213.0,0.0,0.0,0.0
19:37:20.496000,-6.0,483.0,21.0,-875.0,32.0,-213.0,0.0,0.0,0.0
19:37:20.501000,9.0,459.0,33.0,-870.0,-26.0,-240.0,0.0,0.0,0.0
19:37:20.506000,9.0,438.0,52.0,-870.0,-26.0,-240.0,0.0,0.0,0.0
19:37:20.510000,13.0,408.0,68.0,-869.0,-33.0,-276.0,0.0,0.0,0.0
19:37:20.515000,19.0,382.0,63.0,-869.0,-33.0,-276.0,0.0,0.0,0.0
19:37:20.520000,19.0,382.0,63.0,-838.0,0.0,-307.0,0.0,0.0,0.0
19:37:20.524000,30.0,350.0,49.0,-838.0,0.0,-307.0,0.0,0.0,0.0
19:37:20.529000,42.0,321.0,21.0,-801.0,29.0,-317.0,0.0,0.0,0.0
19:37:20.534000,14.0,307.0,-2.0,-801.0,29.0,-317.0,0.0,0.0,0.0
19:37:20.538000,51.0,252.0,52.0,-790.0,66.0,-333.0,0.0,0.0,0.0
19:37:20.543000,162.0,162.0,128.0,-790.0,66.0,-333.0,0.0,0.0,0.0
19:37:20.548000,162.0,114.0,193.0,-851.0,130.0,-349.0,0.0,0.0,0.0
19:37:20.553000,151.0,95.0,160.0,-851.0,130.0,-349.0,0.0,0.0,0.0
19:37:20.557000,135.0,71.0,133.0,-868.0,54.0,-332.0,0.0,0.0,0.0
19:37:20.562000,163.0,35.0,186.0,-868.0,54.0,-332.0,0.0,0.0,0.0
19:37:20.567000,160.0,8.0,290.0,-875.0,-55.0,-309.0,0.0,0.0,0.0
19:37:20.571000,179.0,-4.0,312.0,-875.0,-55.0,-309.0,0.0,0.0,0.0
19:37:20.576000,192.0,-25.0,286.0,-967.0,-34.0,-289.0,0.0,0.0,0.0
19:37:20.581000,200.0,-35.0,264.0,-967.0,-34.0,-289.0,0.0,0.0,0.0
19:37:20.585000,208.0,-53.0,246.0,-967.0,-34.0,-289.0,0.0,0.0,0.0
19:37:20.590000,210.0,-69.0,266.0,-913.0,-40.0,-269.0,0.0,0.0,0.0
19:37:20.595000,203.0,-90.0,256.0,-913.0,-40.0,-269.0,0.0,0.0,0.0
19:37:20.600000,200.0,-105.0,199.0,-860.0,-25.0,-258.0,0.0,0.0,0.0
19:37:20.604000,193.0,-120.0,152.0,-860.0,-25.0,-258.0,0.0,0.0,0.0
19:37:20.609000,176.0,-143.0,171.0,-917.0,18.0,-270.0,0.0,0.0,0.0
19:37:20.614000,161.0,-157.0,207.0,-917.0,18.0,-270.0,0.0,0.0,0.0
19:37:20.618000,149.0,-179.0,209.0,-872.0,33.0,-283.0,0.0,0.0,0.0
19:37:20.623000,131.0,-199.0,195.0,-872.0,33.0,-283.0,0.0,0.0,0.0
19:37:20.628000,118.0,-219.0,205.0,-780.0,69.0,-280.0,0.0,0.0,0.0
19:37:20.632000,118.0,-219.0,205.0,-780.0,69.0,-280.0,0.0,0.0,0.0
19:37:20.637000,112.0,-231.0,217.0,-736.0,31.0,-277.0,0.0,0.0,0.0
19:37:20.642000,119.0,-235.0,212.0,-736.0,31.0,-277.0,0.0,0.0,0.0
19:37:20.647000,131.0,-235.0,203.0,-768.0,-74.0,-281.0,0.0,0.0,0.0
19:37:20.651000,153.0,-235.0,189.0,-768.0,-74.0,-281.0,0.0,0.0,0.0
19:37:20.656000,171.0,-229.0,175.0,-867.0,-130.0,-281.0,0.0,0.0,0.0
19:37:20.661000,191.0,-216.0,168.0,-867.0,-130.0,-281.0,0.0,0.0,0.0
19:37:20.665000,214.0,-203.0,137.0,-954.0,-137.0,-275.0,0.0,0.0,0.0
19:37:20.670000,231.0,-192.0,104.0,-954.0,-137.0,-275.0,0.0,0.0,0.0
19:37:20.675000,244.0,-188.0,97.0,-975.0,-108.0,-262.0,0.0,0.0,0.0
19:37:20.679000,246.0,-190.0,109.0,-975.0,-108.0,-262.0,0.0,0.0,0.0
19:37:20.684000,245.0,-196.0,115.0,-944.0,-41.0,-254.0,0.0,0.0,0.0
19:37:20.689000,240.0,-202.0,117.0,-944.0,-41.0,-254.0,0.0,0.0,0.0
19:37:20.694000,235.0,-220.0,129.0,-944.0,-41.0,-254.0,0.0,0.0,0.0
19:37:20.698000,232.0,-238.0,151.0,-885.0,16.0,-254.0,0.0,0.0,0.0
19:37:20.703000,227.0,-256.0,173.0,-885.0,16.0,-254.0,0.0,0.0,0.0
19:37:20.708000,219.0,-280.0,189.0,-828.0,26.0,-249.0,0.0,0.0,0.0
19:37:20.712000,205.0,-298.0,214.0,-828.0,26.0,-249.0,0.0,0.0,0.0
19:37:20.717000,186.0,-316.0,211.0,-806.0,38.0,-232.0,0.0,0.0,0.0
19:37:20.722000,175.0,-327.0,186.0,-806.0,38.0,-232.0,0.0,0.0,0.0
19:37:20.726000,164.0,-333.0,173.0,-816.0,57.0,-210.0,0.0,0.0,0.0
19:37:20.731000,158.0,-339.0,177.0,-816.0,57.0,-210.0,0.0,0.0,0.0
19:37:20.736000,150.0,-340.0,174.0,-850.0,38.0,-189.0,0.0,0.0,0.0
19:37:20.741000,150.0,-340.0,174.0,-850.0,38.0,-189.0,0.0,0.0,0.0
19:37:20.755000,142.0,-331.0,157.0,-969.0,6.0,-164.0,0.0,0.0,0.0
19:37:20.759000,143.0,-325.0,178.0,-969.0,6.0,-164.0,0.0,0.0,0.0
19:37:20.764000,135.0,-330.0,196.0,-975.0,14.0,-161.0,0.0,0.0,0.0
19:37:20.769000,126.0,-336.0,205.0,-975.0,14.0,-161.0,0.0,0.0,0.0
19:37:20.773000,114.0,-350.0,213.0,-940.0,56.0,-152.0,0.0,0.0,0.0
19:37:20.778000,98.0,-366.0,230.0,-940.0,56.0,-152.0,0.0,0.0,0.0
19:37:20.783000,81.0,-382.0,247.0,-890.0,73.0,-136.0,0.0,0.0,0.0
19:37:20.788000,63.0,-396.0,252.0,-890.0,73.0,-136.0,0.0,0.0,0.0
19:37:20.792000,49.0,-408.0,242.0,-880.0,70.0,-111.0,0.0,0.0,0.0
19:37:20.797000,38.0,-417.0,225.0,-880.0,70.0,-111.0,0.0,0.0,0.0
19:37:20.802000,33.0,-424.0,214.0,-880.0,70.0,-111.0,0.0,0.0,0.0
19:37:20.806000,32.0,-428.0,205.0,-911.0,42.0,-96.0,0.0,0.0,0.0
19:37:20.811000,35.0,-428.0,189.0,-911.0,42.0,-96.0,0.0,0.0,0.0
19:37:20.815000,33.0,-423.0,171.0,-971.0,12.0,-95.0,0.0,0.0,0.0
19:37:20.820000,23.0,-416.0,160.0,-971.0,12.0,-95.0,0.0,0.0,0.0
19:37:20.825000,8.0,-414.0,152.0,-1043.0,29.0,-111.0,0.0,0.0,0.0
19:37:20.830000,-9.0,-420.0,133.0,-1043.0,29.0,-111.0,0.0,0.0,0.0
19:37:20.835000,-21.0,-431.0,106.0,-1059.0,69.0,-138.0,0.0,0.0,0.0
19:37:20.839000,-25.0,-448.0,93.0,-1059.0,69.0,-138.0,0.0,0.0,0.0
19:37:20.844000,-24.0,-472.0,98.0,-985.0,72.0,-168.0,0.0,0.0,0.0
19:37:20.849000,-24.0,-472.0,98.0,-985.0,72.0,-168.0,0.0,0.0,0.0
19:37:20.853000,-15.0,-504.0,105.0,-902.0,28.0,-187.0,0.0,0.0,0.0
19:37:20.858000,6.0,-534.0,106.0,-902.0,28.0,-187.0,0.0,0.0,0.0
19:37:20.863000,41.0,-560.0,110.0,-871.0,-62.0,-186.0,0.0,0.0,0.0
19:37:20.867000,90.0,-580.0,102.0,-871.0,-62.0,-186.0,0.0,0.0,0.0
19:37:20.872000,149.0,-597.0,71.0,-905.0,-159.0,-177.0,0.0,0.0,0.0
19:37:20.876000,210.0,-611.0,26.0,-905.0,-159.0,-177.0,0.0,0.0,0.0
19:37:20.882000,266.0,-622.0,-17.0,-978.0,-193.0,-171.0,0.0,0.0,0.0
19:37:20.886000,314.0,-626.0,-54.0,-978.0,-193.0,-171.0,0.0,0.0,0.0
19:37:20.891000,350.0,-632.0,-85.0,-1020.0,-161.0,-165.0,0.0,0.0,0.0
19:37:20.896000,371.0,-637.0,-119.0,-1020.0,-161.0,-165.0,0.0,0.0,0.0
19:37:20.900000,378.0,-642.0,-163.0,-1030.0,-63.0,-158.0,0.0,0.0,0.0
19:37:20.905000,377.0,-651.0,-208.0,-1030.0,-63.0,-158.0,0.0,0.0,0.0
19:37:20.910000,374.0,-666.0,-238.0,-1030.0,18.0,-158.0,0.0,0.0,0.0
19:37:20.914000,375.0,-688.0,-249.0,-1001.0,18.0,-153.0,0.0,0.0,0.0
19:37:20.919000,379.0,-710.0,-247.0,-1001.0,18.0,-153.0,0.0,0.0,0.0
19:37:20.924000,387.0,-732.0,-236.0,-942.0,36.0,-147.0,0.0,0.0,0.0
19:37:20.928000,404.0,-749.0,-219.0,-942.0,36.0,-147.0,0.0,0.0,0.0
19:37:20.933000,425.0,-762.0,-198.0,-899.0,32.0,-135.0,0.0,0.0,0.0
19:37:20.938000,447.0,-769.0,-170.0,-899.0,32.0,-135.0,0.0,0.0,0.0
19:37:20.943000,465.0,-764.0,-142.0,-892.0,13.0,-122.0,0.0,0.0,0.0
19:37:20.947000,478.0,-755.0,-123.0,-892.0,13.0,-122.0,0.0,0.0,0.0
19:37:20.952000,469.0,-741.0,-109.0,-924.0,19.0,-115.0,0.0,0.0,0.0
19:37:20.957000,469.0,-741.0,-109.0,-924.0,19.0,-115.0,0.0,0.0,0.0
19:37:20.961000,459.0,-733.0,-111.0,-971.0,64.0,-114.0,0.0,0.0,0.0
19:37:20.966000,432.0,-713.0,-126.0,-971.0,64.0,-114.0,0.0,0.0,0.0
19:37:20.971000,403.0,-692.0,-156.0,-1052.0,96.0,-116.0,0.0,0.0,0.0
19:37:20.976000,373.0,-681.0,-224.0,-1052.0,96.0,-116.0,0.0,0.0,0.0
19:37:20.980000,328.0,-676.0,-114.0,-979.0,66.0,-97.0,0.0,0.0,0.0
19:37:20.985000,294.0,-675.0,17.0,-979.0,66.0,-97.0,0.0,0.0,0.0
19:37:20.990000,283.0,-676.0,-99.0,-805.0,110.0,-68.0,0.0,0.0,0.0
19:37:20.994000,270.0,-672.0,-257.0,-805.0,110.0,-68.0,0.0,0.0,0.0
19:37:20.999000,265.0,-676.0,-256.0,-765.0,136.0,-41.0,0.0,0.0,0.0
19:37:21.004000,263.0,-673.0,-196.0,-765.0,136.0,-41.0,0.0,0.0,0.0
19:37:21.008000,264.0,-665.0,-161.0,-821.0,84.0,-7.0,0.0,0.0,0.0
19:37:21.013000,261.0,-651.0,-139.0,-821.0,84.0,-7.0,0.0,0.0,0.0
19:37:21.018000,225.0,-637.0,-56.0,-949.0,77.0,36.0,0.0,0.0,0.0
19:37:21.023000,240.0,-629.0,56.0,-949.0,77.0,36.0,0.0,0.0,0.0
19:37:21.027000,243.0,-613.0,177.0,-949.0,77.0,36.0,0.0,0.0,0.0
19:37:21.032000,259.0,-596.0,107.0,-1038.0,89.0,62.0,0.0,0.0,0.0
19:37:21.037000,268.0,-571.0,-55.0,-1038.0,89.0,62.0,0.0,0.0,0.0
19:37:21.041000,241.0,-535.0,-211.0,-1023.0,205.0,61.0,0.0,0.0,0.0
19:37:21.046000,184.0,-495.0,-239.0,-1023.0,205.0,61.0,0.0,0.0,0.0
19:37:21.051000,130.0,-475.0,-226.0,-915.0,262.0,79.0,0.0,0.0,0.0
19:37:21.055000,89.0,-455.0,-140.0,-915.0,262.0,79.0,0.0,0.0,0.0
19:37:21.060000,56.0,-428.0,0.0,-887.0,109.0,95.0,0.0,0.0,0.0
19:37:21.065000,46.0,-404.0,77.0,-887.0,109.0,95.0,0.0,0.0,0.0
19:37:21.070000,46.0,-404.0,77.0,-1030.0,-45.0,87.0,0.0,0.0,0.0
19:37:21.074000,53.0,-372.0,40.0,-1030.0,-45.0,87.0,0.0,0.0,0.0
19:37:21.079000,49.0,-339.0,-58.0,-1117.0,-49.0,94.0,0.0,0.0,0.0
19:37:21.084000,40.0,-312.0,-170.0,-1117.0,-49.0,94.0,0.0,0.0,0.0
19:37:21.088000,42.0,-289.0,-234.0,-1016.0,-15.0,123.0,0.0,0.0,0.0
19:37:21.093000,56.0,-276.0,-242.0,-1016.0,-15.0,123.0,0.0,0.0,0.0
19:37:21.098000,51.0,-260.0,-256.0,-876.0,-9.0,160.0,0.0,0.0,0.0
19:37:21.102000,70.0,-252.0,-289.0,-876.0,-9.0,160.0,0.0,0.0,0.0
19:37:21.107000,73.0,-226.0,-322.0,-864.0,24.0,168.0,0.0,0.0,0.0
19:37:21.112000,76.0,-206.0,-364.0,-864.0,24.0,168.0,0.0,0.0,0.0
19:37:21.117000,87.0,-189.0,-394.0,-895.0,51.0,163.0,0.0,0.0,0.0
19:37:21.121000,91.0,-178.0,-392.0,-895.0,51.0,163.0,0.0,0.0,0.0
19:37:21.126000,81.0,-181.0,-386.0,-878.0,53.0,180.0,0.0,0.0,0.0
19:37:21.131000,72.0,-178.0,-373.0,-878.0,53.0,180.0,0.0,0.0,0.0
19:37:21.135000,46.0,-184.0,-351.0,-878.0,53.0,180.0,0.0,0.0,0.0
19:37:21.140000,37.0,-191.0,-336.0,-825.0,83.0,191.0,0.0,0.0,0.0
19:37:21.145000,18.0,-207.0,-341.0,-825.0,83.0,191.0,0.0,0.0,0.0
19:37:21.149000,-9.0,-217.0,-335.0,-773.0,117.0,203.0,0.0,0.0,0.0
19:37:21.154000,-32.0,-235.0,-331.0,-773.0,117.0,203.0,0.0,0.0,0.0
19:37:21.159000,-52.0,-252.0,-326.0,-768.0,137.0,224.0,0.0,0.0,0.0
19:37:21.163000,-52.0,-252.0,-326.0,-768.0,137.0,224.0,0.0,0.0,0.0
19:37:21.168000,-82.0,-249.0,-266.0,-804.0,116.0,234.0,0.0,0.0,0.0
19:37:21.173000,-70.0,-241.0,-242.0,-804.0,116.0,234.0,0.0,0.0,0.0
19:37:21.178000,-70.0,-241.0,-242.0,-883.0,39.0,203.0,0.0,0.0,0.0
19:37:21.182000,-63.0,-224.0,-230.0,-883.0,39.0,203.0,0.0,0.0,0.0
19:37:21.187000,-53.0,-224.0,-210.0,-919.0,14.0,168.0,0.0,0.0,0.0
19:37:21.192000,-45.0,-233.0,-166.0,-919.0,14.0,168.0,0.0,0.0,0.0
19:37:21.196000,-48.0,-238.0,-165.0,-854.0,87.0,178.0,0.0,0.0,0.0
19:37:21.201000,-56.0,-252.0,-196.0,-854.0,87.0,178.0,0.0,0.0,0.0
19:37:21.206000,-60.0,-270.0,-204.0,-818.0,122.0,204.0,0.0,0.0,0.0
19:37:21.211000,-64.0,-289.0,-198.0,-818.0,122.0,204.0,0.0,0.0,0.0
19:37:21.215000,-67.0,-289.0,-161.0,-889.0,35.0,197.0,0.0,0.0,0.0
19:37:21.220000,-70.0,-263.0,-97.0,-889.0,35.0,197.0,0.0,0.0,0.0
19:37:21.225000,-74.0,-243.0,-31.0,-987.0,-43.0,167.0,0.0,0.0,0.0
19:37:21.229000,-73.0,-231.0,23.0,-987.0,-43.0,167.0,0.0,0.0,0.0
19:37:21.234000,-77.0,-229.0,37.0,-1028.0,15.0,157.0,0.0,0.0,0.0
19:37:21.239000,-86.0,-227.0,19.0,-1028.0,15.0,157.0,0.0,0.0,0.0
19:37:21.243000,-95.0,-225.0,2.0,-1028.0,15.0,157.0,0.0,0.0,0.0
19:37:21.248000,-102.0,-225.0,0.0,-974.0,109.0,177.0,0.0,0.0,0.0
19:37:21.253000,-101.0,-225.0,-4.0,-974.0,109.0,177.0,0.0,0.0,0.0
19:37:21.258000,-81.0,-235.0,7.0,-864.0,78.0,224.0,0.0,0.0,0.0
19:37:21.262000,-72.0,-254.0,31.0,-864.0,78.0,224.0,0.0,0.0,0.0
19:37:21.267000,-65.0,-295.0,49.0,-781.0,1.0,290.0,0.0,0.0,0.0
19:37:21.272000,-52.0,-361.0,37.0,-781.0,1.0,290.0,0.0,0.0,0.0
19:37:21.276000,-63.0,-429.0,-8.0,-778.0,53.0,374.0,0.0,0.0,0.0
19:37:21.281000,-110.0,-460.0,-90.0,-778.0,53.0,374.0,0.0,0.0,0.0
19:37:21.286000,-110.0,-460.0,-90.0,-855.0,114.0,442.0,0.0,0.0,0.0
19:37:21.290000,-136.0,-449.0,-137.0,-855.0,114.0,442.0,0.0,0.0,0.0
19:37:21.295000,-182.0,-424.0,-100.0,-955.0,-33.0,447.0,0.0,0.0,0.0
19:37:21.300000,-252.0,-398.0,15.0,-955.0,-33.0,447.0,0.0,0.0,0.0
19:37:21.305000,-291.0,-365.0,114.0,-1066.0,-103.0,412.0,0.0,0.0,0.0
19:37:21.309000,-339.0,-322.0,88.0,-1066.0,-103.0,412.0,0.0,0.0,0.0
19:37:21.314000,-407.0,-277.0,-14.0,-1167.0,79.0,389.0,0.0,0.0,0.0
19:37:21.319000,-442.0,-226.0,-114.0,-1167.0,79.0,389.0,0.0,0.0,0.0
19:37:21.323000,-453.0,-181.0,-189.0,-1178.0,131.0,382.0,0.0,0.0,0.0
19:37:21.328000,-455.0,-140.0,-234.0,-1178.0,131.0,382.0,0.0,0.0,0.0
19:37:21.333000,-460.0,-108.0,-228.0,-1105.0,-16.0,390.0,0.0,0.0,0.0
19:37:21.337000,-448.0,-91.0,-193.0,-1105.0,-16.0,390.0,0.0,0.0,0.0
19:37:21.342000,-429.0,-75.0,-154.0,-1024.0,-125.0,405.0,0.0,0.0,0.0
19:37:21.347000,-408.0,-63.0,-127.0,-1024.0,-125.0,405.0,0.0,0.0,0.0
19:37:21.352000,-394.0,-47.0,-103.0,-956.0,-153.0,407.0,0.0,0.0,0.0
19:37:21.356000,-377.0,-42.0,-104.0,-956.0,-153.0,407.0,0.0,0.0,0.0
19:37:21.361000,-361.0,-44.0,-137.0,-956.0,-153.0,407.0,0.0,0.0,0.0
19:37:21.366000,-354.0,-56.0,-161.0,-920.0,-112.0,414.0,0.0,0.0,0.0
19:37:21.370000,-359.0,-88.0,-178.0,-920.0,-112.0,414.0,0.0,0.0,0.0
19:37:21.375000,-359.0,-135.0,-197.0,-925.0,-66.0,434.0,0.0,0.0,0.0
19:37:21.380000,-373.0,-212.0,-221.0,-925.0,-66.0,434.0,0.0,0.0,0.0
19:37:21.384000,-399.0,-286.0,-256.0,-906.0,-37.0,491.0,0.0,0.0,0.0
19:37:21.389000,-451.0,-321.0,-308.0,-906.0,-37.0,491.0,0.0,0.0,0.0
19:37:21.394000,-502.0,-336.0,-347.0,-811.0,27.0,527.0,0.0,0.0,0.0
19:37:21.398000,-502.0,-336.0,-347.0,-811.0,27.0,527.0,0.0,0.0,0.0
19:37:21.403000,-557.0,-333.0,-394.0,-832.0,48.0,502.0,0.0,0.0,0.0
19:37:21.408000,-601.0,-335.0,-435.0,-832.0,48.0,502.0,0.0,0.0,0.0
19:37:21.436000,-532.0,-328.0,-515.0,-1213.0,-148.0,453.0,0.0,0.0,0.0
19:37:21.441000,-557.0,-312.0,-545.0,-1225.0,-3.0,453.0,0.0,0.0,0.0
19:37:21.446000,-602.0,-303.0,-553.0,-1225.0,-3.0,453.0,0.0,0.0,0.0
19:37:21.450000,-665.0,-294.0,-541.0,-1217.0,51.0,449.0,0.0,0.0,0.0
19:37:21.455000,-736.0,-291.0,-523.0,-1217.0,51.0,449.0,0.0,0.0,0.0
19:37:21.460000,-814.0,-299.0,-527.0,-1217.0,51.0,449.0,0.0,0.0,0.0
19:37:21.464000,-901.0,-299.0,-548.0,-1192.0,83.0,447.0,0.0,0.0,0.0
19:37:21.469000,-982.0,-312.0,-578.0,-1192.0,83.0,447.0,0.0,0.0,0.0
19:37:21.474000,-1050.0,-322.0,-616.0,-1160.0,128.0,452.0,0.0,0.0,0.0
19:37:21.478000,-1123.0,-326.0,-662.0,-1160.0,128.0,452.0,0.0,0.0,0.0
19:37:21.483000,-1176.0,-340.0,-688.0,-1140.0,116.0,458.0,0.0,0.0,0.0
19:37:21.488000,-1207.0,-354.0,-709.0,-1140.0,116.0,458.0,0.0,0.0,0.0
19:37:21.493000,-1229.0,-372.0,-743.0,-1104.0,21.0,460.0,0.0,0.0,0.0
19:37:21.497000,-1248.0,-389.0,-781.0,-1104.0,21.0,460.0,0.0,0.0,0.0
19:37:21.502000,-1277.0,-396.0,-818.0,-1059.0,-15.0,458.0,0.0,0.0,0.0
19:37:21.507000,-1277.0,-396.0,-818.0,-1059.0,-15.0,458.0,0.0,0.0,0.0
19:37:21.511000,-1293.0,-412.0,-840.0,-1056.0,-9.0,459.0,0.0,0.0,0.0
19:37:21.516000,-1292.0,-426.0,-854.0,-1056.0,-9.0,459.0,0.0,0.0,0.0
19:37:21.521000,-1286.0,-436.0,-866.0,-1035.0,-71.0,460.0,0.0,0.0,0.0
19:37:21.525000,-1273.0,-449.0,-879.0,-1035.0,-71.0,460.0,0.0,0.0,0.0
19:37:21.530000,-1260.0,-463.0,-892.0,-993.0,-60.0,454.0,0.0,0.0,0.0
19:37:21.535000,-1264.0,-469.0,-915.0,-993.0,-60.0,454.0,0.0,0.0,0.0
19:37:21.540000,-1267.0,-476.0,-931.0,-983.0,9.0,452.0,0.0,0.0,0.0
19:37:21.544000,-1264.0,-487.0,-935.0,-983.0,9.0,452.0,0.0,0.0,0.0
19:37:21.548000,-1260.0,-499.0,-956.0,-948.0,38.0,449.0,0.0,0.0,0.0
19:37:21.554000,-1259.0,-513.0,-968.0,-948.0,38.0,449.0,0.0,0.0,0.0
19:37:21.558000,-1259.0,-528.0,-977.0,-900.0,102.0,442.0,0.0,0.0,0.0
19:37:21.563000,-1267.0,-540.0,-975.0,-900.0,102.0,442.0,0.0,0.0,0.0
19:37:21.568000,-1271.0,-548.0,-977.0,-900.0,102.0,442.0,0.0,0.0,0.0
19:37:21.572000,-1276.0,-555.0,-990.0,-912.0,181.0,432.0,0.0,0.0,0.0
19:37:21.577000,-1282.0,-564.0,-1003.0,-912.0,181.0,432.0,0.0,0.0,0.0
19:37:21.582000,-1288.0,-575.0,-1012.0,-947.0,223.0,412.0,0.0,0.0,0.0
19:37:21.587000,-1297.0,-587.0,-1019.0,-947.0,223.0,412.0,0.0,0.0,0.0
19:37:21.591000,-1311.0,-599.0,-1024.0,-951.0,272.0,393.0,0.0,0.0,0.0
19:37:21.596000,-1325.0,-612.0,-1028.0,-951.0,272.0,393.0,0.0,0.0,0.0
19:37:21.601000,-1340.0,-624.0,-1036.0,-923.0,326.0,379.0,0.0,0.0,0.0
19:37:21.605000,-1358.0,-637.0,-1051.0,-923.0,326.0,379.0,0.0,0.0,0.0
19:37:21.609000,-1358.0,-637.0,-1051.0,-892.0,368.0,368.0,0.0,0.0,0.0
19:37:21.615000,-1373.0,-651.0,-1065.0,-892.0,368.0,368.0,0.0,0.0,0.0
19:37:21.619000,-1392.0,-667.0,-1073.0,-857.0,401.0,361.0,0.0,0.0,0.0
19:37:21.624000,-1408.0,-683.0,-1089.0,-857.0,401.0,361.0,0.0,0.0,0.0
19:37:21.628000,-1423.0,-702.0,-1120.0,-824.0,437.0,356.0,0.0,0.0,0.0
19:37:21.633000,-1436.0,-718.0,-1159.0,-824.0,437.0,356.0,0.0,0.0,0.0
19:37:21.638000,-1449.0,-741.0,-1183.0,-802.0,463.0,349.0,0.0,0.0,0.0
19:37:21.643000,-1454.0,-764.0,-1192.0,-802.0,463.0,349.0,0.0,0.0,0.0
19:37:21.648000,-1458.0,-787.0,-1212.0,-789.0,477.0,338.0,0.0,0.0,0.0
19:37:21.652000,-1460.0,-811.0,-1234.0,-789.0,477.0,338.0,0.0,0.0,0.0
19:37:21.657000,-1460.0,-838.0,-1245.0,-777.0,498.0,325.0,0.0,0.0,0.0
19:37:21.662000,-1461.0,-868.0,-1249.0,-777.0,498.0,325.0,0.0,0.0,0.0
19:37:21.666000,-1461.0,-896.0,-1250.0,-746.0,537.0,317.0,0.0,0.0,0.0
19:37:21.671000,-1463.0,-928.0,-1248.0,-746.0,537.0,317.0,0.0,0.0,0.0
19:37:21.676000,-1467.0,-960.0,-1251.0,-746.0,586.0,317.0,0.0,0.0,0.0
19:37:21.680000,-1475.0,-989.0,-1250.0,-709.0,586.0,312.0,0.0,0.0,0.0
19:37:21.685000,-1481.0,-1017.0,-1236.0,-709.0,586.0,312.0,0.0,0.0,0.0
19:37:21.690000,-1491.0,-1043.0,-1225.0,-681.0,631.0,310.0,0.0,0.0,0.0
19:37:21.695000,-1496.0,-1070.0,-1222.0,-681.0,631.0,310.0,0.0,0.0,0.0
19:37:21.699000,-1503.0,-1094.0,-1219.0,-675.0,683.0,303.0,0.0,0.0,0.0
19:37:21.704000,-1509.0,-1116.0,-1211.0,-675.0,683.0,303.0,0.0,0.0,0.0
19:37:21.709000,-1513.0,-1138.0,-1197.0,-684.0,729.0,293.0,0.0,0.0,0.0
19:37:21.713000,-1518.0,-1158.0,-1183.0,-684.0,729.0,293.0,0.0,0.0,0.0
19:37:21.718000,-1523.0,-1177.0,-1166.0,-687.0,760.0,286.0,0.0,0.0,0.0
19:37:21.723000,-1523.0,-1177.0,-1166.0,-687.0,760.0,286.0,0.0,0.0,0.0
19:37:21.727000,-1528.0,-1195.0,-1143.0,-683.0,792.0,278.0,0.0,0.0,0.0
19:37:21.732000,-1528.0,-1213.0,-1120.0,-683.0,792.0,278.0,0.0,0.0,0.0
19:37:21.737000,-1527.0,-1229.0,-1095.0,-663.0,806.0,266.0,0.0,0.0,0.0
19:37:21.742000,-1525.0,-1245.0,-1074.0,-663.0,806.0,266.0,0.0,0.0,0.0
19:37:21.746000,-1525.0,-1261.0,-1051.0,-625.0,807.0,253.0,0.0,0.0,0.0
19:37:21.751000,-1526.0,-1277.0,-1016.0,-625.0,807.0,253.0,0.0,0.0,0.0
19:37:21.756000,-1528.0,-1294.0,-980.0,-585.0,816.0,244.0,0.0,0.0,0.0
19:37:21.760000,-1526.0,-1309.0,-949.0,-585.0,816.0,244.0,0.0,0.0,0.0
19:37:21.765000,-1518.0,-1320.0,-926.0,-551.0,814.0,234.0,0.0,0.0,0.0
19:37:21.770000,-1509.0,-1329.0,-907.0,-551.0,814.0,234.0,0.0,0.0,0.0
19:37:21.774000,-1498.0,-1337.0,-889.0,-530.0,811.0,223.0,0.0,0.0,0.0
19:37:21.779000,-1488.0,-1345.0,-863.0,-530.0,811.0,223.0,0.0,0.0,0.0
19:37:21.784000,-1475.0,-1354.0,-830.0,-512.0,812.0,219.0,0.0,0.0,0.0
19:37:21.789000,-1460.0,-1367.0,-793.0,-512.0,812.0,219.0,0.0,0.0,0.0
19:37:21.793000,-1440.0,-1377.0,-761.0,-512.0,812.0,219.0,0.0,0.0,0.0
19:37:21.798000,-1417.0,-1387.0,-735.0,-480.0,798.0,219.0,0.0,0.0,0.0
19:37:21.803000,-1391.0,-1391.0,-714.0,-480.0,798.0,219.0,0.0,0.0,0.0
19:37:21.807000,-1365.0,-1392.0,-693.0,-443.0,769.0,217.0,0.0,0.0,0.0
19:37:21.812000,-1339.0,-1390.0,-667.0,-443.0,769.0,217.0,0.0,0.0,0.0
19:37:21.817000,-1313.0,-1384.0,-651.0,-420.0,767.0,209.0,0.0,0.0,0.0
19:37:21.821000,-1288.0,-1375.0,-644.0,-420.0,767.0,209.0,0.0,0.0,0.0
19:37:21.826000,-1269.0,-1367.0,-637.0,-420.0,805.0,198.0,0.0,0.0,0.0
19:37:21.831000,-1254.0,-1360.0,-627.0,-420.0,805.0,198.0,0.0,0.0,0.0
19:37:21.836000,-1254.0,-1360.0,-627.0,-429.0,854.0,191.0,0.0,0.0,0.0
19:37:21.840000,-1242.0,-1354.0,-611.0,-429.0,854.0,191.0,0.0,0.0,0.0
19:37:21.845000,-1233.0,-1348.0,-588.0,-425.0,880.0,191.0,0.0,0.0,0.0
19:37:21.850000,-1227.0,-1341.0,-562.0,-425.0,880.0,191.0,0.0,0.0,0.0
19:37:21.854000,-1223.0,-1331.0,-537.0,-402.0,896.0,189.0,0.0,0.0,0.0
19:37:21.859000,-1224.0,-1320.0,-513.0,-402.0,896.0,189.0,0.0,0.0,0.0
19:37:21.863000,-1229.0,-1307.0,-490.0,-376.0,925.0,185.0,0.0,0.0,0.0
19:37:21.868000,-1237.0,-1294.0,-469.0,-376.0,925.0,185.0,0.0,0.0,0.0
19:37:21.873000,-1249.0,-1276.0,-452.0,-374.0,958.0,176.0,0.0,0.0,0.0
19:37:21.878000,-1262.0,-1260.0,-432.0,-374.0,958.0,176.0,0.0,0.0,0.0
19:37:21.883000,-1271.0,-1242.0,-401.0,-388.0,959.0,162.0,0.0,0.0,0.0
19:37:21.887000,-1274.0,-1226.0,-361.0,-388.0,959.0,162.0,0.0,0.0,0.0
19:37:21.892000,-1269.0,-1211.0,-311.0,-385.0,909.0,148.0,0.0,0.0,0.0
19:37:21.897000,-1257.0,-1195.0,-259.0,-385.0,909.0,148.0,0.0,0.0,0.0
19:37:21.901000,-1243.0,-1179.0,-208.0,-385.0,909.0,148.0,0.0,0.0,0.0
19:37:21.906000,-1229.0,-1167.0,-156.0,-365.0,867.0,129.0,0.0,0.0,0.0
19:37:21.911000,-1215.0,-1157.0,-105.0,-365.0,867.0,129.0,0.0,0.0,0.0
19:37:21.915000,-1204.0,-1150.0,-55.0,-349.0,861.0,114.0,0.0,0.0,0.0
19:37:21.920000,-1195.0,-1140.0,-4.0,-349.0,861.0,114.0,0.0,0.0,0.0
19:37:21.925000,-1190.0,-1132.0,46.0,-336.0,863.0,99.0,0.0,0.0,0.0
19:37:21.930000,-1190.0,-1126.0,94.0,-336.0,863.0,99.0,0.0,0.0,0.0
19:37:21.934000,-1192.0,-1120.0,139.0,-328.0,869.0,87.0,0.0,0.0,0.0
19:37:21.939000,-1198.0,-1115.0,180.0,-328.0,869.0,87.0,0.0,0.0,0.0
19:37:21.944000,-1198.0,-1115.0,180.0,-320.0,869.0,76.0,0.0,0.0,0.0
19:37:21.948000,-1204.0,-1108.0,218.0,-320.0,869.0,76.0,0.0,0.0,0.0
19:37:21.953000,-1208.0,-1099.0,248.0,-309.0,852.0,62.0,0.0,0.0,0.0
19:37:21.958000,-1213.0,-1089.0,267.0,-309.0,852.0,62.0,0.0,0.0,0.0
19:37:21.962000,-1218.0,-1078.0,278.0,-318.0,845.0,41.0,0.0,0.0,0.0
19:37:21.967000,-1220.0,-1067.0,286.0,-318.0,845.0,41.0,0.0,0.0,0.0
19:37:21.972000,-1222.0,-1058.0,288.0,-347.0,838.0,20.0,0.0,0.0,0.0
19:37:21.977000,-1221.0,-1052.0,290.0,-347.0,838.0,20.0,0.0,0.0,0.0
19:37:21.981000,-1216.0,-1047.0,298.0,-354.0,802.0,4.0,0.0,0.0,0.0
19:37:21.985000,-1209.0,-1044.0,308.0,-354.0,802.0,4.0,0.0,0.0,0.0
19:37:21.991000,-1204.0,-1043.0,316.0,-342.0,767.0,-10.0,0.0,0.0,0.0
19:37:21.995000,-1200.0,-1044.0,318.0,-342.0,767.0,-10.0,0.0,0.0,0.0
19:37:22.000000,-1199.0,-1045.0,315.0,-340.0,772.0,-25.0,0.0,0.0,0.0
19:37:22.005000,-1199.0,-1049.0,309.0,-340.0,772.0,-25.0,0.0,0.0,0.0
19:37:22.009000,-1199.0,-1052.0,302.0,-340.0,772.0,-25.0,0.0,0.0,0.0
19:37:22.014000,-1201.0,-1054.0,293.0,-350.0,789.0,-41.0,0.0,0.0,0.0
19:37:22.019000,-1203.0,-1057.0,282.0,-350.0,789.0,-41.0,0.0,0.0,0.0
19:37:22.024000,-1206.0,-1058.0,269.0,-369.0,802.0,-61.0,0.0,0.0,0.0
19:37:22.028000,-1211.0,-1059.0,254.0,-369.0,802.0,-61.0,0.0,0.0,0.0
19:37:22.033000,-1217.0,-1059.0,245.0,-393.0,820.0,-84.0,0.0,0.0,0.0
19:37:22.038000,-1222.0,-1057.0,238.0,-393.0,820.0,-84.0,0.0,0.0,0.0
19:37:22.042000,-1225.0,-1056.0,235.0,-419.0,827.0,-109.0,0.0,0.0,0.0
19:37:22.047000,-1226.0,-1054.0,233.0,-419.0,827.0,-109.0,0.0,0.0,0.0
19:37:22.052000,-1226.0,-1054.0,233.0,-447.0,818.0,-133.0,0.0,0.0,0.0
19:37:22.056000,-1223.0,-1053.0,232.0,-447.0,818.0,-133.0,0.0,0.0,0.0
19:37:22.061000,-1219.0,-1052.0,235.0,-465.0,800.0,-154.0,0.0,0.0,0.0
19:37:22.066000,-1212.0,-1052.0,240.0,-465.0,800.0,-154.0,0.0,0.0,0.0
19:37:22.071000,-1201.0,-1052.0,246.0,-466.0,773.0,-174.0,0.0,0.0,0.0
19:37:22.075000,-1189.0,-1053.0,253.0,-466.0,773.0,-174.0,0.0,0.0,0.0
19:37:22.080000,-1176.0,-1054.0,259.0,-468.0,753.0,-195.0,0.0,0.0,0.0
19:37:22.085000,-1163.0,-1057.0,267.0,-468.0,753.0,-195.0,0.0,0.0,0.0
19:37:22.089000,-1148.0,-1061.0,278.0,-470.0,734.0,-212.0,0.0,0.0,0.0
19:37:22.094000,-1133.0,-1066.0,291.0,-470.0,734.0,-212.0,0.0,0.0,0.0
19:37:22.108000,-1071.0,-1072.0,316.0,-449.0,672.0,-235.0,0.0,0.0,0.0
19:37:22.113000,-1052.0,-1068.0,313.0,-449.0,672.0,-235.0,0.0,0.0,0.0
19:37:22.118000,-1036.0,-1061.0,305.0,-449.0,672.0,-235.0,0.0,0.0,0.0
19:37:22.122000,-1023.0,-1050.0,294.0,-460.0,673.0,-247.0,0.0,0.0,0.0
19:37:22.127000,-1014.0,-1033.0,275.0,-460.0,673.0,-247.0,0.0,0.0,0.0
19:37:22.132000,-1008.0,-1013.0,250.0,-489.0,695.0,-264.0,0.0,0.0,0.0
19:37:22.136000,-1004.0,-992.0,217.0,-489.0,695.0,-264.0,0.0,0.0,0.0
19:37:22.141000,-1001.0,-973.0,177.0,-532.0,737.0,-281.0,0.0,0.0,0.0
19:37:22.146000,-994.0,-952.0,133.0,-532.0,737.0,-281.0,0.0,0.0,0.0
19:37:22.150000,-982.0,-935.0,96.0,-561.0,768.0,-289.0,0.0,0.0,0.0
19:37:22.155000,-964.0,-917.0,72.0,-561.0,768.0,-289.0,0.0,0.0,0.0
19:37:22.160000,-945.0,-902.0,60.0,-548.0,748.0,-293.0,0.0,0.0,0.0
19:37:22.164000,-945.0,-902.0,60.0,-548.0,748.0,-293.0,0.0,0.0,0.0
19:37:22.169000,-924.0,-887.0,55.0,-527.0,724.0,-296.0,0.0,0.0,0.0
19:37:22.174000,-907.0,-875.0,54.0,-527.0,724.0,-296.0,0.0,0.0,0.0
19:37:22.179000,-893.0,-864.0,57.0,-528.0,736.0,-297.0,0.0,0.0,0.0
19:37:22.183000,-881.0,-855.0,62.0,-528.0,736.0,-297.0,0.0,0.0,0.0
19:37:22.188000,-871.0,-847.0,72.0,-537.0,756.0,-297.0,0.0,0.0,0.0
19:37:22.193000,-865.0,-838.0,86.0,-537.0,756.0,-297.0,0.0,0.0,0.0
19:37:22.197000,-857.0,-829.0,105.0,-540.0,767.0,-298.0,0.0,0.0,0.0
19:37:22.202000,-848.0,-820.0,121.0,-540.0,767.0,-298.0,0.0,0.0,0.0
19:37:22.207000,-838.0,-813.0,135.0,-540.0,771.0,-298.0,0.0,0.0,0.0
19:37:22.212000,-826.0,-809.0,148.0,-540.0,771.0,-298.0,0.0,0.0,0.0
19:37:22.216000,-809.0,-804.0,161.0,-542.0,763.0,-296.0,0.0,0.0,0.0
19:37:22.221000,-791.0,-800.0,172.0,-542.0,763.0,-296.0,0.0,0.0,0.0
19:37:22.226000,-768.0,-796.0,184.0,-542.0,763.0,-296.0,0.0,0.0,0.0
19:37:22.230000,-746.0,-791.0,195.0,-541.0,745.0,-296.0,0.0,0.0,0.0
19:37:22.235000,-724.0,-788.0,209.0,-541.0,745.0,-296.0,0.0,0.0,0.0
19:37:22.240000,-702.0,-786.0,222.0,-533.0,731.0,-295.0,0.0,0.0,0.0
19:37:22.244000,-681.0,-786.0,234.0,-533.0,731.0,-295.0,0.0,0.0,0.0
19:37:22.249000,-661.0,-786.0,247.0,-524.0,727.0,-291.0,0.0,0.0,0.0
19:37:22.254000,-640.0,-786.0,263.0,-524.0,727.0,-291.0,0.0,0.0,0.0
19:37:22.259000,-620.0,-786.0,281.0,-516.0,721.0,-286.0,0.0,0.0,0.0
19:37:22.263000,-602.0,-785.0,298.0,-516.0,721.0,-286.0,0.0,0.0,0.0
19:37:22.268000,-585.0,-786.0,318.0,-509.0,714.0,-283.0,0.0,0.0,0.0
19:37:22.273000,-585.0,-786.0,318.0,-509.0,714.0,-283.0,0.0,0.0,0.0
19:37:22.277000,-570.0,-786.0,336.0,-509.0,713.0,-281.0,0.0,0.0,0.0
19:37:22.282000,-555.0,-784.0,350.0,-509.0,713.0,-281.0,0.0,0.0,0.0
19:37:22.287000,-542.0,-784.0,361.0,-522.0,716.0,-279.0,0.0,0.0,0.0
19:37:22.291000,-529.0,-781.0,373.0,-522.0,716.0,-279.0,0.0,0.0,0.0
19:37:22.296000,-516.0,-777.0,386.0,-543.0,711.0,-278.0,0.0,0.0,0.0
19:37:22.301000,-501.0,-772.0,396.0,-543.0,711.0,-278.0,0.0,0.0,0.0
19:37:22.306000,-485.0,-765.0,397.0,-557.0,696.0,-277.0,0.0,0.0,0.0
19:37:22.310000,-469.0,-757.0,392.0,-557.0,696.0,-277.0,0.0,0.0,0.0
19:37:22.315000,-452.0,-746.0,382.0,-562.0,680.0,-276.0,0.0,0.0,0.0
19:37:22.320000,-436.0,-735.0,371.0,-562.0,680.0,-276.0,0.0,0.0,0.0
19:37:22.324000,-422.0,-721.0,359.0,-566.0,670.0,-276.0,0.0,0.0,0.0
19:37:22.329000,-409.0,-706.0,343.0,-566.0,670.0,-276.0,0.0,0.0,0.0
19:37:22.334000,-398.0,-692.0,324.0,-566.0,670.0,-276.0,0.0,0.0,0.0
19:37:22.338000,-385.0,-676.0,303.0,-568.0,663.0,-274.0,0.0,0.0,0.0
19:37:22.343000,-368.0,-659.0,282.0,-568.0,663.0,-274.0,0.0,0.0,0.0
19:37:22.348000,-350.0,-639.0,257.0,-565.0,647.0,-274.0,0.0,0.0,0.0
19:37:22.353000,-333.0,-620.0,226.0,-565.0,647.0,-274.0,0.0,0.0,0.0
19:37:22.357000,-318.0,-602.0,189.0,-582.0,655.0,-283.0,0.0,0.0,0.0
19:37:22.362000,-307.0,-583.0,152.0,-582.0,655.0,-283.0,0.0,0.0,0.0
19:37:22.367000,-299.0,-565.0,123.0,-623.0,697.0,-290.0,0.0,0.0,0.0
19:37:22.371000,-294.0,-546.0,105.0,-623.0,697.0,-290.0,0.0,0.0,0.0
19:37:22.376000,-290.0,-528.0,94.0,-641.0,721.0,-293.0,0.0,0.0,0.0
19:37:22.381000,-290.0,-528.0,94.0,-641.0,721.0,-293.0,0.0,0.0,0.0
19:37:22.385000,-289.0,-510.0,87.0,-632.0,736.0,-296.0,0.0,0.0,0.0
19:37:22.390000,-294.0,-494.0,79.0,-632.0,736.0,-296.0,0.0,0.0,0.0
19:37:22.395000,-301.0,-480.0,72.0,-625.0,768.0,-295.0,0.0,0.0,0.0
19:37:22.400000,-305.0,-469.0,67.0,-625.0,768.0,-295.0,0.0,0.0,0.0
19:37:22.404000,-307.0,-458.0,62.0,-624.0,773.0,-292.0,0.0,0.0,0.0
19:37:22.409000,-303.0,-448.0,60.0,-624.0,773.0,-292.0,0.0,0.0,0.0
19:37:22.414000,-292.0,-438.0,59.0,-617.0,743.0,-291.0,0.0,0.0,0.0
19:37:22.418000,-278.0,-427.0,55.0,-617.0,743.0,-291.0,0.0,0.0,0.0
19:37:22.423000,-260.0,-417.0,47.0,-609.0,718.0,-288.0,0.0,0.0,0.0
19:37:22.428000,-239.0,-408.0,39.0,-609.0,718.0,-288.0,0.0,0.0,0.0
19:37:22.432000,-212.0,-397.0,31.0,-606.0,700.0,-287.0,0.0,0.0,0.0
19:37:22.437000,-184.0,-384.0,18.0,-606.0,700.0,-287.0,0.0,0.0,0.0
19:37:22.442000,-154.0,-370.0,0.0,-606.0,700.0,-287.0,0.0,0.0,0.0
19:37:22.447000,-128.0,-354.0,-23.0,-624.0,702.0,-289.0,0.0,0.0,0.0
19:37:22.451000,-105.0,-334.0,-47.0,-666.0,732.0,-294.0,0.0,0.0,0.0
19:37:22.456000,-84.0,-312.0,-74.0,-666.0,732.0,-294.0,0.0,0.0,0.0
19:37:22.461000,-64.0,-291.0,-105.0,-666.0,732.0,-294.0,0.0,0.0,0.0
19:37:22.465000,-46.0,-269.0,-141.0,-710.0,768.0,-298.0,0.0,0.0,0.0
19:37:22.470000,-28.0,-247.0,-184.0,-710.0,768.0,-298.0,0.0,0.0,0.0
19:37:22.475000,-7.0,-227.0,-228.0,-729.0,782.0,-295.0,0.0,0.0,0.0
19:37:22.479000,15.0,-208.0,-268.0,-729.0,782.0,-295.0,0.0,0.0,0.0
19:37:22.484000,37.0,-189.0,-303.0,-703.0,761.0,-283.0,0.0,0.0,0.0
19:37:22.489000,37.0,-189.0,-303.0,-703.0,761.0,-283.0,0.0,0.0,0.0
19:37:22.494000,60.0,-168.0,-337.0,-663.0,730.0,-269.0,0.0,0.0,0.0
19:37:22.498000,79.0,-147.0,-378.0,-663.0,730.0,-269.0,0.0,0.0,0.0
19:37:22.503000,94.0,-126.0,-427.0,-653.0,735.0,-257.0,0.0,0.0,0.0
19:37:22.508000,102.0,-105.0,-483.0,-653.0,735.0,-257.0,0.0,0.0,0.0
19:37:22.512000,107.0,-84.0,-539.0,-660.0,756.0,-249.0,0.0,0.0,0.0
19:37:22.517000,112.0,-65.0,-595.0,-660.0,756.0,-249.0,0.0,0.0,0.0
19:37:22.522000,119.0,-44.0,-655.0,-657.0,769.0,-243.0,0.0,0.0,0.0
19:37:22.526000,124.0,-23.0,-715.0,-657.0,769.0,-243.0,0.0,0.0,0.0
19:37:22.531000,128.0,-4.0,-772.0,-651.0,776.0,-237.0,0.0,0.0,0.0
19:37:22.536000,135.0,12.0,-828.0,-651.0,776.0,-237.0,0.0,0.0,0.0
19:37:22.541000,143.0,30.0,-882.0,-631.0,768.0,-230.0,0.0,0.0,0.0
19:37:22.545000,154.0,45.0,-938.0,-631.0,768.0,-230.0,0.0,0.0,0.0
19:37:22.550000,165.0,57.0,-994.0,-601.0,767.0,-225.0,0.0,0.0,0.0
19:37:22.555000,173.0,67.0,-1047.0,-601.0,767.0,-225.0,0.0,0.0,0.0
19:37:22.559000,179.0,74.0,-1093.0,-601.0,767.0,-225.0,0.0,0.0,0.0
19:37:22.564000,186.0,79.0,-1129.0,-578.0,788.0,-218.0,0.0,0.0,0.0
19:37:22.569000,195.0,81.0,-1159.0,-555.0,804.0,-211.0,0.0,0.0,0.0
