hh:mm:ss.ms,gyroX[mdps],gyroY[mdps],gyroZ[mdps],accX[mg],accY[mg],accZ[mg],magX[mG],magY[mG],magZ[mG]
19:36:49.878000,4056.0,3490.0,1930.0,-1143.0,-748.0,721.0,0.0,0.0,0.0
19:36:49.882000,4056.0,3490.0,1930.0,-1143.0,-748.0,721.0,0.0,0.0,0.0
19:36:49.887000,3976.0,3514.0,1852.0,-1149.0,-702.0,600.0,0.0,0.0,0.0
19:36:49.892000,3876.0,3525.0,1818.0,-1149.0,-702.0,600.0,0.0,0.0,0.0
19:36:49.896000,3762.0,3525.0,1824.0,-1123.0,-530.0,485.0,0.0,0.0,0.0
19:36:49.901000,3621.0,3513.0,1803.0,-1123.0,-530.0,485.0,0.0,0.0,0.0
19:36:49.906000,3462.0,3475.0,1736.0,-1012.0,-402.0,367.0,0.0,0.0,0.0
19:36:49.910000,3297.0,3412.0,1670.0,-1012.0,-402.0,367.0,0.0,0.0,0.0
19:36:49.915000,3130.0,3328.0,1607.0,-846.0,-374.0,217.0,0.0,0.0,0.0
19:36:49.920000,2972.0,3229.0,1542.0,-846.0,-374.0,217.0,0.0,0.0,0.0
19:36:49.925000,2814.0,3117.0,1503.0,-719.0,-398.0,30.0,0.0,0.0,0.0
19:36:49.929000,2637.0,2977.0,1500.0,-719.0,-398.0,30.0,0.0,0.0,0.0
19:36:49.934000,2451.0,2829.0,1512.0,-634.0,-384.0,-153.0,0.0,0.0,0.0
19:36:49.939000,2276.0,2678.0,1507.0,-634.0,-384.0,-153.0,0.0,0.0,0.0
19:36:49.943000,2116.0,2512.0,1435.0,-634.0,-384.0,-153.0,0.0,0.0,0.0
19:36:49.948000,1951.0,2322.0,1320.0,-599.0,-358.0,-334.0,0.0,0.0,0.0
19:36:49.953000,1796.0,2116.0,1220.0,-599.0,-358.0,-334.0,0.0,0.0,0.0
19:36:49.957000,1644.0,1906.0,1138.0,-529.0,-401.0,-512.0,0.0,0.0,0.0
19:36:49.962000,1478.0,1685.0,1048.0,-529.0,-401.0,-512.0,0.0,0.0,0.0
19:36:49.967000,1320.0,1456.0,935.0,-352.0,-450.0,-640.0,0.0,0.0,0.0
19:36:49.972000,1171.0,1222.0,800.0,-352.0,-450.0,-640.0,0.0,0.0,0.0
19:36:49.976000,1030.0,995.0,661.0,-189.0,-449.0,-714.0,0.0,0.0,0.0
19:36:49.981000,903.0,774.0,532.0,-189.0,-449.0,-714.0,0.0,0.0,0.0
19:36:49.986000,793.0,567.0,408.0,-99.0,-498.0,-762.0,0.0,0.0,0.0
19:36:49.990000,793.0,567.0,408.0,-99.0,-498.0,-762.0,0.0,0.0,0.0
19:36:49.995000,695.0,372.0,245.0,-134.0,-567.0,-788.0,0.0,0.0,0.0
19:36:50.000000,613.0,189.0,65.0,-134.0,-567.0,-788.0,0.0,0.0,0.0
19:36:50.004000,536.0,12.0,-81.0,-279.0,-584.0,-793.0,0.0,0.0,0.0
19:36:50.009000,444.0,-163.0,-207.0,-279.0,-584.0,-793.0,0.0,0.0,0.0
19:36:50.014000,347.0,-339.0,-340.0,-420.0,-540.0,-779.0,0.0,0.0,0.0
19:36:50.019000,246.0,-517.0,-490.0,-420.0,-540.0,-779.0,0.0,0.0,0.0
19:36:50.023000,144.0,-692.0,-644.0,-453.0,-462.0,-759.0,0.0,0.0,0.0
19:36:50.028000,43.0,-866.0,-801.0,-453.0,-462.0,-759.0,0.0,0.0,0.0
19:36:50.033000,-54.0,-1041.0,-921.0,-361.0,-439.0,-722.0,0.0,0.0,0.0
19:36:50.037000,-147.0,-1218.0,-998.0,-361.0,-439.0,-722.0,0.0,0.0,0.0
19:36:50.042000,-228.0,-1386.0,-1080.0,-245.0,-513.0,-663.0,0.0,0.0,0.0
19:36:50.047000,-284.0,-1539.0,-1174.0,-245.0,-513.0,-663.0,0.0,0.0,0.0
19:36:50.051000,-312.0,-1673.0,-1266.0,-214.0,-620.0,-617.0,0.0,0.0,0.0
19:36:50.056000,-326.0,-1792.0,-1348.0,-214.0,-620.0,-617.0,0.0,0.0,0.0
19:36:50.061000,-343.0,-1890.0,-1424.0,-214.0,-620.0,-617.0,0.0,0.0,0.0
19:36:50.066000,-370.0,-1974.0,-1495.0,-302.0,-616.0,-579.0,0.0,0.0,0.0
19:36:50.070000,-403.0,-2053.0,-1556.0,-302.0,-616.0,-579.0,0.0,0.0,0.0
19:36:50.075000,-434.0,-2119.0,-1602.0,-455.0,-507.0,-522.0,0.0,0.0,0.0
19:36:50.080000,-455.0,-2171.0,-1651.0,-455.0,-507.0,-522.0,0.0,0.0,0.0
19:36:50.084000,-472.0,-2212.0,-1684.0,-571.0,-436.0,-457.0,0.0,0.0,0.0
19:36:50.089000,-490.0,-2243.0,-1658.0,-571.0,-436.0,-457.0,0.0,0.0,0.0
19:36:50.094000,-495.0,-2269.0,-1589.0,-620.0,-475.0,-396.0,0.0,0.0,0.0
19:36:50.098000,-491.0,-2284.0,-1531.0,-620.0,-475.0,-396.0,0.0,0.0,0.0
19:36:50.103000,-491.0,-2284.0,-1531.0,-651.0,-528.0,-332.0,0.0,0.0,0.0
19:36:50.108000,-478.0,-2291.0,-1484.0,-651.0,-528.0,-332.0,0.0,0.0,0.0
19:36:50.113000,-459.0,-2286.0,-1459.0,-714.0,-528.0,-267.0,0.0,0.0,0.0
19:36:50.117000,-435.0,-2275.0,-1442.0,-714.0,-528.0,-267.0,0.0,0.0,0.0
19:36:50.122000,-406.0,-2253.0,-1410.0,-805.0,-530.0,-206.0,0.0,0.0,0.0
19:36:50.127000,-381.0,-2220.0,-1361.0,-805.0,-530.0,-206.0,0.0,0.0,0.0
19:36:50.131000,-364.0,-2183.0,-1313.0,-901.0,-520.0,-145.0,0.0,0.0,0.0
19:36:50.136000,-364.0,-2139.0,-1282.0,-901.0,-520.0,-145.0,0.0,0.0,0.0
19:36:50.141000,-359.0,-2095.0,-1269.0,-965.0,-480.0,-100.0,0.0,0.0,0.0
19:36:50.145000,-350.0,-2044.0,-1278.0,-965.0,-480.0,-100.0,0.0,0.0,0.0
19:36:50.150000,-344.0,-1995.0,-1293.0,-972.0,-435.0,-86.0,0.0,0.0,0.0
19:36:50.155000,-352.0,-1944.0,-1276.0,-972.0,-435.0,-86.0,0.0,0.0,0.0
19:36:50.160000,-354.0,-1890.0,-1271.0,-972.0,-435.0,-86.0,0.0,0.0,0.0
19:36:50.164000,-361.0,-1832.0,-1272.0,-975.0,-372.0,-86.0,0.0,0.0,0.0
19:36:50.169000,-377.0,-1770.0,-1261.0,-975.0,-372.0,-86.0,0.0,0.0,0.0
19:36:50.174000,-401.0,-1712.0,-1242.0,-1015.0,-287.0,-88.0,0.0,0.0,0.0
19:36:50.178000,-418.0,-1656.0,-1217.0,-1015.0,-287.0,-88.0,0.0,0.0,0.0
19:36:50.183000,-431.0,-1596.0,-1189.0,-1045.0,-251.0,-82.0,0.0,0.0,0.0
19:36:50.188000,-439.0,-1533.0,-1154.0,-1045.0,-251.0,-82.0,0.0,0.0,0.0
19:36:50.192000,-444.0,-1470.0,-1123.0,-1015.0,-308.0,-77.0,0.0,0.0,0.0
19:36:50.197000,-443.0,-1411.0,-1101.0,-1015.0,-308.0,-77.0,0.0,0.0,0.0
19:36:50.202000,-448.0,-1352.0,-1079.0,-998.0,-306.0,-73.0,0.0,0.0,0.0
19:36:50.207000,-455.0,-1292.0,-1063.0,-998.0,-306.0,-73.0,0.0,0.0,0.0
19:36:50.211000,-455.0,-1292.0,-1063.0,-1014.0,-238.0,-64.0,0.0,0.0,0.0
19:36:50.216000,-458.0,-1238.0,-1017.0,-1014.0,-238.0,-64.0,0.0,0.0,0.0
19:36:50.221000,-459.0,-1189.0,-959.0,-1015.0,-251.0,-62.0,0.0,0.0,0.0
19:36:50.225000,-467.0,-1138.0,-904.0,-1015.0,-251.0,-62.0,0.0,0.0,0.0
19:36:50.230000,-462.0,-1088.0,-879.0,-1032.0,-257.0,-75.0,0.0,0.0,0.0
19:36:50.235000,-454.0,-1040.0,-873.0,-1032.0,-257.0,-75.0,0.0,0.0,0.0
19:36:50.239000,-455.0,-999.0,-846.0,-1038.0,-205.0,-93.0,0.0,0.0,0.0
19:36:50.244000,-466.0,-966.0,-789.0,-1038.0,-205.0,-93.0,0.0,0.0,0.0
19:36:50.249000,-468.0,-933.0,-728.0,-1011.0,-137.0,-111.0,0.0,0.0,0.0
19:36:50.254000,-481.0,-896.0,-680.0,-1011.0,-137.0,-111.0,0.0,0.0,0.0
19:36:50.258000,-501.0,-866.0,-636.0,-983.0,-74.0,-127.0,0.0,0.0,0.0
19:36:50.263000,-515.0,-840.0,-571.0,-983.0,-74.0,-127.0,0.0,0.0,0.0
19:36:50.268000,-532.0,-817.0,-505.0,-976.0,-49.0,-130.0,0.0,0.0,0.0
19:36:50.272000,-541.0,-794.0,-443.0,-976.0,-49.0,-130.0,0.0,0.0,0.0
19:36:50.277000,-542.0,-773.0,-369.0,-976.0,-49.0,-130.0,0.0,0.0,0.0
19:36:50.282000,-532.0,-752.0,-299.0,-983.0,-65.0,-122.0,0.0,0.0,0.0
19:36:50.286000,-526.0,-736.0,-236.0,-983.0,-65.0,-122.0,0.0,0.0,0.0
19:36:50.291000,-515.0,-721.0,-168.0,-988.0,-112.0,-105.0,0.0,0.0,0.0
19:36:50.296000,-489.0,-695.0,-112.0,-988.0,-112.0,-105.0,0.0,0.0,0.0
19:36:50.301000,-455.0,-675.0,-79.0,-994.0,-176.0,-88.0,0.0,0.0,0.0
19:36:50.305000,-411.0,-653.0,-60.0,-994.0,-176.0,-88.0,0.0,0.0,0.0
19:36:50.310000,-373.0,-625.0,-45.0,-994.0,-237.0,-76.0,0.0,0.0,0.0
19:36:50.315000,-319.0,-596.0,-25.0,-994.0,-237.0,-76.0,0.0,0.0,0.0
19:36:50.319000,-319.0,-596.0,-25.0,-1002.0,-274.0,-66.0,0.0,0.0,0.0
19:36:50.324000,-277.0,-570.0,-16.0,-1002.0,-274.0,-66.0,0.0,0.0,0.0
19:36:50.329000,-238.0,-543.0,-19.0,-1014.0,-274.0,-60.0,0.0,0.0,0.0
19:36:50.333000,-208.0,-517.0,-31.0,-1014.0,-274.0,-60.0,0.0,0.0,0.0
19:36:50.338000,-174.0,-495.0,-21.0,-1042.0,-256.0,-60.0,0.0,0.0,0.0
19:36:50.343000,-147.0,-476.0,-21.0,-1042.0,-256.0,-60.0,0.0,0.0,0.0
19:36:50.348000,-126.0,-464.0,-29.0,-1022.0,-248.0,-51.0,0.0,0.0,0.0
19:36:50.362000,-70.0,-441.0,-58.0,-947.0,-234.0,-40.0,0.0,0.0,0.0
19:36:50.366000,-63.0,-441.0,-49.0,-905.0,-213.0,-35.0,0.0,0.0,0.0
19:36:50.371000,-56.0,-440.0,-45.0,-905.0,-213.0,-35.0,0.0,0.0,0.0
19:36:50.376000,-54.0,-440.0,-44.0,-895.0,-186.0,-32.0,0.0,0.0,0.0
19:36:50.380000,-60.0,-444.0,-41.0,-895.0,-186.0,-32.0,0.0,0.0,0.0
19:36:50.385000,-66.0,-448.0,-20.0,-895.0,-186.0,-32.0,0.0,0.0,0.0
19:36:50.389000,-67.0,-445.0,-19.0,-895.0,-168.0,-37.0,0.0,0.0,0.0
19:36:50.395000,-70.0,-443.0,-52.0,-895.0,-168.0,-37.0,0.0,0.0,0.0
19:36:50.399000,-74.0,-441.0,-62.0,-914.0,-142.0,-44.0,0.0,0.0,0.0
19:36:50.404000,-82.0,-441.0,-54.0,-914.0,-142.0,-44.0,0.0,0.0,0.0
19:36:50.409000,-86.0,-443.0,-9.0,-944.0,-121.0,-51.0,0.0,0.0,0.0
19:36:50.413000,-76.0,-443.0,20.0,-944.0,-121.0,-51.0,0.0,0.0,0.0
19:36:50.418000,-70.0,-441.0,25.0,-962.0,-144.0,-61.0,0.0,0.0,0.0
19:36:50.423000,-69.0,-443.0,32.0,-962.0,-144.0,-61.0,0.0,0.0,0.0
19:36:50.427000,-69.0,-443.0,32.0,-980.0,-134.0,-65.0,0.0,0.0,0.0
19:36:50.432000,-77.0,-443.0,42.0,-980.0,-134.0,-65.0,0.0,0.0,0.0
19:36:50.437000,-96.0,-446.0,76.0,-990.0,-81.0,-55.0,0.0,0.0,0.0
19:36:50.442000,-116.0,-457.0,68.0,-990.0,-81.0,-55.0,0.0,0.0,0.0
19:36:50.446000,-138.0,-466.0,49.0,-974.0,-43.0,-39.0,0.0,0.0,0.0
19:36:50.451000,-160.0,-482.0,40.0,-974.0,-43.0,-39.0,0.0,0.0,0.0
19:36:50.456000,-184.0,-494.0,35.0,-944.0,-34.0,-18.0,0.0,0.0,0.0
19:36:50.460000,-214.0,-507.0,18.0,-944.0,-34.0,-18.0,0.0,0.0,0.0
19:36:50.465000,-232.0,-525.0,-12.0,-940.0,-7.0,-4.0,0.0,0.0,0.0
19:36:50.470000,-254.0,-526.0,-43.0,-940.0,-7.0,-4.0,0.0,0.0,0.0
19:36:50.474000,-278.0,-558.0,-67.0,-946.0,39.0,8.0,0.0,0.0,0.0
19:36:50.479000,-291.0,-584.0,-88.0,-946.0,39.0,8.0,0.0,0.0,0.0
19:36:50.484000,-299.0,-625.0,-97.0,-924.0,48.0,27.0,0.0,0.0,0.0
19:36:50.489000,-286.0,-661.0,-92.0,-924.0,48.0,27.0,0.0,0.0,0.0
19:36:50.493000,-278.0,-695.0,-95.0,-924.0,48.0,27.0,0.0,0.0,0.0
19:36:50.498000,-247.0,-737.0,-98.0,-886.0,16.0,33.0,0.0,0.0,0.0
19:36:50.503000,-212.0,-777.0,-89.0,-886.0,16.0,33.0,0.0,0.0,0.0
19:36:50.507000,-187.0,-813.0,-54.0,-887.0,11.0,31.0,0.0,0.0,0.0
19:36:50.512000,-163.0,-844.0,2.0,-887.0,11.0,31.0,0.0,0.0,0.0
19:36:50.517000,-127.0,-880.0,37.0,-978.0,59.0,41.0,0.0,0.0,0.0
19:36:50.521000,-80.0,-921.0,53.0,-978.0,59.0,41.0,0.0,0.0,0.0
19:36:50.526000,2.0,-968.0,46.0,-1106.0,91.0,71.0,0.0,0.0,0.0
19:36:50.531000,56.0,-998.0,23.0,-1106.0,91.0,71.0,0.0,0.0,0.0
19:36:50.536000,49.0,-1017.0,-14.0,-1190.0,67.0,114.0,0.0,0.0,0.0
19:36:50.540000,49.0,-1017.0,-14.0,-1190.0,67.0,114.0,0.0,0.0,0.0
19:36:50.545000,43.0,-1008.0,-58.0,-1114.0,-22.0,152.0,0.0,0.0,0.0
19:36:50.550000,3.0,-982.0,-81.0,-1114.0,-22.0,152.0,0.0,0.0,0.0
19:36:50.554000,-84.0,-958.0,-121.0,-846.0,25.0,194.0,0.0,0.0,0.0
19:36:50.559000,-177.0,-940.0,-180.0,-846.0,25.0,194.0,0.0,0.0,0.0
19:36:50.564000,-277.0,-921.0,-261.0,-674.0,276.0,249.0,0.0,0.0,0.0
19:36:50.568000,-375.0,-903.0,-322.0,-674.0,276.0,249.0,0.0,0.0,0.0
19:36:50.573000,-443.0,-875.0,-303.0,-750.0,300.0,263.0,0.0,0.0,0.0
19:36:50.578000,-470.0,-840.0,-273.0,-750.0,300.0,263.0,0.0,0.0,0.0
19:36:50.583000,-459.0,-807.0,-289.0,-907.0,-21.0,200.0,0.0,0.0,0.0
19:36:50.587000,-413.0,-784.0,-369.0,-907.0,-21.0,200.0,0.0,0.0,0.0
19:36:50.592000,-389.0,-767.0,-470.0,-959.0,-187.0,117.0,0.0,0.0,0.0
19:36:50.597000,-387.0,-757.0,-516.0,-959.0,-187.0,117.0,0.0,0.0,0.0
19:36:50.601000,-368.0,-757.0,-532.0,-830.0,-69.0,75.0,0.0,0.0,0.0
19:36:50.606000,-325.0,-777.0,-499.0,-830.0,-69.0,75.0,0.0,0.0,0.0
19:36:50.611000,-244.0,-791.0,-373.0,-830.0,-69.0,75.0,0.0,0.0,0.0
19:36:50.615000,-207.0,-805.0,-191.0,-690.0,-44.0,61.0,0.0,0.0,0.0
19:36:50.620000,-183.0,-812.0,-84.0,-690.0,-44.0,61.0,0.0,0.0,0.0
19:36:50.624000,-205.0,-796.0,-116.0,-762.0,-123.0,76.0,0.0,0.0,0.0
19:36:50.630000,-228.0,-781.0,-288.0,-762.0,-123.0,76.0,0.0,0.0,0.0
19:36:50.634000,-226.0,-763.0,-570.0,-958.0,-21.0,109.0,0.0,0.0,0.0
19:36:50.639000,-240.0,-762.0,-792.0,-958.0,-21.0,109.0,0.0,0.0,0.0
19:36:50.644000,-198.0,-718.0,-492.0,-969.0,200.0,148.0,0.0,0.0,0.0
19:36:50.648000,-198.0,-718.0,-492.0,-969.0,200.0,148.0,0.0,0.0,0.0
19:36:50.653000,-203.0,-718.0,326.0,-870.0,-189.0,173.0,0.0,0.0,0.0
19:36:50.658000,-186.0,-663.0,128.0,-870.0,-189.0,173.0,0.0,0.0,0.0
19:36:50.662000,-113.0,-627.0,-174.0,-839.0,-365.0,181.0,0.0,0.0,0.0
19:36:50.667000,-87.0,-595.0,-211.0,-839.0,-365.0,181.0,0.0,0.0,0.0
19:36:50.672000,-155.0,-545.0,-303.0,-680.0,-46.0,209.0,0.0,0.0,0.0
19:36:50.677000,-133.0,-524.0,-359.0,-680.0,-46.0,209.0,0.0,0.0,0.0
19:36:50.681000,-73.0,-520.0,-342.0,-602.0,-32.0,217.0,0.0,0.0,0.0
19:36:50.686000,-36.0,-496.0,-381.0,-602.0,-32.0,217.0,0.0,0.0,0.0
19:36:50.691000,-9.0,-460.0,-396.0,-703.0,-90.0,192.0,0.0,0.0,0.0
19:36:50.695000,19.0,-412.0,-366.0,-703.0,-90.0,192.0,0.0,0.0,0.0
19:36:50.700000,52.0,-371.0,-341.0,-788.0,-101.0,167.0,0.0,0.0,0.0
19:36:50.705000,52.0,-316.0,-315.0,-788.0,-101.0,167.0,0.0,0.0,0.0
19:36:50.709000,47.0,-252.0,-287.0,-788.0,-101.0,167.0,0.0,0.0,0.0
19:36:50.714000,60.0,-192.0,-248.0,-888.0,-37.0,147.0,0.0,0.0,0.0
19:36:50.719000,63.0,-127.0,-188.0,-981.0,2.0,144.0,0.0,0.0,0.0
19:36:50.724000,63.0,-73.0,-148.0,-981.0,2.0,144.0,0.0,0.0,0.0
19:36:50.728000,66.0,-17.0,-137.0,-981.0,2.0,144.0,0.0,0.0,0.0
19:36:50.733000,100.0,20.0,-163.0,-1026.0,-3.0,151.0,0.0,0.0,0.0
19:36:50.738000,138.0,49.0,-202.0,-1026.0,-3.0,151.0,0.0,0.0,0.0
19:36:50.742000,161.0,72.0,-231.0,-985.0,-12.0,162.0,0.0,0.0,0.0
19:36:50.747000,183.0,86.0,-207.0,-985.0,-12.0,162.0,0.0,0.0,0.0
19:36:50.752000,212.0,89.0,-112.0,-924.0,-10.0,202.0,0.0,0.0,0.0
19:36:50.756000,212.0,89.0,-112.0,-924.0,-10.0,202.0,0.0,0.0,0.0
19:36:50.761000,231.0,91.0,-34.0,-896.0,-18.0,247.0,0.0,0.0,0.0
19:36:50.766000,257.0,110.0,12.0,-896.0,-18.0,247.0,0.0,0.0,0.0
19:36:50.771000,261.0,116.0,35.0,-853.0,16.0,279.0,0.0,0.0,0.0
19:36:50.775000,231.0,141.0,30.0,-853.0,16.0,279.0,0.0,0.0,0.0
19:36:50.780000,247.0,144.0,16.0,-810.0,47.0,294.0,0.0,0.0,0.0
19:36:50.785000,240.0,149.0,-4.0,-810.0,47.0,294.0,0.0,0.0,0.0
19:36:50.789000,177.0,159.0,-16.0,-815.0,20.0,307.0,0.0,0.0,0.0
19:36:50.794000,130.0,175.0,-38.0,-815.0,20.0,307.0,0.0,0.0,0.0
19:36:50.799000,92.0,179.0,-65.0,-859.0,-23.0,318.0,0.0,0.0,0.0
19:36:50.803000,94.0,185.0,-93.0,-859.0,-23.0,318.0,0.0,0.0,0.0
19:36:50.808000,107.0,194.0,-139.0,-879.0,-18.0,317.0,0.0,0.0,0.0
19:36:50.813000,106.0,203.0,-193.0,-879.0,-18.0,317.0,0.0,0.0,0.0
19:36:50.818000,125.0,213.0,-228.0,-856.0,-66.0,321.0,0.0,0.0,0.0
19:36:50.822000,134.0,233.0,-245.0,-856.0,-66.0,321.0,0.0,0.0,0.0
19:36:50.827000,131.0,256.0,-243.0,-856.0,-66.0,321.0,0.0,0.0,0.0
19:36:50.832000,147.0,264.0,-226.0,-857.0,-122.0,333.0,0.0,0.0,0.0
19:36:50.836000,169.0,273.0,-224.0,-857.0,-122.0,333.0,0.0,0.0,0.0
19:36:50.841000,168.0,277.0,-247.0,-857.0,-128.0,342.0,0.0,0.0,0.0
19:36:50.845000,158.0,277.0,-261.0,-857.0,-128.0,342.0,0.0,0.0,0.0
19:36:50.850000,167.0,266.0,-210.0,-770.0,-132.0,354.0,0.0,0.0,0.0
19:36:50.855000,171.0,243.0,-121.0,-770.0,-132.0,354.0,0.0,0.0,0.0
19:36:50.859000,171.0,243.0,-121.0,-701.0,-133.0,385.0,0.0,0.0,0.0
19:36:50.865000,161.0,200.0,-77.0,-701.0,-133.0,385.0,0.0,0.0,0.0
19:36:50.869000,161.0,200.0,-77.0,-781.0,-97.0,417.0,0.0,0.0,0.0
19:36:50.874000,145.0,186.0,-138.0,-781.0,-97.0,417.0,0.0,0.0,0.0
19:36:50.879000,105.0,188.0,-154.0,-837.0,-96.0,441.0,0.0,0.0,0.0
19:36:50.883000,79.0,188.0,-144.0,-837.0,-96.0,441.0,0.0,0.0,0.0
19:36:50.888000,66.0,180.0,-191.0,-843.0,-86.0,456.0,0.0,0.0,0.0
19:36:50.893000,42.0,161.0,-206.0,-843.0,-86.0,456.0,0.0,0.0,0.0
19:36:50.897000,30.0,150.0,-188.0,-878.0,-93.0,462.0,0.0,0.0,0.0
19:36:50.902000,26.0,149.0,-209.0,-878.0,-93.0,462.0,0.0,0.0,0.0
19:36:50.907000,30.0,148.0,-240.0,-915.0,-147.0,463.0,0.0,0.0,0.0
19:36:50.912000,40.0,147.0,-252.0,-915.0,-147.0,463.0,0.0,0.0,0.0
19:36:50.916000,35.0,146.0,-247.0,-952.0,-90.0,462.0,0.0,0.0,0.0
19:36:50.921000,4.0,148.0,-235.0,-952.0,-90.0,462.0,0.0,0.0,0.0
19:36:50.926000,-24.0,148.0,-223.0,-959.0,-48.0,463.0,0.0,0.0,0.0
19:36:50.930000,-35.0,151.0,-198.0,-959.0,-48.0,463.0,0.0,0.0,0.0
19:36:50.935000,-43.0,157.0,-177.0,-959.0,-48.0,463.0,0.0,0.0,0.0
19:36:50.940000,-46.0,158.0,-154.0,-976.0,-43.0,471.0,0.0,0.0,0.0
19:36:50.944000,-100.0,191.0,-196.0,-976.0,-43.0,471.0,0.0,0.0,0.0
19:36:50.949000,-124.0,213.0,-214.0,-993.0,-58.0,481.0,0.0,0.0,0.0
19:36:50.954000,-123.0,205.0,-151.0,-993.0,-58.0,481.0,0.0,0.0,0.0
19:36:50.959000,-119.0,188.0,-163.0,-998.0,-62.0,495.0,0.0,0.0,0.0
19:36:50.963000,-126.0,195.0,-193.0,-998.0,-62.0,495.0,0.0,0.0,0.0
19:36:50.968000,-135.0,232.0,-191.0,-1076.0,-47.0,496.0,0.0,0.0,0.0
19:36:50.973000,-152.0,245.0,-205.0,-1076.0,-47.0,496.0,0.0,0.0,0.0
19:36:50.977000,-152.0,245.0,-205.0,-1068.0,-122.0,497.0,0.0,0.0,0.0
19:36:50.982000,-152.0,247.0,-233.0,-1068.0,-122.0,497.0,0.0,0.0,0.0
19:36:50.987000,-140.0,242.0,-245.0,-998.0,-109.0,511.0,0.0,0.0,0.0
19:36:50.991000,-164.0,228.0,-211.0,-998.0,-109.0,511.0,0.0,0.0,0.0
19:36:50.996000,-177.0,207.0,-194.0,-965.0,-49.0,508.0,0.0,0.0,0.0
19:36:51.001000,-162.0,192.0,-229.0,-965.0,-49.0,508.0,0.0,0.0,0.0
19:36:51.006000,-161.0,157.0,-270.0,-921.0,-65.0,495.0,0.0,0.0,0.0
19:36:51.010000,-151.0,117.0,-239.0,-921.0,-65.0,495.0,0.0,0.0,0.0
19:36:51.015000,-144.0,98.0,-212.0,-919.0,-30.0,474.0,0.0,0.0,0.0
19:36:51.020000,-143.0,62.0,-215.0,-919.0,-30.0,474.0,0.0,0.0,0.0
19:36:51.024000,-129.0,42.0,-189.0,-944.0,-13.0,445.0,0.0,0.0,0.0
19:36:51.029000,-128.0,16.0,-151.0,-944.0,-13.0,445.0,0.0,0.0,0.0
19:36:51.034000,-124.0,0.0,-117.0,-981.0,-16.0,431.0,0.0,0.0,0.0
19:36:51.038000,-115.0,-16.0,-93.0,-981.0,-16.0,431.0,0.0,0.0,0.0
19:36:51.043000,-119.0,-25.0,-98.0,-981.0,-16.0,431.0,0.0,0.0,0.0
19:36:51.048000,-130.0,-32.0,-112.0,-1018.0,13.0,434.0,0.0,0.0,0.0
19:36:51.053000,-132.0,-32.0,-112.0,-1018.0,13.0,434.0,0.0,0.0,0.0
19:36:51.057000,-130.0,-26.0,-121.0,-1030.0,6.0,441.0,0.0,0.0,0.0
19:36:51.062000,-108.0,-18.0,-117.0,-1030.0,6.0,441.0,0.0,0.0,0.0
19:36:51.067000,-82.0,2.0,-104.0,-1009.0,-50.0,443.0,0.0,0.0,0.0
19:36:51.071000,-49.0,12.0,-145.0,-1009.0,-50.0,443.0,0.0,0.0,0.0
19:36:51.076000,-28.0,27.0,-176.0,-1035.0,-81.0,446.0,0.0,0.0,0.0
19:36:51.081000,-17.0,49.0,-233.0,-1035.0,-81.0,446.0,0.0,0.0,0.0
19:36:51.085000,-17.0,49.0,-233.0,-1085.0,-59.0,442.0,0.0,0.0,0.0
19:36:51.090000,31.0,81.0,-257.0,-1085.0,-59.0,442.0,0.0,0.0,0.0
19:36:51.094000,71.0,102.0,-243.0,-1087.0,-95.0,433.0,0.0,0.0,0.0
19:36:51.100000,100.0,130.0,-239.0,-1087.0,-95.0,433.0,0.0,0.0,0.0
19:36:51.104000,140.0,155.0,-260.0,-1099.0,-166.0,422.0,0.0,0.0,0.0
19:36:51.109000,184.0,181.0,-266.0,-1099.0,-166.0,422.0,0.0,0.0,0.0
19:36:51.114000,237.0,206.0,-258.0,-1114.0,-162.0,402.0,0.0,0.0,0.0
19:36:51.118000,289.0,229.0,-256.0,-1114.0,-162.0,402.0,0.0,0.0,0.0
19:36:51.123000,340.0,248.0,-275.0,-1107.0,-135.0,392.0,0.0,0.0,0.0
19:36:51.128000,387.0,269.0,-305.0,-1107.0,-135.0,392.0,0.0,0.0,0.0
19:36:51.132000,431.0,288.0,-316.0,-1082.0,-107.0,393.0,0.0,0.0,0.0
19:36:51.137000,464.0,307.0,-296.0,-1082.0,-107.0,393.0,0.0,0.0,0.0
19:36:51.142000,496.0,326.0,-265.0,-1047.0,-71.0,395.0,0.0,0.0,0.0
19:36:51.147000,528.0,348.0,-243.0,-1047.0,-71.0,395.0,0.0,0.0,0.0
19:36:51.151000,553.0,376.0,-236.0,-1047.0,-71.0,395.0,0.0,0.0,0.0
19:36:51.156000,569.0,407.0,-229.0,-1040.0,-40.0,398.0,0.0,0.0,0.0
19:36:51.161000,580.0,440.0,-219.0,-1040.0,-40.0,398.0,0.0,0.0,0.0
19:36:51.165000,587.0,472.0,-205.0,-1036.0,6.0,402.0,0.0,0.0,0.0
19:36:51.170000,585.0,505.0,-208.0,-1036.0,6.0,402.0,0.0,0.0,0.0
19:36:51.175000,580.0,539.0,-235.0,-1034.0,65.0,400.0,0.0,0.0,0.0
19:36:51.179000,584.0,567.0,-259.0,-1034.0,65.0,400.0,0.0,0.0,0.0
19:36:51.184000,592.0,599.0,-267.0,-1032.0,94.0,384.0,0.0,0.0,0.0
19:36:51.189000,609.0,634.0,-265.0,-1032.0,94.0,384.0,0.0,0.0,0.0
19:36:51.194000,609.0,634.0,-265.0,-1018.0,74.0,353.0,0.0,0.0,0.0
19:36:51.198000,634.0,662.0,-259.0,-1018.0,74.0,353.0,0.0,0.0,0.0
19:36:51.203000,661.0,688.0,-252.0,-998.0,48.0,325.0,0.0,0.0,0.0
19:36:51.208000,691.0,719.0,-242.0,-998.0,48.0,325.0,0.0,0.0,0.0
19:36:51.212000,721.0,753.0,-224.0,-983.0,48.0,305.0,0.0,0.0,0.0
19:36:51.217000,752.0,790.0,-208.0,-983.0,48.0,305.0,0.0,0.0,0.0
19:36:51.222000,777.0,829.0,-213.0,-1006.0,20.0,289.0,0.0,0.0,0.0
19:36:51.226000,816.0,867.0,-203.0,-1006.0,20.0,289.0,0.0,0.0,0.0
19:36:51.231000,875.0,905.0,-182.0,-1048.0,-46.0,264.0,0.0,0.0,0.0
19:36:51.236000,934.0,951.0,-182.0,-1048.0,-46.0,264.0,0.0,0.0,0.0
19:36:51.240000,980.0,1010.0,-203.0,-1081.0,-62.0,232.0,0.0,0.0,0.0
19:36:51.245000,1018.0,1078.0,-213.0,-1081.0,-62.0,232.0,0.0,0.0,0.0
19:36:51.250000,1062.0,1139.0,-208.0,-1109.0,-35.0,199.0,0.0,0.0,0.0
19:36:51.255000,1103.0,1199.0,-193.0,-1109.0,-35.0,199.0,0.0,0.0,0.0
19:36:51.259000,1141.0,1261.0,-178.0,-1127.0,-17.0,169.0,0.0,0.0,0.0
19:36:51.264000,1176.0,1325.0,-178.0,-1127.0,-17.0,169.0,0.0,0.0,0.0
19:36:51.269000,1213.0,1381.0,-197.0,-1127.0,-17.0,169.0,0.0,0.0,0.0
19:36:51.273000,1251.0,1432.0,-203.0,-1143.0,8.0,143.0,0.0,0.0,0.0
19:36:51.278000,1295.0,1471.0,-159.0,-1143.0,8.0,143.0,0.0,0.0,0.0
19:36:51.283000,1339.0,1513.0,-81.0,-1132.0,-7.0,119.0,0.0,0.0,0.0
19:36:51.287000,1381.0,1557.0,-18.0,-1132.0,-7.0,119.0,0.0,0.0,0.0
19:36:51.292000,1425.0,1598.0,15.0,-1125.0,-36.0,112.0,0.0,0.0,0.0
19:36:51.297000,1476.0,1633.0,56.0,-1125.0,-36.0,112.0,0.0,0.0,0.0
19:36:51.302000,1526.0,1663.0,142.0,-1131.0,-32.0,125.0,0.0,0.0,0.0
19:36:51.306000,1526.0,1663.0,142.0,-1131.0,-32.0,125.0,0.0,0.0,0.0
19:36:51.311000,1580.0,1696.0,247.0,-1118.0,-35.0,150.0,0.0,0.0,0.0
19:36:51.315000,1628.0,1728.0,318.0,-1118.0,-35.0,150.0,0.0,0.0,0.0
19:36:51.320000,1670.0,1768.0,358.0,-1134.0,-18.0,174.0,0.0,0.0,0.0
19:36:51.325000,1701.0,1815.0,427.0,-1134.0,-18.0,174.0,0.0,0.0,0.0
19:36:51.329000,1723.0,1867.0,516.0,-1189.0,26.0,188.0,0.0,0.0,0.0
19:36:51.334000,1739.0,1915.0,575.0,-1189.0,26.0,188.0,0.0,0.0,0.0
19:36:51.339000,1719.0,1975.0,593.0,-1251.0,90.0,188.0,0.0,0.0,0.0
19:36:51.344000,1730.0,2025.0,605.0,-1251.0,90.0,188.0,0.0,0.0,0.0
19:36:51.349000,1715.0,2093.0,599.0,-1301.0,165.0,186.0,0.0,0.0,0.0
19:36:51.353000,1631.0,2142.0,624.0,-1301.0,165.0,186.0,0.0,0.0,0.0
19:36:51.358000,1574.0,2205.0,609.0,-1344.0,264.0,174.0,0.0,0.0,0.0
19:36:51.363000,1495.0,2263.0,538.0,-1344.0,264.0,174.0,0.0,0.0,0.0
19:36:51.367000,1433.0,2342.0,445.0,-1344.0,264.0,174.0,0.0,0.0,0.0
19:36:51.372000,1367.0,2380.0,420.0,-1347.0,362.0,123.0,0.0,0.0,0.0
19:36:51.377000,1290.0,2438.0,463.0,-1247.0,367.0,71.0,0.0,0.0,0.0
19:36:51.381000,1200.0,2458.0,518.0,-1247.0,367.0,71.0,0.0,0.0,0.0
19:36:51.386000,1197.0,2491.0,534.0,-1247.0,367.0,71.0,0.0,0.0,0.0
19:36:51.391000,1122.0,2506.0,501.0,-1114.0,332.0,14.0,0.0,0.0,0.0
19:36:51.396000,1097.0,2459.0,494.0,-1114.0,332.0,14.0,0.0,0.0,0.0
19:36:51.400000,1023.0,2487.0,595.0,-1005.0,317.0,-51.0,0.0,0.0,0.0
19:36:51.405000,933.0,2462.0,655.0,-1005.0,317.0,-51.0,0.0,0.0,0.0
19:36:51.410000,944.0,2476.0,710.0,-970.0,264.0,-129.0,0.0,0.0,0.0
19:36:51.414000,944.0,2476.0,710.0,-970.0,264.0,-129.0,0.0,0.0,0.0
19:36:51.419000,905.0,2478.0,788.0,-1000.0,193.0,-196.0,0.0,0.0,0.0
19:36:51.424000,882.0,2448.0,823.0,-1000.0,193.0,-196.0,0.0,0.0,0.0
19:36:51.428000,863.0,2417.0,787.0,-1019.0,105.0,-217.0,0.0,0.0,0.0
19:36:51.433000,867.0,2422.0,754.0,-1019.0,105.0,-217.0,0.0,0.0,0.0
19:36:51.438000,856.0,2406.0,749.0,-1072.0,-14.0,-222.0,0.0,0.0,0.0
19:36:51.443000,904.0,2433.0,821.0,-1072.0,-14.0,-222.0,0.0,0.0,0.0
19:36:51.447000,903.0,2438.0,882.0,-1030.0,-22.0,-218.0,0.0,0.0,0.0
19:36:51.452000,898.0,2445.0,871.0,-1030.0,-22.0,-218.0,0.0,0.0,0.0
19:36:51.457000,897.0,2450.0,865.0,-916.0,22.0,-256.0,0.0,0.0,0.0
19:36:51.461000,898.0,2482.0,864.0,-916.0,22.0,-256.0,0.0,0.0,0.0
19:36:51.466000,917.0,2500.0,860.0,-898.0,-31.0,-305.0,0.0,0.0,0.0
19:36:51.471000,942.0,2509.0,889.0,-898.0,-31.0,-305.0,0.0,0.0,0.0
19:36:51.475000,966.0,2524.0,973.0,-898.0,-31.0,-305.0,0.0,0.0,0.0
19:36:51.480000,1005.0,2510.0,1050.0,-921.0,-121.0,-335.0,0.0,0.0,0.0
19:36:51.485000,1042.0,2489.0,1124.0,-921.0,-121.0,-335.0,0.0,0.0,0.0
19:36:51.490000,1076.0,2471.0,1253.0,-894.0,-160.0,-372.0,0.0,0.0,0.0
19:36:51.494000,1138.0,2449.0,1353.0,-894.0,-160.0,-372.0,0.0,0.0,0.0
19:36:51.499000,1196.0,2442.0,1449.0,-849.0,-193.0,-360.0,0.0,0.0,0.0
19:36:51.504000,1265.0,2438.0,1502.0,-849.0,-193.0,-360.0,0.0,0.0,0.0
19:36:51.508000,1329.0,2441.0,1514.0,-818.0,-228.0,-333.0,0.0,0.0,0.0
19:36:51.513000,1351.0,2455.0,1520.0,-818.0,-228.0,-333.0,0.0,0.0,0.0
19:36:51.518000,1339.0,2451.0,1530.0,-786.0,-133.0,-315.0,0.0,0.0,0.0
19:36:51.522000,1339.0,2451.0,1530.0,-786.0,-133.0,-315.0,0.0,0.0,0.0
19:36:51.527000,1315.0,2459.0,1547.0,-775.0,44.0,-300.0,0.0,0.0,0.0
19:36:51.532000,1277.0,2456.0,1549.0,-775.0,44.0,-300.0,0.0,0.0,0.0
19:36:51.537000,1243.0,2450.0,1491.0,-762.0,157.0,-279.0,0.0,0.0,0.0
19:36:51.541000,1187.0,2429.0,1384.0,-762.0,157.0,-279.0,0.0,0.0,0.0
19:36:51.546000,1122.0,2391.0,1320.0,-638.0,210.0,-262.0,0.0,0.0,0.0
19:36:51.551000,1040.0,2346.0,1351.0,-638.0,210.0,-262.0,0.0,0.0,0.0
19:36:51.555000,956.0,2300.0,1402.0,-472.0,222.0,-352.0,0.0,0.0,0.0
19:36:51.560000,899.0,2284.0,1347.0,-472.0,222.0,-352.0,0.0,0.0,0.0
19:36:51.564000,849.0,2265.0,1211.0,-449.0,180.0,-502.0,0.0,0.0,0.0
19:36:51.569000,803.0,2214.0,1115.0,-449.0,180.0,-502.0,0.0,0.0,0.0
19:36:51.574000,757.0,2147.0,1068.0,-333.0,138.0,-577.0,0.0,0.0,0.0
19:36:51.579000,716.0,2076.0,1085.0,-333.0,138.0,-577.0,0.0,0.0,0.0
19:36:51.584000,694.0,2020.0,1152.0,-146.0,97.0,-645.0,0.0,0.0,0.0
19:36:51.588000,715.0,1980.0,1218.0,-138.0,97.0,-645.0,0.0,0.0,0.0
19:36:51.593000,756.0,1956.0,1251.0,-138.0,97.0,-645.0,0.0,0.0,0.0
19:36:51.598000,804.0,1921.0,1245.0,-258.0,-5.0,-726.0,0.0,0.0,0.0
19:36:51.602000,850.0,1878.0,1215.0,-258.0,-5.0,-726.0,0.0,0.0,0.0
19:36:51.607000,879.0,1835.0,1194.0,-453.0,-65.0,-733.0,0.0,0.0,0.0
19:36:51.612000,891.0,1772.0,1186.0,-453.0,-65.0,-733.0,0.0,0.0,0.0
19:36:51.616000,897.0,1698.0,1184.0,-375.0,24.0,-712.0,0.0,0.0,0.0
19:36:51.621000,907.0,1614.0,1194.0,-375.0,24.0,-712.0,0.0,0.0,0.0
19:36:51.625000,907.0,1614.0,1194.0,-206.0,100.0,-733.0,0.0,0.0,0.0
19:36:51.631000,929.0,1409.0,1209.0,-206.0,100.0,-733.0,0.0,0.0,0.0
19:36:51.635000,929.0,1409.0,1209.0,-72.0,113.0,-754.0,0.0,0.0,0.0
19:36:51.640000,925.0,1302.0,1206.0,-72.0,113.0,-754.0,0.0,0.0,0.0
19:36:51.645000,901.0,1189.0,1201.0,25.0,151.0,-763.0,0.0,0.0,0.0
19:36:51.649000,867.0,1080.0,1199.0,25.0,151.0,-763.0,0.0,0.0,0.0
19:36:51.654000,835.0,981.0,1209.0,41.0,157.0,-774.0,0.0,0.0,0.0
19:36:51.659000,796.0,886.0,1229.0,41.0,157.0,-774.0,0.0,0.0,0.0
19:36:51.663000,754.0,801.0,1223.0,15.0,131.0,-765.0,0.0,0.0,0.0
19:36:51.668000,709.0,722.0,1164.0,15.0,131.0,-765.0,0.0,0.0,0.0
19:36:51.673000,662.0,648.0,1068.0,1.0,145.0,-757.0,0.0,0.0,0.0
19:36:51.678000,625.0,583.0,975.0,1.0,145.0,-757.0,0.0,0.0,0.0
19:36:51.682000,597.0,534.0,910.0,-35.0,122.0,-775.0,0.0,0.0,0.0
19:36:51.687000,571.0,493.0,857.0,-35.0,122.0,-775.0,0.0,0.0,0.0
19:36:51.692000,551.0,462.0,802.0,-111.0,55.0,-800.0,0.0,0.0,0.0
19:36:51.696000,534.0,438.0,725.0,-111.0,55.0,-800.0,0.0,0.0,0.0
19:36:51.701000,513.0,415.0,653.0,-111.0,55.0,-800.0,0.0,0.0,0.0
19:36:51.706000,491.0,391.0,602.0,-174.0,50.0,-818.0,0.0,0.0,0.0
19:36:51.710000,466.0,366.0,553.0,-174.0,50.0,-818.0,0.0,0.0,0.0
19:36:51.715000,438.0,338.0,501.0,-190.0,89.0,-838.0,0.0,0.0,0.0
19:36:51.720000,410.0,310.0,458.0,-190.0,89.0,-838.0,0.0,0.0,0.0
19:36:51.725000,387.0,281.0,438.0,-183.0,106.0,-854.0,0.0,0.0,0.0
19:36:51.729000,369.0,256.0,434.0,-183.0,106.0,-854.0,0.0,0.0,0.0
19:36:51.734000,356.0,235.0,433.0,-154.0,66.0,-865.0,0.0,0.0,0.0
19:36:51.739000,346.0,213.0,435.0,-154.0,66.0,-865.0,0.0,0.0,0.0
19:36:51.743000,346.0,213.0,435.0,-124.0,15.0,-874.0,0.0,0.0,0.0
19:36:51.748000,343.0,196.0,444.0,-124.0,15.0,-874.0,0.0,0.0,0.0
19:36:51.753000,345.0,182.0,457.0,-133.0,-25.0,-886.0,0.0,0.0,0.0
19:36:51.757000,352.0,172.0,466.0,-133.0,-25.0,-886.0,0.0,0.0,0.0
19:36:51.762000,360.0,165.0,474.0,-154.0,-60.0,-905.0,0.0,0.0,0.0
19:36:51.767000,367.0,161.0,482.0,-154.0,-60.0,-905.0,0.0,0.0,0.0
19:36:51.772000,369.0,161.0,485.0,-158.0,-68.0,-925.0,0.0,0.0,0.0
19:36:51.776000,367.0,163.0,479.0,-158.0,-68.0,-925.0,0.0,0.0,0.0
19:36:51.781000,359.0,168.0,472.0,-155.0,-60.0,-941.0,0.0,0.0,0.0
19:36:51.785000,347.0,172.0,467.0,-155.0,-60.0,-941.0,0.0,0.0,0.0
19:36:51.790000,331.0,178.0,459.0,-144.0,-50.0,-950.0,0.0,0.0,0.0
19:36:51.795000,312.0,180.0,439.0,-144.0,-50.0,-950.0,0.0,0.0,0.0
19:36:51.799000,291.0,179.0,406.0,-113.0,-31.0,-951.0,0.0,0.0,0.0
19:36:51.804000,267.0,175.0,360.0,-113.0,-31.0,-951.0,0.0,0.0,0.0
19:36:51.809000,245.0,168.0,310.0,-113.0,-31.0,-951.0,0.0,0.0,0.0
19:36:51.814000,226.0,158.0,260.0,-61.0,-13.0,-950.0,0.0,0.0,0.0
19:36:51.819000,210.0,144.0,207.0,-61.0,-13.0,-950.0,0.0,0.0,0.0
19:36:51.823000,202.0,130.0,155.0,-18.0,-15.0,-954.0,0.0,0.0,0.0
19:36:51.828000,200.0,116.0,116.0,-18.0,-15.0,-954.0,0.0,0.0,0.0
19:36:51.833000,204.0,101.0,86.0,-4.0,-29.0,-968.0,0.0,0.0,0.0
19:36:51.837000,211.0,88.0,53.0,-4.0,-29.0,-968.0,0.0,0.0,0.0
19:36:51.842000,219.0,74.0,23.0,-29.0,-31.0,-984.0,0.0,0.0,0.0
19:36:51.847000,232.0,63.0,0.0,-29.0,-31.0,-984.0,0.0,0.0,0.0
19:36:51.851000,232.0,63.0,0.0,-49.0,-44.0,-988.0,0.0,0.0,0.0
19:36:51.856000,252.0,51.0,-12.0,-49.0,-44.0,-988.0,0.0,0.0,0.0
19:36:51.861000,277.0,41.0,-24.0,-32.0,-69.0,-985.0,0.0,0.0,0.0
19:36:51.866000,298.0,32.0,-39.0,-32.0,-69.0,-985.0,0.0,0.0,0.0
19:36:51.870000,312.0,20.0,-53.0,-25.0,-50.0,-974.0,0.0,0.0,0.0
19:36:51.875000,322.0,10.0,-65.0,-25.0,-50.0,-974.0,0.0,0.0,0.0
19:36:51.880000,329.0,3.0,-70.0,-30.0,-8.0,-964.0,0.0,0.0,0.0
19:36:51.884000,329.0,-2.0,-73.0,-30.0,-8.0,-964.0,0.0,0.0,0.0
19:36:51.889000,324.0,-4.0,-78.0,-48.0,40.0,-959.0,0.0,0.0,0.0
19:36:51.894000,310.0,-7.0,-82.0,-48.0,40.0,-959.0,0.0,0.0,0.0
19:36:51.898000,298.0,-4.0,-79.0,-75.0,76.0,-958.0,0.0,0.0,0.0
19:36:51.903000,288.0,2.0,-70.0,-75.0,76.0,-958.0,0.0,0.0,0.0
19:36:51.908000,274.0,13.0,-66.0,-101.0,94.0,-966.0,0.0,0.0,0.0
19:36:51.913000,252.0,25.0,-67.0,-101.0,94.0,-966.0,0.0,0.0,0.0
19:36:51.917000,228.0,41.0,-61.0,-101.0,94.0,-966.0,0.0,0.0,0.0
19:36:51.922000,205.0,56.0,-49.0,-119.0,115.0,-975.0,0.0,0.0,0.0
19:36:51.927000,186.0,73.0,-35.0,-119.0,115.0,-975.0,0.0,0.0,0.0
19:36:51.931000,177.0,91.0,-17.0,-116.0,103.0,-985.0,0.0,0.0,0.0
19:36:51.936000,175.0,109.0,-3.0,-116.0,103.0,-985.0,0.0,0.0,0.0
19:36:51.941000,177.0,126.0,6.0,-128.0,69.0,-1000.0,0.0,0.0,0.0
19:36:51.945000,188.0,143.0,15.0,-128.0,69.0,-1000.0,0.0,0.0,0.0
19:36:51.950000,206.0,159.0,19.0,-161.0,38.0,-1015.0,0.0,0.0,0.0
19:36:51.955000,231.0,175.0,20.0,-161.0,38.0,-1015.0,0.0,0.0,0.0
19:36:51.960000,231.0,175.0,20.0,-189.0,0.0,-1022.0,0.0,0.0,0.0
19:36:51.964000,259.0,189.0,20.0,-189.0,0.0,-1022.0,0.0,0.0,0.0
19:36:51.969000,287.0,203.0,24.0,-200.0,-38.0,-1018.0,0.0,0.0,0.0
19:36:51.974000,313.0,216.0,29.0,-200.0,-38.0,-1018.0,0.0,0.0,0.0
19:36:51.978000,333.0,226.0,24.0,-188.0,-41.0,-998.0,0.0,0.0,0.0
19:36:51.983000,344.0,236.0,11.0,-188.0,-41.0,-998.0,0.0,0.0,0.0
19:36:51.988000,352.0,247.0,-4.0,-158.0,-14.0,-975.0,0.0,0.0,0.0
19:36:51.992000,354.0,261.0,-21.0,-158.0,-14.0,-975.0,0.0,0.0,0.0
19:36:51.997000,347.0,277.0,-42.0,-153.0,36.0,-966.0,0.0,0.0,0.0
19:36:52.002000,330.0,291.0,-61.0,-153.0,36.0,-966.0,0.0,0.0,0.0
19:36:52.007000,305.0,303.0,-77.0,-177.0,113.0,-966.0,0.0,0.0,0.0
19:36:52.011000,276.0,312.0,-94.0,-177.0,113.0,-966.0,0.0,0.0,0.0
19:36:52.016000,247.0,318.0,-112.0,-180.0,155.0,-966.0,0.0,0.0,0.0
19:36:52.021000,226.0,324.0,-123.0,-180.0,155.0,-966.0,0.0,0.0,0.0
19:36:52.025000,214.0,326.0,-126.0,-180.0,155.0,-966.0,0.0,0.0,0.0
19:36:52.030000,212.0,325.0,-121.0,-156.0,126.0,-966.0,0.0,0.0,0.0
19:36:52.034000,215.0,324.0,-118.0,-141.0,76.0,-966.0,0.0,0.0,0.0
19:36:52.039000,224.0,323.0,-119.0,-141.0,76.0,-966.0,0.0,0.0,0.0
19:36:52.044000,238.0,322.0,-129.0,-141.0,76.0,-966.0,0.0,0.0,0.0
19:36:52.049000,256.0,319.0,-143.0,-136.0,47.0,-964.0,0.0,0.0,0.0
19:36:52.054000,275.0,316.0,-158.0,-136.0,47.0,-964.0,0.0,0.0,0.0
19:36:52.058000,292.0,312.0,-175.0,-124.0,37.0,-955.0,0.0,0.0,0.0
19:36:52.063000,307.0,308.0,-193.0,-124.0,37.0,-955.0,0.0,0.0,0.0
19:36:52.068000,315.0,303.0,-208.0,-106.0,51.0,-941.0,0.0,0.0,0.0
19:36:52.072000,315.0,303.0,-208.0,-106.0,51.0,-941.0,0.0,0.0,0.0
19:36:52.077000,315.0,295.0,-219.0,-78.0,92.0,-930.0,0.0,0.0,0.0
19:36:52.082000,306.0,287.0,-224.0,-78.0,92.0,-930.0,0.0,0.0,0.0
19:36:52.086000,290.0,278.0,-225.0,-49.0,147.0,-925.0,0.0,0.0,0.0
19:36:52.091000,269.0,266.0,-219.0,-49.0,147.0,-925.0,0.0,0.0,0.0
19:36:52.096000,247.0,254.0,-207.0,-32.0,181.0,-930.0,0.0,0.0,0.0
19:36:52.101000,228.0,238.0,-197.0,-32.0,181.0,-930.0,0.0,0.0,0.0
19:36:52.105000,210.0,218.0,-187.0,-22.0,189.0,-945.0,0.0,0.0,0.0
19:36:52.110000,191.0,194.0,-182.0,-22.0,189.0,-945.0,0.0,0.0,0.0
19:36:52.115000,177.0,166.0,-182.0,-1.0,202.0,-963.0,0.0,0.0,0.0
19:36:52.119000,163.0,129.0,-175.0,-1.0,202.0,-963.0,0.0,0.0,0.0
19:36:52.124000,145.0,87.0,-167.0,36.0,227.0,-980.0,0.0,0.0,0.0
19:36:52.128000,129.0,43.0,-175.0,36.0,227.0,-980.0,0.0,0.0,0.0
19:36:52.133000,106.0,-4.0,-193.0,36.0,227.0,-980.0,0.0,0.0,0.0
19:36:52.138000,75.0,-59.0,-203.0,71.0,279.0,-984.0,0.0,0.0,0.0
19:36:52.143000,39.0,-116.0,-208.0,71.0,279.0,-984.0,0.0,0.0,0.0
19:36:52.148000,0.0,-175.0,-222.0,100.0,331.0,-976.0,0.0,0.0,0.0
19:36:52.152000,-51.0,-235.0,-247.0,100.0,331.0,-976.0,0.0,0.0,0.0
19:36:52.157000,-110.0,-299.0,-273.0,126.0,379.0,-961.0,0.0,0.0,0.0
19:36:52.162000,-183.0,-366.0,-295.0,126.0,379.0,-961.0,0.0,0.0,0.0
19:36:52.166000,-266.0,-433.0,-308.0,139.0,456.0,-938.0,0.0,0.0,0.0
19:36:52.171000,-353.0,-504.0,-315.0,139.0,456.0,-938.0,0.0,0.0,0.0
19:36:52.176000,-440.0,-577.0,-318.0,144.0,511.0,-913.0,0.0,0.0,0.0
19:36:52.180000,-440.0,-577.0,-318.0,144.0,511.0,-913.0,0.0,0.0,0.0
19:36:52.185000,-528.0,-652.0,-324.0,135.0,527.0,-894.0,0.0,0.0,0.0
19:36:52.190000,-619.0,-734.0,-345.0,135.0,527.0,-894.0,0.0,0.0,0.0
19:36:52.195000,-712.0,-820.0,-371.0,112.0,547.0,-871.0,0.0,0.0,0.0
19:36:52.199000,-805.0,-910.0,-392.0,112.0,547.0,-871.0,0.0,0.0,0.0
19:36:52.204000,-898.0,-1003.0,-422.0,95.0,570.0,-839.0,0.0,0.0,0.0
19:36:52.209000,-993.0,-1097.0,-470.0,95.0,570.0,-839.0,0.0,0.0,0.0
19:36:52.213000,-1092.0,-1190.0,-526.0,71.0,609.0,-801.0,0.0,0.0,0.0
19:36:52.218000,-1192.0,-1279.0,-596.0,71.0,609.0,-801.0,0.0,0.0,0.0
19:36:52.223000,-1298.0,-1372.0,-683.0,10.0,683.0,-754.0,0.0,0.0,0.0
19:36:52.227000,-1412.0,-1460.0,-777.0,10.0,683.0,-754.0,0.0,0.0,0.0
19:36:52.232000,-1538.0,-1537.0,-862.0,-60.0,751.0,-692.0,0.0,0.0,0.0
19:36:52.237000,-1674.0,-1596.0,-939.0,-60.0,751.0,-692.0,0.0,0.0,0.0
19:36:52.242000,-1819.0,-1644.0,-1009.0,-60.0,751.0,-692.0,0.0,0.0,0.0
19:36:52.246000,-1972.0,-1688.0,-1073.0,-125.0,794.0,-628.0,0.0,0.0,0.0
19:36:52.251000,-2134.0,-1736.0,-1128.0,-125.0,794.0,-628.0,0.0,0.0,0.0
19:36:52.256000,-2293.0,-1789.0,-1166.0,-211.0,837.0,-574.0,0.0,0.0,0.0
19:36:52.260000,-2441.0,-1843.0,-1193.0,-211.0,837.0,-574.0,0.0,0.0,0.0
19:36:52.265000,-2571.0,-1900.0,-1214.0,-281.0,832.0,-529.0,0.0,0.0,0.0
19:36:52.269000,-2675.0,-1959.0,-1229.0,-281.0,832.0,-529.0,0.0,0.0,0.0
19:36:52.274000,-2753.0,-2016.0,-1237.0,-318.0,722.0,-507.0,0.0,0.0,0.0
19:36:52.279000,-2804.0,-2072.0,-1236.0,-318.0,722.0,-507.0,0.0,0.0,0.0
19:36:52.284000,-2826.0,-2125.0,-1233.0,-373.0,542.0,-515.0,0.0,0.0,0.0
19:36:52.289000,-2826.0,-2125.0,-1233.0,-373.0,542.0,-515.0,0.0,0.0,0.0
19:36:52.293000,-2829.0,-2172.0,-1229.0,-457.0,338.0,-543.0,0.0,0.0,0.0
19:36:52.298000,-2819.0,-2211.0,-1224.0,-457.0,338.0,-543.0,0.0,0.0,0.0
19:36:52.303000,-2805.0,-2244.0,-1218.0,-523.0,158.0,-568.0,0.0,0.0,0.0
19:36:52.307000,-2790.0,-2276.0,-1204.0,-523.0,158.0,-568.0,0.0,0.0,0.0
