hh:mm:ss.ms,gyroX[mdps],gyroY[mdps],gyroZ[mdps],accX[mg],accY[mg],accZ[mg],magX[mG],magY[mG],magZ[mG]
19:37:06.303000,1278.0,2368.0,980.0,-1146.0,-156.0,-310.0,0.0,0.0,0.0
19:37:06.308000,1330.0,2467.0,996.0,-1361.0,-109.0,-307.0,0.0,0.0,0.0
19:37:06.312000,1367.0,2571.0,1078.0,-1361.0,-109.0,-307.0,0.0,0.0,0.0
19:37:06.317000,1386.0,2687.0,1094.0,-1529.0,-114.0,-289.0,0.0,0.0,0.0
19:37:06.322000,1385.0,2788.0,1099.0,-1529.0,-114.0,-289.0,0.0,0.0,0.0
19:37:06.327000,1354.0,2868.0,1187.0,-1553.0,-53.0,-256.0,0.0,0.0,0.0
19:37:06.331000,1311.0,2939.0,1276.0,-1553.0,-53.0,-256.0,0.0,0.0,0.0
19:37:06.336000,1264.0,3006.0,1298.0,-1363.0,44.0,-244.0,0.0,0.0,0.0
19:37:06.341000,1215.0,3059.0,1285.0,-1363.0,44.0,-244.0,0.0,0.0,0.0
19:37:06.345000,1163.0,3080.0,1306.0,-1023.0,133.0,-255.0,0.0,0.0,0.0
19:37:06.350000,1108.0,3080.0,1321.0,-1023.0,133.0,-255.0,0.0,0.0,0.0
19:37:06.355000,1066.0,3046.0,1330.0,-663.0,144.0,-279.0,0.0,0.0,0.0
19:37:06.359000,1040.0,3014.0,1343.0,-663.0,144.0,-279.0,0.0,0.0,0.0
19:37:06.364000,1020.0,2973.0,1309.0,-663.0,144.0,-279.0,0.0,0.0,0.0
19:37:06.369000,1020.0,2899.0,1255.0,-443.0,95.0,-346.0,0.0,0.0,0.0
19:37:06.374000,1031.0,2804.0,1219.0,-443.0,95.0,-346.0,0.0,0.0,0.0
19:37:06.378000,1052.0,2708.0,1220.0,-262.0,2.0,-410.0,0.0,0.0,0.0
19:37:06.383000,1081.0,2611.0,1236.0,-262.0,2.0,-410.0,0.0,0.0,0.0
19:37:06.388000,1119.0,2507.0,1225.0,-52.0,-121.0,-490.0,0.0,0.0,0.0
19:37:06.392000,1162.0,2403.0,1249.0,-52.0,-121.0,-490.0,0.0,0.0,0.0
19:37:06.397000,1190.0,2293.0,1272.0,36.0,-229.0,-583.0,0.0,0.0,0.0
19:37:06.402000,1208.0,2191.0,1269.0,36.0,-229.0,-583.0,0.0,0.0,0.0
19:37:06.406000,1208.0,2191.0,1269.0,0.0,-228.0,-642.0,0.0,0.0,0.0
19:37:06.411000,1204.0,2105.0,1264.0,0.0,-228.0,-642.0,0.0,0.0,0.0
19:37:06.416000,1169.0,2017.0,1245.0,-40.0,-33.0,-696.0,0.0,0.0,0.0
19:37:06.421000,1100.0,1933.0,1220.0,-40.0,-33.0,-696.0,0.0,0.0,0.0
19:37:06.425000,1018.0,1857.0,1154.0,-75.0,191.0,-757.0,0.0,0.0,0.0
19:37:06.430000,930.0,1792.0,1100.0,-75.0,191.0,-757.0,0.0,0.0,0.0
19:37:06.435000,830.0,1724.0,1081.0,-115.0,265.0,-805.0,0.0,0.0,0.0
19:37:06.439000,737.0,1650.0,1066.0,-115.0,265.0,-805.0,0.0,0.0,0.0
19:37:06.444000,667.0,1576.0,1047.0,-105.0,231.0,-830.0,0.0,0.0,0.0
19:37:06.449000,621.0,1505.0,1026.0,-105.0,231.0,-830.0,0.0,0.0,0.0
19:37:06.453000,603.0,1439.0,1016.0,-66.0,121.0,-857.0,0.0,0.0,0.0
19:37:06.458000,599.0,1371.0,977.0,-66.0,121.0,-857.0,0.0,0.0,0.0
19:37:06.463000,614.0,1309.0,905.0,-76.0,29.0,-889.0,0.0,0.0,0.0
19:37:06.468000,640.0,1250.0,862.0,-76.0,29.0,-889.0,0.0,0.0,0.0
19:37:06.472000,672.0,1195.0,875.0,-76.0,29.0,-889.0,0.0,0.0,0.0
19:37:06.477000,701.0,1139.0,888.0,-117.0,0.0,-923.0,0.0,0.0,0.0
19:37:06.482000,718.0,1087.0,872.0,-117.0,0.0,-923.0,0.0,0.0,0.0
19:37:06.486000,720.0,1032.0,809.0,-170.0,32.0,-948.0,0.0,0.0,0.0
19:37:06.491000,727.0,990.0,765.0,-170.0,32.0,-948.0,0.0,0.0,0.0
19:37:06.496000,726.0,945.0,786.0,-188.0,114.0,-962.0,0.0,0.0,0.0
19:37:06.500000,709.0,901.0,824.0,-188.0,114.0,-962.0,0.0,0.0,0.0
19:37:06.505000,668.0,849.0,814.0,-147.0,155.0,-960.0,0.0,0.0,0.0
19:37:06.510000,624.0,797.0,752.0,-147.0,155.0,-960.0,0.0,0.0,0.0
19:37:06.515000,624.0,797.0,752.0,-86.0,225.0,-947.0,0.0,0.0,0.0
19:37:06.519000,582.0,742.0,714.0,-86.0,225.0,-947.0,0.0,0.0,0.0
19:37:06.524000,539.0,688.0,711.0,-6.0,286.0,-951.0,0.0,0.0,0.0
19:37:06.528000,491.0,633.0,693.0,-6.0,286.0,-951.0,0.0,0.0,0.0
19:37:06.533000,448.0,576.0,625.0,-25.0,263.0,-964.0,0.0,0.0,0.0
19:37:06.538000,403.0,518.0,571.0,-25.0,263.0,-964.0,0.0,0.0,0.0
19:37:06.542000,361.0,450.0,577.0,-36.0,215.0,-969.0,0.0,0.0,0.0
19:37:06.547000,332.0,385.0,608.0,-36.0,215.0,-969.0,0.0,0.0,0.0
19:37:06.552000,299.0,322.0,620.0,33.0,186.0,-981.0,0.0,0.0,0.0
19:37:06.557000,280.0,259.0,595.0,33.0,186.0,-981.0,0.0,0.0,0.0
19:37:06.562000,263.0,196.0,570.0,24.0,157.0,-986.0,0.0,0.0,0.0
19:37:06.566000,249.0,140.0,555.0,24.0,157.0,-986.0,0.0,0.0,0.0
19:37:06.571000,252.0,95.0,528.0,-23.0,93.0,-971.0,0.0,0.0,0.0
19:37:06.576000,255.0,56.0,492.0,-23.0,93.0,-971.0,0.0,0.0,0.0
19:37:06.580000,266.0,21.0,475.0,-23.0,93.0,-971.0,0.0,0.0,0.0
19:37:06.585000,280.0,-12.0,477.0,-37.0,20.0,-946.0,0.0,0.0,0.0
19:37:06.590000,298.0,-42.0,474.0,-37.0,20.0,-946.0,0.0,0.0,0.0
19:37:06.594000,322.0,-61.0,449.0,-23.0,-22.0,-920.0,0.0,0.0,0.0
19:37:06.599000,343.0,-76.0,406.0,-23.0,-22.0,-920.0,0.0,0.0,0.0
19:37:06.604000,360.0,-84.0,368.0,-50.0,-26.0,-900.0,0.0,0.0,0.0
19:37:06.609000,373.0,-85.0,339.0,-50.0,-26.0,-900.0,0.0,0.0,0.0
19:37:06.613000,382.0,-81.0,315.0,-120.0,-11.0,-883.0,0.0,0.0,0.0
19:37:06.618000,387.0,-69.0,290.0,-120.0,-11.0,-883.0,0.0,0.0,0.0
19:37:06.623000,387.0,-69.0,290.0,-160.0,7.0,-874.0,0.0,0.0,0.0
19:37:06.627000,387.0,-52.0,272.0,-160.0,7.0,-874.0,0.0,0.0,0.0
19:37:06.632000,380.0,-33.0,256.0,-170.0,27.0,-868.0,0.0,0.0,0.0
19:37:06.637000,362.0,-14.0,238.0,-170.0,27.0,-868.0,0.0,0.0,0.0
19:37:06.641000,338.0,9.0,221.0,-174.0,56.0,-864.0,0.0,0.0,0.0
19:37:06.646000,311.0,28.0,207.0,-174.0,56.0,-864.0,0.0,0.0,0.0
19:37:06.651000,280.0,44.0,199.0,-154.0,67.0,-859.0,0.0,0.0,0.0
19:37:06.656000,253.0,58.0,195.0,-154.0,67.0,-859.0,0.0,0.0,0.0
19:37:06.660000,235.0,74.0,189.0,-119.0,39.0,-854.0,0.0,0.0,0.0
19:37:06.665000,225.0,92.0,176.0,-119.0,39.0,-854.0,0.0,0.0,0.0
19:37:06.670000,219.0,109.0,157.0,-120.0,0.0,-857.0,0.0,0.0,0.0
19:37:06.674000,217.0,123.0,133.0,-120.0,0.0,-857.0,0.0,0.0,0.0
19:37:06.679000,214.0,133.0,100.0,-129.0,-7.0,-859.0,0.0,0.0,0.0
19:37:06.684000,215.0,142.0,67.0,-129.0,-7.0,-859.0,0.0,0.0,0.0
19:37:06.688000,217.0,149.0,49.0,-129.0,-7.0,-859.0,0.0,0.0,0.0
19:37:06.693000,221.0,154.0,37.0,-101.0,-10.0,-861.0,0.0,0.0,0.0
19:37:06.698000,223.0,157.0,21.0,-101.0,-10.0,-861.0,0.0,0.0,0.0
19:37:06.703000,222.0,158.0,-3.0,-66.0,-14.0,-861.0,0.0,0.0,0.0
19:37:06.707000,221.0,156.0,-21.0,-66.0,-14.0,-861.0,0.0,0.0,0.0
19:37:06.712000,217.0,156.0,-45.0,-45.0,14.0,-867.0,0.0,0.0,0.0
19:37:06.717000,212.0,158.0,-65.0,-45.0,14.0,-867.0,0.0,0.0,0.0
19:37:06.721000,203.0,156.0,-88.0,-55.0,69.0,-888.0,0.0,0.0,0.0
19:37:06.726000,185.0,144.0,-112.0,-55.0,69.0,-888.0,0.0,0.0,0.0
19:37:06.731000,180.0,133.0,-115.0,-71.0,82.0,-887.0,0.0,0.0,0.0
19:37:06.735000,180.0,133.0,-115.0,-71.0,82.0,-887.0,0.0,0.0,0.0
19:37:06.740000,199.0,126.0,-98.0,1.0,-17.0,-877.0,0.0,0.0,0.0
19:37:06.745000,224.0,118.0,-93.0,1.0,-17.0,-877.0,0.0,0.0,0.0
19:37:06.750000,239.0,108.0,-108.0,68.0,-43.0,-885.0,0.0,0.0,0.0
19:37:06.754000,245.0,99.0,-127.0,68.0,-43.0,-885.0,0.0,0.0,0.0
19:37:06.759000,247.0,94.0,-140.0,56.0,46.0,-894.0,0.0,0.0,0.0
19:37:06.764000,252.0,94.0,-146.0,56.0,46.0,-894.0,0.0,0.0,0.0
19:37:06.768000,255.0,96.0,-153.0,19.0,96.0,-909.0,0.0,0.0,0.0
19:37:06.773000,245.0,99.0,-164.0,19.0,96.0,-909.0,0.0,0.0,0.0
19:37:06.778000,222.0,100.0,-164.0,-31.0,160.0,-910.0,0.0,0.0,0.0
19:37:06.782000,196.0,102.0,-150.0,-31.0,160.0,-910.0,0.0,0.0,0.0
19:37:06.787000,170.0,102.0,-118.0,-48.0,188.0,-899.0,0.0,0.0,0.0
19:37:06.792000,147.0,105.0,-70.0,-48.0,188.0,-899.0,0.0,0.0,0.0
19:37:06.797000,123.0,101.0,-23.0,-48.0,188.0,-899.0,0.0,0.0,0.0
19:37:06.801000,98.0,95.0,11.0,-30.0,138.0,-886.0,0.0,0.0,0.0
19:37:06.806000,73.0,89.0,36.0,-30.0,138.0,-886.0,0.0,0.0,0.0
19:37:06.811000,46.0,88.0,58.0,9.0,100.0,-880.0,0.0,0.0,0.0
19:37:06.815000,16.0,83.0,70.0,9.0,100.0,-880.0,0.0,0.0,0.0
19:37:06.820000,-10.0,78.0,75.0,22.0,113.0,-895.0,0.0,0.0,0.0
19:37:06.825000,-33.0,74.0,74.0,22.0,113.0,-895.0,0.0,0.0,0.0
19:37:06.829000,-46.0,67.0,79.0,-8.0,113.0,-926.0,0.0,0.0,0.0
19:37:06.834000,-46.0,67.0,79.0,-8.0,113.0,-926.0,0.0,0.0,0.0
19:37:06.839000,-46.0,59.0,106.0,-26.0,43.0,-961.0,0.0,0.0,0.0
19:37:06.844000,-46.0,59.0,106.0,-26.0,43.0,-961.0,0.0,0.0,0.0
19:37:06.848000,-36.0,60.0,115.0,-39.0,-19.0,-992.0,0.0,0.0,0.0
19:37:06.853000,-27.0,60.0,114.0,-39.0,-19.0,-992.0,0.0,0.0,0.0
19:37:06.858000,-18.0,60.0,105.0,-79.0,-18.0,-1017.0,0.0,0.0,0.0
19:37:06.862000,-8.0,60.0,101.0,-79.0,-18.0,-1017.0,0.0,0.0,0.0
19:37:06.867000,3.0,58.0,100.0,-113.0,-6.0,-1034.0,0.0,0.0,0.0
19:37:06.872000,18.0,52.0,91.0,-113.0,-6.0,-1034.0,0.0,0.0,0.0
19:37:06.876000,32.0,46.0,73.0,-120.0,-11.0,-1038.0,0.0,0.0,0.0
19:37:06.881000,46.0,35.0,59.0,-120.0,-11.0,-1038.0,0.0,0.0,0.0
19:37:06.886000,54.0,17.0,49.0,-93.0,-7.0,-1028.0,0.0,0.0,0.0
19:37:06.891000,56.0,-4.0,39.0,-93.0,-7.0,-1028.0,0.0,0.0,0.0
19:37:06.895000,49.0,-30.0,28.0,-43.0,23.0,-1017.0,0.0,0.0,0.0
19:37:06.900000,37.0,-63.0,16.0,-43.0,23.0,-1017.0,0.0,0.0,0.0
19:37:06.905000,25.0,-101.0,8.0,-43.0,23.0,-1017.0,0.0,0.0,0.0
19:37:06.909000,16.0,-140.0,6.0,-9.0,52.0,-1012.0,0.0,0.0,0.0
19:37:06.914000,7.0,-182.0,7.0,-9.0,52.0,-1012.0,0.0,0.0,0.0
19:37:06.919000,0.0,-227.0,-2.0,11.0,53.0,-1008.0,0.0,0.0,0.0
19:37:06.923000,-9.0,-275.0,-23.0,11.0,53.0,-1008.0,0.0,0.0,0.0
19:37:06.928000,-28.0,-331.0,-44.0,31.0,82.0,-1003.0,0.0,0.0,0.0
19:37:06.933000,-58.0,-390.0,-66.0,31.0,82.0,-1003.0,0.0,0.0,0.0
19:37:06.938000,-109.0,-457.0,-93.0,41.0,161.0,-988.0,0.0,0.0,0.0
19:37:06.942000,-182.0,-531.0,-126.0,41.0,161.0,-988.0,0.0,0.0,0.0
19:37:06.947000,-275.0,-619.0,-170.0,51.0,272.0,-959.0,0.0,0.0,0.0
19:37:06.952000,-275.0,-619.0,-170.0,51.0,272.0,-959.0,0.0,0.0,0.0
19:37:06.956000,-385.0,-718.0,-213.0,87.0,395.0,-929.0,0.0,0.0,0.0
19:37:06.961000,-515.0,-832.0,-249.0,87.0,395.0,-929.0,0.0,0.0,0.0
19:37:06.966000,-665.0,-958.0,-276.0,138.0,512.0,-903.0,0.0,0.0,0.0
19:37:06.970000,-833.0,-1094.0,-303.0,138.0,512.0,-903.0,0.0,0.0,0.0
19:37:06.975000,-1008.0,-1240.0,-347.0,165.0,631.0,-877.0,0.0,0.0,0.0
19:37:06.980000,-1187.0,-1396.0,-415.0,165.0,631.0,-877.0,0.0,0.0,0.0
19:37:06.985000,-1366.0,-1557.0,-497.0,180.0,717.0,-842.0,0.0,0.0,0.0
19:37:06.989000,-1546.0,-1716.0,-589.0,180.0,717.0,-842.0,0.0,0.0,0.0
19:37:06.994000,-1725.0,-1870.0,-688.0,181.0,737.0,-795.0,0.0,0.0,0.0
19:37:06.999000,-1901.0,-2022.0,-777.0,181.0,737.0,-795.0,0.0,0.0,0.0
19:37:07.003000,-2071.0,-2169.0,-852.0,129.0,714.0,-744.0,0.0,0.0,0.0
19:37:07.008000,-2231.0,-2307.0,-930.0,129.0,714.0,-744.0,0.0,0.0,0.0
19:37:07.013000,-2386.0,-2430.0,-1017.0,129.0,676.0,-693.0,0.0,0.0,0.0
19:37:07.017000,-2536.0,-2534.0,-1101.0,26.0,676.0,-693.0,0.0,0.0,0.0
19:37:07.022000,-2678.0,-2613.0,-1174.0,26.0,676.0,-693.0,0.0,0.0,0.0
19:37:07.026000,-2816.0,-2664.0,-1248.0,-85.0,632.0,-643.0,0.0,0.0,0.0
19:37:07.032000,-2953.0,-2692.0,-1321.0,-85.0,632.0,-643.0,0.0,0.0,0.0
19:37:07.036000,-3091.0,-2708.0,-1386.0,-240.0,617.0,-597.0,0.0,0.0,0.0
19:37:07.041000,-3218.0,-2712.0,-1436.0,-240.0,617.0,-597.0,0.0,0.0,0.0
19:37:07.046000,-3323.0,-2706.0,-1473.0,-453.0,601.0,-559.0,0.0,0.0,0.0
19:37:07.050000,-3404.0,-2698.0,-1510.0,-453.0,601.0,-559.0,0.0,0.0,0.0
19:37:07.055000,-3455.0,-2690.0,-1548.0,-631.0,475.0,-543.0,0.0,0.0,0.0
19:37:07.060000,-3474.0,-2679.0,-1570.0,-631.0,475.0,-543.0,0.0,0.0,0.0
19:37:07.064000,-3474.0,-2679.0,-1570.0,-693.0,251.0,-547.0,0.0,0.0,0.0
19:37:07.069000,-3464.0,-2663.0,-1586.0,-693.0,251.0,-547.0,0.0,0.0,0.0
19:37:07.074000,-3430.0,-2641.0,-1606.0,-667.0,63.0,-555.0,0.0,0.0,0.0
19:37:07.079000,-3386.0,-2621.0,-1613.0,-667.0,63.0,-555.0,0.0,0.0,0.0
19:37:07.083000,-3332.0,-2608.0,-1590.0,-650.0,-27.0,-551.0,0.0,0.0,0.0
19:37:07.088000,-3264.0,-2596.0,-1554.0,-650.0,-27.0,-551.0,0.0,0.0,0.0
19:37:07.093000,-3185.0,-2591.0,-1513.0,-688.0,-104.0,-536.0,0.0,0.0,0.0
19:37:07.097000,-3098.0,-2594.0,-1469.0,-688.0,-104.0,-536.0,0.0,0.0,0.0
19:37:07.102000,-3002.0,-2590.0,-1430.0,-755.0,-183.0,-512.0,0.0,0.0,0.0
19:37:07.107000,-2907.0,-2585.0,-1398.0,-755.0,-183.0,-512.0,0.0,0.0,0.0
19:37:07.111000,-2815.0,-2580.0,-1353.0,-815.0,-212.0,-484.0,0.0,0.0,0.0
19:37:07.116000,-2726.0,-2580.0,-1308.0,-815.0,-212.0,-484.0,0.0,0.0,0.0
19:37:07.121000,-2649.0,-2583.0,-1290.0,-866.0,-196.0,-444.0,0.0,0.0,0.0
19:37:07.126000,-2578.0,-2576.0,-1290.0,-866.0,-196.0,-444.0,0.0,0.0,0.0
19:37:07.130000,-2521.0,-2576.0,-1283.0,-891.0,-187.0,-375.0,0.0,0.0,0.0
19:37:07.135000,-2466.0,-2573.0,-1253.0,-891.0,-187.0,-375.0,0.0,0.0,0.0
19:37:07.140000,-2409.0,-2564.0,-1226.0,-891.0,-187.0,-375.0,0.0,0.0,0.0
19:37:07.144000,-2352.0,-2564.0,-1221.0,-920.0,-272.0,-280.0,0.0,0.0,0.0
19:37:07.149000,-2312.0,-2564.0,-1253.0,-920.0,-272.0,-280.0,0.0,0.0,0.0
19:37:07.154000,-2329.0,-2361.0,-1582.0,-1139.0,-501.0,-137.0,0.0,0.0,0.0
19:37:07.158000,-2938.0,-2086.0,-1488.0,-1139.0,-501.0,-137.0,0.0,0.0,0.0
19:37:07.163000,-1981.0,-2814.0,959.0,-2025.0,-1221.0,-40.0,0.0,0.0,0.0
19:37:07.168000,-1546.0,-2235.0,266.0,-2025.0,-1221.0,-40.0,0.0,0.0,0.0
19:37:07.173000,-1546.0,-2235.0,266.0,-1043.0,-813.0,-256.0,0.0,0.0,0.0
19:37:07.177000,-1830.0,-2064.0,-1560.0,-1043.0,-813.0,-256.0,0.0,0.0,0.0
19:37:07.182000,-2047.0,-2004.0,-2343.0,1210.0,449.0,-138.0,0.0,0.0,0.0
19:37:07.187000,-2140.0,-2025.0,-2175.0,1210.0,449.0,-138.0,0.0,0.0,0.0
19:37:07.191000,-2087.0,-2013.0,-1852.0,1213.0,255.0,197.0,0.0,0.0,0.0
19:37:07.196000,-1970.0,-1960.0,-1653.0,1213.0,255.0,197.0,0.0,0.0,0.0
19:37:07.201000,-1792.0,-1926.0,-1563.0,-183.0,-457.0,105.0,0.0,0.0,0.0
19:37:07.205000,-1693.0,-1881.0,-1509.0,-183.0,-457.0,105.0,0.0,0.0,0.0
19:37:07.210000,-1584.0,-1889.0,-1497.0,-1477.0,-760.0,-68.0,0.0,0.0,0.0
19:37:07.215000,-1477.0,-1904.0,-1488.0,-1477.0,-760.0,-68.0,0.0,0.0,0.0
19:37:07.220000,-1365.0,-1943.0,-1348.0,-1964.0,-891.0,-233.0,0.0,0.0,0.0
19:37:07.224000,-1259.0,-1962.0,-1135.0,-1964.0,-891.0,-233.0,0.0,0.0,0.0
19:37:07.229000,-1176.0,-1990.0,-977.0,-1708.0,-909.0,-348.0,0.0,0.0,0.0
19:37:07.234000,-1066.0,-2011.0,-914.0,-1708.0,-909.0,-348.0,0.0,0.0,0.0
19:37:07.238000,-965.0,-2019.0,-915.0,-1708.0,-909.0,-348.0,0.0,0.0,0.0
19:37:07.243000,-863.0,-2030.0,-900.0,-1234.0,-817.0,-382.0,0.0,0.0,0.0
19:37:07.248000,-739.0,-2025.0,-857.0,-1234.0,-817.0,-382.0,0.0,0.0,0.0
19:37:07.252000,-662.0,-2006.0,-823.0,-928.0,-720.0,-343.0,0.0,0.0,0.0
19:37:07.257000,-588.0,-1994.0,-833.0,-928.0,-720.0,-343.0,0.0,0.0,0.0
19:37:07.262000,-560.0,-1979.0,-848.0,-764.0,-552.0,-251.0,0.0,0.0,0.0
19:37:07.266000,-546.0,-1959.0,-833.0,-764.0,-552.0,-251.0,0.0,0.0,0.0
19:37:07.271000,-564.0,-1928.0,-800.0,-662.0,-332.0,-136.0,0.0,0.0,0.0
19:37:07.276000,-606.0,-1906.0,-762.0,-662.0,-332.0,-136.0,0.0,0.0,0.0
19:37:07.281000,-606.0,-1906.0,-762.0,-704.0,-123.0,-35.0,0.0,0.0,0.0
19:37:07.285000,-613.0,-1876.0,-774.0,-704.0,-123.0,-35.0,0.0,0.0,0.0
19:37:07.290000,-646.0,-1842.0,-793.0,-859.0,-24.0,32.0,0.0,0.0,0.0
19:37:07.295000,-679.0,-1806.0,-767.0,-859.0,-24.0,32.0,0.0,0.0,0.0
19:37:07.299000,-707.0,-1759.0,-715.0,-985.0,-72.0,66.0,0.0,0.0,0.0
19:37:07.303000,-693.0,-1720.0,-726.0,-985.0,-72.0,66.0,0.0,0.0,0.0
19:37:07.309000,-662.0,-1673.0,-774.0,-1072.0,-38.0,83.0,0.0,0.0,0.0
19:37:07.313000,-623.0,-1635.0,-779.0,-1072.0,-38.0,83.0,0.0,0.0,0.0
19:37:07.318000,-543.0,-1603.0,-686.0,-1070.0,-137.0,89.0,0.0,0.0,0.0
19:37:07.323000,-491.0,-1547.0,-527.0,-1070.0,-137.0,89.0,0.0,0.0,0.0
19:37:07.328000,-476.0,-1485.0,-441.0,-1151.0,-304.0,93.0,0.0,0.0,0.0
19:37:07.332000,-427.0,-1435.0,-434.0,-1151.0,-304.0,93.0,0.0,0.0,0.0
19:37:07.337000,-357.0,-1366.0,-294.0,-1353.0,-323.0,106.0,0.0,0.0,0.0
19:37:07.342000,-290.0,-1315.0,-72.0,-1353.0,-323.0,106.0,0.0,0.0,0.0
19:37:07.346000,-300.0,-1204.0,-105.0,-1353.0,-323.0,106.0,0.0,0.0,0.0
19:37:07.351000,-274.0,-1124.0,-35.0,-1445.0,-325.0,132.0,0.0,0.0,0.0
19:37:07.356000,-217.0,-1025.0,-30.0,-1445.0,-325.0,132.0,0.0,0.0,0.0
19:37:07.360000,-175.0,-935.0,-111.0,-1388.0,-269.0,169.0,0.0,0.0,0.0
19:37:07.365000,-165.0,-851.0,-202.0,-1388.0,-269.0,169.0,0.0,0.0,0.0
19:37:07.370000,-129.0,-780.0,-240.0,-1200.0,-147.0,210.0,0.0,0.0,0.0
19:37:07.375000,-118.0,-710.0,-266.0,-1200.0,-147.0,210.0,0.0,0.0,0.0
19:37:07.379000,-105.0,-648.0,-277.0,-1078.0,-77.0,250.0,0.0,0.0,0.0
19:37:07.384000,-91.0,-593.0,-269.0,-1078.0,-77.0,250.0,0.0,0.0,0.0
19:37:07.389000,-91.0,-593.0,-269.0,-1119.0,-137.0,271.0,0.0,0.0,0.0
19:37:07.393000,-64.0,-536.0,-248.0,-1119.0,-137.0,271.0,0.0,0.0,0.0
19:37:07.398000,-46.0,-485.0,-254.0,-1159.0,-152.0,290.0,0.0,0.0,0.0
19:37:07.403000,-28.0,-436.0,-254.0,-1159.0,-152.0,290.0,0.0,0.0,0.0
19:37:07.407000,-16.0,-391.0,-250.0,-1109.0,-64.0,322.0,0.0,0.0,0.0
19:37:07.412000,-38.0,-352.0,-261.0,-1109.0,-64.0,322.0,0.0,0.0,0.0
19:37:07.417000,-86.0,-315.0,-258.0,-1030.0,-50.0,364.0,0.0,0.0,0.0
19:37:07.422000,-128.0,-282.0,-247.0,-1030.0,-50.0,364.0,0.0,0.0,0.0
19:37:07.426000,-146.0,-246.0,-248.0,-982.0,-98.0,393.0,0.0,0.0,0.0
19:37:07.431000,-166.0,-214.0,-271.0,-982.0,-98.0,393.0,0.0,0.0,0.0
19:37:07.436000,-196.0,-182.0,-309.0,-956.0,-72.0,413.0,0.0,0.0,0.0
19:37:07.440000,-235.0,-154.0,-340.0,-956.0,-72.0,413.0,0.0,0.0,0.0
19:37:07.445000,-273.0,-123.0,-368.0,-931.0,-43.0,434.0,0.0,0.0,0.0
19:37:07.450000,-298.0,-88.0,-384.0,-931.0,-43.0,434.0,0.0,0.0,0.0
19:37:07.454000,-326.0,-54.0,-392.0,-937.0,-86.0,441.0,0.0,0.0,0.0
19:37:07.459000,-357.0,-13.0,-410.0,-937.0,-86.0,441.0,0.0,0.0,0.0
19:37:07.464000,-375.0,30.0,-429.0,-937.0,-86.0,441.0,0.0,0.0,0.0
19:37:07.469000,-387.0,75.0,-449.0,-973.0,-101.0,441.0,0.0,0.0,0.0
19:37:07.473000,-390.0,113.0,-448.0,-973.0,-101.0,441.0,0.0,0.0,0.0
19:37:07.478000,-394.0,147.0,-453.0,-989.0,-59.0,442.0,0.0,0.0,0.0
19:37:07.483000,-406.0,184.0,-462.0,-989.0,-59.0,442.0,0.0,0.0,0.0
19:37:07.487000,-392.0,225.0,-438.0,-985.0,-46.0,438.0,0.0,0.0,0.0
19:37:07.492000,-387.0,261.0,-386.0,-985.0,-46.0,438.0,0.0,0.0,0.0
19:37:07.497000,-390.0,290.0,-352.0,-978.0,-31.0,426.0,0.0,0.0,0.0
19:37:07.501000,-390.0,290.0,-352.0,-978.0,-31.0,426.0,0.0,0.0,0.0
19:37:07.506000,-396.0,315.0,-328.0,-1024.0,4.0,413.0,0.0,0.0,0.0
19:37:07.511000,-420.0,336.0,-310.0,-1024.0,4.0,413.0,0.0,0.0,0.0
19:37:07.516000,-429.0,355.0,-324.0,-1110.0,47.0,398.0,0.0,0.0,0.0
19:37:07.520000,-436.0,375.0,-340.0,-1110.0,47.0,398.0,0.0,0.0,0.0
19:37:07.525000,-452.0,388.0,-333.0,-1090.0,67.0,393.0,0.0,0.0,0.0
19:37:07.530000,-468.0,400.0,-256.0,-1090.0,67.0,393.0,0.0,0.0,0.0
19:37:07.534000,-495.0,410.0,-156.0,-1004.0,54.0,392.0,0.0,0.0,0.0
19:37:07.538000,-529.0,414.0,-112.0,-1004.0,54.0,392.0,0.0,0.0,0.0
19:37:07.544000,-548.0,420.0,-94.0,-973.0,67.0,376.0,0.0,0.0,0.0
19:37:07.548000,-562.0,428.0,-97.0,-973.0,67.0,376.0,0.0,0.0,0.0
19:37:07.553000,-562.0,447.0,-94.0,-926.0,68.0,354.0,0.0,0.0,0.0
19:37:07.558000,-569.0,450.0,-42.0,-926.0,68.0,354.0,0.0,0.0,0.0
19:37:07.563000,-581.0,424.0,19.0,-926.0,68.0,354.0,0.0,0.0,0.0
19:37:07.567000,-560.0,431.0,94.0,-861.0,26.0,344.0,0.0,0.0,0.0
19:37:07.572000,-562.0,449.0,135.0,-831.0,-24.0,343.0,0.0,0.0,0.0
19:37:07.577000,-548.0,425.0,140.0,-831.0,-24.0,343.0,0.0,0.0,0.0
19:37:07.581000,-416.0,401.0,147.0,-831.0,-24.0,343.0,0.0,0.0,0.0
19:37:07.586000,-434.0,407.0,244.0,-832.0,-70.0,310.0,0.0,0.0,0.0
19:37:07.591000,-365.0,382.0,343.0,-832.0,-70.0,310.0,0.0,0.0,0.0
19:37:07.595000,-336.0,346.0,443.0,-833.0,-110.0,286.0,0.0,0.0,0.0
19:37:07.600000,-262.0,331.0,530.0,-833.0,-110.0,286.0,0.0,0.0,0.0
19:37:07.605000,-198.0,319.0,557.0,-863.0,-117.0,275.0,0.0,0.0,0.0
19:37:07.610000,-198.0,319.0,557.0,-863.0,-117.0,275.0,0.0,0.0,0.0
19:37:07.614000,-147.0,275.0,546.0,-908.0,-97.0,261.0,0.0,0.0,0.0
19:37:07.619000,-77.0,246.0,618.0,-908.0,-97.0,261.0,0.0,0.0,0.0
19:37:07.624000,-2.0,230.0,772.0,-856.0,-168.0,262.0,0.0,0.0,0.0
19:37:07.628000,90.0,214.0,865.0,-856.0,-168.0,262.0,0.0,0.0,0.0
19:37:07.633000,178.0,212.0,839.0,-817.0,-179.0,252.0,0.0,0.0,0.0
19:37:07.638000,256.0,200.0,798.0,-817.0,-179.0,252.0,0.0,0.0,0.0
19:37:07.642000,333.0,172.0,785.0,-785.0,-130.0,257.0,0.0,0.0,0.0
19:37:07.647000,412.0,169.0,894.0,-785.0,-130.0,257.0,0.0,0.0,0.0
19:37:07.652000,477.0,173.0,1028.0,-734.0,-143.0,272.0,0.0,0.0,0.0
19:37:07.657000,546.0,189.0,1082.0,-734.0,-143.0,272.0,0.0,0.0,0.0
19:37:07.661000,598.0,207.0,1059.0,-778.0,-99.0,301.0,0.0,0.0,0.0
19:37:07.666000,630.0,217.0,1084.0,-778.0,-99.0,301.0,0.0,0.0,0.0
19:37:07.671000,639.0,242.0,1187.0,-778.0,-99.0,301.0,0.0,0.0,0.0
19:37:07.675000,634.0,283.0,1270.0,-768.0,-91.0,354.0,0.0,0.0,0.0
19:37:07.680000,658.0,331.0,1258.0,-768.0,-91.0,354.0,0.0,0.0,0.0
19:37:07.685000,643.0,376.0,1261.0,-789.0,-53.0,389.0,0.0,0.0,0.0
19:37:07.689000,629.0,417.0,1311.0,-789.0,-53.0,389.0,0.0,0.0,0.0
19:37:07.694000,636.0,480.0,1267.0,-902.0,-26.0,409.0,0.0,0.0,0.0
19:37:07.699000,624.0,539.0,1200.0,-902.0,-26.0,409.0,0.0,0.0,0.0
19:37:07.704000,623.0,600.0,1176.0,-987.0,-56.0,420.0,0.0,0.0,0.0
19:37:07.708000,627.0,658.0,1168.0,-987.0,-56.0,420.0,0.0,0.0,0.0
19:37:07.713000,628.0,723.0,1163.0,-1034.0,-68.0,412.0,0.0,0.0,0.0
19:37:07.718000,628.0,723.0,1163.0,-1034.0,-68.0,412.0,0.0,0.0,0.0
19:37:07.722000,666.0,767.0,1178.0,-1062.0,-131.0,398.0,0.0,0.0,0.0
19:37:07.727000,694.0,830.0,1139.0,-1062.0,-131.0,398.0,0.0,0.0,0.0
19:37:07.732000,751.0,875.0,1069.0,-1108.0,-183.0,381.0,0.0,0.0,0.0
19:37:07.736000,785.0,936.0,1017.0,-1108.0,-183.0,381.0,0.0,0.0,0.0
19:37:07.741000,816.0,998.0,968.0,-1127.0,-203.0,361.0,0.0,0.0,0.0
19:37:07.746000,847.0,1060.0,933.0,-1127.0,-203.0,361.0,0.0,0.0,0.0
19:37:07.751000,872.0,1116.0,922.0,-1108.0,-188.0,347.0,0.0,0.0,0.0
19:37:07.755000,881.0,1155.0,901.0,-1108.0,-188.0,347.0,0.0,0.0,0.0
19:37:07.760000,898.0,1208.0,879.0,-1082.0,-143.0,328.0,0.0,0.0,0.0
19:37:07.765000,914.0,1249.0,844.0,-1082.0,-143.0,328.0,0.0,0.0,0.0
19:37:07.769000,924.0,1292.0,801.0,-1059.0,-125.0,302.0,0.0,0.0,0.0
19:37:07.773000,942.0,1328.0,763.0,-1059.0,-125.0,302.0,0.0,0.0,0.0
19:37:07.779000,965.0,1358.0,747.0,-1059.0,-165.0,273.0,0.0,0.0,0.0
19:37:07.783000,992.0,1387.0,751.0,-993.0,-165.0,273.0,0.0,0.0,0.0
19:37:07.788000,1029.0,1416.0,732.0,-993.0,-165.0,273.0,0.0,0.0,0.0
19:37:07.793000,1071.0,1451.0,693.0,-929.0,-214.0,234.0,0.0,0.0,0.0
19:37:07.798000,1106.0,1488.0,690.0,-929.0,-214.0,234.0,0.0,0.0,0.0
19:37:07.802000,1146.0,1529.0,705.0,-906.0,-245.0,186.0,0.0,0.0,0.0
19:37:07.807000,1191.0,1573.0,723.0,-906.0,-245.0,186.0,0.0,0.0,0.0
19:37:07.812000,1236.0,1621.0,730.0,-940.0,-266.0,131.0,0.0,0.0,0.0
19:37:07.816000,1276.0,1670.0,738.0,-940.0,-266.0,131.0,0.0,0.0,0.0
19:37:07.821000,1311.0,1723.0,744.0,-1009.0,-270.0,75.0,0.0,0.0,0.0
19:37:07.826000,1341.0,1780.0,749.0,-1009.0,-270.0,75.0,0.0,0.0,0.0
19:37:07.830000,1341.0,1780.0,749.0,-1048.0,-257.0,24.0,0.0,0.0,0.0
19:37:07.835000,1361.0,1835.0,761.0,-1048.0,-257.0,24.0,0.0,0.0,0.0
19:37:07.840000,1362.0,1886.0,777.0,-1046.0,-209.0,-16.0,0.0,0.0,0.0
19:37:07.845000,1348.0,1930.0,781.0,-1046.0,-209.0,-16.0,0.0,0.0,0.0
19:37:07.849000,1317.0,1969.0,773.0,-1027.0,-126.0,-51.0,0.0,0.0,0.0
19:37:07.854000,1267.0,1999.0,777.0,-1027.0,-126.0,-51.0,0.0,0.0,0.0
19:37:07.859000,1200.0,2022.0,791.0,-978.0,-36.0,-90.0,0.0,0.0,0.0
19:37:07.863000,1119.0,2038.0,798.0,-978.0,-36.0,-90.0,0.0,0.0,0.0
19:37:07.868000,1029.0,2042.0,805.0,-885.0,1.0,-141.0,0.0,0.0,0.0
19:37:07.873000,936.0,2031.0,827.0,-885.0,1.0,-141.0,0.0,0.0,0.0
19:37:07.877000,841.0,2006.0,856.0,-809.0,-35.0,-203.0,0.0,0.0,0.0
19:37:07.882000,742.0,1964.0,901.0,-809.0,-35.0,-203.0,0.0,0.0,0.0
19:37:07.887000,653.0,1911.0,961.0,-752.0,-109.0,-263.0,0.0,0.0,0.0
19:37:07.892000,578.0,1846.0,1012.0,-752.0,-109.0,-263.0,0.0,0.0,0.0
19:37:07.896000,523.0,1769.0,1043.0,-752.0,-109.0,-263.0,0.0,0.0,0.0
19:37:07.901000,480.0,1687.0,1059.0,-695.0,-234.0,-321.0,0.0,0.0,0.0
19:37:07.906000,455.0,1598.0,1054.0,-695.0,-234.0,-321.0,0.0,0.0,0.0
19:37:07.910000,439.0,1501.0,1020.0,-644.0,-397.0,-389.0,0.0,0.0,0.0
19:37:07.915000,427.0,1399.0,977.0,-644.0,-397.0,-389.0,0.0,0.0,0.0
19:37:07.920000,427.0,1295.0,933.0,-604.0,-514.0,-455.0,0.0,0.0,0.0
19:37:07.924000,427.0,1295.0,933.0,-604.0,-514.0,-455.0,0.0,0.0,0.0
19:37:07.929000,445.0,1097.0,840.0,-567.0,-569.0,-501.0,0.0,0.0,0.0
19:37:07.934000,450.0,1008.0,760.0,-567.0,-569.0,-501.0,0.0,0.0,0.0
19:37:07.939000,450.0,1008.0,760.0,-552.0,-557.0,-515.0,0.0,0.0,0.0
19:37:07.943000,445.0,931.0,684.0,-552.0,-557.0,-515.0,0.0,0.0,0.0
19:37:07.948000,438.0,870.0,627.0,-593.0,-506.0,-505.0,0.0,0.0,0.0
19:37:07.953000,422.0,824.0,564.0,-593.0,-506.0,-505.0,0.0,0.0,0.0
19:37:07.957000,394.0,791.0,472.0,-733.0,-408.0,-506.0,0.0,0.0,0.0
19:37:07.962000,345.0,764.0,358.0,-733.0,-408.0,-506.0,0.0,0.0,0.0
19:37:07.967000,274.0,735.0,249.0,-902.0,-231.0,-502.0,0.0,0.0,0.0
19:37:07.971000,186.0,699.0,163.0,-902.0,-231.0,-502.0,0.0,0.0,0.0
19:37:07.976000,95.0,659.0,114.0,-966.0,-129.0,-481.0,0.0,0.0,0.0
19:37:07.981000,9.0,615.0,79.0,-966.0,-129.0,-481.0,0.0,0.0,0.0
19:37:07.986000,-81.0,563.0,42.0,-937.0,-161.0,-445.0,0.0,0.0,0.0
19:37:07.990000,-174.0,510.0,-4.0,-937.0,-161.0,-445.0,0.0,0.0,0.0
19:37:07.995000,-261.0,478.0,-50.0,-873.0,-216.0,-435.0,0.0,0.0,0.0
19:37:08.000000,-345.0,462.0,-81.0,-873.0,-216.0,-435.0,0.0,0.0,0.0
19:37:08.004000,-438.0,443.0,-74.0,-873.0,-216.0,-435.0,0.0,0.0,0.0
19:37:08.008000,-535.0,426.0,-67.0,-861.0,-201.0,-451.0,0.0,0.0,0.0
19:37:08.014000,-634.0,406.0,-66.0,-861.0,-201.0,-451.0,0.0,0.0,0.0
19:37:08.018000,-730.0,380.0,-51.0,-915.0,-136.0,-451.0,0.0,0.0,0.0
19:37:08.023000,-818.0,351.0,-43.0,-915.0,-136.0,-451.0,0.0,0.0,0.0
19:37:08.028000,-903.0,318.0,-51.0,-907.0,-146.0,-443.0,0.0,0.0,0.0
19:37:08.033000,-976.0,293.0,-73.0,-907.0,-146.0,-443.0,0.0,0.0,0.0
19:37:08.037000,-1034.0,279.0,-107.0,-787.0,-239.0,-429.0,0.0,0.0,0.0
19:37:08.042000,-1092.0,253.0,-151.0,-787.0,-239.0,-429.0,0.0,0.0,0.0
19:37:08.047000,-1092.0,253.0,-151.0,-668.0,-330.0,-407.0,0.0,0.0,0.0
19:37:08.051000,-1138.0,238.0,-221.0,-668.0,-330.0,-407.0,0.0,0.0,0.0
19:37:08.056000,-1168.0,229.0,-299.0,-637.0,-411.0,-393.0,0.0,0.0,0.0
19:37:08.061000,-1182.0,206.0,-364.0,-637.0,-411.0,-393.0,0.0,0.0,0.0
19:37:08.065000,-1188.0,172.0,-422.0,-624.0,-488.0,-383.0,0.0,0.0,0.0
19:37:08.070000,-1172.0,151.0,-458.0,-624.0,-488.0,-383.0,0.0,0.0,0.0
19:37:08.075000,-1145.0,127.0,-466.0,-575.0,-516.0,-378.0,0.0,0.0,0.0
19:37:08.080000,-1127.0,100.0,-455.0,-575.0,-516.0,-378.0,0.0,0.0,0.0
19:37:08.084000,-1114.0,60.0,-446.0,-544.0,-482.0,-366.0,0.0,0.0,0.0
19:37:08.089000,-1092.0,29.0,-453.0,-544.0,-482.0,-366.0,0.0,0.0,0.0
19:37:08.094000,-1054.0,-14.0,-431.0,-541.0,-525.0,-362.0,0.0,0.0,0.0
19:37:08.098000,-996.0,-63.0,-373.0,-541.0,-525.0,-362.0,0.0,0.0,0.0
19:37:08.103000,-923.0,-96.0,-307.0,-606.0,-702.0,-360.0,0.0,0.0,0.0
19:37:08.108000,-831.0,-115.0,-255.0,-606.0,-702.0,-360.0,0.0,0.0,0.0
19:37:08.112000,-739.0,-122.0,-233.0,-606.0,-702.0,-360.0,0.0,0.0,0.0
19:37:08.117000,-682.0,-135.0,-237.0,-641.0,-765.0,-340.0,0.0,0.0,0.0
19:37:08.122000,-647.0,-151.0,-234.0,-641.0,-765.0,-340.0,0.0,0.0,0.0
19:37:08.127000,-619.0,-173.0,-270.0,-546.0,-571.0,-327.0,0.0,0.0,0.0
19:37:08.131000,-590.0,-193.0,-331.0,-546.0,-571.0,-327.0,0.0,0.0,0.0
19:37:08.136000,-556.0,-213.0,-359.0,-480.0,-398.0,-313.0,0.0,0.0,0.0
19:37:08.141000,-525.0,-235.0,-374.0,-480.0,-398.0,-313.0,0.0,0.0,0.0
19:37:08.145000,-495.0,-247.0,-394.0,-503.0,-421.0,-306.0,0.0,0.0,0.0
19:37:08.150000,-473.0,-261.0,-432.0,-503.0,-421.0,-306.0,0.0,0.0,0.0
19:37:08.155000,-473.0,-261.0,-432.0,-599.0,-461.0,-300.0,0.0,0.0,0.0
19:37:08.159000,-464.0,-280.0,-459.0,-599.0,-461.0,-300.0,0.0,0.0,0.0
19:37:08.164000,-460.0,-296.0,-473.0,-667.0,-453.0,-292.0,0.0,0.0,0.0
19:37:08.169000,-464.0,-318.0,-497.0,-667.0,-453.0,-292.0,0.0,0.0,0.0
19:37:08.174000,-470.0,-319.0,-504.0,-686.0,-464.0,-267.0,0.0,0.0,0.0
19:37:08.178000,-461.0,-295.0,-462.0,-686.0,-464.0,-267.0,0.0,0.0,0.0
19:37:08.183000,-456.0,-282.0,-394.0,-641.0,-466.0,-258.0,0.0,0.0,0.0
19:37:08.188000,-476.0,-296.0,-352.0,-641.0,-466.0,-258.0,0.0,0.0,0.0
19:37:08.192000,-505.0,-321.0,-375.0,-551.0,-362.0,-261.0,0.0,0.0,0.0
19:37:08.197000,-525.0,-340.0,-425.0,-551.0,-362.0,-261.0,0.0,0.0,0.0
19:37:08.202000,-526.0,-354.0,-434.0,-531.0,-336.0,-261.0,0.0,0.0,0.0
19:37:08.206000,-506.0,-365.0,-389.0,-531.0,-336.0,-261.0,0.0,0.0,0.0
19:37:08.211000,-478.0,-363.0,-331.0,-575.0,-481.0,-269.0,0.0,0.0,0.0
19:37:08.216000,-432.0,-338.0,-317.0,-575.0,-481.0,-269.0,0.0,0.0,0.0
19:37:08.221000,-392.0,-324.0,-337.0,-575.0,-481.0,-269.0,0.0,0.0,0.0
19:37:08.225000,-360.0,-319.0,-356.0,-634.0,-555.0,-280.0,0.0,0.0,0.0
19:37:08.230000,-378.0,-329.0,-419.0,-634.0,-555.0,-280.0,0.0,0.0,0.0
19:37:08.235000,-369.0,-335.0,-449.0,-632.0,-520.0,-287.0,0.0,0.0,0.0
19:37:08.239000,-345.0,-340.0,-389.0,-632.0,-520.0,-287.0,0.0,0.0,0.0
19:37:08.243000,-353.0,-335.0,-359.0,-676.0,-547.0,-285.0,0.0,0.0,0.0
19:37:08.249000,-312.0,-308.0,-382.0,-676.0,-547.0,-285.0,0.0,0.0,0.0
19:37:08.253000,-276.0,-304.0,-435.0,-750.0,-637.0,-299.0,0.0,0.0,0.0
19:37:08.258000,-256.0,-313.0,-461.0,-750.0,-637.0,-299.0,0.0,0.0,0.0
19:37:08.263000,-246.0,-333.0,-503.0,-678.0,-600.0,-299.0,0.0,0.0,0.0
19:37:08.268000,-246.0,-333.0,-503.0,-678.0,-600.0,-299.0,0.0,0.0,0.0
19:37:08.272000,-235.0,-355.0,-543.0,-602.0,-496.0,-280.0,0.0,0.0,0.0
19:37:08.277000,-219.0,-375.0,-555.0,-602.0,-496.0,-280.0,0.0,0.0,0.0
19:37:08.282000,-195.0,-394.0,-557.0,-666.0,-528.0,-263.0,0.0,0.0,0.0
19:37:08.286000,-160.0,-401.0,-561.0,-666.0,-528.0,-263.0,0.0,0.0,0.0
19:37:08.291000,-130.0,-405.0,-554.0,-716.0,-609.0,-251.0,0.0,0.0,0.0
19:37:08.296000,-110.0,-404.0,-556.0,-716.0,-609.0,-251.0,0.0,0.0,0.0
19:37:08.300000,-93.0,-399.0,-551.0,-669.0,-619.0,-245.0,0.0,0.0,0.0
19:37:08.305000,-77.0,-392.0,-570.0,-669.0,-619.0,-245.0,0.0,0.0,0.0
19:37:08.310000,-71.0,-385.0,-599.0,-623.0,-588.0,-241.0,0.0,0.0,0.0
19:37:08.315000,-65.0,-377.0,-610.0,-623.0,-588.0,-241.0,0.0,0.0,0.0
19:37:08.319000,-57.0,-363.0,-595.0,-626.0,-595.0,-236.0,0.0,0.0,0.0
19:37:08.324000,-50.0,-352.0,-564.0,-626.0,-595.0,-236.0,0.0,0.0,0.0
19:37:08.329000,-39.0,-333.0,-539.0,-626.0,-595.0,-236.0,0.0,0.0,0.0
19:37:08.333000,-33.0,-320.0,-535.0,-643.0,-624.0,-234.0,0.0,0.0,0.0
19:37:08.338000,-41.0,-322.0,-545.0,-643.0,-624.0,-234.0,0.0,0.0,0.0
19:37:08.343000,-53.0,-332.0,-525.0,-653.0,-552.0,-229.0,0.0,0.0,0.0
19:37:08.347000,-58.0,-330.0,-467.0,-653.0,-552.0,-229.0,0.0,0.0,0.0
19:37:08.352000,-58.0,-323.0,-403.0,-692.0,-473.0,-222.0,0.0,0.0,0.0
19:37:08.357000,-50.0,-326.0,-364.0,-692.0,-473.0,-222.0,0.0,0.0,0.0
19:37:08.362000,-44.0,-327.0,-350.0,-757.0,-487.0,-233.0,0.0,0.0,0.0
19:37:08.366000,-28.0,-326.0,-359.0,-757.0,-487.0,-233.0,0.0,0.0,0.0
19:37:08.370000,-28.0,-326.0,-359.0,-795.0,-492.0,-249.0,0.0,0.0,0.0
19:37:08.376000,-19.0,-327.0,-347.0,-795.0,-492.0,-249.0,0.0,0.0,0.0
19:37:08.380000,-16.0,-329.0,-320.0,-810.0,-473.0,-256.0,0.0,0.0,0.0
19:37:08.385000,-9.0,-326.0,-301.0,-810.0,-473.0,-256.0,0.0,0.0,0.0
19:37:08.390000,-4.0,-331.0,-301.0,-841.0,-478.0,-262.0,0.0,0.0,0.0
19:37:08.394000,8.0,-331.0,-335.0,-841.0,-478.0,-262.0,0.0,0.0,0.0
19:37:08.399000,14.0,-331.0,-366.0,-839.0,-487.0,-265.0,0.0,0.0,0.0
19:37:08.404000,32.0,-331.0,-396.0,-839.0,-487.0,-265.0,0.0,0.0,0.0
19:37:08.409000,35.0,-337.0,-406.0,-786.0,-490.0,-269.0,0.0,0.0,0.0
19:37:08.413000,52.0,-339.0,-440.0,-786.0,-490.0,-269.0,0.0,0.0,0.0
19:37:08.418000,61.0,-344.0,-467.0,-768.0,-484.0,-278.0,0.0,0.0,0.0
19:37:08.423000,73.0,-345.0,-495.0,-768.0,-484.0,-278.0,0.0,0.0,0.0
19:37:08.427000,74.0,-343.0,-494.0,-794.0,-459.0,-287.0,0.0,0.0,0.0
19:37:08.432000,69.0,-345.0,-486.0,-794.0,-459.0,-287.0,0.0,0.0,0.0
19:37:08.437000,70.0,-342.0,-479.0,-794.0,-459.0,-287.0,0.0,0.0,0.0
19:37:08.441000,65.0,-346.0,-480.0,-830.0,-430.0,-304.0,0.0,0.0,0.0
19:37:08.446000,66.0,-346.0,-480.0,-830.0,-430.0,-304.0,0.0,0.0,0.0
19:37:08.451000,61.0,-354.0,-481.0,-866.0,-409.0,-323.0,0.0,0.0,0.0
19:37:08.456000,62.0,-357.0,-467.0,-866.0,-409.0,-323.0,0.0,0.0,0.0
19:37:08.460000,63.0,-369.0,-438.0,-860.0,-412.0,-332.0,0.0,0.0,0.0
19:37:08.465000,67.0,-373.0,-419.0,-860.0,-412.0,-332.0,0.0,0.0,0.0
19:37:08.470000,59.0,-375.0,-443.0,-846.0,-407.0,-334.0,0.0,0.0,0.0
19:37:08.474000,52.0,-354.0,-486.0,-846.0,-407.0,-334.0,0.0,0.0,0.0
19:37:08.478000,52.0,-354.0,-486.0,-896.0,-389.0,-341.0,0.0,0.0,0.0
19:37:08.484000,46.0,-354.0,-505.0,-896.0,-389.0,-341.0,0.0,0.0,0.0
19:37:08.488000,51.0,-352.0,-451.0,-949.0,-408.0,-343.0,0.0,0.0,0.0
19:37:08.493000,54.0,-359.0,-371.0,-949.0,-408.0,-343.0,0.0,0.0,0.0
19:37:08.498000,67.0,-349.0,-381.0,-981.0,-426.0,-346.0,0.0,0.0,0.0
19:37:08.503000,82.0,-347.0,-424.0,-981.0,-426.0,-346.0,0.0,0.0,0.0
19:37:08.507000,95.0,-338.0,-419.0,-992.0,-421.0,-356.0,0.0,0.0,0.0
19:37:08.512000,100.0,-344.0,-378.0,-992.0,-421.0,-356.0,0.0,0.0,0.0
19:37:08.517000,95.0,-357.0,-345.0,-957.0,-384.0,-348.0,0.0,0.0,0.0
19:37:08.521000,106.0,-358.0,-373.0,-957.0,-384.0,-348.0,0.0,0.0,0.0
19:37:08.526000,94.0,-362.0,-427.0,-970.0,-327.0,-326.0,0.0,0.0,0.0
19:37:08.531000,74.0,-364.0,-474.0,-970.0,-327.0,-326.0,0.0,0.0,0.0
19:37:08.535000,110.0,-350.0,-499.0,-1023.0,-332.0,-331.0,0.0,0.0,0.0
19:37:08.540000,97.0,-349.0,-527.0,-1023.0,-332.0,-331.0,0.0,0.0,0.0
19:37:08.545000,114.0,-347.0,-541.0,-1023.0,-357.0,-329.0,0.0,0.0,0.0
19:37:08.550000,110.0,-352.0,-555.0,-1056.0,-357.0,-329.0,0.0,0.0,0.0
19:37:08.554000,123.0,-350.0,-535.0,-1056.0,-357.0,-329.0,0.0,0.0,0.0
19:37:08.559000,137.0,-349.0,-492.0,-1048.0,-355.0,-301.0,0.0,0.0,0.0
19:37:08.564000,153.0,-357.0,-458.0,-1048.0,-355.0,-301.0,0.0,0.0,0.0
19:37:08.568000,165.0,-371.0,-462.0,-1028.0,-365.0,-284.0,0.0,0.0,0.0
19:37:08.573000,152.0,-370.0,-452.0,-1028.0,-365.0,-284.0,0.0,0.0,0.0
19:37:08.578000,144.0,-378.0,-433.0,-1026.0,-354.0,-264.0,0.0,0.0,0.0
19:37:08.582000,151.0,-385.0,-403.0,-1026.0,-354.0,-264.0,0.0,0.0,0.0
19:37:08.587000,137.0,-392.0,-393.0,-984.0,-330.0,-241.0,0.0,0.0,0.0
19:37:08.592000,135.0,-404.0,-396.0,-984.0,-330.0,-241.0,0.0,0.0,0.0
19:37:08.597000,135.0,-404.0,-396.0,-973.0,-287.0,-218.0,0.0,0.0,0.0
19:37:08.601000,119.0,-413.0,-388.0,-973.0,-287.0,-218.0,0.0,0.0,0.0
19:37:08.606000,46.0,-416.0,-366.0,-1010.0,-255.0,-193.0,0.0,0.0,0.0
19:37:08.611000,42.0,-430.0,-348.0,-1010.0,-255.0,-193.0,0.0,0.0,0.0
19:37:08.615000,11.0,-444.0,-352.0,-1031.0,-231.0,-170.0,0.0,0.0,0.0
19:37:08.620000,-5.0,-457.0,-359.0,-1031.0,-231.0,-170.0,0.0,0.0,0.0
19:37:08.625000,-28.0,-474.0,-357.0,-1028.0,-219.0,-159.0,0.0,0.0,0.0
19:37:08.629000,-57.0,-490.0,-343.0,-1028.0,-219.0,-159.0,0.0,0.0,0.0
19:37:08.634000,-66.0,-497.0,-358.0,-1016.0,-234.0,-167.0,0.0,0.0,0.0
19:37:08.639000,-93.0,-507.0,-389.0,-1016.0,-234.0,-167.0,0.0,0.0,0.0
19:37:08.644000,-119.0,-521.0,-389.0,-1003.0,-192.0,-180.0,0.0,0.0,0.0
19:37:08.648000,-140.0,-530.0,-399.0,-1003.0,-192.0,-180.0,0.0,0.0,0.0
19:37:08.653000,-158.0,-540.0,-396.0,-1001.0,-126.0,-177.0,0.0,0.0,0.0
19:37:08.658000,-197.0,-559.0,-368.0,-1001.0,-126.0,-177.0,0.0,0.0,0.0
19:37:08.662000,-268.0,-581.0,-329.0,-1001.0,-126.0,-177.0,0.0,0.0,0.0
19:37:08.667000,-314.0,-596.0,-336.0,-1037.0,-114.0,-167.0,0.0,0.0,0.0
19:37:08.672000,-354.0,-611.0,-361.0,-1037.0,-114.0,-167.0,0.0,0.0,0.0
19:37:08.676000,-389.0,-627.0,-384.0,-1075.0,-93.0,-164.0,0.0,0.0,0.0
19:37:08.681000,-428.0,-646.0,-457.0,-1075.0,-93.0,-164.0,0.0,0.0,0.0
19:37:08.686000,-490.0,-673.0,-522.0,-1080.0,13.0,-153.0,0.0,0.0,0.0
19:37:08.691000,-540.0,-699.0,-502.0,-1080.0,13.0,-153.0,0.0,0.0,0.0
19:37:08.695000,-591.0,-718.0,-455.0,-1053.0,67.0,-129.0,0.0,0.0,0.0
19:37:08.700000,-647.0,-731.0,-453.0,-1053.0,67.0,-129.0,0.0,0.0,0.0
19:37:08.705000,-647.0,-731.0,-453.0,-1071.0,106.0,-103.0,0.0,0.0,0.0
19:37:08.709000,-714.0,-744.0,-464.0,-1071.0,106.0,-103.0,0.0,0.0,0.0
19:37:08.713000,-778.0,-759.0,-466.0,-1172.0,239.0,-60.0,0.0,0.0,0.0
19:37:08.719000,-862.0,-774.0,-439.0,-1172.0,239.0,-60.0,0.0,0.0,0.0
19:37:08.723000,-954.0,-793.0,-395.0,-1322.0,301.0,23.0,0.0,0.0,0.0
