hh:mm:ss.ms,gyroX[mdps],gyroY[mdps],gyroZ[mdps],accX[mg],accY[mg],accZ[mg],magX[mG],magY[mG],magZ[mG]
19:37:02.703000,1711.0,2009.0,1546.0,-1040.0,-66.0,202.0,0.0,0.0,0.0
19:37:02.708000,1725.0,2033.0,1544.0,-1040.0,-66.0,202.0,0.0,0.0,0.0
19:37:02.712000,1739.0,2058.0,1544.0,-1033.0,-76.0,142.0,0.0,0.0,0.0
19:37:02.717000,1722.0,2078.0,1544.0,-1033.0,-76.0,142.0,0.0,0.0,0.0
19:37:02.722000,1689.0,2086.0,1561.0,-1025.0,-75.0,84.0,0.0,0.0,0.0
19:37:02.727000,1650.0,2089.0,1565.0,-1025.0,-75.0,84.0,0.0,0.0,0.0
19:37:02.731000,1586.0,2079.0,1530.0,-992.0,-79.0,10.0,0.0,0.0,0.0
19:37:02.736000,1535.0,2074.0,1512.0,-992.0,-79.0,10.0,0.0,0.0,0.0
19:37:02.741000,1494.0,2043.0,1465.0,-884.0,-93.0,-96.0,0.0,0.0,0.0
19:37:02.745000,1452.0,2002.0,1409.0,-884.0,-93.0,-96.0,0.0,0.0,0.0
19:37:02.750000,1406.0,1957.0,1367.0,-884.0,-93.0,-96.0,0.0,0.0,0.0
19:37:02.755000,1358.0,1897.0,1309.0,-745.0,-130.0,-241.0,0.0,0.0,0.0
19:37:02.759000,1302.0,1822.0,1239.0,-745.0,-130.0,-241.0,0.0,0.0,0.0
19:37:02.764000,1249.0,1747.0,1174.0,-692.0,-183.0,-392.0,0.0,0.0,0.0
19:37:02.769000,1196.0,1661.0,1132.0,-692.0,-183.0,-392.0,0.0,0.0,0.0
19:37:02.774000,1139.0,1568.0,1081.0,-656.0,-222.0,-494.0,0.0,0.0,0.0
19:37:02.778000,1075.0,1472.0,998.0,-656.0,-222.0,-494.0,0.0,0.0,0.0
19:37:02.783000,1012.0,1383.0,903.0,-562.0,-215.0,-530.0,0.0,0.0,0.0
19:37:02.788000,960.0,1309.0,821.0,-562.0,-215.0,-530.0,0.0,0.0,0.0
19:37:02.792000,912.0,1233.0,801.0,-477.0,-208.0,-532.0,0.0,0.0,0.0
19:37:02.797000,912.0,1233.0,801.0,-477.0,-208.0,-532.0,0.0,0.0,0.0
19:37:02.802000,861.0,1155.0,862.0,-449.0,-248.0,-510.0,0.0,0.0,0.0
19:37:02.806000,809.0,1086.0,917.0,-449.0,-248.0,-510.0,0.0,0.0,0.0
19:37:02.811000,751.0,1049.0,864.0,-573.0,-232.0,-476.0,0.0,0.0,0.0
19:37:02.816000,686.0,1026.0,763.0,-573.0,-232.0,-476.0,0.0,0.0,0.0
19:37:02.821000,601.0,1003.0,694.0,-772.0,-175.0,-451.0,0.0,0.0,0.0
19:37:02.825000,508.0,982.0,659.0,-772.0,-175.0,-451.0,0.0,0.0,0.0
19:37:02.830000,414.0,956.0,625.0,-903.0,-124.0,-428.0,0.0,0.0,0.0
19:37:02.835000,318.0,927.0,587.0,-903.0,-124.0,-428.0,0.0,0.0,0.0
19:37:02.839000,219.0,898.0,562.0,-960.0,-65.0,-411.0,0.0,0.0,0.0
19:37:02.843000,122.0,875.0,538.0,-960.0,-65.0,-411.0,0.0,0.0,0.0
19:37:02.849000,21.0,849.0,517.0,-942.0,-41.0,-405.0,0.0,0.0,0.0
19:37:02.853000,-88.0,819.0,499.0,-942.0,-41.0,-405.0,0.0,0.0,0.0
19:37:02.858000,-210.0,786.0,490.0,-942.0,-41.0,-405.0,0.0,0.0,0.0
19:37:02.863000,-343.0,745.0,477.0,-903.0,-38.0,-404.0,0.0,0.0,0.0
19:37:02.868000,-477.0,702.0,452.0,-903.0,-38.0,-404.0,0.0,0.0,0.0
19:37:02.872000,-610.0,660.0,442.0,-845.0,-28.0,-404.0,0.0,0.0,0.0
19:37:02.877000,-720.0,620.0,435.0,-845.0,-28.0,-404.0,0.0,0.0,0.0
19:37:02.882000,-818.0,581.0,400.0,-778.0,-77.0,-411.0,0.0,0.0,0.0
19:37:02.886000,-904.0,539.0,366.0,-778.0,-77.0,-411.0,0.0,0.0,0.0
19:37:02.891000,-977.0,499.0,327.0,-753.0,-205.0,-409.0,0.0,0.0,0.0
19:37:02.896000,-1034.0,456.0,288.0,-753.0,-205.0,-409.0,0.0,0.0,0.0
19:37:02.900000,-1078.0,412.0,247.0,-757.0,-334.0,-395.0,0.0,0.0,0.0
19:37:02.905000,-1078.0,412.0,247.0,-757.0,-334.0,-395.0,0.0,0.0,0.0
19:37:02.910000,-1110.0,361.0,206.0,-741.0,-458.0,-379.0,0.0,0.0,0.0
19:37:02.915000,-1126.0,301.0,172.0,-741.0,-458.0,-379.0,0.0,0.0,0.0
19:37:02.919000,-1123.0,237.0,136.0,-697.0,-564.0,-361.0,0.0,0.0,0.0
19:37:02.924000,-1117.0,171.0,94.0,-697.0,-564.0,-361.0,0.0,0.0,0.0
19:37:02.929000,-1103.0,126.0,57.0,-634.0,-623.0,-352.0,0.0,0.0,0.0
19:37:02.933000,-1089.0,82.0,25.0,-634.0,-623.0,-352.0,0.0,0.0,0.0
19:37:02.938000,-1077.0,32.0,-7.0,-627.0,-599.0,-338.0,0.0,0.0,0.0
19:37:02.943000,-1064.0,-23.0,-48.0,-627.0,-599.0,-338.0,0.0,0.0,0.0
19:37:02.947000,-1035.0,-68.0,-93.0,-661.0,-603.0,-317.0,0.0,0.0,0.0
19:37:02.952000,-985.0,-107.0,-120.0,-661.0,-603.0,-317.0,0.0,0.0,0.0
19:37:02.957000,-931.0,-146.0,-130.0,-677.0,-689.0,-301.0,0.0,0.0,0.0
19:37:02.962000,-884.0,-177.0,-143.0,-677.0,-689.0,-301.0,0.0,0.0,0.0
19:37:02.966000,-846.0,-204.0,-182.0,-677.0,-689.0,-301.0,0.0,0.0,0.0
19:37:02.971000,-819.0,-228.0,-231.0,-706.0,-691.0,-283.0,0.0,0.0,0.0
19:37:02.976000,-796.0,-247.0,-280.0,-706.0,-691.0,-283.0,0.0,0.0,0.0
19:37:02.980000,-777.0,-261.0,-319.0,-726.0,-612.0,-261.0,0.0,0.0,0.0
19:37:02.985000,-769.0,-274.0,-346.0,-726.0,-612.0,-261.0,0.0,0.0,0.0
19:37:02.990000,-774.0,-287.0,-378.0,-710.0,-529.0,-238.0,0.0,0.0,0.0
19:37:02.994000,-792.0,-297.0,-429.0,-710.0,-529.0,-238.0,0.0,0.0,0.0
19:37:02.999000,-811.0,-303.0,-474.0,-695.0,-429.0,-223.0,0.0,0.0,0.0
19:37:03.004000,-829.0,-305.0,-504.0,-695.0,-429.0,-223.0,0.0,0.0,0.0
19:37:03.009000,-844.0,-313.0,-520.0,-686.0,-358.0,-220.0,0.0,0.0,0.0
19:37:03.013000,-844.0,-313.0,-520.0,-686.0,-358.0,-220.0,0.0,0.0,0.0
19:37:03.018000,-844.0,-325.0,-531.0,-641.0,-380.0,-233.0,0.0,0.0,0.0
19:37:03.023000,-827.0,-342.0,-535.0,-641.0,-380.0,-233.0,0.0,0.0,0.0
19:37:03.027000,-794.0,-361.0,-522.0,-599.0,-489.0,-258.0,0.0,0.0,0.0
19:37:03.032000,-749.0,-376.0,-503.0,-599.0,-489.0,-258.0,0.0,0.0,0.0
19:37:03.037000,-686.0,-386.0,-492.0,-628.0,-601.0,-281.0,0.0,0.0,0.0
19:37:03.041000,-616.0,-399.0,-486.0,-628.0,-601.0,-281.0,0.0,0.0,0.0
19:37:03.046000,-559.0,-424.0,-489.0,-633.0,-642.0,-296.0,0.0,0.0,0.0
19:37:03.051000,-508.0,-456.0,-513.0,-633.0,-642.0,-296.0,0.0,0.0,0.0
19:37:03.056000,-454.0,-483.0,-558.0,-580.0,-636.0,-301.0,0.0,0.0,0.0
19:37:03.060000,-400.0,-510.0,-592.0,-580.0,-636.0,-301.0,0.0,0.0,0.0
19:37:03.065000,-351.0,-532.0,-597.0,-516.0,-639.0,-301.0,0.0,0.0,0.0
19:37:03.070000,-312.0,-552.0,-560.0,-516.0,-639.0,-301.0,0.0,0.0,0.0
19:37:03.074000,-276.0,-571.0,-523.0,-516.0,-639.0,-301.0,0.0,0.0,0.0
19:37:03.078000,-249.0,-581.0,-537.0,-513.0,-650.0,-292.0,0.0,0.0,0.0
19:37:03.084000,-231.0,-580.0,-570.0,-513.0,-650.0,-292.0,0.0,0.0,0.0
19:37:03.088000,-222.0,-571.0,-589.0,-563.0,-626.0,-283.0,0.0,0.0,0.0
19:37:03.093000,-220.0,-562.0,-602.0,-563.0,-626.0,-283.0,0.0,0.0,0.0
19:37:03.098000,-214.0,-559.0,-607.0,-581.0,-565.0,-278.0,0.0,0.0,0.0
19:37:03.103000,-207.0,-552.0,-630.0,-581.0,-565.0,-278.0,0.0,0.0,0.0
19:37:03.107000,-205.0,-540.0,-697.0,-573.0,-518.0,-281.0,0.0,0.0,0.0
19:37:03.112000,-182.0,-530.0,-804.0,-573.0,-518.0,-281.0,0.0,0.0,0.0
19:37:03.117000,-149.0,-527.0,-785.0,-524.0,-549.0,-302.0,0.0,0.0,0.0
19:37:03.121000,-149.0,-527.0,-785.0,-524.0,-549.0,-302.0,0.0,0.0,0.0
19:37:03.126000,-150.0,-528.0,-704.0,-571.0,-603.0,-314.0,0.0,0.0,0.0
19:37:03.131000,-137.0,-520.0,-732.0,-571.0,-603.0,-314.0,0.0,0.0,0.0
19:37:03.135000,-116.0,-497.0,-751.0,-707.0,-612.0,-318.0,0.0,0.0,0.0
19:37:03.140000,-101.0,-485.0,-737.0,-707.0,-612.0,-318.0,0.0,0.0,0.0
19:37:03.145000,-89.0,-486.0,-700.0,-704.0,-566.0,-310.0,0.0,0.0,0.0
19:37:03.150000,-89.0,-501.0,-683.0,-704.0,-566.0,-310.0,0.0,0.0,0.0
19:37:03.154000,-86.0,-524.0,-672.0,-624.0,-494.0,-273.0,0.0,0.0,0.0
19:37:03.159000,-70.0,-544.0,-640.0,-624.0,-494.0,-273.0,0.0,0.0,0.0
19:37:03.164000,-44.0,-553.0,-592.0,-628.0,-520.0,-233.0,0.0,0.0,0.0
19:37:03.168000,-21.0,-554.0,-546.0,-628.0,-520.0,-233.0,0.0,0.0,0.0
19:37:03.173000,4.0,-555.0,-499.0,-695.0,-582.0,-196.0,0.0,0.0,0.0
19:37:03.178000,19.0,-550.0,-460.0,-695.0,-582.0,-196.0,0.0,0.0,0.0
19:37:03.182000,23.0,-544.0,-434.0,-738.0,-540.0,-154.0,0.0,0.0,0.0
19:37:03.187000,16.0,-538.0,-453.0,-738.0,-540.0,-154.0,0.0,0.0,0.0
19:37:03.192000,1.0,-528.0,-490.0,-738.0,-540.0,-154.0,0.0,0.0,0.0
19:37:03.197000,-30.0,-511.0,-517.0,-714.0,-457.0,-127.0,0.0,0.0,0.0
19:37:03.201000,-62.0,-495.0,-539.0,-714.0,-457.0,-127.0,0.0,0.0,0.0
19:37:03.206000,-95.0,-481.0,-569.0,-677.0,-423.0,-129.0,0.0,0.0,0.0
19:37:03.211000,-133.0,-464.0,-596.0,-677.0,-423.0,-129.0,0.0,0.0,0.0
19:37:03.215000,-151.0,-445.0,-592.0,-741.0,-433.0,-131.0,0.0,0.0,0.0
19:37:03.220000,-156.0,-416.0,-558.0,-741.0,-433.0,-131.0,0.0,0.0,0.0
19:37:03.225000,-163.0,-389.0,-536.0,-844.0,-496.0,-135.0,0.0,0.0,0.0
19:37:03.229000,-156.0,-368.0,-529.0,-844.0,-496.0,-135.0,0.0,0.0,0.0
19:37:03.234000,-156.0,-368.0,-529.0,-855.0,-530.0,-150.0,0.0,0.0,0.0
19:37:03.239000,-151.0,-365.0,-526.0,-855.0,-530.0,-150.0,0.0,0.0,0.0
19:37:03.244000,-139.0,-378.0,-521.0,-887.0,-499.0,-151.0,0.0,0.0,0.0
19:37:03.248000,-115.0,-387.0,-496.0,-887.0,-499.0,-151.0,0.0,0.0,0.0
19:37:03.253000,-68.0,-385.0,-444.0,-899.0,-518.0,-142.0,0.0,0.0,0.0
19:37:03.258000,-33.0,-398.0,-447.0,-899.0,-518.0,-142.0,0.0,0.0,0.0
19:37:03.262000,14.0,-403.0,-449.0,-852.0,-575.0,-127.0,0.0,0.0,0.0
19:37:03.267000,58.0,-406.0,-450.0,-852.0,-575.0,-127.0,0.0,0.0,0.0
19:37:03.272000,94.0,-410.0,-474.0,-833.0,-596.0,-124.0,0.0,0.0,0.0
19:37:03.276000,111.0,-415.0,-506.0,-833.0,-596.0,-124.0,0.0,0.0,0.0
19:37:03.281000,109.0,-422.0,-537.0,-835.0,-525.0,-123.0,0.0,0.0,0.0
19:37:03.286000,93.0,-428.0,-577.0,-835.0,-525.0,-123.0,0.0,0.0,0.0
19:37:03.290000,74.0,-429.0,-625.0,-851.0,-441.0,-132.0,0.0,0.0,0.0
19:37:03.295000,49.0,-424.0,-643.0,-851.0,-441.0,-132.0,0.0,0.0,0.0
19:37:03.300000,29.0,-426.0,-641.0,-851.0,-441.0,-132.0,0.0,0.0,0.0
19:37:03.305000,6.0,-425.0,-649.0,-880.0,-427.0,-138.0,0.0,0.0,0.0
19:37:03.309000,-13.0,-420.0,-674.0,-880.0,-427.0,-138.0,0.0,0.0,0.0
19:37:03.313000,-28.0,-421.0,-690.0,-889.0,-412.0,-141.0,0.0,0.0,0.0
19:37:03.319000,-35.0,-423.0,-696.0,-889.0,-412.0,-141.0,0.0,0.0,0.0
19:37:03.323000,-30.0,-419.0,-693.0,-874.0,-406.0,-171.0,0.0,0.0,0.0
19:37:03.328000,-32.0,-431.0,-700.0,-874.0,-406.0,-171.0,0.0,0.0,0.0
19:37:03.333000,-29.0,-426.0,-680.0,-878.0,-414.0,-189.0,0.0,0.0,0.0
19:37:03.338000,-41.0,-434.0,-658.0,-878.0,-414.0,-189.0,0.0,0.0,0.0
19:37:03.342000,-41.0,-434.0,-658.0,-912.0,-388.0,-189.0,0.0,0.0,0.0
19:37:03.347000,-44.0,-434.0,-632.0,-912.0,-388.0,-189.0,0.0,0.0,0.0
19:37:03.352000,-56.0,-439.0,-611.0,-980.0,-347.0,-187.0,0.0,0.0,0.0
19:37:03.356000,-64.0,-452.0,-597.0,-980.0,-347.0,-187.0,0.0,0.0,0.0
19:37:03.361000,-61.0,-451.0,-562.0,-1047.0,-334.0,-189.0,0.0,0.0,0.0
19:37:03.366000,-67.0,-473.0,-547.0,-1047.0,-334.0,-189.0,0.0,0.0,0.0
19:37:03.370000,-56.0,-475.0,-527.0,-1065.0,-342.0,-195.0,0.0,0.0,0.0
19:37:03.375000,-61.0,-501.0,-519.0,-1065.0,-342.0,-195.0,0.0,0.0,0.0
19:37:03.380000,-55.0,-513.0,-513.0,-1039.0,-348.0,-196.0,0.0,0.0,0.0
19:37:03.385000,-53.0,-530.0,-496.0,-1039.0,-348.0,-196.0,0.0,0.0,0.0
19:37:03.389000,-49.0,-554.0,-494.0,-1001.0,-350.0,-189.0,0.0,0.0,0.0
19:37:03.394000,-44.0,-562.0,-496.0,-1001.0,-350.0,-189.0,0.0,0.0,0.0
19:37:03.399000,-55.0,-592.0,-499.0,-977.0,-324.0,-174.0,0.0,0.0,0.0
19:37:03.403000,-50.0,-592.0,-493.0,-977.0,-324.0,-174.0,0.0,0.0,0.0
19:37:03.408000,-66.0,-617.0,-496.0,-977.0,-324.0,-174.0,0.0,0.0,0.0
19:37:03.413000,-70.0,-623.0,-489.0,-994.0,-290.0,-161.0,0.0,0.0,0.0
19:37:03.417000,-84.0,-643.0,-488.0,-994.0,-290.0,-161.0,0.0,0.0,0.0
19:37:03.422000,-98.0,-654.0,-492.0,-1030.0,-261.0,-149.0,0.0,0.0,0.0
19:37:03.427000,-116.0,-670.0,-487.0,-1030.0,-261.0,-149.0,0.0,0.0,0.0
19:37:03.432000,-135.0,-688.0,-475.0,-1040.0,-222.0,-131.0,0.0,0.0,0.0
19:37:03.436000,-161.0,-700.0,-435.0,-1040.0,-222.0,-131.0,0.0,0.0,0.0
19:37:03.441000,-192.0,-721.0,-391.0,-1011.0,-207.0,-109.0,0.0,0.0,0.0
19:37:03.446000,-222.0,-725.0,-390.0,-1011.0,-207.0,-109.0,0.0,0.0,0.0
19:37:03.450000,-222.0,-725.0,-390.0,-984.0,-199.0,-84.0,0.0,0.0,0.0
19:37:03.455000,-269.0,-736.0,-413.0,-984.0,-199.0,-84.0,0.0,0.0,0.0
19:37:03.460000,-305.0,-741.0,-401.0,-1004.0,-165.0,-59.0,0.0,0.0,0.0
19:37:03.464000,-359.0,-763.0,-352.0,-1004.0,-165.0,-59.0,0.0,0.0,0.0
19:37:03.469000,-403.0,-772.0,-311.0,-1020.0,-141.0,-44.0,0.0,0.0,0.0
19:37:03.474000,-445.0,-784.0,-340.0,-1020.0,-141.0,-44.0,0.0,0.0,0.0
19:37:03.479000,-485.0,-797.0,-389.0,-1026.0,-117.0,-38.0,0.0,0.0,0.0
19:37:03.483000,-536.0,-813.0,-357.0,-1026.0,-117.0,-38.0,0.0,0.0,0.0
19:37:03.488000,-552.0,-835.0,-289.0,-1064.0,-58.0,-31.0,0.0,0.0,0.0
19:37:03.493000,-575.0,-854.0,-300.0,-1064.0,-58.0,-31.0,0.0,0.0,0.0
19:37:03.497000,-635.0,-876.0,-314.0,-1094.0,-35.0,-1.0,0.0,0.0,0.0
19:37:03.502000,-671.0,-882.0,-358.0,-1094.0,-35.0,-1.0,0.0,0.0,0.0
19:37:03.507000,-757.0,-912.0,-330.0,-1028.0,-129.0,46.0,0.0,0.0,0.0
19:37:03.511000,-768.0,-926.0,-302.0,-1028.0,-129.0,46.0,0.0,0.0,0.0
19:37:03.516000,-815.0,-942.0,-325.0,-1028.0,-129.0,46.0,0.0,0.0,0.0
19:37:03.521000,-868.0,-956.0,-350.0,-1006.0,-101.0,78.0,0.0,0.0,0.0
19:37:03.526000,-929.0,-970.0,-405.0,-1006.0,-101.0,78.0,0.0,0.0,0.0
19:37:03.530000,-992.0,-1001.0,-394.0,-1098.0,41.0,131.0,0.0,0.0,0.0
19:37:03.535000,-1033.0,-1008.0,-333.0,-1098.0,41.0,131.0,0.0,0.0,0.0
19:37:03.540000,-1087.0,-1025.0,-392.0,-1123.0,96.0,211.0,0.0,0.0,0.0
19:37:03.544000,-1173.0,-1049.0,-483.0,-1123.0,96.0,211.0,0.0,0.0,0.0
19:37:03.548000,-1173.0,-1049.0,-483.0,-1029.0,108.0,302.0,0.0,0.0,0.0
19:37:03.554000,-1359.0,-1108.0,-382.0,-1029.0,108.0,302.0,0.0,0.0,0.0
19:37:03.558000,-1463.0,-1108.0,-331.0,-955.0,95.0,380.0,0.0,0.0,0.0
19:37:03.563000,-1463.0,-1144.0,-331.0,-955.0,95.0,380.0,0.0,0.0,0.0
19:37:03.568000,-1547.0,-1173.0,-319.0,-992.0,79.0,414.0,0.0,0.0,0.0
19:37:03.573000,-1624.0,-1205.0,-365.0,-992.0,79.0,414.0,0.0,0.0,0.0
19:37:03.577000,-1705.0,-1236.0,-423.0,-1039.0,78.0,434.0,0.0,0.0,0.0
19:37:03.582000,-1803.0,-1281.0,-375.0,-1039.0,78.0,434.0,0.0,0.0,0.0
19:37:03.587000,-1847.0,-1309.0,-289.0,-1026.0,61.0,435.0,0.0,0.0,0.0
19:37:03.591000,-1917.0,-1338.0,-336.0,-1026.0,61.0,435.0,0.0,0.0,0.0
19:37:03.596000,-1973.0,-1372.0,-487.0,-1024.0,131.0,428.0,0.0,0.0,0.0
19:37:03.601000,-2048.0,-1411.0,-667.0,-1024.0,131.0,428.0,0.0,0.0,0.0
19:37:03.605000,-2127.0,-1460.0,-756.0,-1004.0,212.0,440.0,0.0,0.0,0.0
19:37:03.610000,-2214.0,-1507.0,-707.0,-1004.0,212.0,440.0,0.0,0.0,0.0
19:37:03.615000,-2263.0,-1563.0,-665.0,-994.0,163.0,444.0,0.0,0.0,0.0
19:37:03.620000,-2307.0,-1616.0,-710.0,-994.0,163.0,444.0,0.0,0.0,0.0
19:37:03.624000,-2339.0,-1679.0,-805.0,-994.0,163.0,444.0,0.0,0.0,0.0
19:37:03.629000,-2364.0,-1741.0,-890.0,-1031.0,134.0,449.0,0.0,0.0,0.0
19:37:03.634000,-2381.0,-1814.0,-940.0,-1031.0,134.0,449.0,0.0,0.0,0.0
19:37:03.638000,-2391.0,-1880.0,-945.0,-970.0,140.0,480.0,0.0,0.0,0.0
19:37:03.643000,-2416.0,-1957.0,-921.0,-970.0,140.0,480.0,0.0,0.0,0.0
19:37:03.648000,-2438.0,-2024.0,-896.0,-894.0,184.0,539.0,0.0,0.0,0.0
19:37:03.652000,-2489.0,-2102.0,-880.0,-894.0,184.0,539.0,0.0,0.0,0.0
19:37:03.657000,-2529.0,-2163.0,-874.0,-924.0,297.0,630.0,0.0,0.0,0.0
19:37:03.662000,-2588.0,-2223.0,-855.0,-924.0,297.0,630.0,0.0,0.0,0.0
19:37:03.667000,-2622.0,-2268.0,-826.0,-976.0,342.0,716.0,0.0,0.0,0.0
19:37:03.671000,-2622.0,-2268.0,-826.0,-976.0,342.0,716.0,0.0,0.0,0.0
19:37:03.676000,-2662.0,-2317.0,-769.0,-958.0,251.0,773.0,0.0,0.0,0.0
19:37:03.681000,-2692.0,-2338.0,-702.0,-958.0,251.0,773.0,0.0,0.0,0.0
19:37:03.685000,-2725.0,-2342.0,-643.0,-903.0,148.0,790.0,0.0,0.0,0.0
19:37:03.690000,-2737.0,-2332.0,-592.0,-903.0,148.0,790.0,0.0,0.0,0.0
19:37:03.695000,-2770.0,-2331.0,-570.0,-877.0,121.0,787.0,0.0,0.0,0.0
19:37:03.699000,-2794.0,-2303.0,-563.0,-877.0,121.0,787.0,0.0,0.0,0.0
19:37:03.704000,-2820.0,-2289.0,-535.0,-878.0,120.0,799.0,0.0,0.0,0.0
19:37:03.709000,-2832.0,-2266.0,-529.0,-878.0,120.0,799.0,0.0,0.0,0.0
19:37:03.714000,-2840.0,-2223.0,-550.0,-841.0,85.0,792.0,0.0,0.0,0.0
19:37:03.718000,-2809.0,-2178.0,-557.0,-841.0,85.0,792.0,0.0,0.0,0.0
19:37:03.723000,-2779.0,-2157.0,-557.0,-831.0,42.0,788.0,0.0,0.0,0.0
19:37:03.728000,-2750.0,-2135.0,-577.0,-831.0,42.0,788.0,0.0,0.0,0.0
19:37:03.732000,-2714.0,-2121.0,-628.0,-831.0,42.0,788.0,0.0,0.0,0.0
19:37:03.737000,-2666.0,-2120.0,-667.0,-789.0,88.0,796.0,0.0,0.0,0.0
19:37:03.742000,-2606.0,-2129.0,-672.0,-789.0,88.0,796.0,0.0,0.0,0.0
19:37:03.746000,-2534.0,-2145.0,-648.0,-673.0,127.0,819.0,0.0,0.0,0.0
19:37:03.751000,-2459.0,-2156.0,-644.0,-673.0,127.0,819.0,0.0,0.0,0.0
19:37:03.756000,-2395.0,-2170.0,-668.0,-555.0,130.0,844.0,0.0,0.0,0.0
19:37:03.761000,-2349.0,-2178.0,-690.0,-555.0,130.0,844.0,0.0,0.0,0.0
19:37:03.765000,-2309.0,-2182.0,-668.0,-446.0,225.0,835.0,0.0,0.0,0.0
19:37:03.770000,-2272.0,-2187.0,-604.0,-446.0,225.0,835.0,0.0,0.0,0.0
19:37:03.775000,-2244.0,-2178.0,-557.0,-358.0,358.0,821.0,0.0,0.0,0.0
19:37:03.779000,-2244.0,-2178.0,-557.0,-358.0,358.0,821.0,0.0,0.0,0.0
19:37:03.784000,-2228.0,-2168.0,-535.0,-352.0,521.0,809.0,0.0,0.0,0.0
19:37:03.789000,-2221.0,-2149.0,-492.0,-352.0,521.0,809.0,0.0,0.0,0.0
19:37:03.793000,-2211.0,-2116.0,-419.0,-427.0,638.0,785.0,0.0,0.0,0.0
19:37:03.798000,-2200.0,-2065.0,-319.0,-427.0,638.0,785.0,0.0,0.0,0.0
19:37:03.803000,-2188.0,-2006.0,-213.0,-508.0,626.0,759.0,0.0,0.0,0.0
19:37:03.808000,-2174.0,-1931.0,-81.0,-508.0,626.0,759.0,0.0,0.0,0.0
19:37:03.812000,-2135.0,-1834.0,51.0,-610.0,586.0,720.0,0.0,0.0,0.0
19:37:03.817000,-2097.0,-1725.0,141.0,-610.0,586.0,720.0,0.0,0.0,0.0
19:37:03.822000,-2076.0,-1612.0,229.0,-725.0,565.0,671.0,0.0,0.0,0.0
19:37:03.826000,-2071.0,-1507.0,311.0,-725.0,565.0,671.0,0.0,0.0,0.0
19:37:03.831000,-2055.0,-1402.0,348.0,-795.0,549.0,628.0,0.0,0.0,0.0
19:37:03.836000,-2013.0,-1297.0,338.0,-795.0,549.0,628.0,0.0,0.0,0.0
19:37:03.840000,-1960.0,-1193.0,315.0,-826.0,549.0,560.0,0.0,0.0,0.0
19:37:03.845000,-1918.0,-1106.0,312.0,-826.0,549.0,560.0,0.0,0.0,0.0
19:37:03.850000,-1862.0,-1037.0,300.0,-826.0,549.0,560.0,0.0,0.0,0.0
19:37:03.855000,-1783.0,-973.0,245.0,-833.0,516.0,494.0,0.0,0.0,0.0
19:37:03.859000,-1696.0,-933.0,175.0,-833.0,516.0,494.0,0.0,0.0,0.0
19:37:03.864000,-1608.0,-889.0,190.0,-750.0,433.0,445.0,0.0,0.0,0.0
19:37:03.869000,-1537.0,-837.0,261.0,-750.0,433.0,445.0,0.0,0.0,0.0
19:37:03.873000,-1477.0,-776.0,224.0,-530.0,409.0,383.0,0.0,0.0,0.0
19:37:03.878000,-1404.0,-742.0,126.0,-530.0,409.0,383.0,0.0,0.0,0.0
19:37:03.883000,-1345.0,-728.0,45.0,-342.0,497.0,334.0,0.0,0.0,0.0
19:37:03.887000,-1345.0,-728.0,45.0,-342.0,497.0,334.0,0.0,0.0,0.0
19:37:03.892000,-1340.0,-754.0,11.0,-310.0,542.0,340.0,0.0,0.0,0.0
19:37:03.897000,-1334.0,-779.0,28.0,-310.0,542.0,340.0,0.0,0.0,0.0
19:37:03.902000,-1268.0,-753.0,49.0,-428.0,526.0,315.0,0.0,0.0,0.0
19:37:03.906000,-1211.0,-737.0,43.0,-428.0,526.0,315.0,0.0,0.0,0.0
19:37:03.911000,-1148.0,-707.0,44.0,-564.0,566.0,255.0,0.0,0.0,0.0
19:37:03.916000,-1066.0,-669.0,30.0,-564.0,566.0,255.0,0.0,0.0,0.0
19:37:03.920000,-1019.0,-663.0,59.0,-511.0,607.0,264.0,0.0,0.0,0.0
19:37:03.925000,-989.0,-659.0,102.0,-511.0,607.0,264.0,0.0,0.0,0.0
19:37:03.930000,-952.0,-641.0,131.0,-477.0,629.0,291.0,0.0,0.0,0.0
19:37:03.934000,-941.0,-620.0,150.0,-477.0,629.0,291.0,0.0,0.0,0.0
19:37:03.939000,-931.0,-599.0,165.0,-535.0,674.0,302.0,0.0,0.0,0.0
19:37:03.944000,-924.0,-571.0,161.0,-535.0,674.0,302.0,0.0,0.0,0.0
19:37:03.949000,-918.0,-545.0,136.0,-563.0,755.0,319.0,0.0,0.0,0.0
19:37:03.953000,-926.0,-521.0,119.0,-563.0,755.0,319.0,0.0,0.0,0.0
19:37:03.958000,-934.0,-494.0,121.0,-569.0,797.0,332.0,0.0,0.0,0.0
19:37:03.962000,-927.0,-457.0,92.0,-569.0,797.0,332.0,0.0,0.0,0.0
19:37:03.967000,-916.0,-424.0,60.0,-569.0,797.0,332.0,0.0,0.0,0.0
19:37:03.972000,-896.0,-393.0,43.0,-591.0,751.0,328.0,0.0,0.0,0.0
19:37:03.977000,-864.0,-362.0,7.0,-591.0,751.0,328.0,0.0,0.0,0.0
19:37:03.981000,-844.0,-333.0,-12.0,-630.0,715.0,308.0,0.0,0.0,0.0
19:37:03.986000,-814.0,-306.0,-24.0,-630.0,715.0,308.0,0.0,0.0,0.0
19:37:03.991000,-792.0,-285.0,-36.0,-627.0,704.0,280.0,0.0,0.0,0.0
19:37:03.996000,-767.0,-269.0,-44.0,-627.0,704.0,280.0,0.0,0.0,0.0
19:37:04.000000,-767.0,-269.0,-44.0,-563.0,701.0,257.0,0.0,0.0,0.0
19:37:04.005000,-756.0,-263.0,-9.0,-563.0,701.0,257.0,0.0,0.0,0.0
19:37:04.010000,-737.0,-261.0,3.0,-514.0,704.0,249.0,0.0,0.0,0.0
19:37:04.014000,-722.0,-268.0,26.0,-514.0,704.0,249.0,0.0,0.0,0.0
19:37:04.018000,-711.0,-279.0,75.0,-484.0,699.0,262.0,0.0,0.0,0.0
19:37:04.024000,-698.0,-291.0,91.0,-484.0,699.0,262.0,0.0,0.0,0.0
19:37:04.028000,-695.0,-308.0,113.0,-435.0,700.0,293.0,0.0,0.0,0.0
19:37:04.033000,-688.0,-319.0,150.0,-435.0,700.0,293.0,0.0,0.0,0.0
19:37:04.038000,-683.0,-324.0,193.0,-420.0,694.0,324.0,0.0,0.0,0.0
19:37:04.042000,-674.0,-323.0,237.0,-420.0,694.0,324.0,0.0,0.0,0.0
19:37:04.047000,-674.0,-316.0,262.0,-481.0,701.0,350.0,0.0,0.0,0.0
19:37:04.052000,-662.0,-303.0,235.0,-481.0,701.0,350.0,0.0,0.0,0.0
19:37:04.057000,-650.0,-283.0,153.0,-540.0,730.0,365.0,0.0,0.0,0.0
19:37:04.061000,-661.0,-259.0,53.0,-540.0,730.0,365.0,0.0,0.0,0.0
19:37:04.066000,-658.0,-242.0,8.0,-540.0,730.0,365.0,0.0,0.0,0.0
19:37:04.071000,-663.0,-234.0,23.0,-507.0,770.0,373.0,0.0,0.0,0.0
19:37:04.075000,-655.0,-228.0,16.0,-473.0,733.0,391.0,0.0,0.0,0.0
19:37:04.079000,-629.0,-215.0,-72.0,-473.0,733.0,391.0,0.0,0.0,0.0
19:37:04.085000,-590.0,-198.0,-173.0,-473.0,733.0,391.0,0.0,0.0,0.0
19:37:04.089000,-539.0,-184.0,-252.0,-445.0,673.0,392.0,0.0,0.0,0.0
19:37:04.094000,-530.0,-171.0,-313.0,-445.0,673.0,392.0,0.0,0.0,0.0
19:37:04.099000,-495.0,-163.0,-331.0,-374.0,646.0,383.0,0.0,0.0,0.0
19:37:04.104000,-452.0,-150.0,-404.0,-374.0,646.0,383.0,0.0,0.0,0.0
19:37:04.108000,-452.0,-150.0,-404.0,-341.0,638.0,365.0,0.0,0.0,0.0
19:37:04.113000,-416.0,-138.0,-511.0,-341.0,638.0,365.0,0.0,0.0,0.0
19:37:04.118000,-386.0,-134.0,-578.0,-310.0,689.0,340.0,0.0,0.0,0.0
19:37:04.122000,-365.0,-137.0,-611.0,-310.0,689.0,340.0,0.0,0.0,0.0
19:37:04.127000,-358.0,-143.0,-618.0,-261.0,736.0,327.0,0.0,0.0,0.0
19:37:04.132000,-347.0,-154.0,-634.0,-261.0,736.0,327.0,0.0,0.0,0.0
19:37:04.136000,-336.0,-166.0,-641.0,-240.0,773.0,310.0,0.0,0.0,0.0
19:37:04.141000,-331.0,-180.0,-609.0,-240.0,773.0,310.0,0.0,0.0,0.0
19:37:04.146000,-339.0,-193.0,-574.0,-234.0,823.0,291.0,0.0,0.0,0.0
19:37:04.151000,-349.0,-206.0,-547.0,-234.0,823.0,291.0,0.0,0.0,0.0
19:37:04.155000,-350.0,-215.0,-506.0,-252.0,908.0,270.0,0.0,0.0,0.0
19:37:04.160000,-350.0,-221.0,-479.0,-252.0,908.0,270.0,0.0,0.0,0.0
19:37:04.165000,-345.0,-226.0,-443.0,-271.0,961.0,252.0,0.0,0.0,0.0
19:37:04.169000,-339.0,-230.0,-382.0,-271.0,961.0,252.0,0.0,0.0,0.0
19:37:04.174000,-321.0,-231.0,-320.0,-271.0,961.0,252.0,0.0,0.0,0.0
19:37:04.179000,-301.0,-235.0,-254.0,-276.0,956.0,248.0,0.0,0.0,0.0
19:37:04.183000,-271.0,-235.0,-181.0,-276.0,956.0,248.0,0.0,0.0,0.0
19:37:04.188000,-238.0,-234.0,-126.0,-250.0,896.0,255.0,0.0,0.0,0.0
19:37:04.193000,-215.0,-231.0,-66.0,-250.0,896.0,255.0,0.0,0.0,0.0
19:37:04.198000,-202.0,-234.0,-30.0,-211.0,839.0,270.0,0.0,0.0,0.0
19:37:04.202000,-200.0,-239.0,-19.0,-211.0,839.0,270.0,0.0,0.0,0.0
19:37:04.207000,-193.0,-251.0,-30.0,-178.0,855.0,290.0,0.0,0.0,0.0
19:37:04.212000,-193.0,-259.0,-58.0,-178.0,855.0,290.0,0.0,0.0,0.0
19:37:04.216000,-193.0,-259.0,-58.0,-136.0,884.0,307.0,0.0,0.0,0.0
19:37:04.221000,-193.0,-268.0,-61.0,-136.0,884.0,307.0,0.0,0.0,0.0
19:37:04.226000,-179.0,-275.0,-40.0,-99.0,861.0,311.0,0.0,0.0,0.0
19:37:04.230000,-156.0,-275.0,-42.0,-99.0,861.0,311.0,0.0,0.0,0.0
19:37:04.235000,-134.0,-274.0,-79.0,-101.0,834.0,308.0,0.0,0.0,0.0
19:37:04.240000,-109.0,-275.0,-119.0,-101.0,834.0,308.0,0.0,0.0,0.0
19:37:04.245000,-87.0,-271.0,-147.0,-132.0,811.0,306.0,0.0,0.0,0.0
19:37:04.249000,-64.0,-267.0,-182.0,-132.0,811.0,306.0,0.0,0.0,0.0
19:37:04.253000,-40.0,-263.0,-216.0,-173.0,803.0,299.0,0.0,0.0,0.0
19:37:04.259000,-7.0,-262.0,-254.0,-173.0,803.0,299.0,0.0,0.0,0.0
19:37:04.263000,24.0,-256.0,-310.0,-202.0,839.0,288.0,0.0,0.0,0.0
19:37:04.268000,56.0,-256.0,-363.0,-202.0,839.0,288.0,0.0,0.0,0.0
19:37:04.273000,87.0,-256.0,-396.0,-191.0,879.0,277.0,0.0,0.0,0.0
19:37:04.277000,121.0,-256.0,-420.0,-191.0,879.0,277.0,0.0,0.0,0.0
19:37:04.282000,155.0,-256.0,-431.0,-191.0,879.0,277.0,0.0,0.0,0.0
19:37:04.287000,185.0,-256.0,-434.0,-165.0,906.0,273.0,0.0,0.0,0.0
19:37:04.292000,207.0,-256.0,-436.0,-165.0,906.0,273.0,0.0,0.0,0.0
19:37:04.296000,224.0,-259.0,-464.0,-173.0,915.0,272.0,0.0,0.0,0.0
19:37:04.301000,244.0,-266.0,-513.0,-173.0,915.0,272.0,0.0,0.0,0.0
19:37:04.306000,265.0,-275.0,-541.0,-219.0,948.0,276.0,0.0,0.0,0.0
19:37:04.310000,291.0,-284.0,-536.0,-219.0,948.0,276.0,0.0,0.0,0.0
19:37:04.315000,329.0,-291.0,-518.0,-209.0,983.0,283.0,0.0,0.0,0.0
19:37:04.320000,373.0,-296.0,-518.0,-209.0,983.0,283.0,0.0,0.0,0.0
19:37:04.324000,373.0,-296.0,-518.0,-153.0,987.0,289.0,0.0,0.0,0.0
19:37:04.329000,420.0,-298.0,-534.0,-153.0,987.0,289.0,0.0,0.0,0.0
19:37:04.334000,466.0,-299.0,-539.0,-158.0,997.0,298.0,0.0,0.0,0.0
19:37:04.339000,518.0,-296.0,-525.0,-158.0,997.0,298.0,0.0,0.0,0.0
19:37:04.343000,585.0,-289.0,-489.0,-200.0,967.0,305.0,0.0,0.0,0.0
19:37:04.348000,667.0,-277.0,-445.0,-200.0,967.0,305.0,0.0,0.0,0.0
19:37:04.353000,756.0,-259.0,-429.0,-239.0,901.0,305.0,0.0,0.0,0.0
19:37:04.357000,844.0,-236.0,-443.0,-239.0,901.0,305.0,0.0,0.0,0.0
19:37:04.362000,932.0,-217.0,-452.0,-256.0,861.0,311.0,0.0,0.0,0.0
19:37:04.367000,1029.0,-197.0,-438.0,-256.0,861.0,311.0,0.0,0.0,0.0
19:37:04.371000,1134.0,-177.0,-412.0,-259.0,840.0,319.0,0.0,0.0,0.0
19:37:04.376000,1236.0,-154.0,-387.0,-259.0,840.0,319.0,0.0,0.0,0.0
19:37:04.381000,1333.0,-129.0,-353.0,-256.0,832.0,326.0,0.0,0.0,0.0
19:37:04.386000,1431.0,-104.0,-315.0,-256.0,832.0,326.0,0.0,0.0,0.0
19:37:04.390000,1535.0,-74.0,-299.0,-256.0,832.0,326.0,0.0,0.0,0.0
19:37:04.395000,1642.0,-44.0,-295.0,-226.0,844.0,345.0,0.0,0.0,0.0
19:37:04.400000,1739.0,-9.0,-268.0,-226.0,844.0,345.0,0.0,0.0,0.0
19:37:04.404000,1836.0,31.0,-224.0,-201.0,827.0,371.0,0.0,0.0,0.0
19:37:04.409000,1934.0,79.0,-184.0,-201.0,827.0,371.0,0.0,0.0,0.0
19:37:04.414000,2030.0,135.0,-157.0,-206.0,775.0,400.0,0.0,0.0,0.0
19:37:04.418000,2124.0,192.0,-128.0,-206.0,775.0,400.0,0.0,0.0,0.0
19:37:04.423000,2219.0,249.0,-85.0,-218.0,705.0,446.0,0.0,0.0,0.0
19:37:04.428000,2308.0,304.0,-35.0,-218.0,705.0,446.0,0.0,0.0,0.0
19:37:04.433000,2391.0,361.0,4.0,-220.0,625.0,501.0,0.0,0.0,0.0
19:37:04.437000,2391.0,361.0,4.0,-220.0,625.0,501.0,0.0,0.0,0.0
19:37:04.442000,2471.0,423.0,30.0,-242.0,595.0,537.0,0.0,0.0,0.0
19:37:04.447000,2546.0,485.0,50.0,-242.0,595.0,537.0,0.0,0.0,0.0
19:37:04.451000,2606.0,548.0,86.0,-282.0,593.0,575.0,0.0,0.0,0.0
19:37:04.456000,2655.0,611.0,142.0,-282.0,593.0,575.0,0.0,0.0,0.0
19:37:04.461000,2697.0,669.0,205.0,-300.0,544.0,620.0,0.0,0.0,0.0
19:37:04.465000,2730.0,723.0,246.0,-300.0,544.0,620.0,0.0,0.0,0.0
19:37:04.470000,2742.0,776.0,240.0,-309.0,543.0,645.0,0.0,0.0,0.0
19:37:04.475000,2737.0,824.0,222.0,-309.0,543.0,645.0,0.0,0.0,0.0
19:37:04.480000,2715.0,874.0,226.0,-349.0,629.0,642.0,0.0,0.0,0.0
19:37:04.484000,2688.0,919.0,250.0,-349.0,629.0,642.0,0.0,0.0,0.0
19:37:04.488000,2660.0,961.0,294.0,-381.0,622.0,627.0,0.0,0.0,0.0
19:37:04.494000,2638.0,1000.0,326.0,-381.0,622.0,627.0,0.0,0.0,0.0
19:37:04.498000,2617.0,1034.0,322.0,-381.0,622.0,627.0,0.0,0.0,0.0
19:37:04.503000,2594.0,1078.0,275.0,-344.0,509.0,632.0,0.0,0.0,0.0
19:37:04.508000,2583.0,1112.0,179.0,-344.0,509.0,632.0,0.0,0.0,0.0
19:37:04.512000,2584.0,1157.0,76.0,-263.0,464.0,650.0,0.0,0.0,0.0
19:37:04.517000,2580.0,1197.0,47.0,-263.0,464.0,650.0,0.0,0.0,0.0
19:37:04.522000,2579.0,1243.0,72.0,-222.0,444.0,664.0,0.0,0.0,0.0
19:37:04.527000,2581.0,1302.0,97.0,-222.0,444.0,664.0,0.0,0.0,0.0
19:37:04.531000,2606.0,1363.0,100.0,-268.0,378.0,688.0,0.0,0.0,0.0
19:37:04.536000,2641.0,1435.0,91.0,-268.0,378.0,688.0,0.0,0.0,0.0
19:37:04.541000,2678.0,1505.0,102.0,-410.0,315.0,724.0,0.0,0.0,0.0
19:37:04.545000,2678.0,1505.0,102.0,-410.0,315.0,724.0,0.0,0.0,0.0
19:37:04.550000,2742.0,1575.0,105.0,-738.0,222.0,785.0,0.0,0.0,0.0
19:37:04.555000,2737.0,1623.0,-168.0,-738.0,222.0,785.0,0.0,0.0,0.0
19:37:04.559000,2807.0,1732.0,-175.0,-952.0,81.0,874.0,0.0,0.0,0.0
19:37:04.564000,3024.0,1945.0,366.0,-952.0,81.0,874.0,0.0,0.0,0.0
19:37:04.569000,2996.0,1962.0,641.0,-646.0,177.0,975.0,0.0,0.0,0.0
19:37:04.574000,3021.0,2007.0,504.0,-646.0,177.0,975.0,0.0,0.0,0.0
19:37:04.578000,3087.0,2074.0,320.0,-483.0,320.0,1013.0,0.0,0.0,0.0
19:37:04.583000,3106.0,2148.0,317.0,-483.0,320.0,1013.0,0.0,0.0,0.0
19:37:04.588000,3138.0,2225.0,421.0,-619.0,151.0,1030.0,0.0,0.0,0.0
19:37:04.592000,3170.0,2276.0,420.0,-619.0,151.0,1030.0,0.0,0.0,0.0
19:37:04.597000,3194.0,2368.0,408.0,-733.0,148.0,1074.0,0.0,0.0,0.0
19:37:04.602000,3164.0,2438.0,382.0,-733.0,148.0,1074.0,0.0,0.0,0.0
19:37:04.606000,3112.0,2522.0,387.0,-733.0,148.0,1074.0,0.0,0.0,0.0
19:37:04.611000,3046.0,2606.0,417.0,-882.0,393.0,1101.0,0.0,0.0,0.0
19:37:04.616000,2972.0,2674.0,403.0,-882.0,393.0,1101.0,0.0,0.0,0.0
19:37:04.621000,2902.0,2737.0,403.0,-1006.0,471.0,1137.0,0.0,0.0,0.0
19:37:04.625000,2838.0,2776.0,409.0,-1006.0,471.0,1137.0,0.0,0.0,0.0
19:37:04.630000,2788.0,2809.0,343.0,-1073.0,232.0,1174.0,0.0,0.0,0.0
19:37:04.635000,2769.0,2847.0,329.0,-1073.0,232.0,1174.0,0.0,0.0,0.0
19:37:04.639000,2754.0,2887.0,325.0,-1045.0,-101.0,1191.0,0.0,0.0,0.0
19:37:04.644000,2753.0,2911.0,281.0,-1045.0,-101.0,1191.0,0.0,0.0,0.0
19:37:04.649000,2788.0,2898.0,181.0,-1005.0,-224.0,1182.0,0.0,0.0,0.0
19:37:04.653000,2788.0,2898.0,181.0,-1005.0,-224.0,1182.0,0.0,0.0,0.0
19:37:04.658000,2820.0,2872.0,56.0,-912.0,-255.0,1170.0,0.0,0.0,0.0
19:37:04.663000,2839.0,2846.0,-60.0,-912.0,-255.0,1170.0,0.0,0.0,0.0
19:37:04.668000,2843.0,2796.0,-135.0,-725.0,-277.0,1186.0,0.0,0.0,0.0
19:37:04.672000,2812.0,2737.0,-106.0,-725.0,-277.0,1186.0,0.0,0.0,0.0
19:37:04.677000,2765.0,2662.0,-54.0,-507.0,-210.0,1196.0,0.0,0.0,0.0
19:37:04.682000,2715.0,2585.0,-57.0,-507.0,-210.0,1196.0,0.0,0.0,0.0
19:37:04.686000,2639.0,2508.0,-80.0,-355.0,-125.0,1168.0,0.0,0.0,0.0
19:37:04.691000,2544.0,2436.0,-54.0,-355.0,-125.0,1168.0,0.0,0.0,0.0
19:37:04.696000,2446.0,2358.0,-9.0,-303.0,-64.0,1117.0,0.0,0.0,0.0
19:37:04.700000,2337.0,2281.0,28.0,-303.0,-64.0,1117.0,0.0,0.0,0.0
19:37:04.705000,2219.0,2201.0,41.0,-343.0,17.0,1067.0,0.0,0.0,0.0
19:37:04.710000,2114.0,2137.0,-41.0,-343.0,17.0,1067.0,0.0,0.0,0.0
19:37:04.715000,2016.0,2072.0,-80.0,-354.0,32.0,1001.0,0.0,0.0,0.0
19:37:04.719000,1928.0,2007.0,-63.0,-354.0,32.0,1001.0,0.0,0.0,0.0
19:37:04.723000,1855.0,1945.0,-32.0,-354.0,32.0,1001.0,0.0,0.0,0.0
19:37:04.729000,1775.0,1887.0,-11.0,-348.0,-16.0,918.0,0.0,0.0,0.0
19:37:04.733000,1700.0,1834.0,-9.0,-348.0,-16.0,918.0,0.0,0.0,0.0
19:37:04.738000,1624.0,1786.0,-20.0,-446.0,12.0,849.0,0.0,0.0,0.0
19:37:04.743000,1543.0,1743.0,2.0,-446.0,12.0,849.0,0.0,0.0,0.0
19:37:04.747000,1477.0,1701.0,24.0,-559.0,47.0,787.0,0.0,0.0,0.0
19:37:04.752000,1424.0,1675.0,-46.0,-559.0,47.0,787.0,0.0,0.0,0.0
19:37:04.757000,1351.0,1641.0,-109.0,-640.0,46.0,711.0,0.0,0.0,0.0
19:37:04.762000,1281.0,1605.0,-88.0,-640.0,46.0,711.0,0.0,0.0,0.0
19:37:04.766000,1281.0,1605.0,-88.0,-679.0,10.0,631.0,0.0,0.0,0.0
19:37:04.771000,1212.0,1568.0,-25.0,-679.0,10.0,631.0,0.0,0.0,0.0
19:37:04.776000,1144.0,1528.0,9.0,-710.0,-15.0,573.0,0.0,0.0,0.0
19:37:04.780000,1066.0,1477.0,16.0,-710.0,-15.0,573.0,0.0,0.0,0.0
19:37:04.785000,996.0,1431.0,14.0,-717.0,31.0,532.0,0.0,0.0,0.0
19:37:04.790000,935.0,1388.0,32.0,-717.0,31.0,532.0,0.0,0.0,0.0
19:37:04.794000,865.0,1347.0,98.0,-671.0,42.0,497.0,0.0,0.0,0.0
19:37:04.799000,804.0,1307.0,184.0,-671.0,42.0,497.0,0.0,0.0,0.0
19:37:04.804000,753.0,1267.0,263.0,-683.0,-29.0,458.0,0.0,0.0,0.0
19:37:04.809000,716.0,1234.0,329.0,-683.0,-29.0,458.0,0.0,0.0,0.0
19:37:04.813000,693.0,1213.0,396.0,-753.0,-171.0,393.0,0.0,0.0,0.0
19:37:04.818000,683.0,1183.0,448.0,-753.0,-171.0,393.0,0.0,0.0,0.0
19:37:04.823000,673.0,1158.0,445.0,-828.0,-284.0,340.0,0.0,0.0,0.0
19:37:04.827000,657.0,1135.0,431.0,-828.0,-284.0,340.0,0.0,0.0,0.0
19:37:04.832000,637.0,1108.0,426.0,-828.0,-284.0,340.0,0.0,0.0,0.0
19:37:04.837000,613.0,1085.0,421.0,-856.0,-277.0,317.0,0.0,0.0,0.0
19:37:04.841000,580.0,1062.0,427.0,-856.0,-277.0,317.0,0.0,0.0,0.0
19:37:04.846000,539.0,1039.0,430.0,-849.0,-207.0,286.0,0.0,0.0,0.0
19:37:04.851000,494.0,1012.0,413.0,-849.0,-207.0,286.0,0.0,0.0,0.0
19:37:04.856000,446.0,982.0,371.0,-882.0,-128.0,245.0,0.0,0.0,0.0
19:37:04.860000,393.0,952.0,331.0,-882.0,-128.0,245.0,0.0,0.0,0.0
19:37:04.865000,346.0,921.0,326.0,-921.0,-81.0,208.0,0.0,0.0,0.0
19:37:04.870000,297.0,882.0,329.0,-921.0,-81.0,208.0,0.0,0.0,0.0
19:37:04.874000,297.0,882.0,329.0,-925.0,-107.0,179.0,0.0,0.0,0.0
19:37:04.879000,249.0,853.0,301.0,-925.0,-107.0,179.0,0.0,0.0,0.0
19:37:04.884000,211.0,830.0,259.0,-918.0,-161.0,147.0,0.0,0.0,0.0
19:37:04.888000,168.0,812.0,230.0,-918.0,-161.0,147.0,0.0,0.0,0.0
19:37:04.893000,123.0,793.0,224.0,-922.0,-180.0,116.0,0.0,0.0,0.0
19:37:04.898000,94.0,778.0,205.0,-922.0,-180.0,116.0,0.0,0.0,0.0
19:37:04.903000,42.0,760.0,196.0,-948.0,-204.0,62.0,0.0,0.0,0.0
19:37:04.907000,-19.0,742.0,185.0,-948.0,-204.0,62.0,0.0,0.0,0.0
19:37:04.912000,-52.0,725.0,141.0,-950.0,-223.0,-4.0,0.0,0.0,0.0
19:37:04.917000,-48.0,702.0,77.0,-950.0,-223.0,-4.0,0.0,0.0,0.0
19:37:04.921000,-18.0,686.0,69.0,-864.0,-357.0,-49.0,0.0,0.0,0.0
19:37:04.926000,25.0,669.0,91.0,-864.0,-357.0,-49.0,0.0,0.0,0.0
19:37:04.931000,93.0,641.0,56.0,-820.0,-533.0,-78.0,0.0,0.0,0.0
19:37:04.935000,168.0,611.0,-12.0,-820.0,-533.0,-78.0,0.0,0.0,0.0
19:37:04.940000,230.0,584.0,-47.0,-820.0,-533.0,-78.0,0.0,0.0,0.0
19:37:04.945000,290.0,554.0,-39.0,-825.0,-612.0,-95.0,0.0,0.0,0.0
19:37:04.950000,323.0,524.0,-12.0,-825.0,-612.0,-95.0,0.0,0.0,0.0
19:37:04.954000,332.0,492.0,-13.0,-819.0,-615.0,-91.0,0.0,0.0,0.0
19:37:04.959000,320.0,455.0,-46.0,-819.0,-615.0,-91.0,0.0,0.0,0.0
19:37:04.964000,319.0,413.0,-98.0,-836.0,-500.0,-75.0,0.0,0.0,0.0
19:37:04.968000,311.0,370.0,-158.0,-836.0,-500.0,-75.0,0.0,0.0,0.0
19:37:04.973000,301.0,317.0,-173.0,-820.0,-435.0,-72.0,0.0,0.0,0.0
19:37:04.978000,290.0,260.0,-174.0,-820.0,-435.0,-72.0,0.0,0.0,0.0
19:37:04.982000,290.0,260.0,-174.0,-797.0,-464.0,-72.0,0.0,0.0,0.0
19:37:04.987000,283.0,204.0,-225.0,-797.0,-464.0,-72.0,0.0,0.0,0.0
19:37:04.992000,298.0,153.0,-298.0,-760.0,-511.0,-79.0,0.0,0.0,0.0
19:37:04.997000,335.0,113.0,-342.0,-760.0,-511.0,-79.0,0.0,0.0,0.0
19:37:05.001000,369.0,74.0,-353.0,-730.0,-573.0,-91.0,0.0,0.0,0.0
19:37:05.006000,384.0,27.0,-386.0,-730.0,-573.0,-91.0,0.0,0.0,0.0
19:37:05.011000,388.0,-22.0,-426.0,-750.0,-584.0,-63.0,0.0,0.0,0.0
19:37:05.015000,403.0,-60.0,-436.0,-750.0,-584.0,-63.0,0.0,0.0,0.0
19:37:05.020000,434.0,-81.0,-418.0,-739.0,-649.0,-27.0,0.0,0.0,0.0
19:37:05.025000,473.0,-87.0,-360.0,-739.0,-649.0,-27.0,0.0,0.0,0.0
19:37:05.029000,508.0,-79.0,-306.0,-743.0,-708.0,-20.0,0.0,0.0,0.0
19:37:05.034000,520.0,-61.0,-294.0,-743.0,-708.0,-20.0,0.0,0.0,0.0
19:37:05.039000,500.0,-44.0,-329.0,-873.0,-522.0,-21.0,0.0,0.0,0.0
19:37:05.044000,458.0,-31.0,-375.0,-873.0,-522.0,-21.0,0.0,0.0,0.0
19:37:05.048000,410.0,-21.0,-403.0,-873.0,-522.0,-21.0,0.0,0.0,0.0
19:37:05.053000,354.0,-16.0,-380.0,-1022.0,-282.0,-32.0,0.0,0.0,0.0
19:37:05.058000,308.0,-20.0,-307.0,-1022.0,-282.0,-32.0,0.0,0.0,0.0
19:37:05.062000,273.0,-26.0,-210.0,-1098.0,-203.0,-58.0,0.0,0.0,0.0
19:37:05.067000,246.0,-28.0,-114.0,-1098.0,-203.0,-58.0,0.0,0.0,0.0
19:37:05.072000,226.0,-29.0,-27.0,-1116.0,-228.0,-91.0,0.0,0.0,0.0
19:37:05.076000,216.0,-28.0,59.0,-1116.0,-228.0,-91.0,0.0,0.0,0.0
19:37:05.081000,212.0,-32.0,130.0,-1105.0,-278.0,-137.0,0.0,0.0,0.0
19:37:05.086000,214.0,-40.0,168.0,-1105.0,-278.0,-137.0,0.0,0.0,0.0
19:37:05.091000,214.0,-40.0,168.0,-1096.0,-320.0,-185.0,0.0,0.0,0.0
19:37:05.095000,227.0,-55.0,187.0,-1096.0,-320.0,-185.0,0.0,0.0,0.0
19:37:05.100000,231.0,-77.0,225.0,-1068.0,-353.0,-216.0,0.0,0.0,0.0
19:37:05.105000,239.0,-99.0,247.0,-1068.0,-353.0,-216.0,0.0,0.0,0.0
19:37:05.109000,256.0,-121.0,249.0,-1030.0,-377.0,-233.0,0.0,0.0,0.0
19:37:05.114000,280.0,-143.0,226.0,-1030.0,-377.0,-233.0,0.0,0.0,0.0
19:37:05.119000,310.0,-162.0,189.0,-1013.0,-389.0,-241.0,0.0,0.0,0.0
19:37:05.123000,336.0,-178.0,160.0,-1013.0,-389.0,-241.0,0.0,0.0,0.0
