hh:mm:ss.ms,gyroX[mdps],gyroY[mdps],gyroZ[mdps],accX[mg],accY[mg],accZ[mg],magX[mG],magY[mG],magZ[mG]
19:36:23.432000,2950.0,2069.0,176.0,-758.0,144.0,1151.0,0.0,0.0,0.0
19:36:23.437000,2914.0,2086.0,159.0,-747.0,106.0,1178.0,0.0,0.0,0.0
19:36:23.442000,2879.0,2106.0,130.0,-747.0,106.0,1178.0,0.0,0.0,0.0
19:36:23.446000,2837.0,2141.0,83.0,-759.0,106.0,1164.0,0.0,0.0,0.0
19:36:23.451000,2788.0,2173.0,35.0,-759.0,106.0,1164.0,0.0,0.0,0.0
19:36:23.456000,2741.0,2188.0,11.0,-801.0,160.0,1123.0,0.0,0.0,0.0
19:36:23.461000,2708.0,2194.0,23.0,-801.0,160.0,1123.0,0.0,0.0,0.0
19:36:23.465000,2679.0,2191.0,42.0,-801.0,160.0,1123.0,0.0,0.0,0.0
19:36:23.470000,2649.0,2189.0,69.0,-838.0,123.0,1096.0,0.0,0.0,0.0
19:36:23.475000,2621.0,2188.0,110.0,-838.0,123.0,1096.0,0.0,0.0,0.0
19:36:23.479000,2585.0,2179.0,142.0,-800.0,4.0,1088.0,0.0,0.0,0.0
19:36:23.484000,2530.0,2170.0,154.0,-800.0,4.0,1088.0,0.0,0.0,0.0
19:36:23.488000,2464.0,2154.0,165.0,-723.0,-2.0,1085.0,0.0,0.0,0.0
19:36:23.493000,2396.0,2131.0,182.0,-723.0,-2.0,1085.0,0.0,0.0,0.0
19:36:23.498000,2328.0,2103.0,182.0,-663.0,47.0,1062.0,0.0,0.0,0.0
19:36:23.503000,2263.0,2074.0,169.0,-663.0,47.0,1062.0,0.0,0.0,0.0
19:36:23.508000,2263.0,2074.0,169.0,-629.0,59.0,1010.0,0.0,0.0,0.0
19:36:23.512000,2195.0,2039.0,154.0,-629.0,59.0,1010.0,0.0,0.0,0.0
19:36:23.517000,2118.0,2004.0,149.0,-639.0,94.0,955.0,0.0,0.0,0.0
19:36:23.522000,2032.0,1970.0,156.0,-639.0,94.0,955.0,0.0,0.0,0.0
19:36:23.526000,1945.0,1932.0,168.0,-640.0,106.0,905.0,0.0,0.0,0.0
19:36:23.531000,1864.0,1891.0,178.0,-640.0,106.0,905.0,0.0,0.0,0.0
19:36:23.536000,1794.0,1852.0,174.0,-601.0,51.0,845.0,0.0,0.0,0.0
19:36:23.540000,1733.0,1813.0,163.0,-601.0,51.0,845.0,0.0,0.0,0.0
19:36:23.545000,1675.0,1775.0,160.0,-557.0,-16.0,782.0,0.0,0.0,0.0
19:36:23.550000,1617.0,1740.0,147.0,-557.0,-16.0,782.0,0.0,0.0,0.0
19:36:23.555000,1551.0,1704.0,122.0,-571.0,-38.0,721.0,0.0,0.0,0.0
19:36:23.559000,1481.0,1673.0,102.0,-571.0,-38.0,721.0,0.0,0.0,0.0
19:36:23.564000,1413.0,1638.0,93.0,-628.0,-51.0,654.0,0.0,0.0,0.0
19:36:23.569000,1361.0,1607.0,106.0,-628.0,-51.0,654.0,0.0,0.0,0.0
19:36:23.573000,1325.0,1574.0,129.0,-628.0,-51.0,654.0,0.0,0.0,0.0
19:36:23.578000,1295.0,1540.0,151.0,-668.0,-95.0,586.0,0.0,0.0,0.0
19:36:23.583000,1251.0,1505.0,153.0,-668.0,-95.0,586.0,0.0,0.0,0.0
19:36:23.587000,1197.0,1467.0,140.0,-703.0,-93.0,530.0,0.0,0.0,0.0
19:36:23.592000,1140.0,1423.0,132.0,-703.0,-93.0,530.0,0.0,0.0,0.0
19:36:23.597000,1076.0,1374.0,135.0,-716.0,-54.0,491.0,0.0,0.0,0.0
19:36:23.602000,1011.0,1326.0,154.0,-716.0,-54.0,491.0,0.0,0.0,0.0
19:36:23.606000,945.0,1278.0,173.0,-680.0,-48.0,455.0,0.0,0.0,0.0
19:36:23.611000,891.0,1228.0,186.0,-680.0,-48.0,455.0,0.0,0.0,0.0
19:36:23.616000,891.0,1228.0,186.0,-639.0,-69.0,410.0,0.0,0.0,0.0
19:36:23.620000,839.0,1180.0,196.0,-639.0,-69.0,410.0,0.0,0.0,0.0
19:36:23.625000,781.0,1134.0,200.0,-621.0,-97.0,364.0,0.0,0.0,0.0
19:36:23.630000,724.0,1087.0,209.0,-621.0,-97.0,364.0,0.0,0.0,0.0
19:36:23.634000,657.0,1042.0,215.0,-630.0,-111.0,318.0,0.0,0.0,0.0
19:36:23.639000,596.0,994.0,217.0,-630.0,-111.0,318.0,0.0,0.0,0.0
19:36:23.644000,534.0,952.0,221.0,-663.0,-158.0,261.0,0.0,0.0,0.0
19:36:23.649000,482.0,916.0,214.0,-663.0,-158.0,261.0,0.0,0.0,0.0
19:36:23.653000,436.0,879.0,198.0,-711.0,-225.0,202.0,0.0,0.0,0.0
19:36:23.658000,399.0,842.0,184.0,-711.0,-225.0,202.0,0.0,0.0,0.0
19:36:23.663000,367.0,806.0,182.0,-777.0,-312.0,154.0,0.0,0.0,0.0
19:36:23.667000,340.0,767.0,168.0,-777.0,-312.0,154.0,0.0,0.0,0.0
19:36:23.672000,336.0,732.0,112.0,-813.0,-377.0,123.0,0.0,0.0,0.0
19:36:23.677000,339.0,696.0,49.0,-813.0,-377.0,123.0,0.0,0.0,0.0
19:36:23.681000,345.0,658.0,14.0,-813.0,-377.0,123.0,0.0,0.0,0.0
19:36:23.686000,345.0,623.0,11.0,-772.0,-380.0,102.0,0.0,0.0,0.0
19:36:23.691000,357.0,587.0,-2.0,-772.0,-380.0,102.0,0.0,0.0,0.0
19:36:23.696000,361.0,550.0,-8.0,-723.0,-375.0,89.0,0.0,0.0,0.0
19:36:23.700000,352.0,523.0,-14.0,-723.0,-375.0,89.0,0.0,0.0,0.0
19:36:23.705000,348.0,497.0,-18.0,-726.0,-391.0,86.0,0.0,0.0,0.0
19:36:23.710000,348.0,469.0,-25.0,-726.0,-391.0,86.0,0.0,0.0,0.0
19:36:23.714000,350.0,439.0,-30.0,-753.0,-383.0,81.0,0.0,0.0,0.0
19:36:23.719000,345.0,415.0,-39.0,-753.0,-383.0,81.0,0.0,0.0,0.0
19:36:23.724000,343.0,394.0,-55.0,-797.0,-338.0,67.0,0.0,0.0,0.0
19:36:23.728000,343.0,394.0,-55.0,-797.0,-338.0,67.0,0.0,0.0,0.0
19:36:23.733000,345.0,372.0,-70.0,-857.0,-325.0,44.0,0.0,0.0,0.0
19:36:23.738000,345.0,351.0,-80.0,-857.0,-325.0,44.0,0.0,0.0,0.0
19:36:23.743000,343.0,330.0,-81.0,-905.0,-308.0,19.0,0.0,0.0,0.0
19:36:23.747000,343.0,305.0,-78.0,-905.0,-308.0,19.0,0.0,0.0,0.0
19:36:23.752000,347.0,275.0,-91.0,-942.0,-258.0,6.0,0.0,0.0,0.0
19:36:23.757000,347.0,242.0,-104.0,-942.0,-258.0,6.0,0.0,0.0,0.0
19:36:23.761000,336.0,210.0,-98.0,-955.0,-244.0,11.0,0.0,0.0,0.0
19:36:23.766000,329.0,182.0,-75.0,-955.0,-244.0,11.0,0.0,0.0,0.0
19:36:23.771000,329.0,156.0,-53.0,-922.0,-296.0,15.0,0.0,0.0,0.0
19:36:23.775000,326.0,132.0,-39.0,-922.0,-296.0,15.0,0.0,0.0,0.0
19:36:23.780000,313.0,107.0,-31.0,-890.0,-298.0,22.0,0.0,0.0,0.0
19:36:23.785000,289.0,85.0,-26.0,-890.0,-298.0,22.0,0.0,0.0,0.0
19:36:23.790000,266.0,66.0,-23.0,-890.0,-298.0,22.0,0.0,0.0,0.0
19:36:23.794000,245.0,46.0,-17.0,-876.0,-293.0,40.0,0.0,0.0,0.0
19:36:23.799000,251.0,35.0,1.0,-876.0,-293.0,40.0,0.0,0.0,0.0
19:36:23.804000,242.0,23.0,14.0,-863.0,-376.0,52.0,0.0,0.0,0.0
19:36:23.808000,242.0,17.0,14.0,-863.0,-376.0,52.0,0.0,0.0,0.0
19:36:23.813000,243.0,13.0,1.0,-853.0,-452.0,55.0,0.0,0.0,0.0
19:36:23.818000,242.0,4.0,-4.0,-853.0,-452.0,55.0,0.0,0.0,0.0
19:36:23.822000,244.0,1.0,-5.0,-855.0,-465.0,56.0,0.0,0.0,0.0
19:36:23.827000,251.0,-2.0,-27.0,-855.0,-465.0,56.0,0.0,0.0,0.0
19:36:23.832000,261.0,-9.0,-69.0,-868.0,-476.0,59.0,0.0,0.0,0.0
19:36:23.837000,261.0,-9.0,-69.0,-868.0,-476.0,59.0,0.0,0.0,0.0
19:36:23.841000,289.0,-14.0,-105.0,-866.0,-513.0,47.0,0.0,0.0,0.0
19:36:23.846000,317.0,-25.0,-131.0,-866.0,-513.0,47.0,0.0,0.0,0.0
19:36:23.851000,338.0,-39.0,-161.0,-864.0,-487.0,30.0,0.0,0.0,0.0
19:36:23.855000,347.0,-62.0,-202.0,-864.0,-487.0,30.0,0.0,0.0,0.0
19:36:23.860000,354.0,-93.0,-260.0,-885.0,-352.0,17.0,0.0,0.0,0.0
19:36:23.865000,354.0,-132.0,-325.0,-885.0,-352.0,17.0,0.0,0.0,0.0
19:36:23.869000,336.0,-185.0,-368.0,-873.0,-222.0,26.0,0.0,0.0,0.0
19:36:23.873000,328.0,-239.0,-364.0,-873.0,-222.0,26.0,0.0,0.0,0.0
19:36:23.879000,329.0,-289.0,-324.0,-808.0,-246.0,45.0,0.0,0.0,0.0
19:36:23.884000,335.0,-331.0,-271.0,-808.0,-246.0,45.0,0.0,0.0,0.0
19:36:23.888000,338.0,-364.0,-228.0,-777.0,-318.0,63.0,0.0,0.0,0.0
19:36:23.893000,345.0,-391.0,-212.0,-777.0,-318.0,63.0,0.0,0.0,0.0
19:36:23.898000,344.0,-409.0,-207.0,-777.0,-318.0,63.0,0.0,0.0,0.0
19:36:23.902000,338.0,-422.0,-202.0,-830.0,-289.0,92.0,0.0,0.0,0.0
19:36:23.907000,331.0,-432.0,-200.0,-830.0,-289.0,92.0,0.0,0.0,0.0
19:36:23.912000,317.0,-436.0,-211.0,-923.0,-238.0,123.0,0.0,0.0,0.0
19:36:23.916000,308.0,-433.0,-218.0,-923.0,-223.0,123.0,0.0,0.0,0.0
19:36:23.921000,301.0,-420.0,-214.0,-1011.0,-223.0,146.0,0.0,0.0,0.0
19:36:23.926000,296.0,-404.0,-213.0,-1011.0,-223.0,146.0,0.0,0.0,0.0
19:36:23.930000,296.0,-381.0,-214.0,-1074.0,-232.0,152.0,0.0,0.0,0.0
19:36:23.935000,301.0,-354.0,-214.0,-1074.0,-232.0,152.0,0.0,0.0,0.0
19:36:23.940000,308.0,-326.0,-203.0,-1116.0,-235.0,136.0,0.0,0.0,0.0
19:36:23.945000,308.0,-326.0,-203.0,-1116.0,-235.0,136.0,0.0,0.0,0.0
19:36:23.949000,315.0,-298.0,-195.0,-1161.0,-214.0,106.0,0.0,0.0,0.0
19:36:23.954000,320.0,-271.0,-193.0,-1161.0,-214.0,106.0,0.0,0.0,0.0
19:36:23.959000,332.0,-239.0,-189.0,-1204.0,-197.0,68.0,0.0,0.0,0.0
19:36:23.963000,339.0,-212.0,-178.0,-1204.0,-197.0,68.0,0.0,0.0,0.0
19:36:23.968000,343.0,-187.0,-159.0,-1230.0,-202.0,30.0,0.0,0.0,0.0
19:36:23.972000,344.0,-165.0,-149.0,-1230.0,-202.0,30.0,0.0,0.0,0.0
19:36:23.977000,347.0,-149.0,-151.0,-1229.0,-202.0,0.0,0.0,0.0,0.0
19:36:23.982000,345.0,-140.0,-146.0,-1229.0,-202.0,0.0,0.0,0.0,0.0
19:36:23.987000,341.0,-140.0,-154.0,-1176.0,-195.0,-20.0,0.0,0.0,0.0
19:36:23.992000,331.0,-148.0,-168.0,-1176.0,-195.0,-20.0,0.0,0.0,0.0
19:36:23.996000,317.0,-168.0,-164.0,-1084.0,-212.0,-26.0,0.0,0.0,0.0
19:36:24.001000,298.0,-196.0,-149.0,-1084.0,-212.0,-26.0,0.0,0.0,0.0
19:36:24.006000,273.0,-229.0,-132.0,-1010.0,-220.0,-30.0,0.0,0.0,0.0
19:36:24.010000,248.0,-269.0,-127.0,-1010.0,-220.0,-30.0,0.0,0.0,0.0
19:36:24.015000,228.0,-306.0,-172.0,-1010.0,-220.0,-30.0,0.0,0.0,0.0
19:36:24.020000,207.0,-350.0,-207.0,-937.0,-194.0,-40.0,0.0,0.0,0.0
19:36:24.024000,182.0,-397.0,-182.0,-937.0,-194.0,-40.0,0.0,0.0,0.0
19:36:24.029000,153.0,-441.0,-147.0,-882.0,-151.0,-50.0,0.0,0.0,0.0
19:36:24.034000,121.0,-483.0,-147.0,-882.0,-151.0,-50.0,0.0,0.0,0.0
19:36:24.039000,103.0,-519.0,-160.0,-916.0,-114.0,-60.0,0.0,0.0,0.0
19:36:24.043000,88.0,-554.0,-137.0,-916.0,-114.0,-60.0,0.0,0.0,0.0
19:36:24.048000,74.0,-578.0,-79.0,-971.0,-136.0,-73.0,0.0,0.0,0.0
19:36:24.053000,67.0,-598.0,-35.0,-971.0,-136.0,-73.0,0.0,0.0,0.0
19:36:24.057000,67.0,-598.0,-35.0,-1001.0,-178.0,-90.0,0.0,0.0,0.0
19:36:24.062000,64.0,-609.0,-34.0,-1001.0,-178.0,-90.0,0.0,0.0,0.0
19:36:24.067000,53.0,-623.0,-36.0,-1011.0,-146.0,-101.0,0.0,0.0,0.0
19:36:24.071000,33.0,-632.0,-23.0,-1011.0,-146.0,-101.0,0.0,0.0,0.0
19:36:24.076000,6.0,-640.0,0.0,-1009.0,-103.0,-90.0,0.0,0.0,0.0
19:36:24.081000,-23.0,-644.0,13.0,-1009.0,-103.0,-90.0,0.0,0.0,0.0
19:36:24.086000,-56.0,-646.0,15.0,-987.0,-117.0,-65.0,0.0,0.0,0.0
19:36:24.090000,-86.0,-654.0,13.0,-987.0,-117.0,-65.0,0.0,0.0,0.0
19:36:24.095000,-119.0,-667.0,11.0,-955.0,-99.0,-30.0,0.0,0.0,0.0
19:36:24.100000,-151.0,-683.0,-4.0,-955.0,-99.0,-30.0,0.0,0.0,0.0
19:36:24.104000,-179.0,-706.0,-30.0,-929.0,-54.0,15.0,0.0,0.0,0.0
19:36:24.108000,-196.0,-730.0,-44.0,-929.0,-54.0,15.0,0.0,0.0,0.0
19:36:24.114000,-208.0,-749.0,-52.0,-904.0,-52.0,71.0,0.0,0.0,0.0
19:36:24.118000,-215.0,-763.0,-66.0,-904.0,-52.0,71.0,0.0,0.0,0.0
19:36:24.123000,-216.0,-772.0,-56.0,-904.0,-52.0,71.0,0.0,0.0,0.0
19:36:24.128000,-222.0,-779.0,-51.0,-907.0,-54.0,138.0,0.0,0.0,0.0
19:36:24.133000,-205.0,-780.0,-81.0,-907.0,-54.0,138.0,0.0,0.0,0.0
19:36:24.137000,-202.0,-771.0,-123.0,-963.0,-18.0,210.0,0.0,0.0,0.0
19:36:24.142000,-166.0,-771.0,-101.0,-963.0,-18.0,210.0,0.0,0.0,0.0
19:36:24.147000,-111.0,-759.0,-51.0,-1008.0,-10.0,269.0,0.0,0.0,0.0
19:36:24.151000,-106.0,-749.0,8.0,-1008.0,-10.0,269.0,0.0,0.0,0.0
19:36:24.156000,-67.0,-730.0,52.0,-1046.0,-111.0,321.0,0.0,0.0,0.0
19:36:24.161000,-10.0,-695.0,2.0,-1046.0,-111.0,321.0,0.0,0.0,0.0
19:36:24.165000,-10.0,-695.0,2.0,-1050.0,-150.0,341.0,0.0,0.0,0.0
19:36:24.170000,-25.0,-652.0,-53.0,-1050.0,-150.0,341.0,0.0,0.0,0.0
19:36:24.175000,-85.0,-609.0,-56.0,-943.0,-75.0,340.0,0.0,0.0,0.0
19:36:24.180000,-151.0,-569.0,-77.0,-943.0,-75.0,340.0,0.0,0.0,0.0
19:36:24.184000,-220.0,-536.0,-91.0,-844.0,25.0,337.0,0.0,0.0,0.0
19:36:24.189000,-294.0,-513.0,-86.0,-844.0,25.0,337.0,0.0,0.0,0.0
19:36:24.194000,-352.0,-495.0,-78.0,-850.0,99.0,305.0,0.0,0.0,0.0
19:36:24.198000,-410.0,-477.0,-70.0,-850.0,99.0,305.0,0.0,0.0,0.0
19:36:24.203000,-443.0,-462.0,-75.0,-957.0,50.0,245.0,0.0,0.0,0.0
19:36:24.208000,-437.0,-448.0,-114.0,-957.0,50.0,245.0,0.0,0.0,0.0
19:36:24.212000,-403.0,-439.0,-106.0,-1072.0,-75.0,171.0,0.0,0.0,0.0
19:36:24.217000,-353.0,-434.0,-36.0,-1072.0,-75.0,171.0,0.0,0.0,0.0
19:36:24.222000,-304.0,-431.0,30.0,-1112.0,-181.0,119.0,0.0,0.0,0.0
19:36:24.227000,-250.0,-428.0,33.0,-1112.0,-181.0,119.0,0.0,0.0,0.0
19:36:24.231000,-184.0,-422.0,-30.0,-1112.0,-181.0,119.0,0.0,0.0,0.0
19:36:24.236000,-123.0,-431.0,-40.0,-1083.0,-198.0,100.0,0.0,0.0,0.0
19:36:24.241000,-84.0,-444.0,-16.0,-1083.0,-198.0,100.0,0.0,0.0,0.0
19:36:24.245000,-40.0,-457.0,-38.0,-991.0,-192.0,110.0,0.0,0.0,0.0
19:36:24.250000,-20.0,-464.0,-93.0,-991.0,-192.0,110.0,0.0,0.0,0.0
19:36:24.255000,-4.0,-459.0,-121.0,-919.0,-149.0,134.0,0.0,0.0,0.0
19:36:24.259000,7.0,-445.0,-81.0,-919.0,-149.0,134.0,0.0,0.0,0.0
19:36:24.264000,4.0,-425.0,-44.0,-959.0,-99.0,160.0,0.0,0.0,0.0
19:36:24.269000,-4.0,-393.0,-42.0,-959.0,-99.0,160.0,0.0,0.0,0.0
19:36:24.274000,-4.0,-393.0,-42.0,-1056.0,-114.0,194.0,0.0,0.0,0.0
19:36:24.278000,-29.0,-368.0,-32.0,-1056.0,-114.0,194.0,0.0,0.0,0.0
19:36:24.283000,-74.0,-348.0,-16.0,-1065.0,-90.0,234.0,0.0,0.0,0.0
19:36:24.288000,-119.0,-324.0,10.0,-1065.0,-90.0,234.0,0.0,0.0,0.0
19:36:24.292000,-149.0,-302.0,19.0,-1016.0,-22.0,258.0,0.0,0.0,0.0
19:36:24.297000,-178.0,-278.0,-33.0,-1016.0,-22.0,258.0,0.0,0.0,0.0
19:36:24.302000,-189.0,-256.0,-114.0,-975.0,-18.0,259.0,0.0,0.0,0.0
19:36:24.306000,-170.0,-241.0,-189.0,-975.0,-18.0,259.0,0.0,0.0,0.0
19:36:24.311000,-150.0,-228.0,-227.0,-893.0,-139.0,258.0,0.0,0.0,0.0
19:36:24.316000,-126.0,-212.0,-225.0,-893.0,-139.0,258.0,0.0,0.0,0.0
19:36:24.321000,-86.0,-198.0,-233.0,-836.0,-280.0,255.0,0.0,0.0,0.0
19:36:24.325000,-55.0,-177.0,-266.0,-836.0,-280.0,255.0,0.0,0.0,0.0
19:36:24.330000,-39.0,-154.0,-284.0,-824.0,-294.0,254.0,0.0,0.0,0.0
19:36:24.335000,-38.0,-130.0,-263.0,-824.0,-294.0,254.0,0.0,0.0,0.0
19:36:24.339000,-48.0,-96.0,-225.0,-824.0,-294.0,254.0,0.0,0.0,0.0
19:36:24.343000,-66.0,-65.0,-204.0,-832.0,-219.0,254.0,0.0,0.0,0.0
19:36:24.349000,-86.0,-34.0,-198.0,-832.0,-219.0,254.0,0.0,0.0,0.0
19:36:24.353000,-99.0,3.0,-200.0,-891.0,-150.0,247.0,0.0,0.0,0.0
19:36:24.358000,-107.0,44.0,-192.0,-891.0,-150.0,247.0,0.0,0.0,0.0
19:36:24.363000,-93.0,84.0,-187.0,-985.0,-129.0,244.0,0.0,0.0,0.0
19:36:24.368000,-92.0,143.0,-176.0,-985.0,-129.0,244.0,0.0,0.0,0.0
19:36:24.372000,-115.0,191.0,-168.0,-1007.0,-133.0,239.0,0.0,0.0,0.0
19:36:24.377000,-119.0,227.0,-187.0,-1007.0,-133.0,239.0,0.0,0.0,0.0
19:36:24.382000,-119.0,227.0,-187.0,-909.0,-128.0,219.0,0.0,0.0,0.0
19:36:24.386000,-105.0,258.0,-219.0,-909.0,-128.0,219.0,0.0,0.0,0.0
19:36:24.391000,-86.0,268.0,-238.0,-842.0,-135.0,196.0,0.0,0.0,0.0
19:36:24.396000,-74.0,285.0,-242.0,-842.0,-135.0,196.0,0.0,0.0,0.0
19:36:24.400000,-67.0,301.0,-250.0,-854.0,-166.0,185.0,0.0,0.0,0.0
19:36:24.405000,-46.0,321.0,-290.0,-854.0,-166.0,185.0,0.0,0.0,0.0
19:36:24.410000,-37.0,338.0,-332.0,-833.0,-172.0,183.0,0.0,0.0,0.0
19:36:24.415000,-27.0,353.0,-347.0,-833.0,-172.0,183.0,0.0,0.0,0.0
19:36:24.419000,-8.0,361.0,-360.0,-765.0,-165.0,187.0,0.0,0.0,0.0
19:36:24.424000,3.0,379.0,-389.0,-765.0,-165.0,187.0,0.0,0.0,0.0
19:36:24.429000,9.0,389.0,-404.0,-710.0,-164.0,196.0,0.0,0.0,0.0
19:36:24.433000,32.0,382.0,-394.0,-710.0,-164.0,196.0,0.0,0.0,0.0
19:36:24.437000,78.0,373.0,-381.0,-694.0,-192.0,205.0,0.0,0.0,0.0
19:36:24.443000,114.0,350.0,-359.0,-694.0,-192.0,205.0,0.0,0.0,0.0
19:36:24.447000,127.0,326.0,-331.0,-694.0,-192.0,205.0,0.0,0.0,0.0
19:36:24.452000,128.0,301.0,-303.0,-678.0,-172.0,229.0,0.0,0.0,0.0
19:36:24.457000,124.0,270.0,-272.0,-678.0,-172.0,229.0,0.0,0.0,0.0
19:36:24.462000,123.0,236.0,-261.0,-609.0,-69.0,276.0,0.0,0.0,0.0
19:36:24.466000,135.0,195.0,-281.0,-609.0,-69.0,276.0,0.0,0.0,0.0
19:36:24.471000,140.0,164.0,-314.0,-579.0,12.0,320.0,0.0,0.0,0.0
19:36:24.476000,135.0,140.0,-320.0,-579.0,12.0,320.0,0.0,0.0,0.0
19:36:24.480000,126.0,133.0,-301.0,-662.0,12.0,343.0,0.0,0.0,0.0
19:36:24.485000,127.0,143.0,-282.0,-662.0,12.0,343.0,0.0,0.0,0.0
19:36:24.490000,126.0,168.0,-266.0,-795.0,-55.0,342.0,0.0,0.0,0.0
19:36:24.494000,126.0,168.0,-266.0,-795.0,-55.0,342.0,0.0,0.0,0.0
19:36:24.499000,114.0,198.0,-266.0,-931.0,-91.0,336.0,0.0,0.0,0.0
19:36:24.504000,103.0,233.0,-274.0,-931.0,-91.0,336.0,0.0,0.0,0.0
19:36:24.509000,91.0,267.0,-272.0,-1027.0,-56.0,338.0,0.0,0.0,0.0
19:36:24.513000,79.0,296.0,-263.0,-1027.0,-56.0,338.0,0.0,0.0,0.0
19:36:24.518000,60.0,328.0,-269.0,-1075.0,-38.0,344.0,0.0,0.0,0.0
19:36:24.522000,49.0,373.0,-287.0,-1075.0,-38.0,344.0,0.0,0.0,0.0
19:36:24.527000,64.0,417.0,-308.0,-1072.0,-111.0,348.0,0.0,0.0,0.0
19:36:24.532000,102.0,452.0,-338.0,-1072.0,-111.0,348.0,0.0,0.0,0.0
19:36:24.537000,142.0,482.0,-366.0,-1022.0,-200.0,349.0,0.0,0.0,0.0
19:36:24.541000,176.0,508.0,-381.0,-1022.0,-200.0,349.0,0.0,0.0,0.0
19:36:24.546000,201.0,532.0,-380.0,-969.0,-233.0,360.0,0.0,0.0,0.0
19:36:24.551000,224.0,543.0,-367.0,-969.0,-233.0,360.0,0.0,0.0,0.0
19:36:24.556000,261.0,560.0,-366.0,-969.0,-233.0,360.0,0.0,0.0,0.0
19:36:24.560000,280.0,569.0,-367.0,-915.0,-199.0,367.0,0.0,0.0,0.0
19:36:24.565000,303.0,576.0,-352.0,-915.0,-199.0,367.0,0.0,0.0,0.0
19:36:24.570000,317.0,574.0,-330.0,-833.0,-140.0,377.0,0.0,0.0,0.0
19:36:24.574000,323.0,563.0,-323.0,-833.0,-140.0,377.0,0.0,0.0,0.0
19:36:24.578000,326.0,558.0,-338.0,-772.0,-117.0,391.0,0.0,0.0,0.0
19:36:24.584000,338.0,543.0,-336.0,-772.0,-117.0,391.0,0.0,0.0,0.0
19:36:24.588000,343.0,522.0,-329.0,-772.0,-103.0,395.0,0.0,0.0,0.0
19:36:24.593000,333.0,501.0,-343.0,-772.0,-103.0,395.0,0.0,0.0,0.0
19:36:24.598000,325.0,499.0,-361.0,-807.0,-96.0,399.0,0.0,0.0,0.0
19:36:24.603000,325.0,499.0,-361.0,-807.0,-96.0,399.0,0.0,0.0,0.0
19:36:24.607000,308.0,492.0,-362.0,-859.0,-104.0,393.0,0.0,0.0,0.0
19:36:24.612000,301.0,490.0,-350.0,-859.0,-104.0,393.0,0.0,0.0,0.0
19:36:24.617000,287.0,500.0,-333.0,-935.0,-82.0,348.0,0.0,0.0,0.0
19:36:24.621000,252.0,525.0,-328.0,-935.0,-82.0,348.0,0.0,0.0,0.0
19:36:24.626000,243.0,532.0,-333.0,-1042.0,1.0,292.0,0.0,0.0,0.0
19:36:24.631000,184.0,557.0,-330.0,-1042.0,1.0,292.0,0.0,0.0,0.0
19:36:24.635000,154.0,576.0,-322.0,-1135.0,68.0,243.0,0.0,0.0,0.0
19:36:24.640000,114.0,589.0,-291.0,-1135.0,68.0,243.0,0.0,0.0,0.0
19:36:24.645000,57.0,606.0,-233.0,-1141.0,27.0,214.0,0.0,0.0,0.0
19:36:24.650000,30.0,616.0,-181.0,-1141.0,27.0,214.0,0.0,0.0,0.0
19:36:24.654000,16.0,623.0,-153.0,-1058.0,-51.0,213.0,0.0,0.0,0.0
19:36:24.659000,21.0,623.0,-168.0,-1058.0,-51.0,213.0,0.0,0.0,0.0
19:36:24.664000,44.0,610.0,-202.0,-1058.0,-51.0,213.0,0.0,0.0,0.0
19:36:24.668000,82.0,581.0,-228.0,-940.0,-127.0,222.0,0.0,0.0,0.0
19:36:24.673000,131.0,539.0,-249.0,-940.0,-127.0,222.0,0.0,0.0,0.0
19:36:24.678000,178.0,508.0,-263.0,-825.0,-205.0,237.0,0.0,0.0,0.0
19:36:24.682000,237.0,480.0,-263.0,-825.0,-205.0,237.0,0.0,0.0,0.0
19:36:24.687000,301.0,459.0,-256.0,-748.0,-252.0,241.0,0.0,0.0,0.0
19:36:24.692000,374.0,436.0,-273.0,-748.0,-252.0,241.0,0.0,0.0,0.0
19:36:24.697000,444.0,415.0,-284.0,-741.0,-239.0,228.0,0.0,0.0,0.0
19:36:24.701000,506.0,398.0,-287.0,-741.0,-239.0,228.0,0.0,0.0,0.0
19:36:24.706000,557.0,399.0,-275.0,-813.0,-148.0,209.0,0.0,0.0,0.0
19:36:24.711000,557.0,399.0,-275.0,-813.0,-148.0,209.0,0.0,0.0,0.0
19:36:24.715000,588.0,401.0,-228.0,-954.0,-62.0,194.0,0.0,0.0,0.0
19:36:24.720000,614.0,417.0,-185.0,-954.0,-62.0,194.0,0.0,0.0,0.0
19:36:24.725000,627.0,429.0,-151.0,-1125.0,8.0,189.0,0.0,0.0,0.0
19:36:24.729000,627.0,439.0,-106.0,-1125.0,8.0,189.0,0.0,0.0,0.0
19:36:24.734000,619.0,462.0,-56.0,-1241.0,85.0,185.0,0.0,0.0,0.0
19:36:24.739000,612.0,492.0,-6.0,-1241.0,85.0,185.0,0.0,0.0,0.0
19:36:24.744000,614.0,541.0,51.0,-1285.0,71.0,172.0,0.0,0.0,0.0
19:36:24.748000,627.0,592.0,100.0,-1285.0,71.0,172.0,0.0,0.0,0.0
19:36:24.753000,648.0,659.0,158.0,-1289.0,-12.0,161.0,0.0,0.0,0.0
19:36:24.758000,677.0,717.0,217.0,-1289.0,-12.0,161.0,0.0,0.0,0.0
19:36:24.762000,718.0,777.0,263.0,-1289.0,-82.0,159.0,0.0,0.0,0.0
19:36:24.767000,767.0,835.0,298.0,-1289.0,-82.0,159.0,0.0,0.0,0.0
19:36:24.772000,816.0,901.0,322.0,-1295.0,-111.0,165.0,0.0,0.0,0.0
19:36:24.776000,869.0,963.0,348.0,-1295.0,-111.0,165.0,0.0,0.0,0.0
19:36:24.781000,917.0,1023.0,369.0,-1295.0,-111.0,165.0,0.0,0.0,0.0
19:36:24.786000,954.0,1089.0,375.0,-1306.0,-98.0,170.0,0.0,0.0,0.0
19:36:24.791000,989.0,1152.0,373.0,-1306.0,-98.0,170.0,0.0,0.0,0.0
19:36:24.795000,1023.0,1211.0,382.0,-1307.0,-70.0,172.0,0.0,0.0,0.0
19:36:24.800000,1055.0,1266.0,403.0,-1307.0,-70.0,172.0,0.0,0.0,0.0
19:36:24.805000,1088.0,1322.0,416.0,-1278.0,-67.0,164.0,0.0,0.0,0.0
19:36:24.809000,1127.0,1376.0,412.0,-1278.0,-67.0,164.0,0.0,0.0,0.0
19:36:24.813000,1127.0,1376.0,412.0,-1265.0,-68.0,140.0,0.0,0.0,0.0
19:36:24.819000,1223.0,1499.0,387.0,-1265.0,-68.0,140.0,0.0,0.0,0.0
19:36:24.823000,1223.0,1499.0,387.0,-1279.0,-69.0,97.0,0.0,0.0,0.0
19:36:24.828000,1278.0,1566.0,373.0,-1279.0,-69.0,97.0,0.0,0.0,0.0
19:36:24.833000,1330.0,1632.0,353.0,-1299.0,-74.0,43.0,0.0,0.0,0.0
19:36:24.838000,1379.0,1701.0,325.0,-1299.0,-74.0,43.0,0.0,0.0,0.0
19:36:24.842000,1424.0,1768.0,310.0,-1318.0,-55.0,-13.0,0.0,0.0,0.0
19:36:24.847000,1465.0,1835.0,313.0,-1318.0,-55.0,-13.0,0.0,0.0,0.0
19:36:24.852000,1508.0,1897.0,321.0,-1312.0,-41.0,-62.0,0.0,0.0,0.0
19:36:24.856000,1548.0,1956.0,323.0,-1312.0,-41.0,-62.0,0.0,0.0,0.0
19:36:24.861000,1585.0,2012.0,350.0,-1279.0,-33.0,-103.0,0.0,0.0,0.0
19:36:24.866000,1616.0,2066.0,396.0,-1279.0,-33.0,-103.0,0.0,0.0,0.0
19:36:24.870000,1646.0,2107.0,428.0,-1229.0,-4.0,-133.0,0.0,0.0,0.0
19:36:24.875000,1670.0,2145.0,464.0,-1229.0,-4.0,-133.0,0.0,0.0,0.0
19:36:24.880000,1690.0,2181.0,520.0,-1163.0,2.0,-154.0,0.0,0.0,0.0
19:36:24.885000,1706.0,2214.0,587.0,-1163.0,2.0,-154.0,0.0,0.0,0.0
19:36:24.889000,1707.0,2245.0,650.0,-1163.0,2.0,-154.0,0.0,0.0,0.0
19:36:24.894000,1703.0,2271.0,703.0,-1127.0,18.0,-206.0,0.0,0.0,0.0
19:36:24.899000,1700.0,2291.0,742.0,-1127.0,18.0,-206.0,0.0,0.0,0.0
19:36:24.903000,1706.0,2297.0,794.0,-1116.0,32.0,-256.0,0.0,0.0,0.0
19:36:24.908000,1712.0,2311.0,863.0,-1116.0,32.0,-256.0,0.0,0.0,0.0
19:36:24.912000,1722.0,2318.0,910.0,-1048.0,-24.0,-274.0,0.0,0.0,0.0
19:36:24.917000,1736.0,2327.0,936.0,-1048.0,-24.0,-274.0,0.0,0.0,0.0
19:36:24.922000,1756.0,2323.0,954.0,-1006.0,-63.0,-282.0,0.0,0.0,0.0
19:36:24.927000,1774.0,2328.0,973.0,-1006.0,-63.0,-282.0,0.0,0.0,0.0
19:36:24.932000,1774.0,2328.0,973.0,-1003.0,-86.0,-275.0,0.0,0.0,0.0
19:36:24.936000,1791.0,2333.0,989.0,-1003.0,-86.0,-275.0,0.0,0.0,0.0
19:36:24.941000,1799.0,2344.0,1017.0,-1002.0,-106.0,-267.0,0.0,0.0,0.0
19:36:24.946000,1796.0,2347.0,1047.0,-1002.0,-106.0,-267.0,0.0,0.0,0.0
19:36:24.950000,1785.0,2352.0,1069.0,-1031.0,-79.0,-259.0,0.0,0.0,0.0
19:36:24.955000,1768.0,2357.0,1076.0,-1031.0,-79.0,-259.0,0.0,0.0,0.0
19:36:24.960000,1742.0,2365.0,1080.0,-1040.0,-33.0,-249.0,0.0,0.0,0.0
19:36:24.964000,1708.0,2371.0,1080.0,-1040.0,-33.0,-249.0,0.0,0.0,0.0
19:36:24.969000,1667.0,2379.0,1092.0,-1014.0,18.0,-246.0,0.0,0.0,0.0
19:36:24.974000,1617.0,2382.0,1101.0,-1014.0,18.0,-246.0,0.0,0.0,0.0
19:36:24.979000,1556.0,2384.0,1099.0,-975.0,106.0,-258.0,0.0,0.0,0.0
19:36:24.983000,1485.0,2376.0,1090.0,-975.0,106.0,-258.0,0.0,0.0,0.0
19:36:24.988000,1407.0,2361.0,1079.0,-913.0,232.0,-279.0,0.0,0.0,0.0
19:36:24.993000,1323.0,2336.0,1062.0,-913.0,232.0,-279.0,0.0,0.0,0.0
19:36:24.997000,1234.0,2304.0,1058.0,-913.0,232.0,-279.0,0.0,0.0,0.0
19:36:25.002000,1152.0,2261.0,1081.0,-795.0,299.0,-304.0,0.0,0.0,0.0
19:36:25.007000,1085.0,2211.0,1130.0,-795.0,299.0,-304.0,0.0,0.0,0.0
19:36:25.011000,1041.0,2161.0,1180.0,-634.0,229.0,-338.0,0.0,0.0,0.0
19:36:25.016000,1023.0,2113.0,1214.0,-634.0,229.0,-338.0,0.0,0.0,0.0
19:36:25.021000,1030.0,2066.0,1229.0,-509.0,88.0,-406.0,0.0,0.0,0.0
19:36:25.026000,1059.0,2023.0,1229.0,-509.0,88.0,-406.0,0.0,0.0,0.0
19:36:25.030000,1100.0,1988.0,1206.0,-493.0,-28.0,-494.0,0.0,0.0,0.0
19:36:25.035000,1139.0,1956.0,1162.0,-493.0,-28.0,-494.0,0.0,0.0,0.0
19:36:25.040000,1139.0,1956.0,1162.0,-583.0,-73.0,-572.0,0.0,0.0,0.0
19:36:25.044000,1168.0,1922.0,1106.0,-583.0,-73.0,-572.0,0.0,0.0,0.0
19:36:25.048000,1178.0,1887.0,1054.0,-685.0,-41.0,-622.0,0.0,0.0,0.0
19:36:25.054000,1169.0,1852.0,1014.0,-685.0,-41.0,-622.0,0.0,0.0,0.0
19:36:25.058000,1139.0,1810.0,959.0,-681.0,66.0,-639.0,0.0,0.0,0.0
19:36:25.063000,1082.0,1761.0,896.0,-681.0,66.0,-639.0,0.0,0.0,0.0
19:36:25.068000,1002.0,1701.0,837.0,-562.0,218.0,-645.0,0.0,0.0,0.0
19:36:25.073000,905.0,1627.0,787.0,-562.0,218.0,-645.0,0.0,0.0,0.0
19:36:25.077000,798.0,1537.0,756.0,-402.0,303.0,-640.0,0.0,0.0,0.0
19:36:25.082000,701.0,1437.0,744.0,-402.0,303.0,-640.0,0.0,0.0,0.0
19:36:25.087000,623.0,1337.0,749.0,-241.0,241.0,-641.0,0.0,0.0,0.0
19:36:25.091000,569.0,1234.0,768.0,-241.0,241.0,-641.0,0.0,0.0,0.0
19:36:25.096000,541.0,1132.0,772.0,-122.0,106.0,-666.0,0.0,0.0,0.0
19:36:25.101000,532.0,1043.0,751.0,-122.0,106.0,-666.0,0.0,0.0,0.0
19:36:25.105000,532.0,967.0,722.0,-122.0,106.0,-666.0,0.0,0.0,0.0
19:36:25.110000,533.0,897.0,696.0,-100.0,46.0,-705.0,0.0,0.0,0.0
19:36:25.115000,534.0,833.0,670.0,-100.0,46.0,-705.0,0.0,0.0,0.0
19:36:25.120000,536.0,773.0,646.0,-202.0,48.0,-738.0,0.0,0.0,0.0
19:36:25.124000,543.0,725.0,615.0,-202.0,48.0,-738.0,0.0,0.0,0.0
19:36:25.129000,546.0,683.0,581.0,-331.0,35.0,-754.0,0.0,0.0,0.0
19:36:25.134000,538.0,646.0,543.0,-331.0,35.0,-754.0,0.0,0.0,0.0
19:36:25.138000,533.0,610.0,503.0,-358.0,33.0,-760.0,0.0,0.0,0.0
19:36:25.143000,534.0,574.0,483.0,-358.0,33.0,-760.0,0.0,0.0,0.0
19:36:25.148000,537.0,574.0,483.0,-301.0,42.0,-765.0,0.0,0.0,0.0
19:36:25.152000,537.0,537.0,492.0,-301.0,42.0,-765.0,0.0,0.0,0.0
19:36:25.157000,538.0,500.0,494.0,-280.0,24.0,-773.0,0.0,0.0,0.0
19:36:25.162000,534.0,464.0,456.0,-280.0,24.0,-773.0,0.0,0.0,0.0
19:36:25.167000,535.0,426.0,419.0,-298.0,0.0,-782.0,0.0,0.0,0.0
19:36:25.171000,541.0,389.0,413.0,-298.0,0.0,-782.0,0.0,0.0,0.0
19:36:25.176000,535.0,350.0,411.0,-263.0,4.0,-787.0,0.0,0.0,0.0
19:36:25.181000,519.0,311.0,397.0,-263.0,4.0,-787.0,0.0,0.0,0.0
19:36:25.185000,506.0,278.0,369.0,-221.0,53.0,-782.0,0.0,0.0,0.0
19:36:25.190000,502.0,256.0,333.0,-221.0,53.0,-782.0,0.0,0.0,0.0
19:36:25.195000,495.0,242.0,307.0,-234.0,65.0,-773.0,0.0,0.0,0.0
19:36:25.199000,501.0,231.0,263.0,-234.0,65.0,-773.0,0.0,0.0,0.0
19:36:25.204000,513.0,224.0,261.0,-294.0,35.0,-770.0,0.0,0.0,0.0
19:36:25.209000,522.0,218.0,277.0,-294.0,35.0,-770.0,0.0,0.0,0.0
19:36:25.214000,528.0,217.0,242.0,-294.0,35.0,-770.0,0.0,0.0,0.0
19:36:25.218000,524.0,217.0,194.0,-352.0,46.0,-764.0,0.0,0.0,0.0
19:36:25.223000,519.0,218.0,175.0,-352.0,46.0,-764.0,0.0,0.0,0.0
19:36:25.228000,511.0,215.0,166.0,-358.0,70.0,-754.0,0.0,0.0,0.0
19:36:25.232000,507.0,208.0,186.0,-358.0,70.0,-754.0,0.0,0.0,0.0
19:36:25.237000,503.0,198.0,227.0,-296.0,50.0,-757.0,0.0,0.0,0.0
19:36:25.242000,506.0,186.0,233.0,-296.0,50.0,-757.0,0.0,0.0,0.0
19:36:25.246000,518.0,179.0,217.0,-237.0,25.0,-775.0,0.0,0.0,0.0
19:36:25.251000,530.0,177.0,214.0,-237.0,25.0,-775.0,0.0,0.0,0.0
19:36:25.256000,545.0,175.0,200.0,-234.0,28.0,-802.0,0.0,0.0,0.0
19:36:25.261000,545.0,175.0,200.0,-234.0,28.0,-802.0,0.0,0.0,0.0
19:36:25.265000,547.0,172.0,203.0,-263.0,53.0,-825.0,0.0,0.0,0.0
19:36:25.270000,541.0,170.0,212.0,-263.0,53.0,-825.0,0.0,0.0,0.0
19:36:25.275000,543.0,171.0,203.0,-279.0,93.0,-842.0,0.0,0.0,0.0
19:36:25.279000,530.0,165.0,211.0,-279.0,93.0,-842.0,0.0,0.0,0.0
19:36:25.283000,506.0,159.0,237.0,-260.0,110.0,-857.0,0.0,0.0,0.0
19:36:25.289000,483.0,151.0,272.0,-260.0,110.0,-857.0,0.0,0.0,0.0
19:36:25.293000,463.0,144.0,303.0,-242.0,101.0,-866.0,0.0,0.0,0.0
19:36:25.298000,442.0,140.0,318.0,-242.0,101.0,-866.0,0.0,0.0,0.0
19:36:25.303000,415.0,135.0,319.0,-262.0,125.0,-869.0,0.0,0.0,0.0
19:36:25.308000,361.0,134.0,317.0,-262.0,125.0,-869.0,0.0,0.0,0.0
19:36:25.312000,301.0,134.0,323.0,-276.0,155.0,-866.0,0.0,0.0,0.0
19:36:25.317000,246.0,137.0,311.0,-276.0,155.0,-866.0,0.0,0.0,0.0
19:36:25.322000,194.0,143.0,279.0,-276.0,155.0,-866.0,0.0,0.0,0.0
19:36:25.326000,146.0,151.0,245.0,-271.0,160.0,-875.0,0.0,0.0,0.0
19:36:25.331000,103.0,160.0,196.0,-271.0,160.0,-875.0,0.0,0.0,0.0
19:36:25.336000,72.0,170.0,137.0,-281.0,158.0,-897.0,0.0,0.0,0.0
19:36:25.340000,53.0,185.0,91.0,-281.0,158.0,-897.0,0.0,0.0,0.0
19:36:25.345000,51.0,201.0,67.0,-311.0,125.0,-921.0,0.0,0.0,0.0
19:36:25.350000,68.0,219.0,54.0,-311.0,125.0,-921.0,0.0,0.0,0.0
19:36:25.355000,97.0,233.0,36.0,-357.0,43.0,-947.0,0.0,0.0,0.0
19:36:25.359000,130.0,245.0,12.0,-357.0,43.0,-947.0,0.0,0.0,0.0
19:36:25.364000,164.0,254.0,3.0,-379.0,2.0,-962.0,0.0,0.0,0.0
19:36:25.369000,164.0,254.0,3.0,-379.0,2.0,-962.0,0.0,0.0,0.0
19:36:25.373000,198.0,263.0,9.0,-361.0,18.0,-962.0,0.0,0.0,0.0
19:36:25.378000,228.0,267.0,18.0,-361.0,18.0,-962.0,0.0,0.0,0.0
19:36:25.383000,251.0,267.0,36.0,-330.0,22.0,-966.0,0.0,0.0,0.0
19:36:25.387000,268.0,263.0,63.0,-330.0,22.0,-966.0,0.0,0.0,0.0
19:36:25.392000,274.0,256.0,81.0,-273.0,57.0,-974.0,0.0,0.0,0.0
19:36:25.397000,263.0,235.0,74.0,-273.0,57.0,-974.0,0.0,0.0,0.0
19:36:25.402000,240.0,211.0,42.0,-179.0,161.0,-967.0,0.0,0.0,0.0
19:36:25.406000,213.0,187.0,0.0,-179.0,161.0,-967.0,0.0,0.0,0.0
19:36:25.411000,193.0,168.0,-46.0,-144.0,199.0,-956.0,0.0,0.0,0.0
19:36:25.416000,182.0,154.0,-81.0,-144.0,199.0,-956.0,0.0,0.0,0.0
19:36:25.420000,182.0,144.0,-92.0,-181.0,107.0,-955.0,0.0,0.0,0.0
19:36:25.425000,189.0,134.0,-79.0,-181.0,107.0,-955.0,0.0,0.0,0.0
19:36:25.430000,193.0,121.0,-65.0,-181.0,45.0,-955.0,0.0,0.0,0.0
19:36:25.434000,191.0,112.0,-86.0,-158.0,40.0,-945.0,0.0,0.0,0.0
19:36:25.439000,191.0,112.0,-134.0,-158.0,40.0,-945.0,0.0,0.0,0.0
19:36:25.444000,198.0,112.0,-159.0,-119.0,42.0,-934.0,0.0,0.0,0.0
19:36:25.449000,204.0,115.0,-147.0,-119.0,17.0,-934.0,0.0,0.0,0.0
19:36:25.453000,210.0,121.0,-117.0,-149.0,17.0,-933.0,0.0,0.0,0.0
19:36:25.458000,217.0,128.0,-93.0,-149.0,17.0,-933.0,0.0,0.0,0.0
19:36:25.463000,226.0,134.0,-81.0,-197.0,-5.0,-929.0,0.0,0.0,0.0
19:36:25.467000,239.0,141.0,-74.0,-197.0,-5.0,-929.0,0.0,0.0,0.0
19:36:25.472000,254.0,149.0,-64.0,-218.0,4.0,-919.0,0.0,0.0,0.0
19:36:25.477000,254.0,149.0,-64.0,-218.0,4.0,-919.0,0.0,0.0,0.0
19:36:25.481000,266.0,156.0,-60.0,-225.0,35.0,-909.0,0.0,0.0,0.0
19:36:25.486000,270.0,165.0,-64.0,-225.0,35.0,-909.0,0.0,0.0,0.0
19:36:25.491000,268.0,173.0,-66.0,-245.0,90.0,-901.0,0.0,0.0,0.0
19:36:25.496000,263.0,181.0,-72.0,-245.0,90.0,-901.0,0.0,0.0,0.0
19:36:25.500000,254.0,187.0,-81.0,-258.0,139.0,-903.0,0.0,0.0,0.0
19:36:25.505000,242.0,191.0,-89.0,-258.0,139.0,-903.0,0.0,0.0,0.0
19:36:25.510000,224.0,193.0,-92.0,-260.0,167.0,-907.0,0.0,0.0,0.0
19:36:25.514000,205.0,191.0,-79.0,-260.0,167.0,-907.0,0.0,0.0,0.0
19:36:25.518000,191.0,189.0,-56.0,-238.0,154.0,-912.0,0.0,0.0,0.0
19:36:25.524000,179.0,186.0,-37.0,-238.0,154.0,-912.0,0.0,0.0,0.0
19:36:25.528000,165.0,178.0,-35.0,-219.0,165.0,-915.0,0.0,0.0,0.0
19:36:25.533000,145.0,170.0,-46.0,-219.0,165.0,-915.0,0.0,0.0,0.0
19:36:25.538000,125.0,163.0,-58.0,-224.0,219.0,-912.0,0.0,0.0,0.0
19:36:25.542000,103.0,154.0,-69.0,-224.0,219.0,-912.0,0.0,0.0,0.0
19:36:25.547000,80.0,141.0,-81.0,-224.0,219.0,-912.0,0.0,0.0,0.0
19:36:25.552000,60.0,127.0,-92.0,-225.0,231.0,-899.0,0.0,0.0,0.0
19:36:25.557000,46.0,112.0,-100.0,-225.0,231.0,-899.0,0.0,0.0,0.0
19:36:25.561000,35.0,95.0,-112.0,-200.0,207.0,-887.0,0.0,0.0,0.0
19:36:25.566000,27.0,77.0,-123.0,-200.0,207.0,-887.0,0.0,0.0,0.0
19:36:25.571000,19.0,60.0,-130.0,-172.0,195.0,-891.0,0.0,0.0,0.0
19:36:25.575000,11.0,43.0,-133.0,-172.0,195.0,-891.0,0.0,0.0,0.0
19:36:25.580000,4.0,26.0,-137.0,-187.0,211.0,-903.0,0.0,0.0,0.0
19:36:25.585000,-3.0,7.0,-139.0,-187.0,211.0,-903.0,0.0,0.0,0.0
19:36:25.589000,-3.0,7.0,-139.0,-212.0,224.0,-908.0,0.0,0.0,0.0
19:36:25.594000,-5.0,-16.0,-132.0,-212.0,224.0,-908.0,0.0,0.0,0.0
19:36:25.599000,-3.0,-42.0,-118.0,-196.0,213.0,-899.0,0.0,0.0,0.0
19:36:25.604000,0.0,-70.0,-105.0,-196.0,213.0,-899.0,0.0,0.0,0.0
19:36:25.608000,0.0,-98.0,-93.0,-163.0,213.0,-883.0,0.0,0.0,0.0
19:36:25.613000,-9.0,-127.0,-79.0,-163.0,213.0,-883.0,0.0,0.0,0.0
19:36:25.618000,-26.0,-156.0,-67.0,-151.0,247.0,-863.0,0.0,0.0,0.0
19:36:25.622000,-49.0,-186.0,-54.0,-151.0,247.0,-863.0,0.0,0.0,0.0
19:36:25.627000,-77.0,-217.0,-43.0,-152.0,278.0,-849.0,0.0,0.0,0.0
19:36:25.632000,-110.0,-249.0,-41.0,-152.0,278.0,-849.0,0.0,0.0,0.0
19:36:25.636000,-151.0,-280.0,-42.0,-158.0,310.0,-848.0,0.0,0.0,0.0
19:36:25.641000,-196.0,-310.0,-47.0,-158.0,310.0,-848.0,0.0,0.0,0.0
19:36:25.646000,-245.0,-340.0,-55.0,-167.0,349.0,-856.0,0.0,0.0,0.0
19:36:25.651000,-298.0,-371.0,-66.0,-167.0,349.0,-856.0,0.0,0.0,0.0
19:36:25.655000,-359.0,-400.0,-81.0,-167.0,349.0,-856.0,0.0,0.0,0.0
19:36:25.660000,-427.0,-430.0,-103.0,-180.0,391.0,-866.0,0.0,0.0,0.0
19:36:25.665000,-500.0,-459.0,-130.0,-180.0,391.0,-866.0,0.0,0.0,0.0
19:36:25.669000,-579.0,-487.0,-165.0,-190.0,442.0,-878.0,0.0,0.0,0.0
19:36:25.674000,-662.0,-515.0,-200.0,-190.0,442.0,-878.0,0.0,0.0,0.0
19:36:25.679000,-753.0,-541.0,-231.0,-202.0,498.0,-903.0,0.0,0.0,0.0
19:36:25.683000,-849.0,-571.0,-259.0,-202.0,498.0,-903.0,0.0,0.0,0.0
19:36:25.688000,-942.0,-606.0,-284.0,-232.0,548.0,-928.0,0.0,0.0,0.0
19:36:25.693000,-1026.0,-646.0,-305.0,-232.0,548.0,-928.0,0.0,0.0,0.0
19:36:25.698000,-1026.0,-646.0,-305.0,-244.0,546.0,-946.0,0.0,0.0,0.0
19:36:25.702000,-1099.0,-690.0,-329.0,-244.0,546.0,-946.0,0.0,0.0,0.0
19:36:25.707000,-1161.0,-735.0,-359.0,-224.0,494.0,-961.0,0.0,0.0,0.0
19:36:25.712000,-1218.0,-784.0,-398.0,-224.0,494.0,-961.0,0.0,0.0,0.0
19:36:25.716000,-1272.0,-829.0,-438.0,-210.0,466.0,-966.0,0.0,0.0,0.0
19:36:25.721000,-1325.0,-873.0,-477.0,-210.0,466.0,-966.0,0.0,0.0,0.0
19:36:25.726000,-1381.0,-910.0,-518.0,-234.0,470.0,-955.0,0.0,0.0,0.0
19:36:25.730000,-1442.0,-942.0,-565.0,-234.0,470.0,-955.0,0.0,0.0,0.0
19:36:25.735000,-1507.0,-969.0,-621.0,-286.0,492.0,-920.0,0.0,0.0,0.0
19:36:25.740000,-1577.0,-995.0,-682.0,-286.0,492.0,-920.0,0.0,0.0,0.0
19:36:25.745000,-1645.0,-1024.0,-736.0,-323.0,500.0,-870.0,0.0,0.0,0.0
19:36:25.749000,-1708.0,-1053.0,-784.0,-323.0,500.0,-870.0,0.0,0.0,0.0
19:36:25.753000,-1775.0,-1086.0,-831.0,-325.0,493.0,-810.0,0.0,0.0,0.0
19:36:25.759000,-1845.0,-1124.0,-870.0,-325.0,493.0,-810.0,0.0,0.0,0.0
19:36:25.763000,-1918.0,-1166.0,-890.0,-325.0,493.0,-810.0,0.0,0.0,0.0
19:36:25.768000,-1989.0,-1212.0,-897.0,-301.0,484.0,-741.0,0.0,0.0,0.0
19:36:25.773000,-2063.0,-1262.0,-905.0,-301.0,484.0,-741.0,0.0,0.0,0.0
19:36:25.777000,-2137.0,-1313.0,-920.0,-272.0,462.0,-677.0,0.0,0.0,0.0
19:36:25.782000,-2214.0,-1367.0,-935.0,-272.0,462.0,-677.0,0.0,0.0,0.0
19:36:25.787000,-2296.0,-1418.0,-938.0,-268.0,429.0,-618.0,0.0,0.0,0.0
19:36:25.792000,-2374.0,-1463.0,-925.0,-268.0,429.0,-618.0,0.0,0.0,0.0
19:36:25.796000,-2452.0,-1504.0,-911.0,-301.0,372.0,-567.0,0.0,0.0,0.0
19:36:25.801000,-2528.0,-1539.0,-907.0,-301.0,372.0,-567.0,0.0,0.0,0.0
19:36:25.806000,-2528.0,-1539.0,-907.0,-377.0,292.0,-541.0,0.0,0.0,0.0
19:36:25.810000,-2597.0,-1567.0,-906.0,-377.0,292.0,-541.0,0.0,0.0,0.0
19:36:25.815000,-2655.0,-1589.0,-905.0,-458.0,187.0,-536.0,0.0,0.0,0.0
19:36:25.820000,-2695.0,-1606.0,-894.0,-458.0,187.0,-536.0,0.0,0.0,0.0
19:36:25.824000,-2717.0,-1619.0,-886.0,-514.0,64.0,-543.0,0.0,0.0,0.0
19:36:25.829000,-2729.0,-1630.0,-893.0,-514.0,64.0,-543.0,0.0,0.0,0.0
19:36:25.834000,-2719.0,-1641.0,-937.0,-572.0,-39.0,-562.0,0.0,0.0,0.0
19:36:25.839000,-2694.0,-1654.0,-988.0,-572.0,-39.0,-562.0,0.0,0.0,0.0
19:36:25.843000,-2648.0,-1661.0,-1019.0,-617.0,-150.0,-598.0,0.0,0.0,0.0
19:36:25.848000,-2596.0,-1681.0,-1027.0,-617.0,-150.0,-598.0,0.0,0.0,0.0
19:36:25.852000,-2542.0,-1706.0,-1007.0,-643.0,-298.0,-636.0,0.0,0.0,0.0
