hh:mm:ss.ms,gyroX[mdps],gyroY[mdps],gyroZ[mdps],accX[mg],accY[mg],accZ[mg],magX[mG],magY[mG],magZ[mG]
19:36:34.886000,2071.0,2847.0,646.0,-1418.0,97.0,396.0,0.0,0.0,0.0
19:36:34.890000,2071.0,2847.0,646.0,-1428.0,86.0,358.0,0.0,0.0,0.0
19:36:34.895000,2054.0,2944.0,654.0,-1428.0,86.0,358.0,0.0,0.0,0.0
19:36:34.900000,2037.0,3033.0,670.0,-1453.0,119.0,305.0,0.0,0.0,0.0
19:36:34.904000,2014.0,3119.0,680.0,-1453.0,119.0,305.0,0.0,0.0,0.0
19:36:34.909000,1977.0,3213.0,688.0,-1484.0,172.0,200.0,0.0,0.0,0.0
19:36:34.914000,1929.0,3315.0,714.0,-1484.0,172.0,200.0,0.0,0.0,0.0
19:36:34.918000,1899.0,3413.0,751.0,-1527.0,191.0,107.0,0.0,0.0,0.0
19:36:34.923000,1884.0,3488.0,769.0,-1527.0,191.0,107.0,0.0,0.0,0.0
19:36:34.928000,1880.0,3549.0,771.0,-1401.0,151.0,96.0,0.0,0.0,0.0
19:36:34.933000,1879.0,3596.0,777.0,-1401.0,151.0,96.0,0.0,0.0,0.0
19:36:34.937000,1882.0,3632.0,810.0,-1188.0,130.0,101.0,0.0,0.0,0.0
19:36:34.942000,1890.0,3649.0,870.0,-1188.0,130.0,101.0,0.0,0.0,0.0
19:36:34.947000,1901.0,3648.0,935.0,-1058.0,117.0,81.0,0.0,0.0,0.0
19:36:34.951000,1911.0,3633.0,966.0,-1058.0,117.0,81.0,0.0,0.0,0.0
19:36:34.956000,1901.0,3606.0,969.0,-1058.0,117.0,81.0,0.0,0.0,0.0
19:36:34.961000,1876.0,3563.0,982.0,-935.0,138.0,53.0,0.0,0.0,0.0
19:36:34.965000,1831.0,3510.0,1001.0,-935.0,138.0,53.0,0.0,0.0,0.0
19:36:34.970000,1775.0,3451.0,1005.0,-786.0,235.0,23.0,0.0,0.0,0.0
19:36:34.975000,1716.0,3388.0,981.0,-786.0,235.0,23.0,0.0,0.0,0.0
19:36:34.980000,1652.0,3318.0,931.0,-644.0,293.0,-25.0,0.0,0.0,0.0
19:36:34.984000,1587.0,3238.0,867.0,-644.0,293.0,-25.0,0.0,0.0,0.0
19:36:34.989000,1526.0,3150.0,814.0,-492.0,288.0,-80.0,0.0,0.0,0.0
19:36:34.994000,1473.0,3056.0,770.0,-492.0,288.0,-80.0,0.0,0.0,0.0
19:36:34.998000,1473.0,3056.0,770.0,-312.0,269.0,-141.0,0.0,0.0,0.0
19:36:35.003000,1425.0,2956.0,709.0,-312.0,269.0,-141.0,0.0,0.0,0.0
19:36:35.008000,1373.0,2847.0,620.0,-213.0,296.0,-239.0,0.0,0.0,0.0
19:36:35.012000,1318.0,2733.0,518.0,-213.0,296.0,-239.0,0.0,0.0,0.0
19:36:35.017000,1266.0,2608.0,429.0,-226.0,345.0,-356.0,0.0,0.0,0.0
19:36:35.022000,1215.0,2487.0,380.0,-226.0,345.0,-356.0,0.0,0.0,0.0
19:36:35.027000,1163.0,2368.0,373.0,-272.0,349.0,-459.0,0.0,0.0,0.0
19:36:35.031000,1109.0,2241.0,395.0,-272.0,349.0,-459.0,0.0,0.0,0.0
19:36:35.036000,1047.0,2111.0,429.0,-350.0,371.0,-512.0,0.0,0.0,0.0
19:36:35.041000,985.0,1979.0,471.0,-350.0,371.0,-512.0,0.0,0.0,0.0
19:36:35.045000,929.0,1848.0,521.0,-404.0,390.0,-537.0,0.0,0.0,0.0
19:36:35.050000,879.0,1715.0,569.0,-404.0,390.0,-537.0,0.0,0.0,0.0
19:36:35.055000,836.0,1582.0,606.0,-378.0,366.0,-559.0,0.0,0.0,0.0
19:36:35.059000,799.0,1456.0,632.0,-378.0,366.0,-559.0,0.0,0.0,0.0
19:36:35.064000,755.0,1345.0,639.0,-378.0,366.0,-559.0,0.0,0.0,0.0
19:36:35.069000,697.0,1247.0,633.0,-316.0,361.0,-570.0,0.0,0.0,0.0
19:36:35.074000,634.0,1155.0,624.0,-316.0,361.0,-570.0,0.0,0.0,0.0
19:36:35.078000,578.0,1068.0,618.0,-273.0,370.0,-570.0,0.0,0.0,0.0
19:36:35.083000,528.0,993.0,597.0,-273.0,370.0,-570.0,0.0,0.0,0.0
19:36:35.088000,482.0,927.0,538.0,-249.0,341.0,-574.0,0.0,0.0,0.0
19:36:35.092000,441.0,868.0,460.0,-249.0,341.0,-574.0,0.0,0.0,0.0
19:36:35.097000,411.0,815.0,401.0,-272.0,304.0,-595.0,0.0,0.0,0.0
19:36:35.102000,394.0,766.0,360.0,-272.0,304.0,-595.0,0.0,0.0,0.0
19:36:35.106000,387.0,718.0,328.0,-310.0,238.0,-627.0,0.0,0.0,0.0
19:36:35.111000,387.0,718.0,328.0,-310.0,238.0,-627.0,0.0,0.0,0.0
19:36:35.116000,380.0,672.0,299.0,-291.0,188.0,-670.0,0.0,0.0,0.0
19:36:35.121000,373.0,632.0,268.0,-291.0,188.0,-670.0,0.0,0.0,0.0
19:36:35.125000,367.0,596.0,252.0,-284.0,203.0,-720.0,0.0,0.0,0.0
19:36:35.130000,355.0,561.0,250.0,-284.0,203.0,-720.0,0.0,0.0,0.0
19:36:35.135000,336.0,525.0,238.0,-307.0,227.0,-756.0,0.0,0.0,0.0
19:36:35.139000,316.0,487.0,217.0,-307.0,227.0,-756.0,0.0,0.0,0.0
19:36:35.144000,303.0,449.0,210.0,-280.0,222.0,-774.0,0.0,0.0,0.0
19:36:35.149000,296.0,410.0,213.0,-280.0,222.0,-774.0,0.0,0.0,0.0
19:36:35.153000,289.0,369.0,212.0,-221.0,192.0,-786.0,0.0,0.0,0.0
19:36:35.158000,282.0,330.0,202.0,-221.0,192.0,-786.0,0.0,0.0,0.0
19:36:35.163000,278.0,296.0,193.0,-195.0,170.0,-795.0,0.0,0.0,0.0
19:36:35.167000,277.0,267.0,195.0,-195.0,170.0,-795.0,0.0,0.0,0.0
19:36:35.172000,274.0,242.0,200.0,-195.0,170.0,-795.0,0.0,0.0,0.0
19:36:35.177000,270.0,221.0,193.0,-199.0,162.0,-805.0,0.0,0.0,0.0
19:36:35.182000,268.0,201.0,175.0,-199.0,162.0,-805.0,0.0,0.0,0.0
19:36:35.186000,270.0,183.0,154.0,-226.0,172.0,-810.0,0.0,0.0,0.0
19:36:35.191000,279.0,172.0,138.0,-226.0,172.0,-810.0,0.0,0.0,0.0
19:36:35.196000,294.0,164.0,138.0,-246.0,153.0,-814.0,0.0,0.0,0.0
19:36:35.200000,315.0,159.0,146.0,-246.0,153.0,-814.0,0.0,0.0,0.0
19:36:35.205000,338.0,155.0,151.0,-260.0,104.0,-831.0,0.0,0.0,0.0
19:36:35.210000,359.0,153.0,154.0,-260.0,104.0,-831.0,0.0,0.0,0.0
19:36:35.214000,379.0,154.0,153.0,-290.0,89.0,-874.0,0.0,0.0,0.0
19:36:35.219000,379.0,154.0,153.0,-290.0,89.0,-874.0,0.0,0.0,0.0
19:36:35.224000,393.0,156.0,149.0,-328.0,126.0,-916.0,0.0,0.0,0.0
19:36:35.229000,401.0,163.0,144.0,-328.0,126.0,-916.0,0.0,0.0,0.0
19:36:35.233000,404.0,168.0,139.0,-365.0,183.0,-943.0,0.0,0.0,0.0
19:36:35.238000,400.0,175.0,131.0,-365.0,183.0,-943.0,0.0,0.0,0.0
19:36:35.243000,394.0,178.0,136.0,-383.0,202.0,-966.0,0.0,0.0,0.0
19:36:35.247000,385.0,177.0,164.0,-383.0,202.0,-966.0,0.0,0.0,0.0
19:36:35.252000,375.0,171.0,200.0,-345.0,183.0,-968.0,0.0,0.0,0.0
19:36:35.257000,363.0,166.0,224.0,-345.0,183.0,-968.0,0.0,0.0,0.0
19:36:35.261000,347.0,165.0,235.0,-294.0,187.0,-956.0,0.0,0.0,0.0
19:36:35.266000,327.0,165.0,242.0,-294.0,187.0,-956.0,0.0,0.0,0.0
19:36:35.271000,304.0,167.0,254.0,-294.0,196.0,-950.0,0.0,0.0,0.0
19:36:35.276000,276.0,169.0,263.0,-294.0,196.0,-950.0,0.0,0.0,0.0
19:36:35.280000,243.0,172.0,262.0,-294.0,196.0,-950.0,0.0,0.0,0.0
19:36:35.285000,207.0,175.0,245.0,-301.0,209.0,-949.0,0.0,0.0,0.0
19:36:35.290000,172.0,177.0,214.0,-301.0,209.0,-949.0,0.0,0.0,0.0
19:36:35.294000,140.0,182.0,184.0,-289.0,241.0,-948.0,0.0,0.0,0.0
19:36:35.299000,108.0,189.0,165.0,-289.0,241.0,-948.0,0.0,0.0,0.0
19:36:35.304000,78.0,200.0,149.0,-295.0,241.0,-946.0,0.0,0.0,0.0
19:36:35.308000,53.0,212.0,129.0,-295.0,241.0,-946.0,0.0,0.0,0.0
19:36:35.313000,30.0,227.0,111.0,-313.0,217.0,-947.0,0.0,0.0,0.0
19:36:35.318000,11.0,244.0,95.0,-313.0,217.0,-947.0,0.0,0.0,0.0
19:36:35.323000,-2.0,261.0,81.0,-329.0,204.0,-950.0,0.0,0.0,0.0
19:36:35.327000,-2.0,261.0,81.0,-329.0,204.0,-950.0,0.0,0.0,0.0
19:36:35.332000,-4.0,275.0,66.0,-342.0,167.0,-950.0,0.0,0.0,0.0
19:36:35.337000,4.0,290.0,47.0,-342.0,167.0,-950.0,0.0,0.0,0.0
19:36:35.341000,21.0,301.0,32.0,-336.0,102.0,-948.0,0.0,0.0,0.0
19:36:35.346000,44.0,307.0,23.0,-336.0,102.0,-948.0,0.0,0.0,0.0
19:36:35.351000,70.0,315.0,9.0,-320.0,71.0,-941.0,0.0,0.0,0.0
19:36:35.355000,93.0,322.0,-9.0,-320.0,71.0,-941.0,0.0,0.0,0.0
19:36:35.360000,114.0,331.0,-33.0,-317.0,91.0,-930.0,0.0,0.0,0.0
19:36:35.365000,132.0,339.0,-62.0,-317.0,91.0,-930.0,0.0,0.0,0.0
19:36:35.370000,147.0,348.0,-88.0,-316.0,126.0,-914.0,0.0,0.0,0.0
19:36:35.374000,156.0,356.0,-104.0,-316.0,126.0,-914.0,0.0,0.0,0.0
19:36:35.379000,158.0,361.0,-106.0,-302.0,165.0,-897.0,0.0,0.0,0.0
19:36:35.384000,150.0,365.0,-100.0,-302.0,165.0,-897.0,0.0,0.0,0.0
19:36:35.388000,134.0,366.0,-91.0,-302.0,223.0,-897.0,0.0,0.0,0.0
19:36:35.393000,108.0,364.0,-81.0,-285.0,223.0,-879.0,0.0,0.0,0.0
19:36:35.398000,73.0,363.0,-60.0,-285.0,223.0,-879.0,0.0,0.0,0.0
19:36:35.402000,30.0,361.0,-33.0,-267.0,277.0,-862.0,0.0,0.0,0.0
19:36:35.407000,-16.0,360.0,-4.0,-267.0,277.0,-862.0,0.0,0.0,0.0
19:36:35.412000,-63.0,359.0,18.0,-246.0,309.0,-851.0,0.0,0.0,0.0
19:36:35.417000,-105.0,359.0,37.0,-246.0,309.0,-851.0,0.0,0.0,0.0
19:36:35.421000,-139.0,360.0,60.0,-239.0,300.0,-851.0,0.0,0.0,0.0
19:36:35.426000,-159.0,363.0,87.0,-239.0,300.0,-851.0,0.0,0.0,0.0
19:36:35.431000,-172.0,365.0,104.0,-246.0,229.0,-863.0,0.0,0.0,0.0
19:36:35.435000,-172.0,365.0,104.0,-246.0,229.0,-863.0,0.0,0.0,0.0
19:36:35.440000,-183.0,366.0,107.0,-261.0,171.0,-873.0,0.0,0.0,0.0
19:36:35.445000,-197.0,363.0,104.0,-261.0,171.0,-873.0,0.0,0.0,0.0
19:36:35.449000,-217.0,353.0,102.0,-249.0,166.0,-868.0,0.0,0.0,0.0
19:36:35.454000,-239.0,336.0,100.0,-249.0,166.0,-868.0,0.0,0.0,0.0
19:36:35.459000,-263.0,310.0,96.0,-189.0,172.0,-858.0,0.0,0.0,0.0
19:36:35.464000,-296.0,280.0,79.0,-189.0,172.0,-858.0,0.0,0.0,0.0
19:36:35.468000,-329.0,249.0,47.0,-139.0,222.0,-856.0,0.0,0.0,0.0
19:36:35.473000,-390.0,207.0,32.0,-139.0,222.0,-856.0,0.0,0.0,0.0
19:36:35.478000,-440.0,165.0,13.0,-98.0,253.0,-861.0,0.0,0.0,0.0
19:36:35.482000,-482.0,123.0,4.0,-98.0,253.0,-861.0,0.0,0.0,0.0
19:36:35.487000,-518.0,80.0,0.0,-57.0,202.0,-875.0,0.0,0.0,0.0
19:36:35.492000,-541.0,37.0,-2.0,-57.0,202.0,-875.0,0.0,0.0,0.0
19:36:35.496000,-547.0,-4.0,0.0,-53.0,123.0,-900.0,0.0,0.0,0.0
19:36:35.501000,-537.0,-44.0,2.0,-53.0,123.0,-900.0,0.0,0.0,0.0
19:36:35.506000,-519.0,-87.0,4.0,-53.0,123.0,-900.0,0.0,0.0,0.0
19:36:35.511000,-493.0,-134.0,2.0,-68.0,48.0,-919.0,0.0,0.0,0.0
19:36:35.515000,-466.0,-185.0,-11.0,-81.0,37.0,-922.0,0.0,0.0,0.0
19:36:35.520000,-461.0,-240.0,-14.0,-81.0,37.0,-922.0,0.0,0.0,0.0
19:36:35.525000,-470.0,-296.0,-2.0,-81.0,37.0,-922.0,0.0,0.0,0.0
19:36:35.529000,-496.0,-351.0,-5.0,-90.0,101.0,-901.0,0.0,0.0,0.0
19:36:35.534000,-534.0,-404.0,-12.0,-90.0,101.0,-901.0,0.0,0.0,0.0
19:36:35.539000,-585.0,-456.0,-16.0,-79.0,184.0,-868.0,0.0,0.0,0.0
19:36:35.543000,-645.0,-508.0,-23.0,-79.0,184.0,-868.0,0.0,0.0,0.0
19:36:35.548000,-645.0,-508.0,-23.0,-61.0,257.0,-840.0,0.0,0.0,0.0
19:36:35.553000,-711.0,-559.0,-37.0,-61.0,257.0,-840.0,0.0,0.0,0.0
19:36:35.558000,-779.0,-609.0,-58.0,-78.0,301.0,-823.0,0.0,0.0,0.0
19:36:35.562000,-847.0,-658.0,-84.0,-78.0,301.0,-823.0,0.0,0.0,0.0
19:36:35.567000,-910.0,-705.0,-100.0,-112.0,279.0,-822.0,0.0,0.0,0.0
19:36:35.586000,-1119.0,-909.0,-196.0,-111.0,254.0,-838.0,0.0,0.0,0.0
19:36:35.590000,-1176.0,-959.0,-231.0,-111.0,254.0,-838.0,0.0,0.0,0.0
19:36:35.595000,-1239.0,-1012.0,-264.0,-107.0,300.0,-844.0,0.0,0.0,0.0
19:36:35.600000,-1304.0,-1071.0,-297.0,-107.0,300.0,-844.0,0.0,0.0,0.0
19:36:35.605000,-1375.0,-1131.0,-333.0,-96.0,329.0,-850.0,0.0,0.0,0.0
19:36:35.609000,-1452.0,-1195.0,-378.0,-96.0,329.0,-850.0,0.0,0.0,0.0
19:36:35.614000,-1538.0,-1260.0,-429.0,-96.0,329.0,-850.0,0.0,0.0,0.0
19:36:35.619000,-1633.0,-1329.0,-480.0,-82.0,373.0,-856.0,0.0,0.0,0.0
19:36:35.623000,-1733.0,-1399.0,-526.0,-112.0,413.0,-855.0,0.0,0.0,0.0
19:36:35.628000,-1834.0,-1470.0,-581.0,-112.0,413.0,-855.0,0.0,0.0,0.0
19:36:35.633000,-1933.0,-1540.0,-658.0,-112.0,413.0,-855.0,0.0,0.0,0.0
19:36:35.637000,-2030.0,-1612.0,-737.0,-182.0,427.0,-850.0,0.0,0.0,0.0
19:36:35.642000,-2124.0,-1682.0,-812.0,-182.0,427.0,-850.0,0.0,0.0,0.0
19:36:35.647000,-2216.0,-1750.0,-891.0,-231.0,432.0,-834.0,0.0,0.0,0.0
19:36:35.652000,-2303.0,-1808.0,-972.0,-231.0,432.0,-834.0,0.0,0.0,0.0
19:36:35.656000,-2303.0,-1808.0,-972.0,-241.0,419.0,-792.0,0.0,0.0,0.0
19:36:35.661000,-2382.0,-1857.0,-1040.0,-241.0,419.0,-792.0,0.0,0.0,0.0
19:36:35.666000,-2450.0,-1897.0,-1089.0,-207.0,351.0,-726.0,0.0,0.0,0.0
19:36:35.670000,-2505.0,-1935.0,-1127.0,-207.0,351.0,-726.0,0.0,0.0,0.0
19:36:35.675000,-2546.0,-1967.0,-1169.0,-197.0,274.0,-661.0,0.0,0.0,0.0
19:36:35.680000,-2578.0,-2002.0,-1212.0,-197.0,274.0,-661.0,0.0,0.0,0.0
19:36:35.684000,-2597.0,-2040.0,-1241.0,-263.0,216.0,-607.0,0.0,0.0,0.0
19:36:35.689000,-2601.0,-2083.0,-1250.0,-263.0,216.0,-607.0,0.0,0.0,0.0
19:36:35.694000,-2587.0,-2126.0,-1250.0,-340.0,104.0,-567.0,0.0,0.0,0.0
19:36:35.699000,-2557.0,-2167.0,-1243.0,-340.0,104.0,-567.0,0.0,0.0,0.0
19:36:35.703000,-2515.0,-2200.0,-1233.0,-396.0,-35.0,-550.0,0.0,0.0,0.0
19:36:35.708000,-2466.0,-2228.0,-1223.0,-396.0,-35.0,-550.0,0.0,0.0,0.0
19:36:35.713000,-2413.0,-2251.0,-1218.0,-471.0,-121.0,-549.0,0.0,0.0,0.0
19:36:35.717000,-2356.0,-2262.0,-1208.0,-471.0,-121.0,-549.0,0.0,0.0,0.0
19:36:35.722000,-2300.0,-2259.0,-1190.0,-471.0,-121.0,-549.0,0.0,0.0,0.0
19:36:35.727000,-2248.0,-2245.0,-1177.0,-595.0,-174.0,-550.0,0.0,0.0,0.0
19:36:35.731000,-2197.0,-2222.0,-1173.0,-595.0,-174.0,-550.0,0.0,0.0,0.0
19:36:35.736000,-2137.0,-2204.0,-1187.0,-746.0,-226.0,-552.0,0.0,0.0,0.0
19:36:35.741000,-2075.0,-2192.0,-1218.0,-746.0,-226.0,-552.0,0.0,0.0,0.0
19:36:35.746000,-2005.0,-2179.0,-1253.0,-884.0,-243.0,-547.0,0.0,0.0,0.0
19:36:35.750000,-1948.0,-2162.0,-1277.0,-884.0,-243.0,-547.0,0.0,0.0,0.0
19:36:35.755000,-1890.0,-2137.0,-1299.0,-954.0,-229.0,-521.0,0.0,0.0,0.0
19:36:35.760000,-1838.0,-2109.0,-1350.0,-954.0,-229.0,-521.0,0.0,0.0,0.0
19:36:35.764000,-1838.0,-2109.0,-1350.0,-1033.0,-213.0,-448.0,0.0,0.0,0.0
19:36:35.769000,-1792.0,-2077.0,-1424.0,-1033.0,-213.0,-448.0,0.0,0.0,0.0
19:36:35.774000,-1773.0,-2022.0,-1449.0,-1228.0,-216.0,-350.0,0.0,0.0,0.0
19:36:35.778000,-1757.0,-1962.0,-1370.0,-1228.0,-216.0,-350.0,0.0,0.0,0.0
19:36:35.783000,-1729.0,-1892.0,-1262.0,-1396.0,-360.0,-270.0,0.0,0.0,0.0
19:36:35.788000,-1656.0,-1824.0,-1138.0,-1396.0,-360.0,-270.0,0.0,0.0,0.0
19:36:35.793000,-1544.0,-1762.0,-1218.0,-1410.0,-573.0,-229.0,0.0,0.0,0.0
19:36:35.797000,-1451.0,-1683.0,-1155.0,-1410.0,-573.0,-229.0,0.0,0.0,0.0
19:36:35.802000,-1360.0,-1609.0,-1241.0,-1335.0,-564.0,-210.0,0.0,0.0,0.0
19:36:35.807000,-1277.0,-1526.0,-1402.0,-1335.0,-564.0,-210.0,0.0,0.0,0.0
19:36:35.811000,-1194.0,-1453.0,-1326.0,-1286.0,-519.0,-217.0,0.0,0.0,0.0
19:36:35.816000,-1097.0,-1382.0,-1277.0,-1286.0,-519.0,-217.0,0.0,0.0,0.0
19:36:35.821000,-1022.0,-1299.0,-1345.0,-1303.0,-514.0,-260.0,0.0,0.0,0.0
19:36:35.825000,-945.0,-1241.0,-1294.0,-1303.0,-514.0,-260.0,0.0,0.0,0.0
19:36:35.830000,-867.0,-1182.0,-1184.0,-1303.0,-514.0,-260.0,0.0,0.0,0.0
19:36:35.835000,-776.0,-1127.0,-1153.0,-1279.0,-583.0,-315.0,0.0,0.0,0.0
19:36:35.840000,-681.0,-1080.0,-1183.0,-1279.0,-583.0,-315.0,0.0,0.0,0.0
19:36:35.844000,-602.0,-1043.0,-1208.0,-1230.0,-662.0,-370.0,0.0,0.0,0.0
19:36:35.849000,-545.0,-1007.0,-1194.0,-1230.0,-571.0,-370.0,0.0,0.0,0.0
19:36:35.854000,-487.0,-986.0,-1166.0,-1173.0,-571.0,-389.0,0.0,0.0,0.0
19:36:35.858000,-429.0,-962.0,-1121.0,-1173.0,-571.0,-389.0,0.0,0.0,0.0
19:36:35.863000,-385.0,-940.0,-1101.0,-1029.0,-503.0,-391.0,0.0,0.0,0.0
19:36:35.868000,-345.0,-932.0,-1120.0,-1029.0,-503.0,-391.0,0.0,0.0,0.0
19:36:35.872000,-326.0,-919.0,-1123.0,-916.0,-436.0,-383.0,0.0,0.0,0.0
19:36:35.877000,-326.0,-919.0,-1123.0,-916.0,-436.0,-383.0,0.0,0.0,0.0
19:36:35.882000,-274.0,-913.0,-1100.0,-910.0,-305.0,-368.0,0.0,0.0,0.0
19:36:35.887000,-296.0,-905.0,-1051.0,-910.0,-305.0,-368.0,0.0,0.0,0.0
19:36:35.891000,-284.0,-912.0,-995.0,-1000.0,-207.0,-334.0,0.0,0.0,0.0
19:36:35.896000,-299.0,-899.0,-963.0,-1000.0,-207.0,-334.0,0.0,0.0,0.0
19:36:35.901000,-241.0,-904.0,-953.0,-1034.0,-134.0,-307.0,0.0,0.0,0.0
19:36:35.905000,-254.0,-884.0,-931.0,-1034.0,-134.0,-307.0,0.0,0.0,0.0
19:36:35.910000,-261.0,-879.0,-891.0,-962.0,-49.0,-271.0,0.0,0.0,0.0
19:36:35.915000,-258.0,-861.0,-808.0,-962.0,-49.0,-271.0,0.0,0.0,0.0
19:36:35.919000,-288.0,-841.0,-715.0,-979.0,-25.0,-192.0,0.0,0.0,0.0
19:36:35.924000,-292.0,-802.0,-656.0,-979.0,-25.0,-192.0,0.0,0.0,0.0
19:36:35.929000,-291.0,-762.0,-619.0,-1060.0,-85.0,-126.0,0.0,0.0,0.0
19:36:35.934000,-313.0,-709.0,-584.0,-1060.0,-85.0,-126.0,0.0,0.0,0.0
19:36:35.938000,-310.0,-660.0,-567.0,-1060.0,-85.0,-126.0,0.0,0.0,0.0
19:36:35.943000,-310.0,-611.0,-553.0,-1101.0,-132.0,-84.0,0.0,0.0,0.0
19:36:35.948000,-315.0,-564.0,-557.0,-1101.0,-132.0,-84.0,0.0,0.0,0.0
19:36:35.952000,-310.0,-522.0,-567.0,-1123.0,-129.0,-54.0,0.0,0.0,0.0
19:36:35.957000,-284.0,-480.0,-554.0,-1123.0,-129.0,-54.0,0.0,0.0,0.0
19:36:35.962000,-245.0,-445.0,-532.0,-1116.0,-155.0,-34.0,0.0,0.0,0.0
19:36:35.966000,-223.0,-413.0,-504.0,-1116.0,-155.0,-34.0,0.0,0.0,0.0
19:36:35.971000,-205.0,-385.0,-457.0,-1071.0,-171.0,-18.0,0.0,0.0,0.0
19:36:35.976000,-183.0,-361.0,-410.0,-1071.0,-171.0,-18.0,0.0,0.0,0.0
19:36:35.981000,-163.0,-341.0,-378.0,-1043.0,-136.0,4.0,0.0,0.0,0.0
19:36:35.985000,-163.0,-341.0,-378.0,-1043.0,-136.0,4.0,0.0,0.0,0.0
19:36:35.990000,-148.0,-327.0,-349.0,-1050.0,-84.0,28.0,0.0,0.0,0.0
19:36:35.995000,-147.0,-317.0,-310.0,-1050.0,-84.0,28.0,0.0,0.0,0.0
19:36:35.999000,-147.0,-306.0,-259.0,-1069.0,-66.0,58.0,0.0,0.0,0.0
19:36:36.004000,-147.0,-298.0,-211.0,-1069.0,-66.0,58.0,0.0,0.0,0.0
19:36:36.008000,-155.0,-287.0,-175.0,-1085.0,-87.0,96.0,0.0,0.0,0.0
19:36:36.013000,-175.0,-274.0,-153.0,-1085.0,-87.0,96.0,0.0,0.0,0.0
19:36:36.018000,-186.0,-263.0,-125.0,-1072.0,-119.0,137.0,0.0,0.0,0.0
19:36:36.023000,-194.0,-260.0,-98.0,-1072.0,-119.0,137.0,0.0,0.0,0.0
19:36:36.028000,-207.0,-252.0,-86.0,-1041.0,-185.0,171.0,0.0,0.0,0.0
19:36:36.032000,-211.0,-249.0,-95.0,-1041.0,-185.0,171.0,0.0,0.0,0.0
19:36:36.037000,-211.0,-245.0,-105.0,-1021.0,-252.0,195.0,0.0,0.0,0.0
19:36:36.042000,-212.0,-247.0,-102.0,-1021.0,-252.0,195.0,0.0,0.0,0.0
19:36:36.046000,-222.0,-245.0,-93.0,-1021.0,-252.0,195.0,0.0,0.0,0.0
19:36:36.051000,-238.0,-242.0,-142.0,-999.0,-252.0,208.0,0.0,0.0,0.0
19:36:36.056000,-259.0,-238.0,-189.0,-999.0,-252.0,208.0,0.0,0.0,0.0
19:36:36.060000,-275.0,-238.0,-197.0,-996.0,-207.0,217.0,0.0,0.0,0.0
19:36:36.065000,-292.0,-236.0,-209.0,-996.0,-207.0,217.0,0.0,0.0,0.0
19:36:36.070000,-312.0,-233.0,-238.0,-999.0,-196.0,224.0,0.0,0.0,0.0
19:36:36.075000,-324.0,-228.0,-255.0,-999.0,-196.0,224.0,0.0,0.0,0.0
19:36:36.079000,-351.0,-221.0,-280.0,-993.0,-207.0,234.0,0.0,0.0,0.0
19:36:36.084000,-355.0,-212.0,-287.0,-993.0,-207.0,234.0,0.0,0.0,0.0
19:36:36.089000,-357.0,-212.0,-274.0,-988.0,-224.0,237.0,0.0,0.0,0.0
19:36:36.093000,-357.0,-212.0,-274.0,-988.0,-224.0,237.0,0.0,0.0,0.0
19:36:36.098000,-374.0,-205.0,-294.0,-991.0,-263.0,239.0,0.0,0.0,0.0
19:36:36.103000,-392.0,-203.0,-247.0,-991.0,-263.0,239.0,0.0,0.0,0.0
19:36:36.107000,-389.0,-193.0,-255.0,-985.0,-300.0,237.0,0.0,0.0,0.0
19:36:36.112000,-391.0,-186.0,-305.0,-985.0,-300.0,237.0,0.0,0.0,0.0
19:36:36.117000,-381.0,-195.0,-277.0,-963.0,-390.0,241.0,0.0,0.0,0.0
19:36:36.122000,-380.0,-205.0,-277.0,-963.0,-390.0,241.0,0.0,0.0,0.0
19:36:36.126000,-293.0,-156.0,-263.0,-854.0,-523.0,255.0,0.0,0.0,0.0
19:36:36.131000,-276.0,-247.0,-171.0,-854.0,-523.0,255.0,0.0,0.0,0.0
19:36:36.136000,-266.0,-273.0,-221.0,-968.0,-422.0,249.0,0.0,0.0,0.0
19:36:36.140000,-281.0,-213.0,-239.0,-968.0,-422.0,249.0,0.0,0.0,0.0
19:36:36.145000,-257.0,-226.0,-252.0,-1167.0,-262.0,242.0,0.0,0.0,0.0
19:36:36.150000,-339.0,-233.0,-278.0,-1167.0,-262.0,242.0,0.0,0.0,0.0
19:36:36.154000,-364.0,-226.0,-309.0,-1167.0,-196.0,242.0,0.0,0.0,0.0
19:36:36.159000,-422.0,-224.0,-366.0,-1104.0,-196.0,230.0,0.0,0.0,0.0
19:36:36.164000,-511.0,-233.0,-401.0,-1104.0,-196.0,230.0,0.0,0.0,0.0
19:36:36.169000,-591.0,-245.0,-455.0,-1047.0,-76.0,229.0,0.0,0.0,0.0
19:36:36.173000,-668.0,-254.0,-474.0,-1047.0,-76.0,229.0,0.0,0.0,0.0
19:36:36.178000,-741.0,-255.0,-451.0,-1049.0,-36.0,228.0,0.0,0.0,0.0
19:36:36.183000,-814.0,-257.0,-457.0,-1049.0,-36.0,228.0,0.0,0.0,0.0
19:36:36.187000,-877.0,-264.0,-499.0,-1122.0,-71.0,208.0,0.0,0.0,0.0
19:36:36.192000,-931.0,-268.0,-523.0,-1122.0,-71.0,208.0,0.0,0.0,0.0
19:36:36.197000,-982.0,-279.0,-539.0,-1189.0,-118.0,194.0,0.0,0.0,0.0
19:36:36.201000,-982.0,-279.0,-539.0,-1189.0,-118.0,194.0,0.0,0.0,0.0
19:36:36.206000,-1031.0,-294.0,-565.0,-1187.0,-169.0,193.0,0.0,0.0,0.0
19:36:36.211000,-1078.0,-300.0,-591.0,-1187.0,-169.0,193.0,0.0,0.0,0.0
19:36:36.216000,-1112.0,-312.0,-607.0,-1179.0,-239.0,204.0,0.0,0.0,0.0
19:36:36.220000,-1130.0,-328.0,-623.0,-1179.0,-239.0,204.0,0.0,0.0,0.0
19:36:36.225000,-1146.0,-341.0,-649.0,-1166.0,-301.0,217.0,0.0,0.0,0.0
19:36:36.230000,-1155.0,-354.0,-696.0,-1166.0,-301.0,217.0,0.0,0.0,0.0
19:36:36.234000,-1156.0,-358.0,-752.0,-1158.0,-317.0,218.0,0.0,0.0,0.0
19:36:36.239000,-1152.0,-359.0,-808.0,-1158.0,-317.0,218.0,0.0,0.0,0.0
19:36:36.244000,-1157.0,-361.0,-837.0,-1203.0,-311.0,213.0,0.0,0.0,0.0
19:36:36.248000,-1171.0,-356.0,-863.0,-1203.0,-311.0,213.0,0.0,0.0,0.0
19:36:36.253000,-1194.0,-347.0,-910.0,-1279.0,-255.0,205.0,0.0,0.0,0.0
19:36:36.258000,-1227.0,-336.0,-973.0,-1279.0,-255.0,205.0,0.0,0.0,0.0
19:36:36.263000,-1265.0,-328.0,-1037.0,-1318.0,-156.0,197.0,0.0,0.0,0.0
19:36:36.267000,-1312.0,-326.0,-1093.0,-1318.0,-156.0,197.0,0.0,0.0,0.0
19:36:36.272000,-1355.0,-330.0,-1152.0,-1318.0,-156.0,197.0,0.0,0.0,0.0
19:36:36.277000,-1386.0,-343.0,-1206.0,-1295.0,-93.0,200.0,0.0,0.0,0.0
19:36:36.281000,-1406.0,-363.0,-1236.0,-1295.0,-93.0,200.0,0.0,0.0,0.0
19:36:36.286000,-1418.0,-387.0,-1269.0,-1217.0,-80.0,204.0,0.0,0.0,0.0
19:36:36.291000,-1430.0,-423.0,-1310.0,-1217.0,-80.0,204.0,0.0,0.0,0.0
19:36:36.295000,-1442.0,-461.0,-1335.0,-1163.0,-42.0,213.0,0.0,0.0,0.0
19:36:36.300000,-1452.0,-499.0,-1341.0,-1163.0,-42.0,213.0,0.0,0.0,0.0
19:36:36.305000,-1463.0,-536.0,-1331.0,-1146.0,-10.0,229.0,0.0,0.0,0.0
19:36:36.310000,-1481.0,-569.0,-1316.0,-1146.0,-10.0,229.0,0.0,0.0,0.0
19:36:36.314000,-1481.0,-569.0,-1316.0,-1132.0,0.0,241.0,0.0,0.0,0.0
19:36:36.319000,-1511.0,-602.0,-1306.0,-1132.0,0.0,241.0,0.0,0.0,0.0
19:36:36.324000,-1553.0,-631.0,-1303.0,-1145.0,78.0,257.0,0.0,0.0,0.0
19:36:36.328000,-1605.0,-658.0,-1301.0,-1145.0,78.0,257.0,0.0,0.0,0.0
19:36:36.333000,-1657.0,-685.0,-1305.0,-1153.0,171.0,278.0,0.0,0.0,0.0
19:36:36.347000,-1780.0,-753.0,-1345.0,-1115.0,195.0,299.0,0.0,0.0,0.0
19:36:36.352000,-1799.0,-772.0,-1357.0,-1048.0,176.0,310.0,0.0,0.0,0.0
19:36:36.357000,-1815.0,-790.0,-1360.0,-1048.0,176.0,310.0,0.0,0.0,0.0
19:36:36.361000,-1831.0,-809.0,-1360.0,-1012.0,190.0,316.0,0.0,0.0,0.0
19:36:36.366000,-1843.0,-827.0,-1359.0,-1012.0,190.0,316.0,0.0,0.0,0.0
19:36:36.371000,-1856.0,-839.0,-1360.0,-1017.0,246.0,320.0,0.0,0.0,0.0
19:36:36.375000,-1872.0,-847.0,-1355.0,-1017.0,246.0,320.0,0.0,0.0,0.0
19:36:36.380000,-1884.0,-851.0,-1344.0,-1017.0,246.0,320.0,0.0,0.0,0.0
19:36:36.385000,-1892.0,-852.0,-1323.0,-1016.0,295.0,318.0,0.0,0.0,0.0
19:36:36.389000,-1895.0,-852.0,-1297.0,-1016.0,295.0,318.0,0.0,0.0,0.0
19:36:36.394000,-1897.0,-847.0,-1270.0,-1008.0,324.0,305.0,0.0,0.0,0.0
19:36:36.399000,-1897.0,-836.0,-1238.0,-1008.0,324.0,305.0,0.0,0.0,0.0
19:36:36.403000,-1899.0,-823.0,-1199.0,-1025.0,355.0,286.0,0.0,0.0,0.0
19:36:36.408000,-1901.0,-812.0,-1153.0,-1025.0,355.0,286.0,0.0,0.0,0.0
19:36:36.413000,-1904.0,-799.0,-1103.0,-1056.0,385.0,266.0,0.0,0.0,0.0
19:36:36.418000,-1908.0,-786.0,-1050.0,-1056.0,385.0,266.0,0.0,0.0,0.0
19:36:36.422000,-1908.0,-786.0,-1050.0,-1068.0,403.0,255.0,0.0,0.0,0.0
19:36:36.427000,-1910.0,-777.0,-997.0,-1068.0,403.0,255.0,0.0,0.0,0.0
19:36:36.432000,-1906.0,-776.0,-949.0,-1044.0,413.0,252.0,0.0,0.0,0.0
19:36:36.436000,-1898.0,-784.0,-903.0,-1044.0,413.0,252.0,0.0,0.0,0.0
19:36:36.441000,-1888.0,-793.0,-857.0,-1016.0,434.0,257.0,0.0,0.0,0.0
19:36:36.446000,-1879.0,-808.0,-808.0,-1016.0,434.0,257.0,0.0,0.0,0.0
19:36:36.451000,-1866.0,-821.0,-756.0,-1022.0,463.0,269.0,0.0,0.0,0.0
19:36:36.455000,-1850.0,-824.0,-705.0,-1022.0,463.0,269.0,0.0,0.0,0.0
19:36:36.460000,-1831.0,-819.0,-661.0,-1071.0,480.0,281.0,0.0,0.0,0.0
19:36:36.465000,-1808.0,-806.0,-623.0,-1071.0,480.0,281.0,0.0,0.0,0.0
19:36:36.469000,-1784.0,-779.0,-585.0,-1143.0,474.0,276.0,0.0,0.0,0.0
19:36:36.474000,-1757.0,-744.0,-549.0,-1143.0,474.0,276.0,0.0,0.0,0.0
19:36:36.479000,-1731.0,-707.0,-516.0,-1212.0,474.0,250.0,0.0,0.0,0.0
19:36:36.483000,-1712.0,-665.0,-484.0,-1212.0,474.0,250.0,0.0,0.0,0.0
19:36:36.488000,-1698.0,-619.0,-452.0,-1212.0,474.0,250.0,0.0,0.0,0.0
19:36:36.493000,-1689.0,-578.0,-417.0,-1250.0,512.0,218.0,0.0,0.0,0.0
19:36:36.498000,-1680.0,-541.0,-381.0,-1250.0,512.0,218.0,0.0,0.0,0.0
19:36:36.502000,-1666.0,-510.0,-347.0,-1204.0,525.0,190.0,0.0,0.0,0.0
19:36:36.507000,-1652.0,-479.0,-315.0,-1204.0,525.0,190.0,0.0,0.0,0.0
19:36:36.512000,-1641.0,-450.0,-282.0,-1084.0,496.0,176.0,0.0,0.0,0.0
19:36:36.516000,-1631.0,-422.0,-258.0,-1084.0,496.0,176.0,0.0,0.0,0.0
19:36:36.521000,-1619.0,-399.0,-245.0,-966.0,483.0,177.0,0.0,0.0,0.0
19:36:36.526000,-1596.0,-391.0,-235.0,-966.0,483.0,177.0,0.0,0.0,0.0
19:36:36.530000,-1596.0,-391.0,-235.0,-871.0,454.0,197.0,0.0,0.0,0.0
19:36:36.535000,-1556.0,-389.0,-221.0,-871.0,454.0,197.0,0.0,0.0,0.0
19:36:36.540000,-1505.0,-382.0,-205.0,-790.0,360.0,221.0,0.0,0.0,0.0
19:36:36.545000,-1459.0,-367.0,-203.0,-790.0,360.0,221.0,0.0,0.0,0.0
19:36:36.549000,-1418.0,-354.0,-226.0,-784.0,321.0,219.0,0.0,0.0,0.0
19:36:36.554000,-1387.0,-332.0,-249.0,-784.0,321.0,219.0,0.0,0.0,0.0
19:36:36.558000,-1373.0,-307.0,-239.0,-853.0,392.0,191.0,0.0,0.0,0.0
19:36:36.563000,-1375.0,-281.0,-212.0,-853.0,392.0,191.0,0.0,0.0,0.0
19:36:36.568000,-1392.0,-246.0,-203.0,-922.0,517.0,152.0,0.0,0.0,0.0
19:36:36.573000,-1422.0,-205.0,-210.0,-922.0,517.0,152.0,0.0,0.0,0.0
19:36:36.577000,-1463.0,-160.0,-212.0,-955.0,621.0,105.0,0.0,0.0,0.0
19:36:36.582000,-1514.0,-122.0,-199.0,-955.0,621.0,105.0,0.0,0.0,0.0
19:36:36.587000,-1566.0,-96.0,-179.0,-942.0,650.0,64.0,0.0,0.0,0.0
19:36:36.592000,-1617.0,-78.0,-148.0,-942.0,650.0,64.0,0.0,0.0,0.0
19:36:36.596000,-1664.0,-63.0,-99.0,-942.0,650.0,64.0,0.0,0.0,0.0
19:36:36.601000,-1710.0,-58.0,-49.0,-878.0,621.0,31.0,0.0,0.0,0.0
19:36:36.606000,-1755.0,-58.0,-14.0,-878.0,621.0,31.0,0.0,0.0,0.0
19:36:36.610000,-1801.0,-57.0,15.0,-789.0,594.0,-2.0,0.0,0.0,0.0
19:36:36.615000,-1854.0,-53.0,52.0,-789.0,594.0,-2.0,0.0,0.0,0.0
19:36:36.620000,-1910.0,-56.0,93.0,-722.0,591.0,-36.0,0.0,0.0,0.0
19:36:36.624000,-1963.0,-67.0,133.0,-722.0,591.0,-36.0,0.0,0.0,0.0
19:36:36.629000,-2007.0,-73.0,176.0,-685.0,556.0,-55.0,0.0,0.0,0.0
19:36:36.634000,-2044.0,-72.0,216.0,-685.0,556.0,-55.0,0.0,0.0,0.0
19:36:36.639000,-2076.0,-73.0,239.0,-649.0,466.0,-73.0,0.0,0.0,0.0
19:36:36.643000,-2076.0,-73.0,239.0,-649.0,466.0,-73.0,0.0,0.0,0.0
19:36:36.648000,-2101.0,-75.0,242.0,-612.0,379.0,-103.0,0.0,0.0,0.0
19:36:36.653000,-2116.0,-77.0,240.0,-612.0,379.0,-103.0,0.0,0.0,0.0
19:36:36.657000,-2123.0,-79.0,234.0,-589.0,317.0,-131.0,0.0,0.0,0.0
19:36:36.662000,-2120.0,-79.0,210.0,-589.0,317.0,-131.0,0.0,0.0,0.0
19:36:36.667000,-2108.0,-74.0,166.0,-578.0,257.0,-165.0,0.0,0.0,0.0
19:36:36.671000,-2090.0,-67.0,120.0,-578.0,257.0,-165.0,0.0,0.0,0.0
19:36:36.676000,-2067.0,-58.0,88.0,-588.0,199.0,-203.0,0.0,0.0,0.0
19:36:36.681000,-2043.0,-49.0,70.0,-588.0,199.0,-203.0,0.0,0.0,0.0
19:36:36.686000,-2019.0,-40.0,57.0,-598.0,158.0,-235.0,0.0,0.0,0.0
19:36:36.690000,-1998.0,-35.0,49.0,-598.0,158.0,-235.0,0.0,0.0,0.0
19:36:36.695000,-1983.0,-28.0,49.0,-590.0,167.0,-255.0,0.0,0.0,0.0
19:36:36.700000,-1974.0,-22.0,53.0,-590.0,167.0,-255.0,0.0,0.0,0.0
19:36:36.704000,-1971.0,-18.0,66.0,-590.0,167.0,-255.0,0.0,0.0,0.0
19:36:36.709000,-1971.0,-18.0,82.0,-569.0,206.0,-257.0,0.0,0.0,0.0
19:36:36.714000,-1970.0,-18.0,101.0,-569.0,206.0,-257.0,0.0,0.0,0.0
19:36:36.718000,-1962.0,-18.0,117.0,-539.0,221.0,-243.0,0.0,0.0,0.0
19:36:36.723000,-1946.0,-15.0,131.0,-539.0,221.0,-243.0,0.0,0.0,0.0
19:36:36.728000,-1920.0,-9.0,146.0,-498.0,182.0,-231.0,0.0,0.0,0.0
19:36:36.733000,-1887.0,-2.0,165.0,-498.0,182.0,-231.0,0.0,0.0,0.0
19:36:36.737000,-1846.0,6.0,193.0,-471.0,97.0,-230.0,0.0,0.0,0.0
19:36:36.742000,-1799.0,18.0,228.0,-471.0,97.0,-230.0,0.0,0.0,0.0
19:36:36.747000,-1747.0,35.0,267.0,-475.0,-9.0,-240.0,0.0,0.0,0.0
19:36:36.751000,-1747.0,35.0,267.0,-475.0,-9.0,-240.0,0.0,0.0,0.0
19:36:36.756000,-1699.0,57.0,298.0,-506.0,-54.0,-259.0,0.0,0.0,0.0
19:36:36.761000,-1664.0,80.0,312.0,-506.0,-54.0,-259.0,0.0,0.0,0.0
19:36:36.765000,-1647.0,103.0,312.0,-550.0,26.0,-274.0,0.0,0.0,0.0
19:36:36.770000,-1644.0,123.0,303.0,-550.0,26.0,-274.0,0.0,0.0,0.0
19:36:36.775000,-1652.0,144.0,295.0,-566.0,115.0,-269.0,0.0,0.0,0.0
19:36:36.779000,-1661.0,165.0,290.0,-566.0,115.0,-269.0,0.0,0.0,0.0
19:36:36.784000,-1671.0,185.0,284.0,-531.0,124.0,-251.0,0.0,0.0,0.0
19:36:36.789000,-1684.0,205.0,270.0,-531.0,124.0,-251.0,0.0,0.0,0.0
19:36:36.793000,-1702.0,227.0,252.0,-490.0,128.0,-229.0,0.0,0.0,0.0
19:36:36.798000,-1721.0,251.0,233.0,-490.0,128.0,-229.0,0.0,0.0,0.0
19:36:36.803000,-1740.0,278.0,217.0,-475.0,146.0,-213.0,0.0,0.0,0.0
19:36:36.808000,-1764.0,308.0,203.0,-475.0,146.0,-213.0,0.0,0.0,0.0
19:36:36.812000,-1793.0,338.0,193.0,-475.0,146.0,-213.0,0.0,0.0,0.0
19:36:36.817000,-1825.0,369.0,191.0,-490.0,179.0,-209.0,0.0,0.0,0.0
19:36:36.822000,-1858.0,401.0,198.0,-490.0,179.0,-209.0,0.0,0.0,0.0
19:36:36.826000,-1884.0,431.0,212.0,-503.0,212.0,-206.0,0.0,0.0,0.0
19:36:36.831000,-1903.0,457.0,231.0,-503.0,212.0,-206.0,0.0,0.0,0.0
19:36:36.836000,-1911.0,480.0,263.0,-489.0,206.0,-218.0,0.0,0.0,0.0
19:36:36.841000,-1915.0,501.0,315.0,-489.0,206.0,-218.0,0.0,0.0,0.0
19:36:36.845000,-1913.0,521.0,387.0,-472.0,165.0,-247.0,0.0,0.0,0.0
19:36:36.850000,-1904.0,539.0,473.0,-472.0,165.0,-247.0,0.0,0.0,0.0
19:36:36.855000,-1893.0,557.0,569.0,-453.0,97.0,-281.0,0.0,0.0,0.0
19:36:36.859000,-1893.0,557.0,569.0,-453.0,97.0,-281.0,0.0,0.0,0.0
19:36:36.864000,-1883.0,575.0,670.0,-433.0,30.0,-313.0,0.0,0.0,0.0
19:36:36.869000,-1869.0,594.0,773.0,-433.0,30.0,-313.0,0.0,0.0,0.0
19:36:36.873000,-1848.0,618.0,871.0,-426.0,-46.0,-354.0,0.0,0.0,0.0
19:36:36.878000,-1822.0,646.0,969.0,-426.0,-46.0,-354.0,0.0,0.0,0.0
19:36:36.883000,-1787.0,681.0,1062.0,-437.0,-166.0,-412.0,0.0,0.0,0.0
19:36:36.888000,-1740.0,719.0,1128.0,-437.0,-166.0,-412.0,0.0,0.0,0.0
19:36:36.892000,-1689.0,755.0,1162.0,-471.0,-251.0,-474.0,0.0,0.0,0.0
19:36:36.897000,-1642.0,784.0,1173.0,-471.0,-251.0,-474.0,0.0,0.0,0.0
19:36:36.902000,-1600.0,808.0,1176.0,-459.0,-274.0,-520.0,0.0,0.0,0.0
19:36:36.906000,-1566.0,829.0,1176.0,-459.0,-274.0,-520.0,0.0,0.0,0.0
19:36:36.911000,-1539.0,844.0,1169.0,-382.0,-274.0,-548.0,0.0,0.0,0.0
19:36:36.916000,-1516.0,851.0,1152.0,-382.0,-274.0,-548.0,0.0,0.0,0.0
19:36:36.920000,-1499.0,850.0,1125.0,-382.0,-246.0,-548.0,0.0,0.0,0.0
19:36:36.925000,-1484.0,842.0,1098.0,-328.0,-246.0,-575.0,0.0,0.0,0.0
19:36:36.930000,-1468.0,830.0,1085.0,-328.0,-246.0,-575.0,0.0,0.0,0.0
19:36:36.935000,-1444.0,814.0,1085.0,-329.0,-247.0,-618.0,0.0,0.0,0.0
19:36:36.939000,-1414.0,795.0,1084.0,-329.0,-247.0,-618.0,0.0,0.0,0.0
19:36:36.944000,-1384.0,767.0,1073.0,-353.0,-299.0,-667.0,0.0,0.0,0.0
19:36:36.949000,-1364.0,734.0,1059.0,-353.0,-299.0,-667.0,0.0,0.0,0.0
19:36:36.953000,-1353.0,695.0,1053.0,-355.0,-317.0,-706.0,0.0,0.0,0.0
19:36:36.958000,-1348.0,648.0,1048.0,-355.0,-317.0,-706.0,0.0,0.0,0.0
19:36:36.963000,-1349.0,590.0,1029.0,-313.0,-303.0,-732.0,0.0,0.0,0.0
19:36:36.967000,-1349.0,590.0,1029.0,-313.0,-303.0,-732.0,0.0,0.0,0.0
19:36:36.972000,-1360.0,521.0,984.0,-257.0,-279.0,-747.0,0.0,0.0,0.0
19:36:36.977000,-1377.0,443.0,928.0,-257.0,-279.0,-747.0,0.0,0.0,0.0
19:36:36.982000,-1400.0,356.0,873.0,-198.0,-257.0,-745.0,0.0,0.0,0.0
19:36:36.986000,-1429.0,262.0,817.0,-198.0,-257.0,-745.0,0.0,0.0,0.0
19:36:36.991000,-1466.0,165.0,760.0,-147.0,-253.0,-735.0,0.0,0.0,0.0
19:36:36.996000,-1514.0,66.0,700.0,-147.0,-253.0,-735.0,0.0,0.0,0.0
19:36:37.000000,-1574.0,-36.0,646.0,-142.0,-234.0,-723.0,0.0,0.0,0.0
19:36:37.005000,-1638.0,-143.0,601.0,-142.0,-234.0,-723.0,0.0,0.0,0.0
19:36:37.010000,-1702.0,-254.0,556.0,-167.0,-227.0,-704.0,0.0,0.0,0.0
19:36:37.014000,-1765.0,-367.0,510.0,-167.0,-227.0,-704.0,0.0,0.0,0.0
19:36:37.019000,-1824.0,-477.0,469.0,-196.0,-269.0,-683.0,0.0,0.0,0.0
19:36:37.024000,-1875.0,-583.0,430.0,-196.0,-269.0,-683.0,0.0,0.0,0.0
19:36:37.028000,-1918.0,-684.0,387.0,-215.0,-345.0,-659.0,0.0,0.0,0.0
19:36:37.033000,-1951.0,-784.0,335.0,-215.0,-345.0,-659.0,0.0,0.0,0.0
19:36:37.038000,-1981.0,-882.0,278.0,-215.0,-345.0,-659.0,0.0,0.0,0.0
19:36:37.043000,-2006.0,-977.0,217.0,-239.0,-412.0,-633.0,0.0,0.0,0.0
19:36:37.047000,-2029.0,-1068.0,157.0,-239.0,-412.0,-633.0,0.0,0.0,0.0
19:36:37.052000,-2051.0,-1153.0,93.0,-275.0,-445.0,-601.0,0.0,0.0,0.0
19:36:37.057000,-2070.0,-1234.0,32.0,-275.0,-445.0,-601.0,0.0,0.0,0.0
19:36:37.061000,-2083.0,-1314.0,-21.0,-313.0,-470.0,-562.0,0.0,0.0,0.0
19:36:37.066000,-2098.0,-1379.0,-70.0,-313.0,-470.0,-562.0,0.0,0.0,0.0
19:36:37.071000,-2111.0,-1435.0,-106.0,-358.0,-499.0,-515.0,0.0,0.0,0.0
19:36:37.076000,-2118.0,-1482.0,-129.0,-358.0,-499.0,-515.0,0.0,0.0,0.0
19:36:37.080000,-2118.0,-1482.0,-129.0,-428.0,-546.0,-466.0,0.0,0.0,0.0
19:36:37.085000,-2116.0,-1512.0,-145.0,-428.0,-546.0,-466.0,0.0,0.0,0.0
19:36:37.090000,-2110.0,-1516.0,-156.0,-514.0,-601.0,-434.0,0.0,0.0,0.0
19:36:37.094000,-2100.0,-1508.0,-157.0,-514.0,-601.0,-434.0,0.0,0.0,0.0
19:36:37.099000,-2084.0,-1497.0,-140.0,-618.0,-683.0,-436.0,0.0,0.0,0.0
19:36:37.104000,-2050.0,-1480.0,-121.0,-618.0,-683.0,-436.0,0.0,0.0,0.0
19:36:37.108000,-1979.0,-1480.0,-118.0,-713.0,-878.0,-443.0,0.0,0.0,0.0
19:36:37.113000,-1877.0,-1477.0,-133.0,-713.0,-878.0,-443.0,0.0,0.0,0.0
19:36:37.118000,-1770.0,-1460.0,-196.0,-773.0,-1000.0,-434.0,0.0,0.0,0.0
19:36:37.123000,-1721.0,-1440.0,-320.0,-773.0,-1000.0,-434.0,0.0,0.0,0.0
19:36:37.127000,-1716.0,-1425.0,-398.0,-748.0,-776.0,-392.0,0.0,0.0,0.0
19:36:37.136000,-1696.0,-1414.0,-396.0,-660.0,-581.0,-327.0,0.0,0.0,0.0
19:36:37.141000,-1694.0,-1411.0,-443.0,-660.0,-581.0,-327.0,0.0,0.0,0.0
19:36:37.146000,-1688.0,-1402.0,-506.0,-660.0,-581.0,-327.0,0.0,0.0,0.0
19:36:37.151000,-1677.0,-1383.0,-553.0,-623.0,-587.0,-276.0,0.0,0.0,0.0
19:36:37.155000,-1678.0,-1376.0,-595.0,-623.0,-587.0,-276.0,0.0,0.0,0.0
19:36:37.160000,-1686.0,-1369.0,-628.0,-678.0,-570.0,-229.0,0.0,0.0,0.0
19:36:37.165000,-1694.0,-1363.0,-646.0,-678.0,-570.0,-229.0,0.0,0.0,0.0
19:36:37.170000,-1705.0,-1355.0,-676.0,-710.0,-541.0,-178.0,0.0,0.0,0.0
19:36:37.174000,-1722.0,-1344.0,-749.0,-710.0,-541.0,-178.0,0.0,0.0,0.0
19:36:37.179000,-1741.0,-1334.0,-809.0,-691.0,-479.0,-128.0,0.0,0.0,0.0
19:36:37.184000,-1745.0,-1318.0,-823.0,-691.0,-479.0,-128.0,0.0,0.0,0.0
19:36:37.188000,-1745.0,-1318.0,-823.0,-699.0,-474.0,-73.0,0.0,0.0,0.0
19:36:37.193000,-1733.0,-1293.0,-823.0,-699.0,-474.0,-73.0,0.0,0.0,0.0
19:36:37.198000,-1710.0,-1257.0,-837.0,-724.0,-529.0,-39.0,0.0,0.0,0.0
19:36:37.202000,-1689.0,-1216.0,-886.0,-724.0,-529.0,-39.0,0.0,0.0,0.0
19:36:37.207000,-1677.0,-1180.0,-939.0,-766.0,-514.0,-20.0,0.0,0.0,0.0
19:36:37.212000,-1661.0,-1146.0,-979.0,-766.0,-514.0,-20.0,0.0,0.0,0.0
19:36:37.217000,-1654.0,-1111.0,-1046.0,-837.0,-473.0,3.0,0.0,0.0,0.0
19:36:37.221000,-1641.0,-1078.0,-1068.0,-837.0,-473.0,3.0,0.0,0.0,0.0
19:36:37.226000,-1624.0,-1042.0,-1033.0,-850.0,-457.0,30.0,0.0,0.0,0.0
19:36:37.231000,-1598.0,-1000.0,-1024.0,-850.0,-457.0,30.0,0.0,0.0,0.0
19:36:37.235000,-1575.0,-950.0,-1053.0,-933.0,-442.0,72.0,0.0,0.0,0.0
19:36:37.240000,-1551.0,-850.0,-1129.0,-933.0,-442.0,72.0,0.0,0.0,0.0
19:36:37.245000,-1565.0,-886.0,-552.0,-1187.0,-684.0,126.0,0.0,0.0,0.0
19:36:37.249000,-1414.0,-836.0,-133.0,-1187.0,-684.0,126.0,0.0,0.0,0.0
19:36:37.254000,-1300.0,-720.0,-897.0,-1187.0,-684.0,126.0,0.0,0.0,0.0
19:36:37.259000,-1302.0,-674.0,-1346.0,-1018.0,-544.0,125.0,0.0,0.0,0.0
19:36:37.264000,-1289.0,-617.0,-1148.0,-1018.0,-544.0,125.0,0.0,0.0,0.0
19:36:37.268000,-1224.0,-576.0,-803.0,-545.0,-398.0,130.0,0.0,0.0,0.0
19:36:37.273000,-1140.0,-536.0,-587.0,-545.0,-398.0,130.0,0.0,0.0,0.0
19:36:37.278000,-1045.0,-497.0,-488.0,-657.0,-676.0,147.0,0.0,0.0,0.0
19:36:37.282000,-952.0,-460.0,-529.0,-657.0,-676.0,147.0,0.0,0.0,0.0
19:36:37.287000,-901.0,-426.0,-503.0,-1059.0,-665.0,112.0,0.0,0.0,0.0
19:36:37.292000,-809.0,-390.0,-445.0,-1059.0,-665.0,112.0,0.0,0.0,0.0
19:36:37.296000,-809.0,-390.0,-445.0,-1138.0,-675.0,71.0,0.0,0.0,0.0
19:36:37.301000,-721.0,-350.0,-378.0,-1138.0,-675.0,71.0,0.0,0.0,0.0
19:36:37.306000,-630.0,-303.0,-297.0,-1088.0,-744.0,38.0,0.0,0.0,0.0
19:36:37.311000,-547.0,-264.0,-212.0,-1088.0,-744.0,38.0,0.0,0.0,0.0
19:36:37.315000,-456.0,-222.0,-191.0,-1110.0,-729.0,14.0,0.0,0.0,0.0
19:36:37.320000,-341.0,-174.0,-231.0,-1110.0,-729.0,14.0,0.0,0.0,0.0
19:36:37.325000,-292.0,-124.0,-277.0,-1143.0,-682.0,5.0,0.0,0.0,0.0
19:36:37.329000,-218.0,-95.0,-191.0,-1143.0,-682.0,5.0,0.0,0.0,0.0
19:36:37.334000,-145.0,-72.0,-110.0,-1115.0,-623.0,11.0,0.0,0.0,0.0
