hh:mm:ss.ms,gyroX[mdps],gyroY[mdps],gyroZ[mdps],accX[mg],accY[mg],accZ[mg],magX[mG],magY[mG],magZ[mG]
19:36:24.964000,1708.0,2371.0,1080.0,-1040.0,-33.0,-249.0,0.0,0.0,0.0
19:36:24.969000,1667.0,2379.0,1092.0,-1014.0,18.0,-246.0,0.0,0.0,0.0
19:36:24.974000,1617.0,2382.0,1101.0,-1014.0,18.0,-246.0,0.0,0.0,0.0
19:36:24.979000,1556.0,2384.0,1099.0,-975.0,106.0,-258.0,0.0,0.0,0.0
19:36:24.983000,1485.0,2376.0,1090.0,-975.0,106.0,-258.0,0.0,0.0,0.0
19:36:24.988000,1407.0,2361.0,1079.0,-913.0,232.0,-279.0,0.0,0.0,0.0
19:36:24.993000,1323.0,2336.0,1062.0,-913.0,232.0,-279.0,0.0,0.0,0.0
19:36:24.997000,1234.0,2304.0,1058.0,-913.0,232.0,-279.0,0.0,0.0,0.0
19:36:25.002000,1152.0,2261.0,1081.0,-795.0,299.0,-304.0,0.0,0.0,0.0
19:36:25.007000,1085.0,2211.0,1130.0,-795.0,299.0,-304.0,0.0,0.0,0.0
19:36:25.011000,1041.0,2161.0,1180.0,-634.0,229.0,-338.0,0.0,0.0,0.0
19:36:25.016000,1023.0,2113.0,1214.0,-634.0,229.0,-338.0,0.0,0.0,0.0
19:36:25.021000,1030.0,2066.0,1229.0,-509.0,88.0,-406.0,0.0,0.0,0.0
19:36:25.026000,1059.0,2023.0,1229.0,-509.0,88.0,-406.0,0.0,0.0,0.0
19:36:25.030000,1100.0,1988.0,1206.0,-493.0,-28.0,-494.0,0.0,0.0,0.0
19:36:25.035000,1139.0,1956.0,1162.0,-493.0,-28.0,-494.0,0.0,0.0,0.0
19:36:25.040000,1139.0,1956.0,1162.0,-583.0,-73.0,-572.0,0.0,0.0,0.0
19:36:25.044000,1168.0,1922.0,1106.0,-583.0,-73.0,-572.0,0.0,0.0,0.0
19:36:25.048000,1178.0,1887.0,1054.0,-685.0,-41.0,-622.0,0.0,0.0,0.0
19:36:25.054000,1169.0,1852.0,1014.0,-685.0,-41.0,-622.0,0.0,0.0,0.0
19:36:25.058000,1139.0,1810.0,959.0,-681.0,66.0,-639.0,0.0,0.0,0.0
19:36:25.063000,1082.0,1761.0,896.0,-681.0,66.0,-639.0,0.0,0.0,0.0
19:36:25.068000,1002.0,1701.0,837.0,-562.0,218.0,-645.0,0.0,0.0,0.0
19:36:25.073000,905.0,1627.0,787.0,-562.0,218.0,-645.0,0.0,0.0,0.0
19:36:25.077000,798.0,1537.0,756.0,-402.0,303.0,-640.0,0.0,0.0,0.0
19:36:25.082000,701.0,1437.0,744.0,-402.0,303.0,-640.0,0.0,0.0,0.0
19:36:25.087000,623.0,1337.0,749.0,-241.0,241.0,-641.0,0.0,0.0,0.0
19:36:25.091000,569.0,1234.0,768.0,-241.0,241.0,-641.0,0.0,0.0,0.0
19:36:25.096000,541.0,1132.0,772.0,-122.0,106.0,-666.0,0.0,0.0,0.0
19:36:25.101000,532.0,1043.0,751.0,-122.0,106.0,-666.0,0.0,0.0,0.0
19:36:25.105000,532.0,967.0,722.0,-122.0,106.0,-666.0,0.0,0.0,0.0
19:36:25.110000,533.0,897.0,696.0,-100.0,46.0,-705.0,0.0,0.0,0.0
19:36:25.115000,534.0,833.0,670.0,-100.0,46.0,-705.0,0.0,0.0,0.0
19:36:25.120000,536.0,773.0,646.0,-202.0,48.0,-738.0,0.0,0.0,0.0
19:36:25.124000,543.0,725.0,615.0,-202.0,48.0,-738.0,0.0,0.0,0.0
19:36:25.129000,546.0,683.0,581.0,-331.0,35.0,-754.0,0.0,0.0,0.0
19:36:25.134000,538.0,646.0,543.0,-331.0,35.0,-754.0,0.0,0.0,0.0
19:36:25.138000,533.0,610.0,503.0,-358.0,33.0,-760.0,0.0,0.0,0.0
19:36:25.143000,534.0,574.0,483.0,-358.0,33.0,-760.0,0.0,0.0,0.0
19:36:25.148000,537.0,574.0,483.0,-301.0,42.0,-765.0,0.0,0.0,0.0
19:36:25.152000,537.0,537.0,492.0,-301.0,42.0,-765.0,0.0,0.0,0.0
19:36:25.157000,538.0,500.0,494.0,-280.0,24.0,-773.0,0.0,0.0,0.0
19:36:25.162000,534.0,464.0,456.0,-280.0,24.0,-773.0,0.0,0.0,0.0
19:36:25.167000,535.0,426.0,419.0,-298.0,0.0,-782.0,0.0,0.0,0.0
19:36:25.171000,541.0,389.0,413.0,-298.0,0.0,-782.0,0.0,0.0,0.0
19:36:25.176000,535.0,350.0,411.0,-263.0,4.0,-787.0,0.0,0.0,0.0
19:36:25.181000,519.0,311.0,397.0,-263.0,4.0,-787.0,0.0,0.0,0.0
19:36:25.185000,506.0,278.0,369.0,-221.0,53.0,-782.0,0.0,0.0,0.0
19:36:25.190000,502.0,256.0,333.0,-221.0,53.0,-782.0,0.0,0.0,0.0
19:36:25.195000,495.0,242.0,307.0,-234.0,65.0,-773.0,0.0,0.0,0.0
19:36:25.199000,501.0,231.0,263.0,-234.0,65.0,-773.0,0.0,0.0,0.0
19:36:25.204000,513.0,224.0,261.0,-294.0,35.0,-770.0,0.0,0.0,0.0
19:36:25.209000,522.0,218.0,277.0,-294.0,35.0,-770.0,0.0,0.0,0.0
19:36:25.214000,528.0,217.0,242.0,-294.0,35.0,-770.0,0.0,0.0,0.0
19:36:25.218000,524.0,217.0,194.0,-352.0,46.0,-764.0,0.0,0.0,0.0
19:36:25.223000,519.0,218.0,175.0,-352.0,46.0,-764.0,0.0,0.0,0.0
19:36:25.228000,511.0,215.0,166.0,-358.0,70.0,-754.0,0.0,0.0,0.0
19:36:25.232000,507.0,208.0,186.0,-358.0,70.0,-754.0,0.0,0.0,0.0
19:36:25.237000,503.0,198.0,227.0,-296.0,50.0,-757.0,0.0,0.0,0.0
19:36:25.242000,506.0,186.0,233.0,-296.0,50.0,-757.0,0.0,0.0,0.0
19:36:25.246000,518.0,179.0,217.0,-237.0,25.0,-775.0,0.0,0.0,0.0
19:36:25.251000,530.0,177.0,214.0,-237.0,25.0,-775.0,0.0,0.0,0.0
19:36:25.256000,545.0,175.0,200.0,-234.0,28.0,-802.0,0.0,0.0,0.0
19:36:25.261000,545.0,175.0,200.0,-234.0,28.0,-802.0,0.0,0.0,0.0
19:36:25.265000,547.0,172.0,203.0,-263.0,53.0,-825.0,0.0,0.0,0.0
19:36:25.270000,541.0,170.0,212.0,-263.0,53.0,-825.0,0.0,0.0,0.0
19:36:25.275000,543.0,171.0,203.0,-279.0,93.0,-842.0,0.0,0.0,0.0
19:36:25.279000,530.0,165.0,211.0,-279.0,93.0,-842.0,0.0,0.0,0.0
19:36:25.283000,506.0,159.0,237.0,-260.0,110.0,-857.0,0.0,0.0,0.0
19:36:25.289000,483.0,151.0,272.0,-260.0,110.0,-857.0,0.0,0.0,0.0
19:36:25.293000,463.0,144.0,303.0,-242.0,101.0,-866.0,0.0,0.0,0.0
19:36:25.298000,442.0,140.0,318.0,-242.0,101.0,-866.0,0.0,0.0,0.0
19:36:25.303000,415.0,135.0,319.0,-262.0,125.0,-869.0,0.0,0.0,0.0
19:36:25.308000,361.0,134.0,317.0,-262.0,125.0,-869.0,0.0,0.0,0.0
19:36:25.312000,301.0,134.0,323.0,-276.0,155.0,-866.0,0.0,0.0,0.0
19:36:25.317000,246.0,137.0,311.0,-276.0,155.0,-866.0,0.0,0.0,0.0
19:36:25.322000,194.0,143.0,279.0,-276.0,155.0,-866.0,0.0,0.0,0.0
19:36:25.326000,146.0,151.0,245.0,-271.0,160.0,-875.0,0.0,0.0,0.0
19:36:25.331000,103.0,160.0,196.0,-271.0,160.0,-875.0,0.0,0.0,0.0
19:36:25.336000,72.0,170.0,137.0,-281.0,158.0,-897.0,0.0,0.0,0.0
19:36:25.340000,53.0,185.0,91.0,-281.0,158.0,-897.0,0.0,0.0,0.0
19:36:25.345000,51.0,201.0,67.0,-311.0,125.0,-921.0,0.0,0.0,0.0
19:36:25.350000,68.0,219.0,54.0,-311.0,125.0,-921.0,0.0,0.0,0.0
19:36:25.355000,97.0,233.0,36.0,-357.0,43.0,-947.0,0.0,0.0,0.0
19:36:25.359000,130.0,245.0,12.0,-357.0,43.0,-947.0,0.0,0.0,0.0
19:36:25.364000,164.0,254.0,3.0,-379.0,2.0,-962.0,0.0,0.0,0.0
19:36:25.369000,164.0,254.0,3.0,-379.0,2.0,-962.0,0.0,0.0,0.0
19:36:25.373000,198.0,263.0,9.0,-361.0,18.0,-962.0,0.0,0.0,0.0
19:36:25.378000,228.0,267.0,18.0,-361.0,18.0,-962.0,0.0,0.0,0.0
19:36:25.383000,251.0,267.0,36.0,-330.0,22.0,-966.0,0.0,0.0,0.0
19:36:25.387000,268.0,263.0,63.0,-330.0,22.0,-966.0,0.0,0.0,0.0
19:36:25.392000,274.0,256.0,81.0,-273.0,57.0,-974.0,0.0,0.0,0.0
19:36:25.397000,263.0,235.0,74.0,-273.0,57.0,-974.0,0.0,0.0,0.0
19:36:25.402000,240.0,211.0,42.0,-179.0,161.0,-967.0,0.0,0.0,0.0
19:36:25.406000,213.0,187.0,0.0,-179.0,161.0,-967.0,0.0,0.0,0.0
19:36:25.411000,193.0,168.0,-46.0,-144.0,199.0,-956.0,0.0,0.0,0.0
19:36:25.416000,182.0,154.0,-81.0,-144.0,199.0,-956.0,0.0,0.0,0.0
19:36:25.420000,182.0,144.0,-92.0,-181.0,107.0,-955.0,0.0,0.0,0.0
19:36:25.425000,189.0,134.0,-79.0,-181.0,107.0,-955.0,0.0,0.0,0.0
19:36:25.430000,193.0,121.0,-65.0,-181.0,45.0,-955.0,0.0,0.0,0.0
19:36:25.434000,191.0,112.0,-86.0,-158.0,40.0,-945.0,0.0,0.0,0.0
19:36:25.439000,191.0,112.0,-134.0,-158.0,40.0,-945.0,0.0,0.0,0.0
19:36:25.444000,198.0,112.0,-159.0,-119.0,42.0,-934.0,0.0,0.0,0.0
19:36:25.449000,204.0,115.0,-147.0,-119.0,17.0,-934.0,0.0,0.0,0.0
19:36:25.453000,210.0,121.0,-117.0,-149.0,17.0,-933.0,0.0,0.0,0.0
19:36:25.458000,217.0,128.0,-93.0,-149.0,17.0,-933.0,0.0,0.0,0.0
19:36:25.463000,226.0,134.0,-81.0,-197.0,-5.0,-929.0,0.0,0.0,0.0
19:36:25.467000,239.0,141.0,-74.0,-197.0,-5.0,-929.0,0.0,0.0,0.0
19:36:25.472000,254.0,149.0,-64.0,-218.0,4.0,-919.0,0.0,0.0,0.0
19:36:25.477000,254.0,149.0,-64.0,-218.0,4.0,-919.0,0.0,0.0,0.0
19:36:25.481000,266.0,156.0,-60.0,-225.0,35.0,-909.0,0.0,0.0,0.0
19:36:25.486000,270.0,165.0,-64.0,-225.0,35.0,-909.0,0.0,0.0,0.0
19:36:25.491000,268.0,173.0,-66.0,-245.0,90.0,-901.0,0.0,0.0,0.0
19:36:25.496000,263.0,181.0,-72.0,-245.0,90.0,-901.0,0.0,0.0,0.0
19:36:25.500000,254.0,187.0,-81.0,-258.0,139.0,-903.0,0.0,0.0,0.0
19:36:25.505000,242.0,191.0,-89.0,-258.0,139.0,-903.0,0.0,0.0,0.0
19:36:25.510000,224.0,193.0,-92.0,-260.0,167.0,-907.0,0.0,0.0,0.0
19:36:25.514000,205.0,191.0,-79.0,-260.0,167.0,-907.0,0.0,0.0,0.0
19:36:25.518000,191.0,189.0,-56.0,-238.0,154.0,-912.0,0.0,0.0,0.0
19:36:25.524000,179.0,186.0,-37.0,-238.0,154.0,-912.0,0.0,0.0,0.0
19:36:25.528000,165.0,178.0,-35.0,-219.0,165.0,-915.0,0.0,0.0,0.0
19:36:25.533000,145.0,170.0,-46.0,-219.0,165.0,-915.0,0.0,0.0,0.0
19:36:25.538000,125.0,163.0,-58.0,-224.0,219.0,-912.0,0.0,0.0,0.0
19:36:25.542000,103.0,154.0,-69.0,-224.0,219.0,-912.0,0.0,0.0,0.0
19:36:25.547000,80.0,141.0,-81.0,-224.0,219.0,-912.0,0.0,0.0,0.0
19:36:25.552000,60.0,127.0,-92.0,-225.0,231.0,-899.0,0.0,0.0,0.0
19:36:25.557000,46.0,112.0,-100.0,-225.0,231.0,-899.0,0.0,0.0,0.0
19:36:25.561000,35.0,95.0,-112.0,-200.0,207.0,-887.0,0.0,0.0,0.0
19:36:25.566000,27.0,77.0,-123.0,-200.0,207.0,-887.0,0.0,0.0,0.0
19:36:25.571000,19.0,60.0,-130.0,-172.0,195.0,-891.0,0.0,0.0,0.0
19:36:25.575000,11.0,43.0,-133.0,-172.0,195.0,-891.0,0.0,0.0,0.0
19:36:25.580000,4.0,26.0,-137.0,-187.0,211.0,-903.0,0.0,0.0,0.0
19:36:25.585000,-3.0,7.0,-139.0,-187.0,211.0,-903.0,0.0,0.0,0.0
19:36:25.589000,-3.0,7.0,-139.0,-212.0,224.0,-908.0,0.0,0.0,0.0
19:36:25.594000,-5.0,-16.0,-132.0,-212.0,224.0,-908.0,0.0,0.0,0.0
19:36:25.599000,-3.0,-42.0,-118.0,-196.0,213.0,-899.0,0.0,0.0,0.0
19:36:25.604000,0.0,-70.0,-105.0,-196.0,213.0,-899.0,0.0,0.0,0.0
19:36:25.608000,0.0,-98.0,-93.0,-163.0,213.0,-883.0,0.0,0.0,0.0
19:36:25.613000,-9.0,-127.0,-79.0,-163.0,213.0,-883.0,0.0,0.0,0.0
19:36:25.618000,-26.0,-156.0,-67.0,-151.0,247.0,-863.0,0.0,0.0,0.0
19:36:25.622000,-49.0,-186.0,-54.0,-151.0,247.0,-863.0,0.0,0.0,0.0
19:36:25.627000,-77.0,-217.0,-43.0,-152.0,278.0,-849.0,0.0,0.0,0.0
19:36:25.632000,-110.0,-249.0,-41.0,-152.0,278.0,-849.0,0.0,0.0,0.0
19:36:25.636000,-151.0,-280.0,-42.0,-158.0,310.0,-848.0,0.0,0.0,0.0
19:36:25.641000,-196.0,-310.0,-47.0,-158.0,310.0,-848.0,0.0,0.0,0.0
19:36:25.646000,-245.0,-340.0,-55.0,-167.0,349.0,-856.0,0.0,0.0,0.0
19:36:25.651000,-298.0,-371.0,-66.0,-167.0,349.0,-856.0,0.0,0.0,0.0
19:36:25.655000,-359.0,-400.0,-81.0,-167.0,349.0,-856.0,0.0,0.0,0.0
19:36:25.660000,-427.0,-430.0,-103.0,-180.0,391.0,-866.0,0.0,0.0,0.0
19:36:25.665000,-500.0,-459.0,-130.0,-180.0,391.0,-866.0,0.0,0.0,0.0
19:36:25.669000,-579.0,-487.0,-165.0,-190.0,442.0,-878.0,0.0,0.0,0.0
19:36:25.674000,-662.0,-515.0,-200.0,-190.0,442.0,-878.0,0.0,0.0,0.0
19:36:25.679000,-753.0,-541.0,-231.0,-202.0,498.0,-903.0,0.0,0.0,0.0
19:36:25.683000,-849.0,-571.0,-259.0,-202.0,498.0,-903.0,0.0,0.0,0.0
19:36:25.688000,-942.0,-606.0,-284.0,-232.0,548.0,-928.0,0.0,0.0,0.0
19:36:25.693000,-1026.0,-646.0,-305.0,-232.0,548.0,-928.0,0.0,0.0,0.0
19:36:25.698000,-1026.0,-646.0,-305.0,-244.0,546.0,-946.0,0.0,0.0,0.0
19:36:25.702000,-1099.0,-690.0,-329.0,-244.0,546.0,-946.0,0.0,0.0,0.0
19:36:25.707000,-1161.0,-735.0,-359.0,-224.0,494.0,-961.0,0.0,0.0,0.0
19:36:25.712000,-1218.0,-784.0,-398.0,-224.0,494.0,-961.0,0.0,0.0,0.0
19:36:25.716000,-1272.0,-829.0,-438.0,-210.0,466.0,-966.0,0.0,0.0,0.0
19:36:25.721000,-1325.0,-873.0,-477.0,-210.0,466.0,-966.0,0.0,0.0,0.0
19:36:25.726000,-1381.0,-910.0,-518.0,-234.0,470.0,-955.0,0.0,0.0,0.0
19:36:25.730000,-1442.0,-942.0,-565.0,-234.0,470.0,-955.0,0.0,0.0,0.0
19:36:25.735000,-1507.0,-969.0,-621.0,-286.0,492.0,-920.0,0.0,0.0,0.0
19:36:25.740000,-1577.0,-995.0,-682.0,-286.0,492.0,-920.0,0.0,0.0,0.0
19:36:25.745000,-1645.0,-1024.0,-736.0,-323.0,500.0,-870.0,0.0,0.0,0.0
19:36:25.749000,-1708.0,-1053.0,-784.0,-323.0,500.0,-870.0,0.0,0.0,0.0
19:36:25.753000,-1775.0,-1086.0,-831.0,-325.0,493.0,-810.0,0.0,0.0,0.0
19:36:25.759000,-1845.0,-1124.0,-870.0,-325.0,493.0,-810.0,0.0,0.0,0.0
19:36:25.763000,-1918.0,-1166.0,-890.0,-325.0,493.0,-810.0,0.0,0.0,0.0
19:36:25.768000,-1989.0,-1212.0,-897.0,-301.0,484.0,-741.0,0.0,0.0,0.0
19:36:25.773000,-2063.0,-1262.0,-905.0,-301.0,484.0,-741.0,0.0,0.0,0.0
19:36:25.777000,-2137.0,-1313.0,-920.0,-272.0,462.0,-677.0,0.0,0.0,0.0
19:36:25.782000,-2214.0,-1367.0,-935.0,-272.0,462.0,-677.0,0.0,0.0,0.0
19:36:25.787000,-2296.0,-1418.0,-938.0,-268.0,429.0,-618.0,0.0,0.0,0.0
19:36:25.792000,-2374.0,-1463.0,-925.0,-268.0,429.0,-618.0,0.0,0.0,0.0
19:36:25.796000,-2452.0,-1504.0,-911.0,-301.0,372.0,-567.0,0.0,0.0,0.0
19:36:25.801000,-2528.0,-1539.0,-907.0,-301.0,372.0,-567.0,0.0,0.0,0.0
19:36:25.806000,-2528.0,-1539.0,-907.0,-377.0,292.0,-541.0,0.0,0.0,0.0
19:36:25.810000,-2597.0,-1567.0,-906.0,-377.0,292.0,-541.0,0.0,0.0,0.0
19:36:25.815000,-2655.0,-1589.0,-905.0,-458.0,187.0,-536.0,0.0,0.0,0.0
19:36:25.820000,-2695.0,-1606.0,-894.0,-458.0,187.0,-536.0,0.0,0.0,0.0
19:36:25.824000,-2717.0,-1619.0,-886.0,-514.0,64.0,-543.0,0.0,0.0,0.0
19:36:25.829000,-2729.0,-1630.0,-893.0,-514.0,64.0,-543.0,0.0,0.0,0.0
19:36:25.834000,-2719.0,-1641.0,-937.0,-572.0,-39.0,-562.0,0.0,0.0,0.0
19:36:25.839000,-2694.0,-1654.0,-988.0,-572.0,-39.0,-562.0,0.0,0.0,0.0
19:36:25.843000,-2648.0,-1661.0,-1019.0,-617.0,-150.0,-598.0,0.0,0.0,0.0
19:36:25.848000,-2596.0,-1681.0,-1027.0,-617.0,-150.0,-598.0,0.0,0.0,0.0
19:36:25.852000,-2542.0,-1706.0,-1007.0,-643.0,-298.0,-636.0,0.0,0.0,0.0
19:36:25.857000,-2486.0,-1730.0,-992.0,-643.0,-298.0,-636.0,0.0,0.0,0.0
19:36:25.862000,-2440.0,-1751.0,-1015.0,-742.0,-414.0,-628.0,0.0,0.0,0.0
19:36:25.867000,-2417.0,-1796.0,-1060.0,-742.0,-414.0,-628.0,0.0,0.0,0.0
19:36:25.871000,-2411.0,-1837.0,-1091.0,-742.0,-414.0,-628.0,0.0,0.0,0.0
19:36:25.876000,-2414.0,-1848.0,-1093.0,-885.0,-444.0,-550.0,0.0,0.0,0.0
19:36:25.881000,-2429.0,-1816.0,-959.0,-885.0,-444.0,-550.0,0.0,0.0,0.0
19:36:25.886000,-2440.0,-1837.0,-253.0,-1052.0,-477.0,-461.0,0.0,0.0,0.0
19:36:25.890000,-2515.0,-1759.0,-448.0,-1052.0,-477.0,-461.0,0.0,0.0,0.0
19:36:25.895000,-2469.0,-1746.0,-1514.0,-1192.0,-333.0,-442.0,0.0,0.0,0.0
19:36:25.900000,-2335.0,-1711.0,-1589.0,-1192.0,-333.0,-442.0,0.0,0.0,0.0
19:36:25.904000,-2303.0,-1694.0,-1080.0,-788.0,-376.0,-455.0,0.0,0.0,0.0
19:36:25.909000,-2268.0,-1663.0,-973.0,-788.0,-376.0,-455.0,0.0,0.0,0.0
19:36:25.914000,-2194.0,-1663.0,-1141.0,-706.0,-535.0,-446.0,0.0,0.0,0.0
19:36:25.918000,-2194.0,-1645.0,-1141.0,-706.0,-535.0,-446.0,0.0,0.0,0.0
19:36:25.923000,-2072.0,-1613.0,-1102.0,-962.0,-620.0,-475.0,0.0,0.0,0.0
19:36:25.928000,-1937.0,-1580.0,-996.0,-962.0,-620.0,-475.0,0.0,0.0,0.0
19:36:25.933000,-1807.0,-1554.0,-958.0,-907.0,-762.0,-530.0,0.0,0.0,0.0
19:36:25.937000,-1689.0,-1531.0,-933.0,-907.0,-762.0,-530.0,0.0,0.0,0.0
19:36:25.942000,-1565.0,-1512.0,-907.0,-940.0,-777.0,-564.0,0.0,0.0,0.0
19:36:25.947000,-1422.0,-1509.0,-851.0,-940.0,-777.0,-564.0,0.0,0.0,0.0
19:36:25.951000,-1317.0,-1503.0,-814.0,-891.0,-744.0,-569.0,0.0,0.0,0.0
19:36:25.956000,-1253.0,-1498.0,-767.0,-891.0,-744.0,-569.0,0.0,0.0,0.0
19:36:25.961000,-1163.0,-1522.0,-765.0,-785.0,-638.0,-530.0,0.0,0.0,0.0
19:36:25.965000,-1116.0,-1540.0,-793.0,-785.0,-638.0,-530.0,0.0,0.0,0.0
19:36:25.970000,-1103.0,-1555.0,-772.0,-640.0,-537.0,-470.0,0.0,0.0,0.0
19:36:25.975000,-1088.0,-1577.0,-737.0,-640.0,-537.0,-470.0,0.0,0.0,0.0
19:36:25.980000,-1092.0,-1593.0,-751.0,-640.0,-537.0,-470.0,0.0,0.0,0.0
19:36:25.984000,-1122.0,-1600.0,-797.0,-566.0,-392.0,-400.0,0.0,0.0,0.0
19:36:25.988000,-1138.0,-1597.0,-861.0,-566.0,-392.0,-400.0,0.0,0.0,0.0
19:36:25.994000,-1129.0,-1583.0,-924.0,-571.0,-267.0,-339.0,0.0,0.0,0.0
19:36:25.998000,-1122.0,-1568.0,-943.0,-571.0,-267.0,-339.0,0.0,0.0,0.0
19:36:26.003000,-1097.0,-1549.0,-919.0,-597.0,-252.0,-290.0,0.0,0.0,0.0
19:36:26.008000,-1064.0,-1526.0,-910.0,-597.0,-252.0,-290.0,0.0,0.0,0.0
19:36:26.012000,-1024.0,-1493.0,-880.0,-698.0,-296.0,-248.0,0.0,0.0,0.0
19:36:26.017000,-970.0,-1456.0,-833.0,-698.0,-296.0,-248.0,0.0,0.0,0.0
19:36:26.022000,-917.0,-1414.0,-793.0,-832.0,-339.0,-219.0,0.0,0.0,0.0
19:36:26.027000,-917.0,-1414.0,-793.0,-832.0,-339.0,-219.0,0.0,0.0,0.0
19:36:26.031000,-877.0,-1365.0,-741.0,-921.0,-350.0,-190.0,0.0,0.0,0.0
19:36:26.036000,-823.0,-1324.0,-678.0,-921.0,-350.0,-190.0,0.0,0.0,0.0
19:36:26.041000,-793.0,-1280.0,-599.0,-984.0,-357.0,-150.0,0.0,0.0,0.0
19:36:26.045000,-770.0,-1237.0,-520.0,-984.0,-357.0,-150.0,0.0,0.0,0.0
19:36:26.050000,-725.0,-1197.0,-490.0,-1078.0,-425.0,-98.0,0.0,0.0,0.0
19:36:26.055000,-687.0,-1156.0,-478.0,-1078.0,-425.0,-98.0,0.0,0.0,0.0
19:36:26.059000,-662.0,-1104.0,-417.0,-1075.0,-423.0,-60.0,0.0,0.0,0.0
19:36:26.064000,-648.0,-1058.0,-368.0,-1075.0,-423.0,-60.0,0.0,0.0,0.0
19:36:26.069000,-653.0,-1012.0,-380.0,-984.0,-269.0,-31.0,0.0,0.0,0.0
19:36:26.074000,-662.0,-970.0,-409.0,-984.0,-269.0,-31.0,0.0,0.0,0.0
19:36:26.078000,-649.0,-926.0,-429.0,-964.0,-208.0,-13.0,0.0,0.0,0.0
19:36:26.083000,-612.0,-880.0,-467.0,-964.0,-208.0,-13.0,0.0,0.0,0.0
19:36:26.088000,-588.0,-828.0,-504.0,-964.0,-208.0,-13.0,0.0,0.0,0.0
19:36:26.092000,-561.0,-781.0,-531.0,-1006.0,-226.0,-10.0,0.0,0.0,0.0
19:36:26.097000,-531.0,-743.0,-535.0,-1006.0,-226.0,-10.0,0.0,0.0,0.0
19:36:26.102000,-503.0,-706.0,-527.0,-1061.0,-219.0,-2.0,0.0,0.0,0.0
19:36:26.106000,-473.0,-676.0,-499.0,-1061.0,-219.0,-2.0,0.0,0.0,0.0
19:36:26.111000,-447.0,-648.0,-459.0,-1076.0,-252.0,8.0,0.0,0.0,0.0
19:36:26.116000,-431.0,-617.0,-425.0,-1076.0,-252.0,8.0,0.0,0.0,0.0
19:36:26.121000,-418.0,-591.0,-403.0,-1071.0,-273.0,28.0,0.0,0.0,0.0
19:36:26.125000,-425.0,-562.0,-387.0,-1071.0,-273.0,28.0,0.0,0.0,0.0
19:36:26.130000,-429.0,-542.0,-372.0,-1048.0,-267.0,53.0,0.0,0.0,0.0
19:36:26.135000,-429.0,-542.0,-372.0,-1048.0,-267.0,53.0,0.0,0.0,0.0
19:36:26.139000,-434.0,-527.0,-372.0,-1020.0,-236.0,78.0,0.0,0.0,0.0
19:36:26.144000,-450.0,-509.0,-408.0,-1020.0,-236.0,78.0,0.0,0.0,0.0
19:36:26.149000,-464.0,-494.0,-447.0,-1011.0,-178.0,96.0,0.0,0.0,0.0
19:36:26.153000,-493.0,-480.0,-476.0,-1011.0,-178.0,96.0,0.0,0.0,0.0
19:36:26.158000,-519.0,-462.0,-515.0,-998.0,-157.0,111.0,0.0,0.0,0.0
19:36:26.163000,-525.0,-445.0,-543.0,-998.0,-157.0,111.0,0.0,0.0,0.0
19:36:26.168000,-520.0,-429.0,-528.0,-985.0,-211.0,119.0,0.0,0.0,0.0
19:36:26.172000,-502.0,-406.0,-538.0,-985.0,-211.0,119.0,0.0,0.0,0.0
19:36:26.177000,-481.0,-385.0,-584.0,-1008.0,-262.0,122.0,0.0,0.0,0.0
19:36:26.182000,-451.0,-358.0,-615.0,-1008.0,-262.0,122.0,0.0,0.0,0.0
19:36:26.186000,-433.0,-334.0,-618.0,-1031.0,-273.0,132.0,0.0,0.0,0.0
19:36:26.191000,-391.0,-322.0,-584.0,-1031.0,-273.0,132.0,0.0,0.0,0.0
19:36:26.196000,-364.0,-304.0,-573.0,-1031.0,-242.0,132.0,0.0,0.0,0.0
19:36:26.200000,-349.0,-284.0,-587.0,-1037.0,-249.0,142.0,0.0,0.0,0.0
19:36:26.205000,-329.0,-268.0,-573.0,-1037.0,-249.0,142.0,0.0,0.0,0.0
19:36:26.210000,-333.0,-253.0,-491.0,-1029.0,-223.0,145.0,0.0,0.0,0.0
19:36:26.215000,-340.0,-241.0,-415.0,-1029.0,-223.0,145.0,0.0,0.0,0.0
19:36:26.219000,-329.0,-233.0,-425.0,-1015.0,-191.0,145.0,0.0,0.0,0.0
19:36:26.223000,-348.0,-226.0,-479.0,-1015.0,-191.0,145.0,0.0,0.0,0.0
19:36:26.229000,-376.0,-207.0,-464.0,-993.0,-116.0,148.0,0.0,0.0,0.0
19:36:26.233000,-383.0,-203.0,-423.0,-993.0,-116.0,148.0,0.0,0.0,0.0
19:36:26.238000,-414.0,-189.0,-422.0,-968.0,-39.0,139.0,0.0,0.0,0.0
19:36:26.243000,-414.0,-189.0,-422.0,-968.0,-39.0,139.0,0.0,0.0,0.0
19:36:26.247000,-427.0,-179.0,-411.0,-996.0,-37.0,118.0,0.0,0.0,0.0
19:36:26.252000,-454.0,-173.0,-368.0,-996.0,-37.0,118.0,0.0,0.0,0.0
19:36:26.257000,-467.0,-154.0,-309.0,-989.0,-111.0,96.0,0.0,0.0,0.0
19:36:26.262000,-447.0,-79.0,-364.0,-989.0,-111.0,96.0,0.0,0.0,0.0
19:36:26.266000,-412.0,-175.0,-342.0,-1051.0,-131.0,91.0,0.0,0.0,0.0
19:36:26.271000,-413.0,-180.0,-220.0,-1051.0,-131.0,91.0,0.0,0.0,0.0
19:36:26.276000,-413.0,-161.0,-183.0,-1122.0,-111.0,84.0,0.0,0.0,0.0
19:36:26.280000,-400.0,-174.0,-167.0,-1122.0,-111.0,84.0,0.0,0.0,0.0
19:36:26.284000,-391.0,-169.0,-148.0,-1029.0,-144.0,75.0,0.0,0.0,0.0
19:36:26.290000,-374.0,-181.0,-138.0,-1029.0,-144.0,75.0,0.0,0.0,0.0
19:36:26.294000,-343.0,-200.0,-95.0,-919.0,-165.0,89.0,0.0,0.0,0.0
19:36:26.299000,-317.0,-215.0,-2.0,-919.0,-165.0,89.0,0.0,0.0,0.0
19:36:26.304000,-301.0,-233.0,55.0,-912.0,-158.0,100.0,0.0,0.0,0.0
19:36:26.309000,-270.0,-253.0,48.0,-912.0,-158.0,100.0,0.0,0.0,0.0
19:36:26.313000,-224.0,-275.0,27.0,-912.0,-158.0,100.0,0.0,0.0,0.0
19:36:26.318000,-191.0,-295.0,32.0,-956.0,-147.0,102.0,0.0,0.0,0.0
19:36:26.323000,-170.0,-315.0,68.0,-956.0,-147.0,102.0,0.0,0.0,0.0
19:36:26.327000,-143.0,-330.0,121.0,-944.0,-146.0,110.0,0.0,0.0,0.0
19:36:26.332000,-110.0,-336.0,179.0,-944.0,-146.0,110.0,0.0,0.0,0.0
19:36:26.337000,-49.0,-329.0,229.0,-955.0,-191.0,125.0,0.0,0.0,0.0
19:36:26.341000,-21.0,-312.0,245.0,-955.0,-191.0,125.0,0.0,0.0,0.0
19:36:26.346000,2.0,-274.0,237.0,-1039.0,-195.0,139.0,0.0,0.0,0.0
19:36:26.351000,21.0,-235.0,238.0,-1039.0,-195.0,139.0,0.0,0.0,0.0
19:36:26.356000,21.0,-235.0,238.0,-1133.0,-114.0,162.0,0.0,0.0,0.0
19:36:26.360000,28.0,-186.0,265.0,-1133.0,-114.0,162.0,0.0,0.0,0.0
19:36:26.365000,39.0,-129.0,296.0,-1235.0,-73.0,182.0,0.0,0.0,0.0
19:36:26.370000,61.0,-57.0,321.0,-1235.0,-73.0,182.0,0.0,0.0,0.0
19:36:26.374000,88.0,23.0,344.0,-1335.0,-102.0,188.0,0.0,0.0,0.0
19:36:26.379000,121.0,100.0,364.0,-1335.0,-102.0,188.0,0.0,0.0,0.0
19:36:26.384000,163.0,179.0,389.0,-1371.0,-121.0,179.0,0.0,0.0,0.0
19:36:26.388000,201.0,256.0,416.0,-1371.0,-121.0,179.0,0.0,0.0,0.0
19:36:26.393000,242.0,334.0,436.0,-1385.0,-124.0,166.0,0.0,0.0,0.0
19:36:26.398000,285.0,410.0,458.0,-1385.0,-124.0,166.0,0.0,0.0,0.0
19:36:26.403000,328.0,483.0,493.0,-1373.0,-132.0,153.0,0.0,0.0,0.0
19:36:26.407000,367.0,549.0,539.0,-1373.0,-132.0,153.0,0.0,0.0,0.0
19:36:26.412000,411.0,614.0,593.0,-1282.0,-131.0,142.0,0.0,0.0,0.0
19:36:26.417000,452.0,665.0,636.0,-1282.0,-131.0,142.0,0.0,0.0,0.0
19:36:26.421000,490.0,709.0,675.0,-1282.0,-131.0,142.0,0.0,0.0,0.0
19:36:26.426000,528.0,753.0,716.0,-1161.0,-96.0,139.0,0.0,0.0,0.0
19:36:26.431000,574.0,802.0,753.0,-1161.0,-96.0,139.0,0.0,0.0,0.0
19:36:26.435000,620.0,853.0,798.0,-1063.0,-59.0,136.0,0.0,0.0,0.0
19:36:26.440000,674.0,908.0,862.0,-1063.0,-59.0,136.0,0.0,0.0,0.0
19:36:26.445000,750.0,966.0,911.0,-1029.0,-105.0,122.0,0.0,0.0,0.0
19:36:26.450000,823.0,1031.0,959.0,-1029.0,-105.0,122.0,0.0,0.0,0.0
19:36:26.454000,896.0,1101.0,1019.0,-1085.0,-183.0,113.0,0.0,0.0,0.0
19:36:26.458000,896.0,1101.0,1019.0,-1085.0,-183.0,113.0,0.0,0.0,0.0
19:36:26.464000,969.0,1173.0,1085.0,-1168.0,-219.0,116.0,0.0,0.0,0.0
19:36:26.468000,1038.0,1250.0,1150.0,-1168.0,-219.0,116.0,0.0,0.0,0.0
19:36:26.473000,1103.0,1325.0,1204.0,-1225.0,-231.0,121.0,0.0,0.0,0.0
19:36:26.478000,1164.0,1405.0,1250.0,-1225.0,-231.0,121.0,0.0,0.0,0.0
19:36:26.482000,1214.0,1479.0,1285.0,-1255.0,-202.0,125.0,0.0,0.0,0.0
19:36:26.487000,1253.0,1552.0,1299.0,-1255.0,-202.0,125.0,0.0,0.0,0.0
19:36:26.492000,1278.0,1620.0,1309.0,-1236.0,-153.0,130.0,0.0,0.0,0.0
19:36:26.497000,1297.0,1678.0,1306.0,-1236.0,-153.0,130.0,0.0,0.0,0.0
19:36:26.501000,1304.0,1724.0,1283.0,-1163.0,-103.0,129.0,0.0,0.0,0.0
19:36:26.506000,1285.0,1761.0,1254.0,-1163.0,-103.0,129.0,0.0,0.0,0.0
19:36:26.511000,1249.0,1785.0,1211.0,-1069.0,-14.0,118.0,0.0,0.0,0.0
19:36:26.515000,1195.0,1796.0,1159.0,-1069.0,-14.0,118.0,0.0,0.0,0.0
19:36:26.520000,1134.0,1798.0,1119.0,-955.0,52.0,91.0,0.0,0.0,0.0
19:36:26.525000,1070.0,1793.0,1079.0,-955.0,52.0,91.0,0.0,0.0,0.0
19:36:26.529000,1010.0,1780.0,1031.0,-955.0,52.0,91.0,0.0,0.0,0.0
19:36:26.534000,957.0,1758.0,987.0,-834.0,34.0,43.0,0.0,0.0,0.0
19:36:26.539000,904.0,1725.0,959.0,-834.0,34.0,43.0,0.0,0.0,0.0
19:36:26.544000,865.0,1689.0,940.0,-740.0,-46.0,-20.0,0.0,0.0,0.0
19:36:26.548000,842.0,1650.0,914.0,-740.0,-46.0,-20.0,0.0,0.0,0.0
19:36:26.553000,830.0,1607.0,881.0,-684.0,-178.0,-108.0,0.0,0.0,0.0
19:36:26.558000,824.0,1559.0,844.0,-684.0,-178.0,-108.0,0.0,0.0,0.0
19:36:26.562000,812.0,1502.0,805.0,-680.0,-283.0,-218.0,0.0,0.0,0.0
19:36:26.567000,789.0,1440.0,784.0,-680.0,-283.0,-218.0,0.0,0.0,0.0
19:36:26.572000,789.0,1440.0,784.0,-687.0,-312.0,-324.0,0.0,0.0,0.0
19:36:26.576000,756.0,1369.0,781.0,-687.0,-312.0,-324.0,0.0,0.0,0.0
19:36:26.581000,721.0,1286.0,772.0,-658.0,-319.0,-427.0,0.0,0.0,0.0
19:36:26.586000,678.0,1196.0,748.0,-658.0,-319.0,-427.0,0.0,0.0,0.0
19:36:26.591000,630.0,1101.0,737.0,-594.0,-337.0,-525.0,0.0,0.0,0.0
19:36:26.595000,581.0,1005.0,732.0,-594.0,-337.0,-525.0,0.0,0.0,0.0
19:36:26.600000,531.0,911.0,710.0,-528.0,-338.0,-571.0,0.0,0.0,0.0
19:36:26.605000,473.0,814.0,685.0,-528.0,-338.0,-571.0,0.0,0.0,0.0
19:36:26.609000,418.0,717.0,676.0,-488.0,-339.0,-547.0,0.0,0.0,0.0
19:36:26.614000,375.0,627.0,659.0,-488.0,-339.0,-547.0,0.0,0.0,0.0
19:36:26.619000,346.0,548.0,593.0,-527.0,-330.0,-492.0,0.0,0.0,0.0
19:36:26.623000,308.0,480.0,496.0,-527.0,-330.0,-492.0,0.0,0.0,0.0
19:36:26.628000,254.0,420.0,415.0,-657.0,-280.0,-430.0,0.0,0.0,0.0
19:36:26.633000,205.0,372.0,359.0,-657.0,-280.0,-430.0,0.0,0.0,0.0
19:36:26.638000,147.0,337.0,297.0,-657.0,-280.0,-430.0,0.0,0.0,0.0
19:36:26.642000,88.0,312.0,214.0,-802.0,-231.0,-376.0,0.0,0.0,0.0
19:36:26.647000,31.0,301.0,118.0,-802.0,-231.0,-376.0,0.0,0.0,0.0
19:36:26.652000,-40.0,287.0,20.0,-929.0,-169.0,-348.0,0.0,0.0,0.0
19:36:26.656000,-96.0,288.0,-50.0,-929.0,-169.0,-348.0,0.0,0.0,0.0
19:36:26.661000,-163.0,289.0,-91.0,-989.0,-99.0,-343.0,0.0,0.0,0.0
19:36:26.666000,-232.0,290.0,-120.0,-989.0,-99.0,-343.0,0.0,0.0,0.0
19:36:26.670000,-293.0,294.0,-172.0,-986.0,-60.0,-344.0,0.0,0.0,0.0
19:36:26.675000,-353.0,296.0,-228.0,-986.0,-60.0,-344.0,0.0,0.0,0.0
19:36:26.680000,-411.0,297.0,-256.0,-997.0,-108.0,-344.0,0.0,0.0,0.0
19:36:26.685000,-411.0,297.0,-256.0,-997.0,-108.0,-344.0,0.0,0.0,0.0
19:36:26.689000,-464.0,295.0,-266.0,-975.0,-179.0,-358.0,0.0,0.0,0.0
19:36:26.693000,-510.0,287.0,-273.0,-975.0,-179.0,-358.0,0.0,0.0,0.0
19:36:26.699000,-562.0,274.0,-292.0,-880.0,-171.0,-375.0,0.0,0.0,0.0
19:36:26.703000,-627.0,259.0,-302.0,-880.0,-171.0,-375.0,0.0,0.0,0.0
19:36:26.708000,-691.0,241.0,-286.0,-789.0,-146.0,-385.0,0.0,0.0,0.0
19:36:26.713000,-749.0,214.0,-261.0,-789.0,-146.0,-385.0,0.0,0.0,0.0
19:36:26.717000,-807.0,179.0,-228.0,-742.0,-186.0,-390.0,0.0,0.0,0.0
19:36:26.722000,-851.0,138.0,-205.0,-742.0,-186.0,-390.0,0.0,0.0,0.0
19:36:26.727000,-895.0,92.0,-191.0,-724.0,-262.0,-378.0,0.0,0.0,0.0
19:36:26.732000,-921.0,50.0,-172.0,-724.0,-262.0,-378.0,0.0,0.0,0.0
19:36:26.736000,-938.0,5.0,-149.0,-695.0,-321.0,-351.0,0.0,0.0,0.0
19:36:26.741000,-942.0,-46.0,-140.0,-695.0,-321.0,-351.0,0.0,0.0,0.0
19:36:26.745000,-934.0,-105.0,-139.0,-679.0,-399.0,-315.0,0.0,0.0,0.0
19:36:26.750000,-901.0,-159.0,-133.0,-679.0,-399.0,-315.0,0.0,0.0,0.0
19:36:26.755000,-844.0,-200.0,-113.0,-679.0,-399.0,-315.0,0.0,0.0,0.0
19:36:26.760000,-782.0,-241.0,-108.0,-698.0,-523.0,-284.0,0.0,0.0,0.0
19:36:26.764000,-717.0,-273.0,-132.0,-698.0,-523.0,-284.0,0.0,0.0,0.0
19:36:26.769000,-655.0,-296.0,-182.0,-752.0,-592.0,-250.0,0.0,0.0,0.0
19:36:26.774000,-598.0,-309.0,-233.0,-752.0,-592.0,-250.0,0.0,0.0,0.0
19:36:26.779000,-549.0,-312.0,-286.0,-813.0,-568.0,-207.0,0.0,0.0,0.0
19:36:26.783000,-514.0,-299.0,-333.0,-813.0,-568.0,-207.0,0.0,0.0,0.0
19:36:26.788000,-490.0,-280.0,-376.0,-860.0,-530.0,-174.0,0.0,0.0,0.0
19:36:26.793000,-490.0,-280.0,-376.0,-860.0,-530.0,-174.0,0.0,0.0,0.0
19:36:26.797000,-475.0,-258.0,-421.0,-894.0,-461.0,-141.0,0.0,0.0,0.0
19:36:26.802000,-469.0,-233.0,-469.0,-894.0,-461.0,-141.0,0.0,0.0,0.0
19:36:26.807000,-469.0,-207.0,-518.0,-900.0,-404.0,-109.0,0.0,0.0,0.0
19:36:26.811000,-465.0,-175.0,-578.0,-900.0,-404.0,-109.0,0.0,0.0,0.0
19:36:26.816000,-457.0,-144.0,-637.0,-885.0,-413.0,-89.0,0.0,0.0,0.0
19:36:26.821000,-448.0,-113.0,-684.0,-885.0,-413.0,-89.0,0.0,0.0,0.0
19:36:26.826000,-436.0,-86.0,-735.0,-842.0,-438.0,-87.0,0.0,0.0,0.0
19:36:26.830000,-420.0,-64.0,-773.0,-842.0,-438.0,-87.0,0.0,0.0,0.0
19:36:26.835000,-403.0,-46.0,-778.0,-753.0,-472.0,-106.0,0.0,0.0,0.0
19:36:26.840000,-385.0,-36.0,-771.0,-753.0,-472.0,-106.0,0.0,0.0,0.0
19:36:26.844000,-364.0,-32.0,-778.0,-677.0,-462.0,-140.0,0.0,0.0,0.0
19:36:26.849000,-347.0,-35.0,-816.0,-677.0,-462.0,-140.0,0.0,0.0,0.0
19:36:26.854000,-339.0,-43.0,-854.0,-677.0,-462.0,-140.0,0.0,0.0,0.0
19:36:26.858000,-331.0,-54.0,-877.0,-626.0,-375.0,-185.0,0.0,0.0,0.0
19:36:26.863000,-326.0,-65.0,-870.0,-626.0,-375.0,-185.0,0.0,0.0,0.0
19:36:26.868000,-319.0,-70.0,-840.0,-562.0,-327.0,-233.0,0.0,0.0,0.0
19:36:26.873000,-310.0,-82.0,-798.0,-562.0,-327.0,-233.0,0.0,0.0,0.0
19:36:26.877000,-298.0,-101.0,-755.0,-517.0,-360.0,-279.0,0.0,0.0,0.0
19:36:26.882000,-287.0,-121.0,-711.0,-517.0,-360.0,-279.0,0.0,0.0,0.0
19:36:26.887000,-276.0,-142.0,-650.0,-495.0,-373.0,-317.0,0.0,0.0,0.0
19:36:26.891000,-273.0,-166.0,-578.0,-495.0,-373.0,-317.0,0.0,0.0,0.0
19:36:26.896000,-275.0,-193.0,-521.0,-507.0,-337.0,-346.0,0.0,0.0,0.0
19:36:26.901000,-275.0,-193.0,-521.0,-507.0,-337.0,-346.0,0.0,0.0,0.0
19:36:26.905000,-283.0,-220.0,-483.0,-556.0,-292.0,-350.0,0.0,0.0,0.0
19:36:26.910000,-293.0,-247.0,-457.0,-556.0,-292.0,-350.0,0.0,0.0,0.0
19:36:26.915000,-308.0,-273.0,-437.0,-579.0,-273.0,-333.0,0.0,0.0,0.0
19:36:26.920000,-322.0,-294.0,-413.0,-579.0,-273.0,-333.0,0.0,0.0,0.0
19:36:26.924000,-329.0,-313.0,-393.0,-595.0,-305.0,-321.0,0.0,0.0,0.0
19:36:26.928000,-322.0,-333.0,-382.0,-595.0,-305.0,-321.0,0.0,0.0,0.0
19:36:26.934000,-315.0,-351.0,-371.0,-628.0,-328.0,-321.0,0.0,0.0,0.0
19:36:26.938000,-303.0,-365.0,-371.0,-628.0,-328.0,-321.0,0.0,0.0,0.0
19:36:26.943000,-291.0,-375.0,-391.0,-662.0,-318.0,-321.0,0.0,0.0,0.0
19:36:26.948000,-285.0,-380.0,-436.0,-662.0,-318.0,-321.0,0.0,0.0,0.0
19:36:26.952000,-259.0,-386.0,-506.0,-686.0,-337.0,-310.0,0.0,0.0,0.0
19:36:26.957000,-235.0,-383.0,-497.0,-686.0,-337.0,-310.0,0.0,0.0,0.0
19:36:26.962000,-208.0,-380.0,-456.0,-686.0,-400.0,-310.0,0.0,0.0,0.0
19:36:26.967000,-189.0,-378.0,-457.0,-711.0,-375.0,-295.0,0.0,0.0,0.0
19:36:26.971000,-186.0,-372.0,-441.0,-711.0,-375.0,-295.0,0.0,0.0,0.0
19:36:26.976000,-186.0,-372.0,-389.0,-769.0,-383.0,-280.0,0.0,0.0,0.0
19:36:26.981000,-189.0,-375.0,-412.0,-769.0,-383.0,-280.0,0.0,0.0,0.0
19:36:26.985000,-197.0,-375.0,-452.0,-808.0,-330.0,-265.0,0.0,0.0,0.0
19:36:26.990000,-214.0,-377.0,-449.0,-808.0,-330.0,-265.0,0.0,0.0,0.0
19:36:26.995000,-225.0,-380.0,-449.0,-798.0,-300.0,-254.0,0.0,0.0,0.0
19:36:26.999000,-240.0,-385.0,-446.0,-798.0,-300.0,-254.0,0.0,0.0,0.0
19:36:27.004000,-250.0,-394.0,-455.0,-803.0,-336.0,-245.0,0.0,0.0,0.0
19:36:27.009000,-250.0,-394.0,-455.0,-803.0,-336.0,-245.0,0.0,0.0,0.0
19:36:27.014000,-261.0,-410.0,-450.0,-817.0,-370.0,-233.0,0.0,0.0,0.0
19:36:27.018000,-259.0,-423.0,-445.0,-817.0,-370.0,-233.0,0.0,0.0,0.0
19:36:27.023000,-259.0,-438.0,-480.0,-820.0,-401.0,-216.0,0.0,0.0,0.0
19:36:27.028000,-254.0,-455.0,-513.0,-820.0,-401.0,-216.0,0.0,0.0,0.0
19:36:27.032000,-242.0,-475.0,-515.0,-800.0,-456.0,-205.0,0.0,0.0,0.0
19:36:27.037000,-234.0,-488.0,-499.0,-800.0,-456.0,-205.0,0.0,0.0,0.0
19:36:27.042000,-200.0,-518.0,-515.0,-765.0,-494.0,-200.0,0.0,0.0,0.0
19:36:27.046000,-178.0,-544.0,-504.0,-765.0,-494.0,-200.0,0.0,0.0,0.0
19:36:27.051000,-158.0,-567.0,-508.0,-818.0,-492.0,-197.0,0.0,0.0,0.0
19:36:27.056000,-140.0,-576.0,-549.0,-818.0,-492.0,-197.0,0.0,0.0,0.0
19:36:27.061000,-126.0,-581.0,-609.0,-906.0,-430.0,-201.0,0.0,0.0,0.0
19:36:27.065000,-132.0,-604.0,-657.0,-906.0,-430.0,-201.0,0.0,0.0,0.0
19:36:27.070000,-142.0,-637.0,-671.0,-902.0,-320.0,-186.0,0.0,0.0,0.0
19:36:27.075000,-140.0,-665.0,-679.0,-902.0,-320.0,-186.0,0.0,0.0,0.0
19:36:27.079000,-145.0,-695.0,-689.0,-902.0,-320.0,-186.0,0.0,0.0,0.0
19:36:27.084000,-156.0,-726.0,-702.0,-871.0,-267.0,-164.0,0.0,0.0,0.0
19:36:27.089000,-165.0,-756.0,-698.0,-871.0,-267.0,-164.0,0.0,0.0,0.0
19:36:27.093000,-197.0,-798.0,-671.0,-862.0,-219.0,-150.0,0.0,0.0,0.0
19:36:27.098000,-216.0,-833.0,-651.0,-862.0,-219.0,-150.0,0.0,0.0,0.0
19:36:27.103000,-227.0,-852.0,-673.0,-864.0,-173.0,-140.0,0.0,0.0,0.0
19:36:27.108000,-250.0,-884.0,-684.0,-864.0,-173.0,-140.0,0.0,0.0,0.0
19:36:27.112000,-281.0,-921.0,-650.0,-872.0,-154.0,-124.0,0.0,0.0,0.0
19:36:27.117000,-300.0,-936.0,-602.0,-872.0,-154.0,-124.0,0.0,0.0,0.0
19:36:27.122000,-300.0,-936.0,-602.0,-869.0,-146.0,-110.0,0.0,0.0,0.0
19:36:27.126000,-327.0,-962.0,-563.0,-869.0,-146.0,-110.0,0.0,0.0,0.0
19:36:27.131000,-359.0,-992.0,-529.0,-900.0,-122.0,-108.0,0.0,0.0,0.0
19:36:27.136000,-385.0,-993.0,-501.0,-900.0,-122.0,-108.0,0.0,0.0,0.0
19:36:27.140000,-417.0,-983.0,-473.0,-966.0,-65.0,-110.0,0.0,0.0,0.0
19:36:27.145000,-457.0,-979.0,-438.0,-966.0,-65.0,-110.0,0.0,0.0,0.0
19:36:27.150000,-502.0,-954.0,-402.0,-1048.0,-66.0,-136.0,0.0,0.0,0.0
19:36:27.154000,-537.0,-921.0,-367.0,-1048.0,-66.0,-136.0,0.0,0.0,0.0
19:36:27.159000,-564.0,-893.0,-315.0,-1206.0,-108.0,-148.0,0.0,0.0,0.0
19:36:27.163000,-579.0,-890.0,-224.0,-1206.0,-108.0,-148.0,0.0,0.0,0.0
19:36:27.169000,-585.0,-872.0,-144.0,-1297.0,-150.0,-169.0,0.0,0.0,0.0
19:36:27.173000,-609.0,-837.0,-158.0,-1297.0,-150.0,-169.0,0.0,0.0,0.0
19:36:27.178000,-641.0,-830.0,-166.0,-1258.0,-134.0,-189.0,0.0,0.0,0.0
19:36:27.182000,-646.0,-823.0,-133.0,-1258.0,-134.0,-189.0,0.0,0.0,0.0
19:36:27.187000,-650.0,-817.0,-116.0,-1258.0,-134.0,-189.0,0.0,0.0,0.0
19:36:27.192000,-631.0,-817.0,-147.0,-1202.0,-169.0,-190.0,0.0,0.0,0.0
19:36:27.197000,-599.0,-831.0,-136.0,-1202.0,-169.0,-190.0,0.0,0.0,0.0
19:36:27.201000,-549.0,-845.0,-120.0,-1169.0,-316.0,-203.0,0.0,0.0,0.0
19:36:27.206000,-494.0,-865.0,-151.0,-1169.0,-316.0,-203.0,0.0,0.0,0.0
19:36:27.211000,-455.0,-897.0,-177.0,-1154.0,-401.0,-199.0,0.0,0.0,0.0
19:36:27.216000,-407.0,-940.0,-188.0,-1154.0,-401.0,-199.0,0.0,0.0,0.0
19:36:27.220000,-373.0,-969.0,-333.0,-1156.0,-400.0,-183.0,0.0,0.0,0.0
19:36:27.225000,-361.0,-1005.0,-392.0,-1156.0,-400.0,-183.0,0.0,0.0,0.0
19:36:27.230000,-361.0,-1005.0,-392.0,-1072.0,-327.0,-147.0,0.0,0.0,0.0
19:36:27.234000,-364.0,-1043.0,-406.0,-1072.0,-327.0,-147.0,0.0,0.0,0.0
19:36:27.239000,-376.0,-1080.0,-427.0,-923.0,-225.0,-95.0,0.0,0.0,0.0
19:36:27.244000,-405.0,-1113.0,-425.0,-923.0,-225.0,-95.0,0.0,0.0,0.0
19:36:27.248000,-447.0,-1138.0,-411.0,-877.0,-123.0,-51.0,0.0,0.0,0.0
19:36:27.253000,-511.0,-1147.0,-489.0,-877.0,-123.0,-51.0,0.0,0.0,0.0
19:36:27.258000,-576.0,-1158.0,-526.0,-872.0,20.0,-17.0,0.0,0.0,0.0
19:36:27.263000,-636.0,-1183.0,-497.0,-872.0,20.0,-17.0,0.0,0.0,0.0
19:36:27.267000,-744.0,-1217.0,-480.0,-866.0,158.0,53.0,0.0,0.0,0.0
19:36:27.272000,-819.0,-1235.0,-469.0,-866.0,158.0,53.0,0.0,0.0,0.0
19:36:27.277000,-856.0,-1299.0,-464.0,-927.0,209.0,174.0,0.0,0.0,0.0
19:36:27.281000,-932.0,-1338.0,-425.0,-927.0,209.0,174.0,0.0,0.0,0.0
19:36:27.286000,-950.0,-1407.0,-363.0,-1101.0,189.0,294.0,0.0,0.0,0.0
19:36:27.291000,-963.0,-1448.0,-322.0,-1101.0,189.0,294.0,0.0,0.0,0.0
19:36:27.295000,-1020.0,-1454.0,-368.0,-1279.0,259.0,355.0,0.0,0.0,0.0
19:36:27.300000,-1047.0,-1443.0,-503.0,-1279.0,259.0,355.0,0.0,0.0,0.0
19:36:27.305000,-1179.0,-1417.0,-599.0,-1279.0,259.0,355.0,0.0,0.0,0.0
19:36:27.310000,-1301.0,-1408.0,-486.0,-1289.0,108.0,361.0,0.0,0.0,0.0
19:36:27.314000,-1231.0,-1423.0,-377.0,-1289.0,108.0,361.0,0.0,0.0,0.0
19:36:27.319000,-1180.0,-1450.0,-301.0,-1262.0,-188.0,340.0,0.0,0.0,0.0
19:36:27.324000,-1189.0,-1509.0,-274.0,-1262.0,-188.0,340.0,0.0,0.0,0.0
19:36:27.328000,-1186.0,-1545.0,-333.0,-1431.0,-23.0,440.0,0.0,0.0,0.0
19:36:27.333000,-1157.0,-1499.0,-377.0,-1431.0,-23.0,440.0,0.0,0.0,0.0
19:36:27.338000,-1157.0,-1499.0,-377.0,-1362.0,-47.0,511.0,0.0,0.0,0.0
19:36:27.342000,-1174.0,-1395.0,-764.0,-1362.0,-47.0,511.0,0.0,0.0,0.0
19:36:27.347000,-1257.0,-1360.0,-1211.0,-876.0,-150.0,450.0,0.0,0.0,0.0
19:36:27.352000,-1365.0,-1380.0,-1129.0,-876.0,-150.0,450.0,0.0,0.0,0.0
19:36:27.357000,-1514.0,-1415.0,-916.0,-637.0,250.0,458.0,0.0,0.0,0.0
19:36:27.361000,-1675.0,-1449.0,-879.0,-637.0,250.0,458.0,0.0,0.0,0.0
19:36:27.366000,-1793.0,-1483.0,-939.0,-831.0,502.0,465.0,0.0,0.0,0.0
19:36:27.371000,-1871.0,-1526.0,-1015.0,-831.0,502.0,465.0,0.0,0.0,0.0
19:36:27.375000,-1930.0,-1584.0,-1074.0,-1028.0,443.0,435.0,0.0,0.0,0.0
19:36:27.380000,-1975.0,-1649.0,-1083.0,-1028.0,443.0,435.0,0.0,0.0,0.0
19:36:27.385000,-2019.0,-1717.0,-1019.0,-986.0,354.0,419.0,0.0,0.0,0.0
