hh:mm:ss.ms,gyroX[mdps],gyroY[mdps],gyroZ[mdps],accX[mg],accY[mg],accZ[mg],magX[mG],magY[mG],magZ[mG]
19:36:51.508000,1329.0,2441.0,1514.0,-818.0,-228.0,-333.0,0.0,0.0,0.0
19:36:51.513000,1351.0,2455.0,1520.0,-818.0,-228.0,-333.0,0.0,0.0,0.0
19:36:51.518000,1339.0,2451.0,1530.0,-786.0,-133.0,-315.0,0.0,0.0,0.0
19:36:51.522000,1339.0,2451.0,1530.0,-786.0,-133.0,-315.0,0.0,0.0,0.0
19:36:51.527000,1315.0,2459.0,1547.0,-775.0,44.0,-300.0,0.0,0.0,0.0
19:36:51.532000,1277.0,2456.0,1549.0,-775.0,44.0,-300.0,0.0,0.0,0.0
19:36:51.537000,1243.0,2450.0,1491.0,-762.0,157.0,-279.0,0.0,0.0,0.0
19:36:51.541000,1187.0,2429.0,1384.0,-762.0,157.0,-279.0,0.0,0.0,0.0
19:36:51.546000,1122.0,2391.0,1320.0,-638.0,210.0,-262.0,0.0,0.0,0.0
19:36:51.551000,1040.0,2346.0,1351.0,-638.0,210.0,-262.0,0.0,0.0,0.0
19:36:51.555000,956.0,2300.0,1402.0,-472.0,222.0,-352.0,0.0,0.0,0.0
19:36:51.560000,899.0,2284.0,1347.0,-472.0,222.0,-352.0,0.0,0.0,0.0
19:36:51.564000,849.0,2265.0,1211.0,-449.0,180.0,-502.0,0.0,0.0,0.0
19:36:51.569000,803.0,2214.0,1115.0,-449.0,180.0,-502.0,0.0,0.0,0.0
19:36:51.574000,757.0,2147.0,1068.0,-333.0,138.0,-577.0,0.0,0.0,0.0
19:36:51.579000,716.0,2076.0,1085.0,-333.0,138.0,-577.0,0.0,0.0,0.0
19:36:51.584000,694.0,2020.0,1152.0,-146.0,97.0,-645.0,0.0,0.0,0.0
19:36:51.588000,715.0,1980.0,1218.0,-138.0,97.0,-645.0,0.0,0.0,0.0
19:36:51.593000,756.0,1956.0,1251.0,-138.0,97.0,-645.0,0.0,0.0,0.0
19:36:51.598000,804.0,1921.0,1245.0,-258.0,-5.0,-726.0,0.0,0.0,0.0
19:36:51.602000,850.0,1878.0,1215.0,-258.0,-5.0,-726.0,0.0,0.0,0.0
19:36:51.607000,879.0,1835.0,1194.0,-453.0,-65.0,-733.0,0.0,0.0,0.0
19:36:51.612000,891.0,1772.0,1186.0,-453.0,-65.0,-733.0,0.0,0.0,0.0
19:36:51.616000,897.0,1698.0,1184.0,-375.0,24.0,-712.0,0.0,0.0,0.0
19:36:51.621000,907.0,1614.0,1194.0,-375.0,24.0,-712.0,0.0,0.0,0.0
19:36:51.625000,907.0,1614.0,1194.0,-206.0,100.0,-733.0,0.0,0.0,0.0
19:36:51.631000,929.0,1409.0,1209.0,-206.0,100.0,-733.0,0.0,0.0,0.0
19:36:51.635000,929.0,1409.0,1209.0,-72.0,113.0,-754.0,0.0,0.0,0.0
19:36:51.640000,925.0,1302.0,1206.0,-72.0,113.0,-754.0,0.0,0.0,0.0
19:36:51.645000,901.0,1189.0,1201.0,25.0,151.0,-763.0,0.0,0.0,0.0
19:36:51.649000,867.0,1080.0,1199.0,25.0,151.0,-763.0,0.0,0.0,0.0
19:36:51.654000,835.0,981.0,1209.0,41.0,157.0,-774.0,0.0,0.0,0.0
19:36:51.659000,796.0,886.0,1229.0,41.0,157.0,-774.0,0.0,0.0,0.0
19:36:51.663000,754.0,801.0,1223.0,15.0,131.0,-765.0,0.0,0.0,0.0
19:36:51.668000,709.0,722.0,1164.0,15.0,131.0,-765.0,0.0,0.0,0.0
19:36:51.673000,662.0,648.0,1068.0,1.0,145.0,-757.0,0.0,0.0,0.0
19:36:51.678000,625.0,583.0,975.0,1.0,145.0,-757.0,0.0,0.0,0.0
19:36:51.682000,597.0,534.0,910.0,-35.0,122.0,-775.0,0.0,0.0,0.0
19:36:51.687000,571.0,493.0,857.0,-35.0,122.0,-775.0,0.0,0.0,0.0
19:36:51.692000,551.0,462.0,802.0,-111.0,55.0,-800.0,0.0,0.0,0.0
19:36:51.696000,534.0,438.0,725.0,-111.0,55.0,-800.0,0.0,0.0,0.0
19:36:51.701000,513.0,415.0,653.0,-111.0,55.0,-800.0,0.0,0.0,0.0
19:36:51.706000,491.0,391.0,602.0,-174.0,50.0,-818.0,0.0,0.0,0.0
19:36:51.710000,466.0,366.0,553.0,-174.0,50.0,-818.0,0.0,0.0,0.0
19:36:51.715000,438.0,338.0,501.0,-190.0,89.0,-838.0,0.0,0.0,0.0
19:36:51.720000,410.0,310.0,458.0,-190.0,89.0,-838.0,0.0,0.0,0.0
19:36:51.725000,387.0,281.0,438.0,-183.0,106.0,-854.0,0.0,0.0,0.0
19:36:51.729000,369.0,256.0,434.0,-183.0,106.0,-854.0,0.0,0.0,0.0
19:36:51.734000,356.0,235.0,433.0,-154.0,66.0,-865.0,0.0,0.0,0.0
19:36:51.739000,346.0,213.0,435.0,-154.0,66.0,-865.0,0.0,0.0,0.0
19:36:51.743000,346.0,213.0,435.0,-124.0,15.0,-874.0,0.0,0.0,0.0
19:36:51.748000,343.0,196.0,444.0,-124.0,15.0,-874.0,0.0,0.0,0.0
19:36:51.753000,345.0,182.0,457.0,-133.0,-25.0,-886.0,0.0,0.0,0.0
19:36:51.757000,352.0,172.0,466.0,-133.0,-25.0,-886.0,0.0,0.0,0.0
19:36:51.762000,360.0,165.0,474.0,-154.0,-60.0,-905.0,0.0,0.0,0.0
19:36:51.767000,367.0,161.0,482.0,-154.0,-60.0,-905.0,0.0,0.0,0.0
19:36:51.772000,369.0,161.0,485.0,-158.0,-68.0,-925.0,0.0,0.0,0.0
19:36:51.776000,367.0,163.0,479.0,-158.0,-68.0,-925.0,0.0,0.0,0.0
19:36:51.781000,359.0,168.0,472.0,-155.0,-60.0,-941.0,0.0,0.0,0.0
19:36:51.785000,347.0,172.0,467.0,-155.0,-60.0,-941.0,0.0,0.0,0.0
19:36:51.790000,331.0,178.0,459.0,-144.0,-50.0,-950.0,0.0,0.0,0.0
19:36:51.795000,312.0,180.0,439.0,-144.0,-50.0,-950.0,0.0,0.0,0.0
19:36:51.799000,291.0,179.0,406.0,-113.0,-31.0,-951.0,0.0,0.0,0.0
19:36:51.804000,267.0,175.0,360.0,-113.0,-31.0,-951.0,0.0,0.0,0.0
19:36:51.809000,245.0,168.0,310.0,-113.0,-31.0,-951.0,0.0,0.0,0.0
19:36:51.814000,226.0,158.0,260.0,-61.0,-13.0,-950.0,0.0,0.0,0.0
19:36:51.819000,210.0,144.0,207.0,-61.0,-13.0,-950.0,0.0,0.0,0.0
19:36:51.823000,202.0,130.0,155.0,-18.0,-15.0,-954.0,0.0,0.0,0.0
19:36:51.828000,200.0,116.0,116.0,-18.0,-15.0,-954.0,0.0,0.0,0.0
19:36:51.833000,204.0,101.0,86.0,-4.0,-29.0,-968.0,0.0,0.0,0.0
19:36:51.837000,211.0,88.0,53.0,-4.0,-29.0,-968.0,0.0,0.0,0.0
19:36:51.842000,219.0,74.0,23.0,-29.0,-31.0,-984.0,0.0,0.0,0.0
19:36:51.847000,232.0,63.0,0.0,-29.0,-31.0,-984.0,0.0,0.0,0.0
19:36:51.851000,232.0,63.0,0.0,-49.0,-44.0,-988.0,0.0,0.0,0.0
19:36:51.856000,252.0,51.0,-12.0,-49.0,-44.0,-988.0,0.0,0.0,0.0
19:36:51.861000,277.0,41.0,-24.0,-32.0,-69.0,-985.0,0.0,0.0,0.0
19:36:51.866000,298.0,32.0,-39.0,-32.0,-69.0,-985.0,0.0,0.0,0.0
19:36:51.870000,312.0,20.0,-53.0,-25.0,-50.0,-974.0,0.0,0.0,0.0
19:36:51.875000,322.0,10.0,-65.0,-25.0,-50.0,-974.0,0.0,0.0,0.0
19:36:51.880000,329.0,3.0,-70.0,-30.0,-8.0,-964.0,0.0,0.0,0.0
19:36:51.884000,329.0,-2.0,-73.0,-30.0,-8.0,-964.0,0.0,0.0,0.0
19:36:51.889000,324.0,-4.0,-78.0,-48.0,40.0,-959.0,0.0,0.0,0.0
19:36:51.894000,310.0,-7.0,-82.0,-48.0,40.0,-959.0,0.0,0.0,0.0
19:36:51.898000,298.0,-4.0,-79.0,-75.0,76.0,-958.0,0.0,0.0,0.0
19:36:51.903000,288.0,2.0,-70.0,-75.0,76.0,-958.0,0.0,0.0,0.0
19:36:51.908000,274.0,13.0,-66.0,-101.0,94.0,-966.0,0.0,0.0,0.0
19:36:51.913000,252.0,25.0,-67.0,-101.0,94.0,-966.0,0.0,0.0,0.0
19:36:51.917000,228.0,41.0,-61.0,-101.0,94.0,-966.0,0.0,0.0,0.0
19:36:51.922000,205.0,56.0,-49.0,-119.0,115.0,-975.0,0.0,0.0,0.0
19:36:51.927000,186.0,73.0,-35.0,-119.0,115.0,-975.0,0.0,0.0,0.0
19:36:51.931000,177.0,91.0,-17.0,-116.0,103.0,-985.0,0.0,0.0,0.0
19:36:51.936000,175.0,109.0,-3.0,-116.0,103.0,-985.0,0.0,0.0,0.0
19:36:51.941000,177.0,126.0,6.0,-128.0,69.0,-1000.0,0.0,0.0,0.0
19:36:51.945000,188.0,143.0,15.0,-128.0,69.0,-1000.0,0.0,0.0,0.0
19:36:51.950000,206.0,159.0,19.0,-161.0,38.0,-1015.0,0.0,0.0,0.0
19:36:51.955000,231.0,175.0,20.0,-161.0,38.0,-1015.0,0.0,0.0,0.0
19:36:51.960000,231.0,175.0,20.0,-189.0,0.0,-1022.0,0.0,0.0,0.0
19:36:51.964000,259.0,189.0,20.0,-189.0,0.0,-1022.0,0.0,0.0,0.0
19:36:51.969000,287.0,203.0,24.0,-200.0,-38.0,-1018.0,0.0,0.0,0.0
19:36:51.974000,313.0,216.0,29.0,-200.0,-38.0,-1018.0,0.0,0.0,0.0
19:36:51.978000,333.0,226.0,24.0,-188.0,-41.0,-998.0,0.0,0.0,0.0
19:36:51.983000,344.0,236.0,11.0,-188.0,-41.0,-998.0,0.0,0.0,0.0
19:36:51.988000,352.0,247.0,-4.0,-158.0,-14.0,-975.0,0.0,0.0,0.0
19:36:51.992000,354.0,261.0,-21.0,-158.0,-14.0,-975.0,0.0,0.0,0.0
19:36:51.997000,347.0,277.0,-42.0,-153.0,36.0,-966.0,0.0,0.0,0.0
19:36:52.002000,330.0,291.0,-61.0,-153.0,36.0,-966.0,0.0,0.0,0.0
19:36:52.007000,305.0,303.0,-77.0,-177.0,113.0,-966.0,0.0,0.0,0.0
19:36:52.011000,276.0,312.0,-94.0,-177.0,113.0,-966.0,0.0,0.0,0.0
19:36:52.016000,247.0,318.0,-112.0,-180.0,155.0,-966.0,0.0,0.0,0.0
19:36:52.021000,226.0,324.0,-123.0,-180.0,155.0,-966.0,0.0,0.0,0.0
19:36:52.025000,214.0,326.0,-126.0,-180.0,155.0,-966.0,0.0,0.0,0.0
19:36:52.030000,212.0,325.0,-121.0,-156.0,126.0,-966.0,0.0,0.0,0.0
19:36:52.034000,215.0,324.0,-118.0,-141.0,76.0,-966.0,0.0,0.0,0.0
19:36:52.039000,224.0,323.0,-119.0,-141.0,76.0,-966.0,0.0,0.0,0.0
19:36:52.044000,238.0,322.0,-129.0,-141.0,76.0,-966.0,0.0,0.0,0.0
19:36:52.049000,256.0,319.0,-143.0,-136.0,47.0,-964.0,0.0,0.0,0.0
19:36:52.054000,275.0,316.0,-158.0,-136.0,47.0,-964.0,0.0,0.0,0.0
19:36:52.058000,292.0,312.0,-175.0,-124.0,37.0,-955.0,0.0,0.0,0.0
19:36:52.063000,307.0,308.0,-193.0,-124.0,37.0,-955.0,0.0,0.0,0.0
19:36:52.068000,315.0,303.0,-208.0,-106.0,51.0,-941.0,0.0,0.0,0.0
19:36:52.072000,315.0,303.0,-208.0,-106.0,51.0,-941.0,0.0,0.0,0.0
19:36:52.077000,315.0,295.0,-219.0,-78.0,92.0,-930.0,0.0,0.0,0.0
19:36:52.082000,306.0,287.0,-224.0,-78.0,92.0,-930.0,0.0,0.0,0.0
19:36:52.086000,290.0,278.0,-225.0,-49.0,147.0,-925.0,0.0,0.0,0.0
19:36:52.091000,269.0,266.0,-219.0,-49.0,147.0,-925.0,0.0,0.0,0.0
19:36:52.096000,247.0,254.0,-207.0,-32.0,181.0,-930.0,0.0,0.0,0.0
19:36:52.101000,228.0,238.0,-197.0,-32.0,181.0,-930.0,0.0,0.0,0.0
19:36:52.105000,210.0,218.0,-187.0,-22.0,189.0,-945.0,0.0,0.0,0.0
19:36:52.110000,191.0,194.0,-182.0,-22.0,189.0,-945.0,0.0,0.0,0.0
19:36:52.115000,177.0,166.0,-182.0,-1.0,202.0,-963.0,0.0,0.0,0.0
19:36:52.119000,163.0,129.0,-175.0,-1.0,202.0,-963.0,0.0,0.0,0.0
19:36:52.124000,145.0,87.0,-167.0,36.0,227.0,-980.0,0.0,0.0,0.0
19:36:52.128000,129.0,43.0,-175.0,36.0,227.0,-980.0,0.0,0.0,0.0
19:36:52.133000,106.0,-4.0,-193.0,36.0,227.0,-980.0,0.0,0.0,0.0
19:36:52.138000,75.0,-59.0,-203.0,71.0,279.0,-984.0,0.0,0.0,0.0
19:36:52.143000,39.0,-116.0,-208.0,71.0,279.0,-984.0,0.0,0.0,0.0
19:36:52.148000,0.0,-175.0,-222.0,100.0,331.0,-976.0,0.0,0.0,0.0
19:36:52.152000,-51.0,-235.0,-247.0,100.0,331.0,-976.0,0.0,0.0,0.0
19:36:52.157000,-110.0,-299.0,-273.0,126.0,379.0,-961.0,0.0,0.0,0.0
19:36:52.162000,-183.0,-366.0,-295.0,126.0,379.0,-961.0,0.0,0.0,0.0
19:36:52.166000,-266.0,-433.0,-308.0,139.0,456.0,-938.0,0.0,0.0,0.0
19:36:52.171000,-353.0,-504.0,-315.0,139.0,456.0,-938.0,0.0,0.0,0.0
19:36:52.176000,-440.0,-577.0,-318.0,144.0,511.0,-913.0,0.0,0.0,0.0
19:36:52.180000,-440.0,-577.0,-318.0,144.0,511.0,-913.0,0.0,0.0,0.0
19:36:52.185000,-528.0,-652.0,-324.0,135.0,527.0,-894.0,0.0,0.0,0.0
19:36:52.190000,-619.0,-734.0,-345.0,135.0,527.0,-894.0,0.0,0.0,0.0
19:36:52.195000,-712.0,-820.0,-371.0,112.0,547.0,-871.0,0.0,0.0,0.0
19:36:52.199000,-805.0,-910.0,-392.0,112.0,547.0,-871.0,0.0,0.0,0.0
19:36:52.204000,-898.0,-1003.0,-422.0,95.0,570.0,-839.0,0.0,0.0,0.0
19:36:52.209000,-993.0,-1097.0,-470.0,95.0,570.0,-839.0,0.0,0.0,0.0
19:36:52.213000,-1092.0,-1190.0,-526.0,71.0,609.0,-801.0,0.0,0.0,0.0
19:36:52.218000,-1192.0,-1279.0,-596.0,71.0,609.0,-801.0,0.0,0.0,0.0
19:36:52.223000,-1298.0,-1372.0,-683.0,10.0,683.0,-754.0,0.0,0.0,0.0
19:36:52.227000,-1412.0,-1460.0,-777.0,10.0,683.0,-754.0,0.0,0.0,0.0
19:36:52.232000,-1538.0,-1537.0,-862.0,-60.0,751.0,-692.0,0.0,0.0,0.0
19:36:52.237000,-1674.0,-1596.0,-939.0,-60.0,751.0,-692.0,0.0,0.0,0.0
19:36:52.242000,-1819.0,-1644.0,-1009.0,-60.0,751.0,-692.0,0.0,0.0,0.0
19:36:52.246000,-1972.0,-1688.0,-1073.0,-125.0,794.0,-628.0,0.0,0.0,0.0
19:36:52.251000,-2134.0,-1736.0,-1128.0,-125.0,794.0,-628.0,0.0,0.0,0.0
19:36:52.256000,-2293.0,-1789.0,-1166.0,-211.0,837.0,-574.0,0.0,0.0,0.0
19:36:52.260000,-2441.0,-1843.0,-1193.0,-211.0,837.0,-574.0,0.0,0.0,0.0
19:36:52.265000,-2571.0,-1900.0,-1214.0,-281.0,832.0,-529.0,0.0,0.0,0.0
19:36:52.269000,-2675.0,-1959.0,-1229.0,-281.0,832.0,-529.0,0.0,0.0,0.0
19:36:52.274000,-2753.0,-2016.0,-1237.0,-318.0,722.0,-507.0,0.0,0.0,0.0
19:36:52.279000,-2804.0,-2072.0,-1236.0,-318.0,722.0,-507.0,0.0,0.0,0.0
19:36:52.284000,-2826.0,-2125.0,-1233.0,-373.0,542.0,-515.0,0.0,0.0,0.0
19:36:52.289000,-2826.0,-2125.0,-1233.0,-373.0,542.0,-515.0,0.0,0.0,0.0
19:36:52.293000,-2829.0,-2172.0,-1229.0,-457.0,338.0,-543.0,0.0,0.0,0.0
19:36:52.298000,-2819.0,-2211.0,-1224.0,-457.0,338.0,-543.0,0.0,0.0,0.0
19:36:52.303000,-2805.0,-2244.0,-1218.0,-523.0,158.0,-568.0,0.0,0.0,0.0
19:36:52.307000,-2790.0,-2276.0,-1204.0,-523.0,158.0,-568.0,0.0,0.0,0.0
19:36:52.312000,-2776.0,-2300.0,-1190.0,-534.0,21.0,-574.0,0.0,0.0,0.0
19:36:52.317000,-2763.0,-2319.0,-1170.0,-534.0,21.0,-574.0,0.0,0.0,0.0
19:36:52.321000,-2748.0,-2332.0,-1149.0,-511.0,-83.0,-580.0,0.0,0.0,0.0
19:36:52.326000,-2727.0,-2341.0,-1136.0,-511.0,-83.0,-580.0,0.0,0.0,0.0
19:36:52.331000,-2708.0,-2358.0,-1140.0,-532.0,-138.0,-593.0,0.0,0.0,0.0
19:36:52.336000,-2685.0,-2374.0,-1139.0,-532.0,-138.0,-593.0,0.0,0.0,0.0
19:36:52.340000,-2660.0,-2391.0,-1136.0,-614.0,-179.0,-601.0,0.0,0.0,0.0
19:36:52.345000,-2635.0,-2415.0,-1132.0,-614.0,-179.0,-601.0,0.0,0.0,0.0
19:36:52.350000,-2604.0,-2439.0,-1124.0,-614.0,-256.0,-603.0,0.0,0.0,0.0
19:36:52.354000,-2566.0,-2462.0,-1115.0,-681.0,-256.0,-603.0,0.0,0.0,0.0
19:36:52.359000,-2528.0,-2483.0,-1108.0,-681.0,-256.0,-603.0,0.0,0.0,0.0
19:36:52.364000,-2489.0,-2510.0,-1103.0,-721.0,-365.0,-590.0,0.0,0.0,0.0
19:36:52.368000,-2452.0,-2535.0,-1103.0,-721.0,-365.0,-590.0,0.0,0.0,0.0
19:36:52.373000,-2438.0,-2557.0,-1142.0,-825.0,-487.0,-529.0,0.0,0.0,0.0
19:36:52.378000,-2390.0,-2524.0,-1192.0,-825.0,-487.0,-529.0,0.0,0.0,0.0
19:36:52.383000,-2405.0,-2299.0,-1166.0,-1027.0,-521.0,-451.0,0.0,0.0,0.0
19:36:52.387000,-2472.0,-2072.0,-882.0,-1027.0,-521.0,-451.0,0.0,0.0,0.0
19:36:52.392000,-2419.0,-2360.0,-277.0,-2041.0,-692.0,-395.0,0.0,0.0,0.0
19:36:52.397000,-2181.0,-2664.0,-414.0,-2041.0,-692.0,-395.0,0.0,0.0,0.0
19:36:52.401000,-2181.0,-2664.0,-414.0,-1578.0,-760.0,-352.0,0.0,0.0,0.0
19:36:52.406000,-2129.0,-2394.0,-1449.0,-1578.0,-760.0,-352.0,0.0,0.0,0.0
19:36:52.411000,-2090.0,-2248.0,-2066.0,191.0,-519.0,-311.0,0.0,0.0,0.0
19:36:52.415000,-2085.0,-2223.0,-1916.0,191.0,-519.0,-311.0,0.0,0.0,0.0
19:36:52.420000,-2102.0,-2223.0,-1507.0,168.0,-592.0,-226.0,0.0,0.0,0.0
19:36:52.425000,-2055.0,-2237.0,-1236.0,168.0,-592.0,-226.0,0.0,0.0,0.0
19:36:52.430000,-1969.0,-2220.0,-1241.0,-676.0,-811.0,-233.0,0.0,0.0,0.0
19:36:52.434000,-1845.0,-2211.0,-1358.0,-676.0,-811.0,-233.0,0.0,0.0,0.0
19:36:52.439000,-1731.0,-2186.0,-1442.0,-1137.0,-858.0,-353.0,0.0,0.0,0.0
19:36:52.444000,-1646.0,-2172.0,-1428.0,-1137.0,-858.0,-353.0,0.0,0.0,0.0
19:36:52.448000,-1556.0,-2167.0,-1351.0,-1075.0,-849.0,-424.0,0.0,0.0,0.0
19:36:52.453000,-1465.0,-2154.0,-1192.0,-1075.0,-849.0,-424.0,0.0,0.0,0.0
19:36:52.458000,-1357.0,-2135.0,-1183.0,-910.0,-745.0,-453.0,0.0,0.0,0.0
19:36:52.462000,-1274.0,-2121.0,-1235.0,-910.0,-745.0,-453.0,0.0,0.0,0.0
19:36:52.467000,-1204.0,-2114.0,-1152.0,-910.0,-745.0,-453.0,0.0,0.0,0.0
19:36:52.472000,-1143.0,-2106.0,-1047.0,-805.0,-610.0,-438.0,0.0,0.0,0.0
19:36:52.477000,-1087.0,-2098.0,-999.0,-805.0,-610.0,-438.0,0.0,0.0,0.0
19:36:52.481000,-1059.0,-2102.0,-966.0,-771.0,-491.0,-385.0,0.0,0.0,0.0
19:36:52.486000,-1021.0,-2078.0,-891.0,-771.0,-491.0,-385.0,0.0,0.0,0.0
19:36:52.491000,-963.0,-2072.0,-847.0,-801.0,-404.0,-343.0,0.0,0.0,0.0
19:36:52.495000,-959.0,-2059.0,-800.0,-801.0,-404.0,-343.0,0.0,0.0,0.0
19:36:52.500000,-945.0,-2026.0,-756.0,-864.0,-354.0,-308.0,0.0,0.0,0.0
19:36:52.504000,-945.0,-2026.0,-756.0,-864.0,-354.0,-308.0,0.0,0.0,0.0
19:36:52.509000,-944.0,-2004.0,-719.0,-932.0,-340.0,-264.0,0.0,0.0,0.0
19:36:52.514000,-921.0,-1969.0,-682.0,-932.0,-340.0,-264.0,0.0,0.0,0.0
19:36:52.519000,-846.0,-1950.0,-639.0,-966.0,-330.0,-245.0,0.0,0.0,0.0
19:36:52.524000,-825.0,-1908.0,-608.0,-966.0,-330.0,-245.0,0.0,0.0,0.0
19:36:52.528000,-800.0,-1873.0,-581.0,-1041.0,-292.0,-222.0,0.0,0.0,0.0
19:36:52.533000,-727.0,-1833.0,-553.0,-1041.0,-292.0,-222.0,0.0,0.0,0.0
19:36:52.538000,-693.0,-1781.0,-519.0,-1141.0,-284.0,-181.0,0.0,0.0,0.0
19:36:52.542000,-640.0,-1734.0,-499.0,-1141.0,-284.0,-181.0,0.0,0.0,0.0
19:36:52.547000,-610.0,-1684.0,-523.0,-1296.0,-318.0,-136.0,0.0,0.0,0.0
19:36:52.552000,-576.0,-1628.0,-511.0,-1296.0,-318.0,-136.0,0.0,0.0,0.0
19:36:52.556000,-534.0,-1565.0,-448.0,-1376.0,-322.0,-79.0,0.0,0.0,0.0
19:36:52.561000,-508.0,-1505.0,-419.0,-1376.0,-322.0,-79.0,0.0,0.0,0.0
19:36:52.566000,-507.0,-1439.0,-466.0,-1286.0,-154.0,-21.0,0.0,0.0,0.0
19:36:52.571000,-527.0,-1379.0,-510.0,-1286.0,-154.0,-21.0,0.0,0.0,0.0
19:36:52.575000,-540.0,-1318.0,-514.0,-1286.0,-154.0,-21.0,0.0,0.0,0.0
19:36:52.580000,-519.0,-1260.0,-521.0,-1189.0,-46.0,37.0,0.0,0.0,0.0
19:36:52.585000,-507.0,-1184.0,-584.0,-1189.0,-46.0,37.0,0.0,0.0,0.0
19:36:52.589000,-478.0,-1115.0,-621.0,-1169.0,-91.0,80.0,0.0,0.0,0.0
19:36:52.594000,-464.0,-1041.0,-583.0,-1169.0,-91.0,80.0,0.0,0.0,0.0
19:36:52.599000,-471.0,-966.0,-553.0,-1194.0,-111.0,122.0,0.0,0.0,0.0
19:36:52.603000,-469.0,-892.0,-595.0,-1194.0,-111.0,122.0,0.0,0.0,0.0
19:36:52.608000,-446.0,-827.0,-667.0,-1211.0,-142.0,159.0,0.0,0.0,0.0
19:36:52.613000,-428.0,-751.0,-700.0,-1211.0,-142.0,159.0,0.0,0.0,0.0
19:36:52.618000,-428.0,-751.0,-700.0,-1174.0,-174.0,186.0,0.0,0.0,0.0
19:36:52.622000,-394.0,-698.0,-728.0,-1174.0,-174.0,186.0,0.0,0.0,0.0
19:36:52.627000,-361.0,-639.0,-730.0,-1105.0,-187.0,222.0,0.0,0.0,0.0
19:36:52.632000,-354.0,-579.0,-737.0,-1105.0,-187.0,222.0,0.0,0.0,0.0
19:36:52.636000,-321.0,-518.0,-778.0,-1066.0,-195.0,255.0,0.0,0.0,0.0
19:36:52.641000,-316.0,-465.0,-783.0,-1066.0,-195.0,255.0,0.0,0.0,0.0
19:36:52.646000,-301.0,-420.0,-760.0,-1029.0,-196.0,279.0,0.0,0.0,0.0
19:36:52.650000,-302.0,-373.0,-770.0,-1029.0,-196.0,279.0,0.0,0.0,0.0
19:36:52.655000,-314.0,-322.0,-815.0,-993.0,-132.0,300.0,0.0,0.0,0.0
19:36:52.660000,-324.0,-284.0,-828.0,-993.0,-132.0,300.0,0.0,0.0,0.0
19:36:52.665000,-349.0,-242.0,-807.0,-946.0,-80.0,309.0,0.0,0.0,0.0
19:36:52.669000,-350.0,-203.0,-797.0,-946.0,-80.0,309.0,0.0,0.0,0.0
19:36:52.674000,-365.0,-168.0,-789.0,-911.0,-87.0,310.0,0.0,0.0,0.0
19:36:52.679000,-394.0,-137.0,-753.0,-911.0,-87.0,310.0,0.0,0.0,0.0
19:36:52.683000,-416.0,-109.0,-719.0,-911.0,-87.0,310.0,0.0,0.0,0.0
19:36:52.688000,-427.0,-79.0,-718.0,-893.0,-81.0,312.0,0.0,0.0,0.0
19:36:52.692000,-429.0,-53.0,-727.0,-855.0,-83.0,322.0,0.0,0.0,0.0
19:36:52.697000,-448.0,-28.0,-704.0,-855.0,-83.0,322.0,0.0,0.0,0.0
19:36:52.702000,-457.0,11.0,-727.0,-855.0,-83.0,322.0,0.0,0.0,0.0
19:36:52.707000,-423.0,49.0,-782.0,-845.0,-102.0,325.0,0.0,0.0,0.0
19:36:52.712000,-390.0,75.0,-732.0,-845.0,-102.0,325.0,0.0,0.0,0.0
19:36:52.716000,-387.0,78.0,-640.0,-880.0,-102.0,323.0,0.0,0.0,0.0
19:36:52.721000,-390.0,65.0,-618.0,-880.0,-102.0,323.0,0.0,0.0,0.0
19:36:52.726000,-390.0,65.0,-618.0,-946.0,-77.0,327.0,0.0,0.0,0.0
19:36:52.730000,-382.0,72.0,-637.0,-946.0,-77.0,327.0,0.0,0.0,0.0
19:36:52.735000,-343.0,77.0,-676.0,-1007.0,-35.0,312.0,0.0,0.0,0.0
19:36:52.739000,-322.0,81.0,-690.0,-1007.0,-35.0,312.0,0.0,0.0,0.0
19:36:52.744000,-337.0,75.0,-618.0,-1002.0,-6.0,299.0,0.0,0.0,0.0
19:36:52.749000,-357.0,72.0,-513.0,-1002.0,-6.0,299.0,0.0,0.0,0.0
19:36:52.754000,-360.0,70.0,-512.0,-984.0,21.0,294.0,0.0,0.0,0.0
19:36:52.759000,-385.0,62.0,-548.0,-984.0,21.0,294.0,0.0,0.0,0.0
19:36:52.763000,-375.0,49.0,-485.0,-935.0,17.0,269.0,0.0,0.0,0.0
19:36:52.768000,-403.0,35.0,-397.0,-935.0,17.0,269.0,0.0,0.0,0.0
19:36:52.773000,-418.0,25.0,-369.0,-916.0,9.0,240.0,0.0,0.0,0.0
19:36:52.777000,-404.0,0.0,-395.0,-916.0,9.0,240.0,0.0,0.0,0.0
19:36:52.782000,-384.0,-17.0,-431.0,-973.0,53.0,208.0,0.0,0.0,0.0
19:36:52.787000,-394.0,-31.0,-430.0,-973.0,53.0,208.0,0.0,0.0,0.0
19:36:52.791000,-396.0,-44.0,-401.0,-973.0,53.0,208.0,0.0,0.0,0.0
19:36:52.796000,-396.0,-68.0,-374.0,-955.0,67.0,185.0,0.0,0.0,0.0
19:36:52.801000,-387.0,-81.0,-388.0,-955.0,67.0,185.0,0.0,0.0,0.0
19:36:52.805000,-394.0,-103.0,-352.0,-931.0,87.0,177.0,0.0,0.0,0.0
19:36:52.810000,-406.0,-114.0,-294.0,-931.0,87.0,177.0,0.0,0.0,0.0
19:36:52.815000,-401.0,-120.0,-284.0,-955.0,88.0,172.0,0.0,0.0,0.0
19:36:52.820000,-348.0,-139.0,-294.0,-955.0,88.0,172.0,0.0,0.0,0.0
19:36:52.824000,-355.0,-146.0,-261.0,-979.0,58.0,173.0,0.0,0.0,0.0
19:36:52.829000,-314.0,-160.0,-196.0,-979.0,58.0,173.0,0.0,0.0,0.0
19:36:52.834000,-277.0,-163.0,-130.0,-981.0,24.0,180.0,0.0,0.0,0.0
19:36:52.838000,-277.0,-163.0,-130.0,-981.0,24.0,180.0,0.0,0.0,0.0
19:36:52.843000,-261.0,-172.0,-115.0,-988.0,-14.0,198.0,0.0,0.0,0.0
19:36:52.848000,-199.0,-174.0,-115.0,-988.0,-14.0,198.0,0.0,0.0,0.0
19:36:52.852000,-156.0,-184.0,-77.0,-983.0,-30.0,222.0,0.0,0.0,0.0
19:36:52.857000,-109.0,-184.0,-42.0,-983.0,-30.0,222.0,0.0,0.0,0.0
19:36:52.862000,-84.0,-183.0,-26.0,-975.0,4.0,239.0,0.0,0.0,0.0
19:36:52.867000,-54.0,-177.0,-32.0,-975.0,4.0,239.0,0.0,0.0,0.0
19:36:52.871000,-22.0,-169.0,-24.0,-1008.0,75.0,252.0,0.0,0.0,0.0
19:36:52.876000,9.0,-149.0,-4.0,-1008.0,75.0,252.0,0.0,0.0,0.0
19:36:52.881000,32.0,-124.0,16.0,-1054.0,94.0,267.0,0.0,0.0,0.0
19:36:52.885000,62.0,-97.0,39.0,-1054.0,94.0,267.0,0.0,0.0,0.0
19:36:52.890000,81.0,-59.0,60.0,-1097.0,82.0,284.0,0.0,0.0,0.0
19:36:52.895000,94.0,-22.0,86.0,-1097.0,82.0,284.0,0.0,0.0,0.0
19:36:52.899000,116.0,14.0,108.0,-1097.0,82.0,284.0,0.0,0.0,0.0
19:36:52.904000,131.0,53.0,111.0,-1117.0,110.0,301.0,0.0,0.0,0.0
19:36:52.909000,135.0,99.0,100.0,-1117.0,110.0,301.0,0.0,0.0,0.0
19:36:52.914000,146.0,145.0,112.0,-1112.0,151.0,322.0,0.0,0.0,0.0
19:36:52.918000,162.0,186.0,143.0,-1112.0,151.0,322.0,0.0,0.0,0.0
19:36:52.923000,166.0,229.0,176.0,-1079.0,146.0,346.0,0.0,0.0,0.0
19:36:52.928000,192.0,273.0,206.0,-1079.0,146.0,346.0,0.0,0.0,0.0
19:36:52.932000,214.0,323.0,239.0,-1054.0,140.0,360.0,0.0,0.0,0.0
19:36:52.937000,251.0,378.0,268.0,-1054.0,140.0,360.0,0.0,0.0,0.0
19:36:52.942000,282.0,436.0,298.0,-1065.0,159.0,363.0,0.0,0.0,0.0
19:36:52.946000,282.0,436.0,298.0,-1065.0,159.0,363.0,0.0,0.0,0.0
19:36:52.951000,318.0,492.0,359.0,-1080.0,155.0,363.0,0.0,0.0,0.0
19:36:52.956000,352.0,554.0,402.0,-1080.0,155.0,363.0,0.0,0.0,0.0
19:36:52.961000,387.0,618.0,441.0,-1088.0,157.0,365.0,0.0,0.0,0.0
19:36:52.965000,431.0,680.0,482.0,-1088.0,157.0,365.0,0.0,0.0,0.0
19:36:52.970000,473.0,744.0,527.0,-1080.0,174.0,370.0,0.0,0.0,0.0
19:36:52.974000,513.0,809.0,571.0,-1080.0,174.0,370.0,0.0,0.0,0.0
19:36:52.979000,551.0,874.0,620.0,-1050.0,182.0,380.0,0.0,0.0,0.0
19:36:52.984000,586.0,945.0,667.0,-1050.0,182.0,380.0,0.0,0.0,0.0
19:36:52.989000,623.0,1020.0,709.0,-1033.0,180.0,385.0,0.0,0.0,0.0
19:36:52.993000,660.0,1103.0,756.0,-1033.0,180.0,385.0,0.0,0.0,0.0
19:36:52.998000,700.0,1197.0,789.0,-1054.0,167.0,372.0,0.0,0.0,0.0
19:36:53.003000,742.0,1292.0,827.0,-1054.0,167.0,372.0,0.0,0.0,0.0
19:36:53.008000,786.0,1390.0,877.0,-1054.0,167.0,372.0,0.0,0.0,0.0
19:36:53.012000,834.0,1498.0,919.0,-1110.0,156.0,352.0,0.0,0.0,0.0
19:36:53.017000,884.0,1610.0,940.0,-1110.0,156.0,352.0,0.0,0.0,0.0
19:36:53.022000,935.0,1714.0,953.0,-1171.0,145.0,333.0,0.0,0.0,0.0
19:36:53.026000,981.0,1813.0,972.0,-1171.0,145.0,333.0,0.0,0.0,0.0
19:36:53.031000,1031.0,1904.0,1011.0,-1177.0,140.0,318.0,0.0,0.0,0.0
19:36:53.036000,1082.0,1994.0,1068.0,-1177.0,140.0,318.0,0.0,0.0,0.0
19:36:53.040000,1143.0,2072.0,1142.0,-1145.0,117.0,306.0,0.0,0.0,0.0
19:36:53.045000,1201.0,2141.0,1208.0,-1145.0,117.0,306.0,0.0,0.0,0.0
19:36:53.050000,1254.0,2204.0,1246.0,-1140.0,92.0,298.0,0.0,0.0,0.0
19:36:53.055000,1254.0,2204.0,1246.0,-1140.0,92.0,298.0,0.0,0.0,0.0
19:36:53.059000,1291.0,2265.0,1281.0,-1137.0,130.0,289.0,0.0,0.0,0.0
19:36:53.064000,1318.0,2321.0,1337.0,-1137.0,130.0,289.0,0.0,0.0,0.0
19:36:53.069000,1327.0,2369.0,1398.0,-1087.0,219.0,273.0,0.0,0.0,0.0
19:36:53.073000,1320.0,2400.0,1465.0,-1087.0,219.0,273.0,0.0,0.0,0.0
19:36:53.078000,1304.0,2421.0,1507.0,-1022.0,277.0,246.0,0.0,0.0,0.0
19:36:53.083000,1288.0,2436.0,1502.0,-1022.0,277.0,246.0,0.0,0.0,0.0
19:36:53.087000,1264.0,2444.0,1500.0,-964.0,259.0,203.0,0.0,0.0,0.0
19:36:53.092000,1238.0,2447.0,1520.0,-964.0,259.0,203.0,0.0,0.0,0.0
19:36:53.097000,1211.0,2440.0,1547.0,-875.0,159.0,142.0,0.0,0.0,0.0
19:36:53.102000,1193.0,2427.0,1560.0,-875.0,159.0,142.0,0.0,0.0,0.0
19:36:53.106000,1173.0,2408.0,1572.0,-768.0,38.0,60.0,0.0,0.0,0.0
19:36:53.111000,1148.0,2385.0,1577.0,-768.0,38.0,60.0,0.0,0.0,0.0
19:36:53.116000,1115.0,2351.0,1550.0,-768.0,-3.0,-29.0,0.0,0.0,0.0
19:36:53.120000,1074.0,2303.0,1503.0,-696.0,-3.0,-29.0,0.0,0.0,0.0
19:36:53.125000,1018.0,2254.0,1457.0,-696.0,-3.0,-29.0,0.0,0.0,0.0
19:36:53.130000,949.0,2204.0,1405.0,-648.0,13.0,-124.0,0.0,0.0,0.0
19:36:53.134000,869.0,2144.0,1343.0,-648.0,13.0,-124.0,0.0,0.0,0.0
19:36:53.139000,778.0,2074.0,1279.0,-604.0,42.0,-220.0,0.0,0.0,0.0
19:36:53.144000,683.0,1995.0,1219.0,-604.0,42.0,-220.0,0.0,0.0,0.0
19:36:53.149000,590.0,1907.0,1150.0,-551.0,72.0,-320.0,0.0,0.0,0.0
19:36:53.153000,499.0,1817.0,1061.0,-551.0,72.0,-320.0,0.0,0.0,0.0
19:36:53.158000,412.0,1728.0,966.0,-482.0,85.0,-415.0,0.0,0.0,0.0
19:36:53.163000,331.0,1633.0,885.0,-482.0,85.0,-415.0,0.0,0.0,0.0
19:36:53.167000,331.0,1633.0,885.0,-428.0,50.0,-477.0,0.0,0.0,0.0
19:36:53.172000,261.0,1537.0,829.0,-428.0,50.0,-477.0,0.0,0.0,0.0
19:36:53.177000,209.0,1438.0,786.0,-415.0,-38.0,-516.0,0.0,0.0,0.0
19:36:53.181000,161.0,1344.0,747.0,-415.0,-38.0,-516.0,0.0,0.0,0.0
19:36:53.186000,117.0,1260.0,711.0,-466.0,-83.0,-542.0,0.0,0.0,0.0
19:36:53.191000,71.0,1187.0,680.0,-466.0,-83.0,-542.0,0.0,0.0,0.0
19:36:53.196000,18.0,1124.0,654.0,-577.0,-43.0,-564.0,0.0,0.0,0.0
19:36:53.200000,-43.0,1069.0,625.0,-577.0,-43.0,-564.0,0.0,0.0,0.0
19:36:53.205000,-111.0,1020.0,582.0,-738.0,18.0,-577.0,0.0,0.0,0.0
19:36:53.209000,-182.0,975.0,541.0,-738.0,18.0,-577.0,0.0,0.0,0.0
19:36:53.214000,-252.0,932.0,515.0,-863.0,20.0,-574.0,0.0,0.0,0.0
19:36:53.219000,-320.0,891.0,496.0,-863.0,20.0,-574.0,0.0,0.0,0.0
19:36:53.224000,-391.0,852.0,469.0,-885.0,-8.0,-564.0,0.0,0.0,0.0
19:36:53.228000,-462.0,812.0,436.0,-885.0,-8.0,-564.0,0.0,0.0,0.0
19:36:53.233000,-535.0,769.0,409.0,-885.0,-8.0,-564.0,0.0,0.0,0.0
19:36:53.238000,-607.0,725.0,392.0,-829.0,-24.0,-551.0,0.0,0.0,0.0
19:36:53.243000,-676.0,677.0,376.0,-829.0,-24.0,-551.0,0.0,0.0,0.0
19:36:53.247000,-741.0,625.0,359.0,-741.0,-71.0,-537.0,0.0,0.0,0.0
19:36:53.252000,-798.0,573.0,345.0,-741.0,-71.0,-537.0,0.0,0.0,0.0
19:36:53.257000,-847.0,522.0,326.0,-662.0,-156.0,-527.0,0.0,0.0,0.0
19:36:53.261000,-895.0,476.0,297.0,-662.0,-156.0,-527.0,0.0,0.0,0.0
19:36:53.266000,-938.0,427.0,269.0,-613.0,-248.0,-524.0,0.0,0.0,0.0
19:36:53.271000,-970.0,375.0,234.0,-613.0,-248.0,-524.0,0.0,0.0,0.0
19:36:53.275000,-970.0,375.0,234.0,-599.0,-327.0,-523.0,0.0,0.0,0.0
19:36:53.280000,-990.0,326.0,201.0,-599.0,-327.0,-523.0,0.0,0.0,0.0
19:36:53.285000,-996.0,279.0,177.0,-595.0,-392.0,-523.0,0.0,0.0,0.0
19:36:53.290000,-997.0,226.0,144.0,-595.0,-392.0,-523.0,0.0,0.0,0.0
19:36:53.294000,-989.0,168.0,85.0,-602.0,-426.0,-504.0,0.0,0.0,0.0
19:36:53.299000,-970.0,107.0,21.0,-602.0,-426.0,-504.0,0.0,0.0,0.0
19:36:53.304000,-948.0,52.0,-26.0,-624.0,-458.0,-469.0,0.0,0.0,0.0
19:36:53.308000,-928.0,-7.0,-70.0,-624.0,-458.0,-469.0,0.0,0.0,0.0
19:36:53.313000,-903.0,-70.0,-102.0,-655.0,-492.0,-431.0,0.0,0.0,0.0
19:36:53.318000,-875.0,-134.0,-114.0,-655.0,-492.0,-431.0,0.0,0.0,0.0
19:36:53.322000,-851.0,-189.0,-137.0,-666.0,-492.0,-390.0,0.0,0.0,0.0
19:36:53.327000,-831.0,-239.0,-160.0,-666.0,-492.0,-390.0,0.0,0.0,0.0
19:36:53.332000,-819.0,-289.0,-175.0,-661.0,-493.0,-356.0,0.0,0.0,0.0
19:36:53.337000,-791.0,-310.0,-191.0,-661.0,-493.0,-356.0,0.0,0.0,0.0
19:36:53.341000,-766.0,-318.0,-189.0,-701.0,-497.0,-337.0,0.0,0.0,0.0
19:36:53.346000,-758.0,-342.0,-189.0,-701.0,-497.0,-337.0,0.0,0.0,0.0
19:36:53.351000,-759.0,-368.0,-228.0,-701.0,-497.0,-337.0,0.0,0.0,0.0
19:36:53.355000,-755.0,-368.0,-286.0,-775.0,-459.0,-311.0,0.0,0.0,0.0
19:36:53.360000,-748.0,-367.0,-324.0,-775.0,-459.0,-311.0,0.0,0.0,0.0
19:36:53.365000,-759.0,-374.0,-364.0,-808.0,-392.0,-297.0,0.0,0.0,0.0
19:36:53.369000,-781.0,-383.0,-436.0,-808.0,-392.0,-297.0,0.0,0.0,0.0
19:36:53.374000,-800.0,-383.0,-515.0,-779.0,-310.0,-307.0,0.0,0.0,0.0
19:36:53.379000,-814.0,-394.0,-577.0,-779.0,-310.0,-307.0,0.0,0.0,0.0
19:36:53.384000,-814.0,-394.0,-577.0,-727.0,-283.0,-316.0,0.0,0.0,0.0
19:36:53.388000,-816.0,-401.0,-627.0,-727.0,-283.0,-316.0,0.0,0.0,0.0
19:36:53.393000,-813.0,-398.0,-664.0,-709.0,-333.0,-336.0,0.0,0.0,0.0
19:36:53.398000,-809.0,-412.0,-703.0,-709.0,-333.0,-336.0,0.0,0.0,0.0
19:36:53.402000,-797.0,-429.0,-739.0,-720.0,-405.0,-354.0,0.0,0.0,0.0
19:36:53.407000,-772.0,-446.0,-761.0,-720.0,-405.0,-354.0,0.0,0.0,0.0
19:36:53.412000,-744.0,-466.0,-766.0,-725.0,-471.0,-352.0,0.0,0.0,0.0
19:36:53.416000,-712.0,-480.0,-756.0,-725.0,-471.0,-352.0,0.0,0.0,0.0
19:36:53.421000,-682.0,-494.0,-737.0,-673.0,-513.0,-350.0,0.0,0.0,0.0
19:36:53.426000,-655.0,-502.0,-733.0,-673.0,-513.0,-350.0,0.0,0.0,0.0
19:36:53.431000,-634.0,-508.0,-758.0,-616.0,-494.0,-346.0,0.0,0.0,0.0
19:36:53.435000,-611.0,-517.0,-787.0,-616.0,-494.0,-346.0,0.0,0.0,0.0
19:36:53.440000,-588.0,-527.0,-787.0,-610.0,-445.0,-336.0,0.0,0.0,0.0
19:36:53.444000,-568.0,-537.0,-767.0,-610.0,-445.0,-336.0,0.0,0.0,0.0
19:36:53.449000,-557.0,-555.0,-762.0,-584.0,-436.0,-327.0,0.0,0.0,0.0
19:36:53.454000,-546.0,-572.0,-770.0,-584.0,-436.0,-327.0,0.0,0.0,0.0
19:36:53.459000,-531.0,-584.0,-777.0,-584.0,-436.0,-327.0,0.0,0.0,0.0
19:36:53.463000,-516.0,-593.0,-772.0,-557.0,-456.0,-315.0,0.0,0.0,0.0
19:36:53.468000,-509.0,-597.0,-760.0,-557.0,-456.0,-315.0,0.0,0.0,0.0
19:36:53.473000,-510.0,-598.0,-751.0,-550.0,-464.0,-312.0,0.0,0.0,0.0
19:36:53.478000,-518.0,-599.0,-734.0,-550.0,-464.0,-312.0,0.0,0.0,0.0
19:36:53.482000,-539.0,-604.0,-714.0,-550.0,-415.0,-314.0,0.0,0.0,0.0
19:36:53.487000,-562.0,-605.0,-697.0,-550.0,-415.0,-314.0,0.0,0.0,0.0
19:36:53.492000,-562.0,-605.0,-697.0,-598.0,-367.0,-308.0,0.0,0.0,0.0
19:36:53.496000,-574.0,-600.0,-662.0,-598.0,-367.0,-308.0,0.0,0.0,0.0
19:36:53.501000,-581.0,-591.0,-606.0,-642.0,-394.0,-311.0,0.0,0.0,0.0
19:36:53.506000,-586.0,-580.0,-567.0,-642.0,-394.0,-311.0,0.0,0.0,0.0
19:36:53.510000,-590.0,-569.0,-546.0,-669.0,-431.0,-322.0,0.0,0.0,0.0
19:36:53.515000,-590.0,-558.0,-515.0,-669.0,-431.0,-322.0,0.0,0.0,0.0
19:36:53.520000,-580.0,-550.0,-469.0,-737.0,-486.0,-331.0,0.0,0.0,0.0
19:36:53.525000,-559.0,-539.0,-427.0,-737.0,-486.0,-331.0,0.0,0.0,0.0
19:36:53.529000,-525.0,-523.0,-397.0,-842.0,-594.0,-345.0,0.0,0.0,0.0
19:36:53.534000,-476.0,-507.0,-378.0,-842.0,-594.0,-345.0,0.0,0.0,0.0
19:36:53.539000,-437.0,-505.0,-382.0,-902.0,-634.0,-355.0,0.0,0.0,0.0
19:36:53.543000,-420.0,-507.0,-408.0,-902.0,-634.0,-355.0,0.0,0.0,0.0
19:36:53.548000,-391.0,-515.0,-411.0,-896.0,-587.0,-343.0,0.0,0.0,0.0
19:36:53.553000,-362.0,-527.0,-391.0,-896.0,-587.0,-343.0,0.0,0.0,0.0
19:36:53.557000,-324.0,-534.0,-375.0,-879.0,-606.0,-310.0,0.0,0.0,0.0
19:36:53.562000,-270.0,-541.0,-350.0,-879.0,-606.0,-310.0,0.0,0.0,0.0
19:36:53.567000,-211.0,-539.0,-334.0,-879.0,-606.0,-310.0,0.0,0.0,0.0
19:36:53.572000,-140.0,-525.0,-339.0,-887.0,-705.0,-271.0,0.0,0.0,0.0
19:36:53.576000,-89.0,-516.0,-361.0,-887.0,-705.0,-271.0,0.0,0.0,0.0
19:36:53.581000,-48.0,-504.0,-403.0,-902.0,-733.0,-236.0,0.0,0.0,0.0
19:36:53.586000,-33.0,-503.0,-452.0,-902.0,-733.0,-236.0,0.0,0.0,0.0
19:36:53.590000,-28.0,-480.0,-511.0,-868.0,-594.0,-199.0,0.0,0.0,0.0
19:36:53.595000,-33.0,-463.0,-560.0,-868.0,-594.0,-199.0,0.0,0.0,0.0
19:36:53.600000,-44.0,-450.0,-600.0,-817.0,-474.0,-187.0,0.0,0.0,0.0
19:36:53.604000,-44.0,-450.0,-600.0,-817.0,-474.0,-187.0,0.0,0.0,0.0
19:36:53.609000,-54.0,-418.0,-623.0,-864.0,-467.0,-196.0,0.0,0.0,0.0
19:36:53.613000,-44.0,-380.0,-623.0,-864.0,-467.0,-196.0,0.0,0.0,0.0
19:36:53.619000,-35.0,-336.0,-612.0,-954.0,-473.0,-211.0,0.0,0.0,0.0
19:36:53.623000,-35.0,-306.0,-616.0,-954.0,-473.0,-211.0,0.0,0.0,0.0
19:36:53.628000,-55.0,-290.0,-605.0,-974.0,-373.0,-228.0,0.0,0.0,0.0
19:36:53.633000,-67.0,-293.0,-602.0,-974.0,-373.0,-228.0,0.0,0.0,0.0
19:36:53.637000,-76.0,-303.0,-588.0,-968.0,-294.0,-218.0,0.0,0.0,0.0
19:36:53.642000,-65.0,-322.0,-578.0,-968.0,-294.0,-218.0,0.0,0.0,0.0
19:36:53.647000,-44.0,-341.0,-559.0,-938.0,-353.0,-204.0,0.0,0.0,0.0
19:36:53.651000,-23.0,-369.0,-537.0,-938.0,-353.0,-204.0,0.0,0.0,0.0
19:36:53.656000,0.0,-401.0,-509.0,-876.0,-368.0,-187.0,0.0,0.0,0.0
19:36:53.661000,19.0,-438.0,-482.0,-876.0,-368.0,-187.0,0.0,0.0,0.0
19:36:53.666000,37.0,-468.0,-465.0,-876.0,-368.0,-187.0,0.0,0.0,0.0
19:36:53.670000,53.0,-491.0,-462.0,-820.0,-351.0,-167.0,0.0,0.0,0.0
19:36:53.675000,63.0,-511.0,-467.0,-820.0,-351.0,-167.0,0.0,0.0,0.0
19:36:53.679000,55.0,-523.0,-476.0,-821.0,-329.0,-166.0,0.0,0.0,0.0
19:36:53.684000,57.0,-534.0,-493.0,-821.0,-329.0,-166.0,0.0,0.0,0.0
19:36:53.689000,56.0,-544.0,-494.0,-874.0,-301.0,-181.0,0.0,0.0,0.0
19:36:53.694000,45.0,-548.0,-504.0,-874.0,-301.0,-181.0,0.0,0.0,0.0
19:36:53.698000,34.0,-546.0,-531.0,-928.0,-286.0,-188.0,0.0,0.0,0.0
19:36:53.703000,18.0,-548.0,-564.0,-928.0,-286.0,-188.0,0.0,0.0,0.0
19:36:53.708000,5.0,-549.0,-568.0,-958.0,-257.0,-188.0,0.0,0.0,0.0
19:36:53.713000,5.0,-549.0,-568.0,-958.0,-257.0,-188.0,0.0,0.0,0.0
19:36:53.717000,-9.0,-548.0,-536.0,-963.0,-228.0,-198.0,0.0,0.0,0.0
19:36:53.722000,-21.0,-555.0,-517.0,-963.0,-228.0,-198.0,0.0,0.0,0.0
19:36:53.727000,-31.0,-566.0,-525.0,-971.0,-217.0,-210.0,0.0,0.0,0.0
19:36:53.731000,-44.0,-578.0,-536.0,-971.0,-217.0,-210.0,0.0,0.0,0.0
19:36:53.736000,-51.0,-588.0,-521.0,-990.0,-214.0,-216.0,0.0,0.0,0.0
19:36:53.741000,-60.0,-597.0,-482.0,-990.0,-214.0,-216.0,0.0,0.0,0.0
19:36:53.745000,-69.0,-604.0,-473.0,-996.0,-198.0,-213.0,0.0,0.0,0.0
19:36:53.750000,-78.0,-611.0,-490.0,-996.0,-198.0,-213.0,0.0,0.0,0.0
19:36:53.755000,-86.0,-619.0,-489.0,-1013.0,-179.0,-213.0,0.0,0.0,0.0
19:36:53.760000,-95.0,-626.0,-464.0,-1013.0,-179.0,-213.0,0.0,0.0,0.0
19:36:53.764000,-105.0,-636.0,-430.0,-1042.0,-184.0,-209.0,0.0,0.0,0.0
19:36:53.769000,-109.0,-647.0,-403.0,-1042.0,-184.0,-209.0,0.0,0.0,0.0
19:36:53.774000,-114.0,-654.0,-394.0,-1042.0,-184.0,-209.0,0.0,0.0,0.0
19:36:53.778000,-123.0,-669.0,-399.0,-1050.0,-190.0,-199.0,0.0,0.0,0.0
19:36:53.783000,-135.0,-689.0,-403.0,-1040.0,-162.0,-197.0,0.0,0.0,0.0
19:36:53.788000,-153.0,-708.0,-399.0,-1040.0,-162.0,-197.0,0.0,0.0,0.0
19:36:53.792000,-170.0,-733.0,-393.0,-1040.0,-162.0,-197.0,0.0,0.0,0.0
19:36:53.797000,-189.0,-759.0,-392.0,-1023.0,-137.0,-185.0,0.0,0.0,0.0
19:36:53.802000,-208.0,-777.0,-390.0,-1023.0,-137.0,-185.0,0.0,0.0,0.0
19:36:53.807000,-233.0,-800.0,-405.0,-1005.0,-145.0,-165.0,0.0,0.0,0.0
19:36:53.811000,-261.0,-825.0,-410.0,-1005.0,-145.0,-165.0,0.0,0.0,0.0
19:36:53.816000,-302.0,-847.0,-393.0,-982.0,-137.0,-150.0,0.0,0.0,0.0
19:36:53.821000,-302.0,-847.0,-393.0,-982.0,-137.0,-150.0,0.0,0.0,0.0
19:36:53.825000,-353.0,-875.0,-382.0,-969.0,-96.0,-138.0,0.0,0.0,0.0
19:36:53.830000,-400.0,-898.0,-420.0,-969.0,-96.0,-138.0,0.0,0.0,0.0
19:36:53.835000,-454.0,-928.0,-485.0,-976.0,-49.0,-117.0,0.0,0.0,0.0
19:36:53.839000,-492.0,-948.0,-504.0,-976.0,-49.0,-117.0,0.0,0.0,0.0
19:36:53.844000,-539.0,-974.0,-466.0,-965.0,-53.0,-91.0,0.0,0.0,0.0
19:36:53.849000,-578.0,-1006.0,-432.0,-965.0,-53.0,-91.0,0.0,0.0,0.0
19:36:53.854000,-606.0,-1036.0,-466.0,-965.0,-74.0,-76.0,0.0,0.0,0.0
19:36:53.858000,-654.0,-1075.0,-497.0,-965.0,-74.0,-76.0,0.0,0.0,0.0
19:36:53.863000,-704.0,-1106.0,-513.0,-963.0,-75.0,-63.0,0.0,0.0,0.0
19:36:53.868000,-722.0,-1145.0,-507.0,-963.0,-75.0,-63.0,0.0,0.0,0.0
19:36:53.872000,-737.0,-1185.0,-517.0,-945.0,-58.0,-55.0,0.0,0.0,0.0
19:36:53.877000,-739.0,-1213.0,-529.0,-945.0,-58.0,-55.0,0.0,0.0,0.0
19:36:53.882000,-791.0,-1256.0,-539.0,-945.0,-27.0,-28.0,0.0,0.0,0.0
19:36:53.886000,-816.0,-1287.0,-528.0,-975.0,-27.0,-28.0,0.0,0.0,0.0
19:36:53.891000,-887.0,-1321.0,-511.0,-975.0,-27.0,-28.0,0.0,0.0,0.0
19:36:53.896000,-891.0,-1338.0,-540.0,-1030.0,10.0,22.0,0.0,0.0,0.0
19:36:53.901000,-959.0,-1358.0,-568.0,-1030.0,10.0,22.0,0.0,0.0,0.0
19:36:53.905000,-1048.0,-1376.0,-497.0,-1067.0,89.0,87.0,0.0,0.0,0.0
19:36:53.910000,-1127.0,-1381.0,-436.0,-1067.0,89.0,87.0,0.0,0.0,0.0
19:36:53.914000,-1178.0,-1383.0,-492.0,-1112.0,221.0,153.0,0.0,0.0,0.0
19:36:53.919000,-1304.0,-1380.0,-513.0,-1112.0,221.0,153.0,0.0,0.0,0.0
19:36:53.924000,-1461.0,-1390.0,-392.0,-1159.0,336.0,236.0,0.0,0.0,0.0
19:36:53.929000,-1555.0,-1375.0,-245.0,-1159.0,336.0,236.0,0.0,0.0,0.0
