hh:mm:ss.ms,gyroX[mdps],gyroY[mdps],gyroZ[mdps],accX[mg],accY[mg],accZ[mg],magX[mG],magY[mG],magZ[mG]
19:41:10.032000,-513.0,-590.0,1608.0,-457.0,-338.0,-321.0,453.0,-588.0,378.0
19:41:10.036000,-540.0,-604.0,1670.0,-430.0,-390.0,-306.0,453.0,-588.0,378.0
19:41:10.041000,-560.0,-615.0,1745.0,-402.0,-432.0,-292.0,457.0,-594.0,376.0
19:41:10.046000,-576.0,-625.0,1819.0,-379.0,-448.0,-277.0,457.0,-594.0,376.0
19:41:10.050000,-588.0,-634.0,1883.0,-360.0,-453.0,-263.0,457.0,-594.0,376.0
19:41:10.055000,-593.0,-643.0,1939.0,-338.0,-470.0,-247.0,438.0,-592.0,360.0
19:41:10.060000,-595.0,-649.0,1995.0,-313.0,-501.0,-231.0,438.0,-592.0,360.0
19:41:10.064000,-593.0,-651.0,2061.0,-291.0,-543.0,-214.0,441.0,-609.0,366.0
19:41:10.069000,-592.0,-653.0,2135.0,-277.0,-575.0,-195.0,441.0,-609.0,366.0
19:41:10.073000,-591.0,-651.0,2209.0,-267.0,-585.0,-175.0,441.0,-609.0,366.0
19:41:10.079000,-593.0,-646.0,2283.0,-257.0,-592.0,-150.0,429.0,-622.0,358.0
19:41:10.083000,-598.0,-641.0,2365.0,-248.0,-612.0,-125.0,429.0,-622.0,358.0
19:41:10.088000,-600.0,-638.0,2454.0,-248.0,-612.0,-125.0,406.0,-643.0,349.0
19:41:10.093000,-605.0,-634.0,2523.0,-241.0,-637.0,-101.0,406.0,-643.0,349.0
19:41:10.097000,-610.0,-631.0,2578.0,-229.0,-667.0,-81.0,406.0,-643.0,349.0
19:41:10.102000,-611.0,-630.0,2631.0,-157.0,-721.0,-52.0,405.0,-652.0,334.0
19:41:10.107000,-609.0,-628.0,2686.0,-157.0,-721.0,-52.0,405.0,-652.0,334.0
19:41:10.111000,-609.0,-628.0,2743.0,-118.0,-729.0,-42.0,388.0,-658.0,334.0
19:41:10.116000,-609.0,-631.0,2795.0,-84.0,-723.0,-27.0,388.0,-658.0,334.0
19:41:10.120000,-613.0,-632.0,2857.0,-40.0,-726.0,-12.0,388.0,-658.0,334.0
19:41:10.126000,-620.0,-632.0,2925.0,0.0,-741.0,0.0,369.0,-661.0,339.0
19:41:10.130000,-632.0,-633.0,2984.0,26.0,-749.0,16.0,369.0,-661.0,339.0
19:41:10.135000,-646.0,-637.0,3021.0,48.0,-747.0,35.0,358.0,-667.0,316.0
19:41:10.140000,-646.0,-637.0,3021.0,87.0,-742.0,53.0,358.0,-667.0,316.0
19:41:10.144000,-665.0,-641.0,3044.0,148.0,-753.0,68.0,358.0,-667.0,316.0
19:41:10.149000,-686.0,-644.0,3067.0,214.0,-781.0,81.0,339.0,-676.0,322.0
19:41:10.154000,-702.0,-643.0,3087.0,281.0,-808.0,94.0,339.0,-676.0,322.0
19:41:10.158000,-715.0,-639.0,3103.0,345.0,-823.0,105.0,307.0,-691.0,309.0
19:41:10.163000,-726.0,-636.0,3110.0,391.0,-822.0,114.0,307.0,-691.0,309.0
19:41:10.167000,-740.0,-631.0,3105.0,410.0,-804.0,124.0,307.0,-691.0,309.0
19:41:10.173000,-754.0,-629.0,3083.0,414.0,-789.0,133.0,297.0,-696.0,306.0
19:41:10.177000,-767.0,-631.0,3052.0,428.0,-804.0,141.0,297.0,-696.0,306.0
19:41:10.182000,-778.0,-637.0,3029.0,461.0,-838.0,146.0,288.0,-700.0,301.0
19:41:10.187000,-779.0,-646.0,3017.0,491.0,-874.0,150.0,288.0,-700.0,301.0
19:41:10.191000,-775.0,-653.0,3011.0,504.0,-896.0,156.0,288.0,-700.0,301.0
19:41:10.196000,-769.0,-661.0,3003.0,507.0,-908.0,163.0,249.0,-688.0,310.0
19:41:10.201000,-765.0,-669.0,3002.0,507.0,-908.0,163.0,249.0,-688.0,310.0
19:41:10.205000,-764.0,-682.0,3029.0,516.0,-923.0,178.0,253.0,-696.0,294.0
19:41:10.210000,-765.0,-700.0,3077.0,533.0,-938.0,203.0,253.0,-696.0,294.0
19:41:10.214000,-770.0,-712.0,3122.0,558.0,-936.0,228.0,253.0,-696.0,294.0
19:41:10.220000,-779.0,-717.0,3159.0,584.0,-921.0,246.0,243.0,-691.0,291.0
19:41:10.224000,-788.0,-721.0,3194.0,600.0,-917.0,249.0,243.0,-691.0,291.0
19:41:10.229000,-790.0,-726.0,3225.0,609.0,-928.0,243.0,207.0,-688.0,286.0
19:41:10.234000,-790.0,-734.0,3244.0,608.0,-951.0,260.0,207.0,-688.0,286.0
19:41:10.238000,-790.0,-734.0,3244.0,595.0,-972.0,260.0,207.0,-688.0,286.0
19:41:10.243000,-781.0,-733.0,3230.0,573.0,-962.0,247.0,193.0,-687.0,276.0
19:41:10.248000,-781.0,-733.0,3230.0,544.0,-941.0,254.0,193.0,-687.0,276.0
19:41:10.252000,-773.0,-735.0,3212.0,517.0,-932.0,257.0,186.0,-684.0,276.0
19:41:10.257000,-767.0,-735.0,3196.0,497.0,-925.0,254.0,186.0,-684.0,276.0
19:41:10.261000,-760.0,-737.0,3182.0,498.0,-922.0,255.0,186.0,-684.0,276.0
19:41:10.267000,-748.0,-737.0,3180.0,506.0,-943.0,248.0,168.0,-678.0,271.0
19:41:10.271000,-737.0,-739.0,3175.0,496.0,-925.0,240.0,168.0,-678.0,271.0
19:41:10.275000,-725.0,-739.0,3145.0,477.0,-882.0,251.0,147.0,-669.0,273.0
19:41:10.281000,-714.0,-739.0,3112.0,452.0,-855.0,268.0,147.0,-669.0,273.0
19:41:10.285000,-707.0,-740.0,3077.0,423.0,-833.0,267.0,147.0,-669.0,273.0
19:41:10.290000,-697.0,-732.0,3035.0,395.0,-829.0,267.0,124.0,-666.0,279.0
19:41:10.295000,-676.0,-725.0,3005.0,381.0,-840.0,268.0,124.0,-666.0,279.0
19:41:10.299000,-646.0,-718.0,2974.0,381.0,-840.0,268.0,117.0,-655.0,271.0
19:41:10.304000,-612.0,-709.0,2934.0,385.0,-824.0,237.0,117.0,-655.0,271.0
19:41:10.308000,-578.0,-695.0,2881.0,385.0,-794.0,235.0,117.0,-655.0,271.0
19:41:10.314000,-541.0,-681.0,2802.0,378.0,-794.0,235.0,114.0,-645.0,268.0
19:41:10.318000,-511.0,-674.0,2736.0,408.0,-666.0,264.0,114.0,-645.0,268.0
19:41:10.322000,-491.0,-669.0,2710.0,408.0,-666.0,264.0,91.0,-645.0,291.0
19:41:10.328000,-483.0,-660.0,2725.0,481.0,-607.0,260.0,91.0,-645.0,291.0
19:41:10.332000,-475.0,-655.0,2739.0,541.0,-555.0,263.0,93.0,-630.0,264.0
19:41:10.337000,-471.0,-649.0,2746.0,585.0,-512.0,287.0,93.0,-630.0,264.0
19:41:10.341000,-467.0,-644.0,2762.0,628.0,-503.0,327.0,93.0,-630.0,264.0
19:41:10.346000,-462.0,-636.0,2794.0,686.0,-531.0,349.0,81.0,-630.0,268.0
19:41:10.351000,-448.0,-620.0,2821.0,772.0,-575.0,364.0,81.0,-630.0,268.0
19:41:10.356000,-434.0,-599.0,2851.0,837.0,-612.0,384.0,84.0,-610.0,268.0
19:41:10.361000,-434.0,-599.0,2851.0,863.0,-653.0,387.0,84.0,-610.0,268.0
19:41:10.365000,-424.0,-574.0,2893.0,885.0,-614.0,384.0,84.0,-610.0,268.0
19:41:10.370000,-429.0,-548.0,2921.0,885.0,-512.0,388.0,70.0,-616.0,271.0
19:41:10.375000,-443.0,-518.0,2944.0,873.0,-468.0,383.0,70.0,-616.0,271.0
19:41:10.379000,-462.0,-464.0,2959.0,864.0,-403.0,364.0,55.0,-609.0,262.0
19:41:10.384000,-499.0,-413.0,2962.0,854.0,-329.0,354.0,55.0,-609.0,262.0
19:41:10.388000,-539.0,-366.0,2956.0,868.0,-288.0,349.0,55.0,-609.0,262.0
19:41:10.393000,-590.0,-326.0,2954.0,917.0,-235.0,356.0,51.0,-585.0,267.0
19:41:10.398000,-645.0,-293.0,2965.0,1004.0,-197.0,376.0,51.0,-585.0,267.0
19:41:10.403000,-694.0,-275.0,2978.0,1113.0,-221.0,392.0,46.0,-582.0,261.0
19:41:10.408000,-732.0,-266.0,2976.0,1244.0,-269.0,400.0,46.0,-582.0,261.0
19:41:10.412000,-747.0,-269.0,2965.0,1393.0,-308.0,405.0,46.0,-582.0,261.0
19:41:10.417000,-750.0,-269.0,2968.0,1529.0,-354.0,412.0,31.0,-561.0,270.0
19:41:10.422000,-751.0,-267.0,2986.0,1529.0,-354.0,412.0,31.0,-561.0,270.0
19:41:10.426000,-753.0,-267.0,2980.0,1613.0,-373.0,417.0,36.0,-555.0,264.0
19:41:10.431000,-765.0,-266.0,2949.0,1643.0,-319.0,416.0,36.0,-555.0,264.0
19:41:10.435000,-790.0,-263.0,2943.0,1659.0,-244.0,422.0,36.0,-555.0,264.0
19:41:10.440000,-833.0,-259.0,3002.0,1687.0,-211.0,432.0,24.0,-558.0,265.0
19:41:10.445000,-871.0,-249.0,3063.0,1681.0,-189.0,426.0,24.0,-558.0,265.0
19:41:10.450000,-910.0,-247.0,3066.0,1605.0,-118.0,413.0,16.0,-544.0,261.0
19:41:10.454000,-910.0,-247.0,3066.0,1530.0,-32.0,417.0,16.0,-544.0,261.0
19:41:10.459000,-943.0,-248.0,3032.0,1518.0,-7.0,418.0,16.0,-544.0,261.0
19:41:10.464000,-985.0,-241.0,2915.0,1569.0,-36.0,397.0,13.0,-522.0,253.0
19:41:10.469000,-985.0,-241.0,2915.0,1619.0,-55.0,379.0,13.0,-522.0,253.0
19:41:10.473000,-978.0,-238.0,2894.0,1638.0,-69.0,394.0,13.0,-511.0,262.0
19:41:10.478000,-976.0,-249.0,2921.0,1654.0,-107.0,407.0,13.0,-511.0,262.0
19:41:10.482000,-984.0,-249.0,2977.0,1672.0,-83.0,408.0,13.0,-511.0,262.0
19:41:10.487000,-961.0,-254.0,3032.0,1681.0,-13.0,415.0,7.0,-507.0,259.0
19:41:10.492000,-987.0,-233.0,3067.0,1666.0,24.0,435.0,7.0,-507.0,259.0
19:41:10.496000,-1027.0,-242.0,3084.0,1644.0,39.0,421.0,-1.0,-502.0,259.0
19:41:10.502000,-1017.0,-249.0,3088.0,1667.0,70.0,417.0,-1.0,-502.0,259.0
19:41:10.506000,-1022.0,-261.0,3105.0,1704.0,49.0,427.0,-1.0,-502.0,259.0
19:41:10.511000,-996.0,-263.0,3171.0,1703.0,69.0,415.0,-10.0,-490.0,261.0
19:41:10.516000,-991.0,-254.0,3187.0,1733.0,112.0,434.0,-10.0,-490.0,261.0
19:41:10.520000,-1010.0,-253.0,3217.0,1733.0,112.0,434.0,-9.0,-480.0,256.0
19:41:10.525000,-1014.0,-259.0,3231.0,1717.0,72.0,429.0,-9.0,-480.0,256.0
19:41:10.529000,-987.0,-259.0,3189.0,1717.0,72.0,429.0,-9.0,-480.0,256.0
19:41:10.534000,-974.0,-260.0,3109.0,1657.0,66.0,420.0,-15.0,-450.0,258.0
19:41:10.539000,-973.0,-259.0,3087.0,1703.0,93.0,429.0,-15.0,-450.0,258.0
19:41:10.543000,-969.0,-252.0,3127.0,1837.0,92.0,433.0,-15.0,-447.0,261.0
19:41:10.549000,-957.0,-242.0,3107.0,1837.0,92.0,433.0,-15.0,-447.0,261.0
19:41:10.553000,-956.0,-228.0,3063.0,1799.0,155.0,427.0,-15.0,-447.0,261.0
19:41:10.557000,-939.0,-214.0,3029.0,1781.0,199.0,421.0,-7.0,-433.0,256.0
19:41:10.563000,-928.0,-210.0,2991.0,1797.0,215.0,417.0,-7.0,-433.0,256.0
19:41:10.567000,-930.0,-191.0,2953.0,1803.0,207.0,408.0,-13.0,-415.0,259.0
19:41:10.572000,-937.0,-177.0,2920.0,1783.0,185.0,404.0,-13.0,-415.0,259.0
19:41:10.576000,-937.0,-177.0,2920.0,1738.0,139.0,377.0,-13.0,-415.0,259.0
19:41:10.581000,-896.0,-168.0,2900.0,1668.0,116.0,339.0,-21.0,-411.0,250.0
19:41:10.585000,-863.0,-174.0,2881.0,1594.0,104.0,329.0,-21.0,-411.0,250.0
19:41:10.591000,-865.0,-179.0,2906.0,1519.0,131.0,309.0,-30.0,-391.0,262.0
19:41:10.596000,-843.0,-187.0,2923.0,1474.0,216.0,293.0,-30.0,-391.0,262.0
19:41:10.600000,-855.0,-200.0,2889.0,1506.0,304.0,288.0,-21.0,-384.0,259.0
19:41:10.605000,-840.0,-222.0,2824.0,1591.0,354.0,286.0,-21.0,-384.0,259.0
19:41:10.609000,-833.0,-254.0,2814.0,1645.0,331.0,283.0,-21.0,-384.0,259.0
19:41:10.614000,-816.0,-278.0,2858.0,1626.0,280.0,271.0,-18.0,-363.0,261.0
19:41:10.619000,-810.0,-300.0,2937.0,1557.0,247.0,257.0,-18.0,-363.0,261.0
19:41:10.624000,-780.0,-328.0,2984.0,1557.0,259.0,250.0,-10.0,-348.0,274.0
19:41:10.628000,-763.0,-338.0,2968.0,1368.0,262.0,252.0,-10.0,-348.0,274.0
19:41:10.632000,-732.0,-350.0,2957.0,1346.0,237.0,243.0,-10.0,-348.0,274.0
19:41:10.638000,-697.0,-356.0,2973.0,1346.0,237.0,243.0,-25.0,-340.0,274.0
19:41:10.643000,-658.0,-370.0,2980.0,1343.0,272.0,233.0,-25.0,-340.0,274.0
19:41:10.647000,-622.0,-378.0,2977.0,1329.0,296.0,224.0,-13.0,-327.0,276.0
19:41:10.652000,-592.0,-387.0,2960.0,1307.0,313.0,215.0,-13.0,-327.0,276.0
19:41:10.656000,-566.0,-396.0,2921.0,1254.0,367.0,207.0,-13.0,-327.0,276.0
19:41:10.661000,-529.0,-398.0,2875.0,1177.0,413.0,189.0,-3.0,-310.0,276.0
19:41:10.666000,-498.0,-397.0,2860.0,1096.0,428.0,176.0,-3.0,-310.0,276.0
19:41:10.671000,-490.0,-386.0,2870.0,1017.0,414.0,173.0,-9.0,-301.0,268.0
19:41:10.675000,-474.0,-375.0,2856.0,949.0,469.0,155.0,-9.0,-301.0,268.0
19:41:10.679000,-474.0,-375.0,2856.0,895.0,589.0,142.0,-9.0,-301.0,268.0
19:41:10.685000,-476.0,-354.0,2793.0,867.0,673.0,136.0,9.0,-273.0,289.0
19:41:10.690000,-478.0,-331.0,2734.0,862.0,722.0,128.0,9.0,-273.0,289.0
19:41:10.694000,-477.0,-315.0,2702.0,856.0,764.0,125.0,13.0,-256.0,294.0
19:41:10.699000,-478.0,-303.0,2671.0,848.0,794.0,118.0,13.0,-256.0,294.0
19:41:10.703000,-491.0,-280.0,2638.0,845.0,821.0,106.0,13.0,-256.0,294.0
19:41:10.708000,-503.0,-258.0,2606.0,837.0,855.0,97.0,16.0,-250.0,292.0
19:41:10.713000,-511.0,-235.0,2570.0,824.0,886.0,86.0,16.0,-250.0,292.0
19:41:10.717000,-514.0,-217.0,2532.0,813.0,915.0,74.0,24.0,-240.0,301.0
19:41:10.722000,-515.0,-201.0,2466.0,818.0,943.0,68.0,24.0,-240.0,301.0
19:41:10.726000,-522.0,-183.0,2395.0,854.0,948.0,61.0,24.0,-240.0,301.0
19:41:10.732000,-519.0,-176.0,2359.0,897.0,956.0,53.0,25.0,-237.0,297.0
19:41:10.736000,-513.0,-163.0,2336.0,904.0,965.0,46.0,25.0,-237.0,297.0
19:41:10.741000,-510.0,-154.0,2302.0,904.0,965.0,46.0,33.0,-222.0,301.0
19:41:10.746000,-522.0,-147.0,2305.0,840.0,1038.0,41.0,33.0,-222.0,301.0
19:41:10.750000,-541.0,-147.0,2348.0,840.0,1038.0,41.0,33.0,-222.0,301.0
19:41:10.755000,-546.0,-154.0,2435.0,834.0,984.0,40.0,52.0,-204.0,300.0
19:41:10.760000,-538.0,-156.0,2498.0,867.0,901.0,30.0,52.0,-204.0,300.0
19:41:10.764000,-531.0,-156.0,2541.0,992.0,805.0,24.0,58.0,-195.0,307.0
19:41:10.769000,-499.0,-159.0,2606.0,992.0,805.0,24.0,58.0,-195.0,307.0
19:41:10.773000,-482.0,-161.0,2657.0,1012.0,838.0,22.0,58.0,-195.0,307.0
19:41:10.779000,-469.0,-157.0,2647.0,959.0,871.0,24.0,73.0,-183.0,306.0
19:41:10.783000,-467.0,-154.0,2625.0,886.0,938.0,28.0,73.0,-183.0,306.0
19:41:10.788000,-457.0,-149.0,2630.0,841.0,968.0,38.0,79.0,-183.0,303.0
19:41:10.793000,-459.0,-144.0,2654.0,822.0,947.0,33.0,79.0,-183.0,303.0
19:41:10.797000,-459.0,-144.0,2654.0,790.0,922.0,34.0,79.0,-183.0,303.0
19:41:10.802000,-453.0,-139.0,2664.0,756.0,909.0,35.0,90.0,-175.0,322.0
19:41:10.807000,-461.0,-130.0,2668.0,711.0,915.0,31.0,90.0,-175.0,322.0
19:41:10.811000,-469.0,-118.0,2669.0,689.0,952.0,19.0,105.0,-162.0,337.0
19:41:10.816000,-471.0,-114.0,2661.0,668.0,972.0,21.0,105.0,-162.0,337.0
19:41:10.820000,-487.0,-100.0,2651.0,577.0,960.0,27.0,105.0,-162.0,337.0
19:41:10.826000,-501.0,-98.0,2625.0,516.0,954.0,23.0,127.0,-147.0,321.0
19:41:10.830000,-511.0,-88.0,2629.0,506.0,915.0,21.0,127.0,-147.0,321.0
19:41:10.835000,-534.0,-78.0,2628.0,490.0,927.0,20.0,138.0,-139.0,328.0
19:41:10.840000,-548.0,-70.0,2577.0,466.0,932.0,13.0,138.0,-139.0,328.0
19:41:10.844000,-550.0,-62.0,2541.0,445.0,919.0,8.0,138.0,-139.0,328.0
19:41:10.849000,-569.0,-44.0,2496.0,433.0,938.0,0.0,139.0,-135.0,333.0
19:41:10.854000,-573.0,-27.0,2443.0,408.0,970.0,0.0,139.0,-135.0,333.0
19:41:10.858000,-581.0,-24.0,2394.0,346.0,991.0,8.0,156.0,-138.0,345.0
19:41:10.863000,-610.0,-18.0,2366.0,346.0,991.0,8.0,156.0,-138.0,345.0
19:41:10.867000,-652.0,-14.0,2331.0,310.0,1015.0,15.0,156.0,-138.0,345.0
19:41:10.873000,-666.0,8.0,2288.0,303.0,972.0,4.0,165.0,-132.0,342.0
19:41:10.877000,-691.0,3.0,2253.0,313.0,969.0,-8.0,165.0,-132.0,342.0
19:41:10.882000,-718.0,13.0,2231.0,317.0,927.0,9.0,181.0,-129.0,337.0
19:41:10.887000,-715.0,15.0,2214.0,306.0,894.0,-12.0,181.0,-129.0,337.0
19:41:10.891000,-715.0,15.0,2214.0,284.0,894.0,-15.0,181.0,-129.0,337.0
19:41:10.896000,-739.0,28.0,2124.0,227.0,844.0,-20.0,205.0,-118.0,349.0
19:41:10.901000,-742.0,29.0,2053.0,184.0,890.0,-31.0,205.0,-118.0,349.0
19:41:10.905000,-742.0,29.0,2053.0,174.0,833.0,-32.0,214.0,-115.0,354.0
19:41:10.910000,-743.0,39.0,1999.0,184.0,811.0,-55.0,214.0,-115.0,354.0
19:41:10.914000,-739.0,39.0,1969.0,159.0,826.0,-56.0,214.0,-115.0,354.0
19:41:10.920000,-743.0,51.0,1938.0,110.0,848.0,-70.0,228.0,-121.0,366.0
19:41:10.924000,-742.0,55.0,1897.0,58.0,908.0,-79.0,228.0,-121.0,366.0
19:41:10.929000,-747.0,65.0,1837.0,-1.0,883.0,-83.0,226.0,-120.0,361.0
19:41:10.934000,-747.0,69.0,1776.0,-22.0,907.0,-91.0,226.0,-120.0,361.0
19:41:10.938000,-749.0,72.0,1715.0,-24.0,848.0,-93.0,226.0,-120.0,361.0
19:41:10.943000,-742.0,74.0,1654.0,-21.0,825.0,-108.0,241.0,-115.0,364.0
19:41:10.948000,-732.0,70.0,1598.0,-18.0,838.0,-118.0,241.0,-115.0,364.0
19:41:10.952000,-718.0,70.0,1549.0,-35.0,837.0,-127.0,255.0,-129.0,756.0
19:41:10.957000,-715.0,65.0,1492.0,-62.0,812.0,-126.0,255.0,-129.0,756.0
19:41:10.961000,-698.0,62.0,1441.0,-81.0,777.0,-143.0,255.0,-129.0,756.0
19:41:10.967000,-685.0,57.0,1390.0,-81.0,777.0,-143.0,264.0,-124.0,382.0
19:41:10.971000,-678.0,55.0,1342.0,-97.0,788.0,-150.0,264.0,-124.0,382.0
19:41:10.976000,-665.0,51.0,1283.0,-146.0,808.0,-158.0,276.0,-118.0,381.0
19:41:10.981000,-662.0,42.0,1253.0,-168.0,862.0,-161.0,276.0,-118.0,381.0
19:41:10.985000,-655.0,42.0,1214.0,-179.0,855.0,-168.0,276.0,-118.0,381.0
19:41:10.990000,-658.0,32.0,1171.0,-194.0,891.0,-173.0,279.0,-120.0,390.0
19:41:10.994000,-639.0,27.0,1124.0,-208.0,836.0,-180.0,279.0,-120.0,390.0
19:41:11.000000,-633.0,13.0,1087.0,-203.0,811.0,-199.0,280.0,-124.0,399.0
19:41:11.004000,-600.0,5.0,1052.0,-208.0,764.0,-218.0,280.0,-124.0,399.0
19:41:11.009000,-596.0,-4.0,1015.0,-257.0,806.0,-244.0,295.0,-124.0,396.0
19:41:11.014000,-596.0,-4.0,1015.0,-335.0,884.0,-227.0,295.0,-124.0,396.0
19:41:11.018000,-599.0,-12.0,980.0,-384.0,874.0,-218.0,295.0,-124.0,396.0
19:41:11.023000,-610.0,-32.0,966.0,-342.0,831.0,-231.0,289.0,-126.0,390.0
19:41:11.028000,-595.0,-43.0,968.0,-298.0,748.0,-253.0,289.0,-126.0,390.0
19:41:11.033000,-588.0,-62.0,948.0,-283.0,751.0,-258.0,304.0,-132.0,393.0
19:41:11.037000,-582.0,-63.0,933.0,-328.0,791.0,-268.0,304.0,-132.0,393.0
19:41:11.041000,-588.0,-67.0,914.0,-381.0,898.0,-271.0,304.0,-132.0,393.0
19:41:11.047000,-603.0,-63.0,910.0,-421.0,915.0,-268.0,306.0,-132.0,399.0
19:41:11.051000,-618.0,-63.0,891.0,-416.0,915.0,-266.0,306.0,-132.0,399.0
19:41:11.056000,-639.0,-62.0,882.0,-387.0,829.0,-270.0,306.0,-145.0,403.0
19:41:11.061000,-643.0,-59.0,865.0,-367.0,806.0,-282.0,306.0,-145.0,403.0
19:41:11.065000,-658.0,-59.0,861.0,-363.0,780.0,-287.0,306.0,-145.0,403.0
19:41:11.070000,-651.0,-56.0,847.0,-378.0,802.0,-293.0,312.0,-141.0,406.0
19:41:11.075000,-662.0,-58.0,814.0,-378.0,791.0,-293.0,312.0,-141.0,406.0
19:41:11.080000,-654.0,-60.0,777.0,-383.0,791.0,-287.0,327.0,-148.0,414.0
19:41:11.084000,-662.0,-68.0,732.0,-369.0,743.0,-295.0,327.0,-148.0,414.0
19:41:11.088000,-647.0,-72.0,706.0,-369.0,743.0,-295.0,327.0,-148.0,414.0
19:41:11.094000,-653.0,-79.0,675.0,-344.0,702.0,-298.0,321.0,-142.0,424.0
19:41:11.098000,-642.0,-81.0,656.0,-316.0,699.0,-289.0,321.0,-142.0,424.0
19:41:11.103000,-638.0,-85.0,610.0,-316.0,644.0,-294.0,331.0,-145.0,412.0
19:41:11.108000,-637.0,-80.0,587.0,-311.0,656.0,-300.0,331.0,-145.0,412.0
19:41:11.112000,-637.0,-80.0,587.0,-309.0,620.0,-304.0,331.0,-145.0,412.0
19:41:11.117000,-639.0,-70.0,546.0,-316.0,658.0,-307.0,324.0,-151.0,417.0
19:41:11.122000,-639.0,-70.0,546.0,-330.0,629.0,-305.0,324.0,-151.0,417.0
19:41:11.127000,-634.0,-65.0,527.0,-352.0,655.0,-322.0,333.0,-166.0,426.0
19:41:11.131000,-647.0,-56.0,505.0,-353.0,663.0,-318.0,333.0,-166.0,426.0
19:41:11.135000,-647.0,-49.0,482.0,-368.0,616.0,-326.0,333.0,-166.0,426.0
19:41:11.141000,-655.0,-41.0,455.0,-355.0,639.0,-336.0,330.0,-159.0,430.0
19:41:11.145000,-655.0,-28.0,438.0,-363.0,585.0,-337.0,330.0,-159.0,430.0
19:41:11.150000,-648.0,-23.0,408.0,-370.0,612.0,-343.0,331.0,-153.0,432.0
19:41:11.155000,-652.0,-11.0,379.0,-367.0,595.0,-340.0,331.0,-153.0,432.0
19:41:11.159000,-645.0,-6.0,342.0,-367.0,590.0,-349.0,331.0,-153.0,432.0
19:41:11.164000,-650.0,2.0,317.0,-341.0,586.0,-351.0,337.0,-159.0,430.0
19:41:11.169000,-651.0,10.0,299.0,-335.0,554.0,-353.0,337.0,-159.0,430.0
19:41:11.173000,-651.0,15.0,276.0,-322.0,593.0,-363.0,345.0,-159.0,445.0
19:41:11.178000,-659.0,23.0,256.0,-315.0,551.0,-366.0,345.0,-159.0,445.0
19:41:11.183000,-656.0,26.0,240.0,-315.0,551.0,-366.0,333.0,-160.0,453.0
19:41:11.188000,-659.0,36.0,217.0,-332.0,553.0,-375.0,333.0,-160.0,453.0
19:41:11.192000,-659.0,48.0,196.0,-344.0,540.0,-385.0,333.0,-160.0,453.0
19:41:11.197000,-665.0,60.0,182.0,-357.0,547.0,-398.0,339.0,-159.0,436.0
19:41:11.202000,-674.0,72.0,175.0,-372.0,571.0,-403.0,339.0,-159.0,436.0
19:41:11.206000,-697.0,82.0,172.0,-399.0,571.0,-404.0,348.0,-178.0,441.0
19:41:11.211000,-725.0,93.0,173.0,-412.0,627.0,-410.0,348.0,-178.0,441.0
19:41:11.215000,-751.0,99.0,179.0,-410.0,601.0,-412.0,348.0,-178.0,441.0
19:41:11.221000,-777.0,98.0,192.0,-389.0,615.0,-419.0,345.0,-178.0,451.0
19:41:11.225000,-793.0,94.0,206.0,-357.0,574.0,-416.0,345.0,-178.0,451.0
19:41:11.230000,-805.0,84.0,203.0,-327.0,537.0,-421.0,337.0,-181.0,459.0
19:41:11.235000,-805.0,84.0,203.0,-294.0,539.0,-429.0,337.0,-181.0,459.0
19:41:11.239000,-801.0,77.0,192.0,-287.0,507.0,-437.0,337.0,-181.0,459.0
19:41:11.244000,-798.0,67.0,172.0,-291.0,538.0,-437.0,349.0,-187.0,454.0
19:41:11.249000,-793.0,53.0,147.0,-311.0,493.0,-432.0,349.0,-187.0,454.0
19:41:11.253000,-781.0,37.0,116.0,-323.0,482.0,-439.0,346.0,-187.0,454.0
19:41:11.258000,-767.0,23.0,88.0,-319.0,454.0,-445.0,346.0,-187.0,454.0
19:41:11.262000,-738.0,9.0,65.0,-332.0,428.0,-453.0,346.0,-187.0,454.0
19:41:11.268000,-718.0,-2.0,53.0,-362.0,439.0,-458.0,340.0,-187.0,477.0
19:41:11.272000,-692.0,-12.0,36.0,-412.0,456.0,-466.0,340.0,-187.0,477.0
19:41:11.277000,-669.0,-16.0,10.0,-449.0,488.0,-473.0,342.0,-199.0,465.0
19:41:11.282000,-645.0,-20.0,-18.0,-472.0,482.0,-474.0,342.0,-199.0,465.0
19:41:11.286000,-626.0,-23.0,-39.0,-479.0,486.0,-480.0,342.0,-199.0,465.0
19:41:11.291000,-606.0,-23.0,-53.0,-482.0,463.0,-487.0,346.0,-202.0,466.0
19:41:11.296000,-590.0,-21.0,-64.0,-482.0,463.0,-487.0,346.0,-202.0,466.0
19:41:11.300000,-576.0,-14.0,-85.0,-507.0,463.0,-493.0,337.0,-198.0,468.0
19:41:11.305000,-566.0,-4.0,-107.0,-532.0,473.0,-489.0,337.0,-198.0,468.0
19:41:11.309000,-556.0,5.0,-130.0,-537.0,521.0,-503.0,337.0,-198.0,468.0
19:41:11.315000,-557.0,17.0,-151.0,-537.0,521.0,-503.0,337.0,-208.0,465.0
19:41:11.319000,-557.0,30.0,-170.0,-548.0,528.0,-499.0,337.0,-208.0,465.0
19:41:11.324000,-557.0,44.0,-196.0,-559.0,557.0,-504.0,337.0,-213.0,471.0
19:41:11.329000,-556.0,62.0,-224.0,-566.0,566.0,-513.0,337.0,-213.0,471.0
19:41:11.333000,-556.0,62.0,-224.0,-584.0,591.0,-512.0,337.0,-213.0,471.0
19:41:11.338000,-570.0,96.0,-280.0,-587.0,600.0,-506.0,339.0,-208.0,466.0
19:41:11.343000,-570.0,96.0,-280.0,-579.0,584.0,-520.0,339.0,-208.0,466.0
19:41:11.347000,-573.0,114.0,-308.0,-583.0,579.0,-528.0,346.0,-211.0,469.0
19:41:11.352000,-578.0,134.0,-331.0,-583.0,554.0,-534.0,346.0,-211.0,469.0
19:41:11.360000,-582.0,173.0,-364.0,-577.0,554.0,-538.0,340.0,-214.0,489.0
19:41:11.362000,-582.0,173.0,-364.0,-577.0,554.0,-538.0,340.0,-214.0,489.0
19:41:11.366000,-578.0,192.0,-380.0,-550.0,553.0,-554.0,340.0,-214.0,489.0
19:41:11.371000,-569.0,209.0,-402.0,-546.0,566.0,-561.0,328.0,-222.0,480.0
19:41:11.376000,-566.0,228.0,-422.0,-559.0,591.0,-569.0,328.0,-222.0,480.0
19:41:11.380000,-560.0,245.0,-452.0,-567.0,608.0,-577.0,333.0,-219.0,490.0
19:41:11.385000,-554.0,255.0,-487.0,-548.0,589.0,-578.0,333.0,-219.0,490.0
19:41:11.389000,-539.0,262.0,-513.0,-512.0,538.0,-579.0,333.0,-219.0,490.0
19:41:11.394000,-523.0,267.0,-532.0,-483.0,511.0,-589.0,331.0,-226.0,487.0
19:41:11.399000,-501.0,273.0,-550.0,-474.0,529.0,-604.0,331.0,-226.0,487.0
19:41:11.404000,-478.0,275.0,-576.0,-474.0,529.0,-604.0,319.0,-231.0,486.0
19:41:11.409000,-459.0,273.0,-609.0,-482.0,555.0,-605.0,319.0,-231.0,486.0
19:41:11.413000,-432.0,266.0,-632.0,-473.0,574.0,-608.0,319.0,-231.0,486.0
19:41:11.418000,-404.0,263.0,-654.0,-459.0,555.0,-613.0,315.0,-237.0,483.0
19:41:11.423000,-379.0,263.0,-674.0,-462.0,542.0,-615.0,315.0,-237.0,483.0
19:41:11.427000,-352.0,262.0,-693.0,-477.0,573.0,-618.0,310.0,-235.0,486.0
19:41:11.432000,-346.0,264.0,-707.0,-497.0,618.0,-617.0,310.0,-235.0,486.0
19:41:11.436000,-346.0,264.0,-707.0,-509.0,667.0,-615.0,310.0,-235.0,486.0
19:41:11.441000,-343.0,267.0,-714.0,-512.0,708.0,-620.0,304.0,-238.0,492.0
19:41:11.446000,-344.0,275.0,-728.0,-514.0,729.0,-635.0,304.0,-238.0,492.0
19:41:11.451000,-344.0,275.0,-728.0,-529.0,756.0,-644.0,310.0,-234.0,495.0
19:41:11.456000,-351.0,282.0,-758.0,-558.0,771.0,-646.0,310.0,-234.0,495.0
19:41:11.460000,-355.0,284.0,-782.0,-580.0,776.0,-654.0,310.0,-234.0,495.0
19:41:11.465000,-366.0,287.0,-800.0,-599.0,796.0,-657.0,295.0,-237.0,490.0
19:41:11.470000,-382.0,286.0,-830.0,-604.0,789.0,-664.0,295.0,-237.0,490.0
19:41:11.474000,-395.0,289.0,-856.0,-583.0,793.0,-673.0,292.0,-247.0,492.0
19:41:11.479000,-413.0,282.0,-873.0,-556.0,772.0,-667.0,292.0,-247.0,492.0
19:41:11.483000,-429.0,270.0,-884.0,-516.0,753.0,-668.0,292.0,-247.0,492.0
19:41:11.488000,-439.0,254.0,-898.0,-478.0,747.0,-666.0,289.0,-246.0,511.0
19:41:11.493000,-448.0,238.0,-919.0,-451.0,742.0,-669.0,289.0,-246.0,511.0
19:41:11.498000,-452.0,221.0,-952.0,-439.0,731.0,-665.0,289.0,-246.0,511.0
19:41:11.503000,-459.0,202.0,-982.0,-427.0,750.0,-669.0,289.0,-246.0,511.0
19:41:11.507000,-460.0,190.0,-1012.0,-426.0,741.0,-665.0,289.0,-246.0,511.0
19:41:11.512000,-463.0,175.0,-1050.0,-426.0,687.0,-648.0,265.0,-246.0,496.0
19:41:11.517000,-460.0,164.0,-1099.0,-456.0,687.0,-648.0,265.0,-246.0,496.0
19:41:11.521000,-455.0,154.0,-1145.0,-477.0,701.0,-646.0,273.0,-244.0,495.0
19:41:11.526000,-447.0,143.0,-1182.0,-464.0,675.0,-640.0,273.0,-244.0,495.0
19:41:11.530000,-435.0,135.0,-1212.0,-401.0,639.0,-657.0,271.0,-249.0,490.0
19:41:11.535000,-420.0,130.0,-1241.0,-401.0,639.0,-657.0,271.0,-249.0,490.0
19:41:11.540000,-411.0,130.0,-1285.0,-433.0,645.0,-658.0,271.0,-249.0,490.0
19:41:11.545000,-403.0,128.0,-1342.0,-496.0,742.0,-671.0,258.0,-252.0,493.0
19:41:11.550000,-410.0,126.0,-1394.0,-567.0,798.0,-677.0,258.0,-252.0,493.0
19:41:11.554000,-432.0,124.0,-1432.0,-651.0,871.0,-681.0,267.0,-264.0,501.0
19:41:11.559000,-432.0,124.0,-1432.0,-732.0,974.0,-679.0,267.0,-264.0,501.0
19:41:11.563000,-460.0,119.0,-1463.0,-795.0,1012.0,-672.0,267.0,-264.0,501.0
19:41:11.568000,-499.0,112.0,-1486.0,-828.0,1015.0,-657.0,252.0,-258.0,502.0
19:41:11.573000,-546.0,101.0,-1496.0,-808.0,979.0,-636.0,252.0,-258.0,502.0
19:41:11.578000,-588.0,84.0,-1484.0,-729.0,898.0,-621.0,256.0,-258.0,510.0
19:41:11.582000,-626.0,64.0,-1456.0,-621.0,804.0,-610.0,256.0,-258.0,510.0
19:41:11.587000,-657.0,46.0,-1428.0,-512.0,740.0,-602.0,256.0,-258.0,510.0
19:41:11.592000,-686.0,27.0,-1400.0,-411.0,726.0,-602.0,247.0,-261.0,501.0
19:41:11.597000,-719.0,25.0,-1376.0,-371.0,738.0,-603.0,247.0,-261.0,501.0
19:41:11.601000,-751.0,30.0,-1391.0,-405.0,801.0,-602.0,247.0,-276.0,504.0
19:41:11.606000,-788.0,42.0,-1446.0,-453.0,843.0,-601.0,247.0,-276.0,504.0
19:41:11.610000,-829.0,60.0,-1498.0,-501.0,848.0,-602.0,247.0,-276.0,504.0
19:41:11.615000,-874.0,77.0,-1544.0,-536.0,868.0,-605.0,226.0,-283.0,504.0
19:41:11.620000,-920.0,91.0,-1581.0,-559.0,838.0,-610.0,226.0,-283.0,504.0
19:41:11.625000,-966.0,102.0,-1623.0,-559.0,838.0,-610.0,237.0,-286.0,510.0
19:41:11.629000,-1020.0,109.0,-1673.0,-582.0,847.0,-620.0,237.0,-286.0,510.0
19:41:11.634000,-1071.0,106.0,-1732.0,-588.0,870.0,-625.0,237.0,-286.0,510.0
19:41:11.639000,-1124.0,98.0,-1791.0,-581.0,828.0,-631.0,222.0,-285.0,507.0
19:41:11.644000,-1178.0,88.0,-1833.0,-545.0,838.0,-640.0,222.0,-285.0,507.0
19:41:11.648000,-1226.0,75.0,-1841.0,-479.0,793.0,-643.0,222.0,-292.0,510.0
19:41:11.653000,-1275.0,70.0,-1861.0,-446.0,764.0,-650.0,222.0,-292.0,510.0
19:41:11.657000,-1275.0,70.0,-1861.0,-452.0,820.0,-664.0,222.0,-292.0,510.0
19:41:11.662000,-1377.0,57.0,-1957.0,-474.0,815.0,-668.0,201.0,-319.0,532.0
19:41:11.667000,-1430.0,46.0,-1988.0,-503.0,833.0,-670.0,201.0,-319.0,532.0
19:41:11.672000,-1430.0,46.0,-1988.0,-503.0,856.0,-679.0,213.0,-313.0,513.0
19:41:11.676000,-1472.0,28.0,-1997.0,-494.0,753.0,-682.0,213.0,-313.0,513.0
19:41:11.681000,-1512.0,9.0,-1995.0,-476.0,680.0,-686.0,213.0,-313.0,513.0
19:41:11.686000,-1550.0,-14.0,-1982.0,-434.0,672.0,-695.0,201.0,-330.0,519.0
19:41:11.691000,-1582.0,-30.0,-1965.0,-404.0,591.0,-707.0,201.0,-330.0,519.0
19:41:11.695000,-1607.0,-35.0,-1952.0,-404.0,598.0,-723.0,210.0,-357.0,516.0
19:41:11.700000,-1627.0,-44.0,-1941.0,-428.0,686.0,-719.0,210.0,-357.0,516.0
19:41:11.704000,-1663.0,-64.0,-1934.0,-459.0,661.0,-718.0,210.0,-357.0,516.0
19:41:11.709000,-1703.0,-72.0,-1918.0,-474.0,652.0,-731.0,204.0,-357.0,546.0
19:41:11.714000,-1739.0,-91.0,-1901.0,-492.0,745.0,-731.0,204.0,-357.0,546.0
19:41:11.719000,-1770.0,-123.0,-1917.0,-492.0,723.0,-725.0,198.0,-375.0,520.0
19:41:11.723000,-1815.0,-154.0,-1912.0,-442.0,629.0,-735.0,198.0,-375.0,520.0
19:41:11.728000,-1857.0,-191.0,-1907.0,-432.0,684.0,-737.0,198.0,-375.0,520.0
19:41:11.733000,-1910.0,-235.0,-1912.0,-432.0,684.0,-737.0,201.0,-393.0,513.0
19:41:11.738000,-1950.0,-273.0,-1882.0,-395.0,693.0,-737.0,201.0,-393.0,513.0
19:41:11.742000,-1970.0,-331.0,-1843.0,-357.0,604.0,-783.0,198.0,-412.0,531.0
19:41:11.747000,-1995.0,-382.0,-1844.0,-357.0,604.0,-783.0,198.0,-412.0,531.0
19:41:11.751000,-2012.0,-436.0,-1858.0,-384.0,681.0,-787.0,198.0,-412.0,531.0
19:41:11.756000,-2044.0,-483.0,-1845.0,-387.0,646.0,-801.0,201.0,-426.0,525.0
19:41:11.761000,-2081.0,-533.0,-1851.0,-403.0,683.0,-805.0,201.0,-426.0,525.0
19:41:11.766000,-2097.0,-575.0,-1886.0,-454.0,695.0,-807.0,211.0,-450.0,525.0
19:41:11.770000,-2099.0,-618.0,-1919.0,-487.0,601.0,-844.0,211.0,-450.0,525.0
19:41:11.775000,-2099.0,-618.0,-1919.0,-543.0,615.0,-866.0,211.0,-450.0,525.0
19:41:11.780000,-2094.0,-662.0,-1922.0,-616.0,567.0,-879.0,213.0,-456.0,514.0
19:41:11.784000,-2090.0,-701.0,-1893.0,-688.0,530.0,-919.0,213.0,-456.0,514.0
19:41:11.789000,-2089.0,-738.0,-1892.0,-778.0,596.0,-936.0,214.0,-468.0,514.0
19:41:11.794000,-2086.0,-776.0,-1932.0,-781.0,548.0,-974.0,214.0,-468.0,514.0
19:41:11.799000,-2064.0,-819.0,-1959.0,-763.0,538.0,-998.0,225.0,-483.0,522.0
19:41:11.803000,-2069.0,-877.0,-1957.0,-767.0,533.0,-1017.0,225.0,-483.0,522.0
19:41:11.807000,-2048.0,-920.0,-1936.0,-767.0,516.0,-1073.0,225.0,-483.0,522.0
19:41:11.813000,-2035.0,-954.0,-1951.0,-834.0,589.0,-1070.0,241.0,-519.0,516.0
19:41:11.817000,-2004.0,-1012.0,-1991.0,-893.0,542.0,-1106.0,241.0,-519.0,516.0
19:41:11.822000,-1951.0,-1059.0,-2017.0,-814.0,558.0,-1122.0,247.0,-517.0,501.0
19:41:11.827000,-1915.0,-1124.0,-2005.0,-732.0,568.0,-1102.0,247.0,-517.0,501.0
19:41:11.831000,-1883.0,-1176.0,-1978.0,-688.0,528.0,-1131.0,247.0,-517.0,501.0
19:41:11.836000,-1864.0,-1229.0,-1914.0,-657.0,593.0,-1097.0,255.0,-544.0,501.0
19:41:11.841000,-1844.0,-1275.0,-1894.0,-657.0,593.0,-1097.0,255.0,-544.0,501.0
19:41:11.845000,-1822.0,-1293.0,-1949.0,-813.0,572.0,-1110.0,271.0,-550.0,495.0
19:41:11.850000,-1803.0,-1339.0,-1917.0,-864.0,588.0,-1116.0,271.0,-550.0,495.0
19:41:11.854000,-1772.0,-1390.0,-1858.0,-819.0,515.0,-1052.0,271.0,-550.0,495.0
19:41:11.860000,-1757.0,-1402.0,-1791.0,-823.0,412.0,-1068.0,291.0,-558.0,496.0
19:41:11.864000,-1736.0,-1423.0,-1755.0,-821.0,376.0,-1004.0,291.0,-558.0,496.0
19:41:11.869000,-1704.0,-1421.0,-1738.0,-821.0,376.0,-1004.0,294.0,-570.0,487.0
19:41:11.874000,-1670.0,-1436.0,-1711.0,-809.0,326.0,-1005.0,294.0,-570.0,487.0
19:41:11.879000,-1678.0,-1434.0,-1698.0,-731.0,254.0,-918.0,298.0,-579.0,474.0
19:41:11.883000,-1647.0,-1411.0,-1722.0,-792.0,149.0,-924.0,298.0,-579.0,474.0
19:41:11.887000,-1647.0,-1411.0,-1722.0,-718.0,135.0,-890.0,298.0,-579.0,474.0
19:41:11.893000,-1606.0,-1402.0,-1657.0,-654.0,-60.0,-843.0,325.0,-585.0,472.0
19:41:11.897000,-1563.0,-1372.0,-1577.0,-616.0,-64.0,-832.0,325.0,-585.0,472.0
19:41:11.902000,-1565.0,-1383.0,-1524.0,-615.0,-126.0,-743.0,346.0,-606.0,459.0
19:41:11.907000,-1570.0,-1383.0,-1585.0,-684.0,-277.0,-775.0,346.0,-606.0,459.0
19:41:11.911000,-1516.0,-1344.0,-1687.0,-523.0,-304.0,-767.0,346.0,-606.0,459.0
19:41:11.916000,-1430.0,-1343.0,-1673.0,-422.0,-433.0,-718.0,364.0,-613.0,447.0
19:41:11.921000,-1363.0,-1304.0,-1605.0,-395.0,-389.0,-767.0,364.0,-613.0,447.0
19:41:11.926000,-1331.0,-1249.0,-1540.0,-371.0,-386.0,-711.0,367.0,-612.0,429.0
19:41:11.930000,-1273.0,-1236.0,-1544.0,-514.0,-484.0,-707.0,367.0,-612.0,429.0
19:41:11.934000,-1237.0,-1217.0,-1631.0,-502.0,-384.0,-716.0,367.0,-612.0,429.0
19:41:11.940000,-1207.0,-1237.0,-1716.0,-486.0,-403.0,-670.0,379.0,-616.0,436.0
19:41:11.944000,-1171.0,-1216.0,-1782.0,-478.0,-412.0,-740.0,379.0,-616.0,436.0
19:41:11.948000,-1190.0,-1160.0,-1731.0,-325.0,-374.0,-679.0,406.0,-619.0,424.0
19:41:11.954000,-1240.0,-1149.0,-1583.0,-325.0,-374.0,-679.0,406.0,-619.0,424.0
19:41:11.958000,-1272.0,-1121.0,-1586.0,-422.0,-505.0,-645.0,406.0,-619.0,424.0
19:41:11.963000,-1249.0,-1157.0,-1594.0,-456.0,-453.0,-695.0,403.0,-621.0,423.0
19:41:11.968000,-1204.0,-1135.0,-1601.0,-372.0,-548.0,-650.0,403.0,-621.0,423.0
19:41:11.973000,-1141.0,-1054.0,-1563.0,-369.0,-746.0,-758.0,435.0,-619.0,403.0
19:41:11.977000,-1120.0,-1047.0,-1515.0,-311.0,-691.0,-762.0,435.0,-619.0,403.0
19:41:11.981000,-1096.0,-1015.0,-1551.0,-451.0,-684.0,-722.0,435.0,-619.0,403.0
19:41:11.987000,-1038.0,-1049.0,-1382.0,-459.0,-616.0,-776.0,454.0,-628.0,390.0
19:41:11.991000,-1058.0,-1022.0,-1236.0,-308.0,-677.0,-729.0,454.0,-628.0,390.0
19:41:11.996000,-1068.0,-1001.0,-1217.0,-344.0,-694.0,-768.0,448.0,-630.0,378.0
19:41:12.001000,-1068.0,-1001.0,-1217.0,-386.0,-530.0,-796.0,448.0,-630.0,378.0
19:41:12.005000,-1059.0,-984.0,-1315.0,-463.0,-493.0,-832.0,448.0,-630.0,378.0
19:41:12.010000,-1008.0,-945.0,-1479.0,-543.0,-474.0,-878.0,456.0,-627.0,369.0
19:41:12.015000,-987.0,-940.0,-1537.0,-550.0,-587.0,-870.0,456.0,-627.0,369.0
19:41:12.020000,-961.0,-940.0,-1492.0,-573.0,-652.0,-904.0,469.0,-622.0,373.0
19:41:12.024000,-935.0,-944.0,-1431.0,-586.0,-568.0,-915.0,469.0,-622.0,373.0
19:41:12.028000,-933.0,-945.0,-1460.0,-573.0,-437.0,-920.0,469.0,-622.0,373.0
19:41:12.034000,-911.0,-944.0,-1518.0,-526.0,-450.0,-916.0,472.0,-625.0,366.0
19:41:12.038000,-902.0,-961.0,-1485.0,-392.0,-594.0,-910.0,472.0,-625.0,366.0
19:41:12.043000,-856.0,-984.0,-1327.0,-365.0,-602.0,-928.0,480.0,-615.0,360.0
19:41:12.048000,-794.0,-989.0,-1281.0,-469.0,-499.0,-950.0,480.0,-615.0,360.0
19:41:12.052000,-732.0,-985.0,-1312.0,-556.0,-411.0,-946.0,480.0,-615.0,360.0
19:41:12.057000,-683.0,-993.0,-1281.0,-583.0,-412.0,-942.0,498.0,-609.0,343.0
19:41:12.062000,-631.0,-990.0,-1124.0,-583.0,-412.0,-942.0,498.0,-609.0,343.0
19:41:12.067000,-580.0,-971.0,-984.0,-605.0,-496.0,-961.0,517.0,-618.0,330.0
19:41:12.071000,-517.0,-956.0,-921.0,-645.0,-571.0,-957.0,517.0,-618.0,330.0
19:41:12.075000,-502.0,-931.0,-940.0,-645.0,-571.0,-957.0,517.0,-618.0,330.0
19:41:12.081000,-506.0,-921.0,-923.0,-546.0,-548.0,-932.0,520.0,-603.0,340.0
19:41:12.085000,-523.0,-902.0,-892.0,-457.0,-509.0,-905.0,520.0,-603.0,340.0
19:41:12.090000,-546.0,-872.0,-811.0,-464.0,-487.0,-889.0,534.0,-597.0,325.0
19:41:12.095000,-559.0,-851.0,-732.0,-517.0,-478.0,-877.0,534.0,-597.0,325.0
19:41:12.099000,-559.0,-851.0,-732.0,-613.0,-445.0,-867.0,534.0,-597.0,325.0
19:41:12.104000,-620.0,-804.0,-751.0,-668.0,-398.0,-851.0,543.0,-597.0,312.0
19:41:12.109000,-620.0,-804.0,-751.0,-652.0,-409.0,-858.0,543.0,-597.0,312.0
19:41:12.113000,-565.0,-799.0,-782.0,-599.0,-448.0,-859.0,550.0,-601.0,330.0
19:41:12.118000,-475.0,-795.0,-808.0,-516.0,-439.0,-825.0,550.0,-601.0,330.0
19:41:12.122000,-439.0,-791.0,-765.0,-509.0,-458.0,-787.0,550.0,-601.0,330.0
19:41:12.128000,-457.0,-770.0,-768.0,-572.0,-448.0,-765.0,558.0,-601.0,304.0
19:41:12.132000,-450.0,-771.0,-788.0,-617.0,-468.0,-748.0,558.0,-601.0,304.0
19:41:12.137000,-438.0,-779.0,-717.0,-620.0,-525.0,-749.0,556.0,-598.0,295.0
19:41:12.142000,-439.0,-763.0,-576.0,-615.0,-550.0,-744.0,556.0,-598.0,295.0
19:41:12.146000,-419.0,-770.0,-483.0,-662.0,-521.0,-736.0,556.0,-598.0,295.0
19:41:12.151000,-372.0,-783.0,-555.0,-636.0,-488.0,-703.0,561.0,-595.0,280.0
19:41:12.155000,-399.0,-787.0,-656.0,-501.0,-413.0,-646.0,561.0,-595.0,280.0
19:41:12.161000,-485.0,-791.0,-639.0,-428.0,-265.0,-636.0,568.0,-604.0,285.0
19:41:12.165000,-502.0,-802.0,-662.0,-516.0,-223.0,-645.0,568.0,-604.0,285.0
19:41:12.170000,-485.0,-806.0,-721.0,-516.0,-223.0,-645.0,568.0,-592.0,271.0
19:41:12.175000,-466.0,-823.0,-753.0,-613.0,-283.0,-649.0,568.0,-592.0,271.0
19:41:12.179000,-443.0,-838.0,-725.0,-653.0,-356.0,-639.0,568.0,-592.0,271.0
19:41:12.183000,-420.0,-839.0,-614.0,-665.0,-393.0,-640.0,577.0,-586.0,267.0
19:41:12.189000,-401.0,-847.0,-619.0,-688.0,-401.0,-638.0,577.0,-586.0,267.0
19:41:12.193000,-347.0,-861.0,-678.0,-714.0,-346.0,-635.0,583.0,-574.0,247.0
19:41:12.197000,-317.0,-861.0,-613.0,-673.0,-360.0,-629.0,583.0,-574.0,247.0
19:41:12.202000,-317.0,-861.0,-613.0,-642.0,-418.0,-608.0,583.0,-574.0,247.0
19:41:12.207000,-329.0,-865.0,-475.0,-685.0,-428.0,-597.0,583.0,-576.0,249.0
19:41:12.212000,-301.0,-858.0,-426.0,-751.0,-421.0,-601.0,583.0,-576.0,249.0
19:41:12.217000,-301.0,-858.0,-426.0,-764.0,-432.0,-601.0,588.0,-573.0,237.0
19:41:12.222000,-290.0,-845.0,-408.0,-741.0,-405.0,-595.0,588.0,-573.0,237.0
19:41:12.226000,-271.0,-837.0,-408.0,-711.0,-349.0,-592.0,588.0,-573.0,237.0
19:41:12.231000,-239.0,-831.0,-437.0,-677.0,-310.0,-585.0,583.0,-567.0,238.0
19:41:12.236000,-235.0,-815.0,-479.0,-652.0,-305.0,-574.0,583.0,-567.0,238.0
19:41:12.240000,-219.0,-806.0,-473.0,-653.0,-342.0,-575.0,589.0,-564.0,232.0
19:41:12.245000,-202.0,-795.0,-433.0,-692.0,-379.0,-576.0,589.0,-564.0,232.0
19:41:12.249000,-179.0,-796.0,-419.0,-728.0,-380.0,-574.0,589.0,-564.0,232.0
19:41:12.255000,-165.0,-791.0,-423.0,-735.0,-366.0,-568.0,591.0,-562.0,223.0
19:41:12.259000,-170.0,-786.0,-410.0,-706.0,-341.0,-554.0,591.0,-562.0,223.0
19:41:12.264000,-168.0,-788.0,-374.0,-706.0,-326.0,-545.0,595.0,-561.0,220.0
19:41:12.269000,-170.0,-783.0,-308.0,-668.0,-290.0,-543.0,595.0,-561.0,220.0
19:41:12.273000,-189.0,-763.0,-341.0,-718.0,-238.0,-544.0,595.0,-561.0,220.0
19:41:12.278000,-206.0,-745.0,-401.0,-718.0,-238.0,-544.0,603.0,-559.0,207.0
19:41:12.283000,-221.0,-726.0,-400.0,-731.0,-238.0,-548.0,603.0,-559.0,207.0
19:41:12.287000,-238.0,-702.0,-401.0,-731.0,-238.0,-548.0,601.0,-555.0,208.0
19:41:12.292000,-249.0,-677.0,-427.0,-750.0,-207.0,-548.0,601.0,-555.0,208.0
19:41:12.296000,-262.0,-656.0,-389.0,-748.0,-216.0,-548.0,601.0,-555.0,208.0
19:41:12.302000,-261.0,-644.0,-305.0,-732.0,-264.0,-550.0,619.0,-556.0,196.0
19:41:12.306000,-276.0,-623.0,-294.0,-761.0,-264.0,-549.0,619.0,-556.0,196.0
19:41:12.311000,-273.0,-607.0,-312.0,-801.0,-237.0,-546.0,607.0,-552.0,193.0
19:41:12.316000,-269.0,-591.0,-288.0,-799.0,-246.0,-550.0,607.0,-552.0,193.0
19:41:12.320000,-269.0,-591.0,-288.0,-791.0,-246.0,-549.0,607.0,-552.0,193.0
19:41:12.325000,-266.0,-585.0,-275.0,-795.0,-207.0,-542.0,615.0,-550.0,205.0
19:41:12.330000,-260.0,-586.0,-284.0,-793.0,-193.0,-538.0,615.0,-550.0,205.0
19:41:12.334000,-264.0,-581.0,-270.0,-808.0,-189.0,-532.0,615.0,-550.0,205.0
19:41:12.339000,-272.0,-578.0,-283.0,-823.0,-168.0,-521.0,615.0,-550.0,205.0
19:41:12.343000,-280.0,-580.0,-286.0,-807.0,-162.0,-509.0,615.0,-550.0,205.0
19:41:12.348000,-297.0,-581.0,-259.0,-786.0,-157.0,-500.0,619.0,-543.0,178.0
19:41:12.353000,-317.0,-577.0,-240.0,-788.0,-146.0,-488.0,619.0,-543.0,178.0
19:41:12.358000,-334.0,-581.0,-242.0,-808.0,-128.0,-478.0,612.0,-544.0,174.0
19:41:12.363000,-341.0,-587.0,-275.0,-817.0,-129.0,-467.0,612.0,-544.0,174.0
19:41:12.367000,-347.0,-592.0,-277.0,-808.0,-162.0,-452.0,612.0,-544.0,174.0
19:41:12.372000,-361.0,-595.0,-249.0,-801.0,-204.0,-441.0,613.0,-538.0,175.0
19:41:12.377000,-365.0,-600.0,-203.0,-809.0,-215.0,-433.0,613.0,-538.0,175.0
19:41:12.381000,-366.0,-606.0,-193.0,-809.0,-215.0,-433.0,621.0,-543.0,169.0
19:41:12.386000,-366.0,-603.0,-205.0,-812.0,-190.0,-414.0,621.0,-543.0,169.0
19:41:12.390000,-374.0,-599.0,-200.0,-812.0,-190.0,-414.0,621.0,-543.0,169.0
19:41:12.395000,-381.0,-590.0,-181.0,-811.0,-194.0,-402.0,607.0,-541.0,163.0
19:41:12.400000,-386.0,-582.0,-172.0,-828.0,-193.0,-396.0,607.0,-541.0,163.0
19:41:12.405000,-396.0,-570.0,-174.0,-852.0,-194.0,-390.0,612.0,-531.0,162.0
19:41:12.410000,-398.0,-558.0,-178.0,-878.0,-197.0,-387.0,612.0,-531.0,162.0
19:41:12.414000,-402.0,-546.0,-186.0,-902.0,-200.0,-387.0,612.0,-531.0,162.0
19:41:12.418000,-411.0,-539.0,-195.0,-920.0,-191.0,-383.0,622.0,-528.0,147.0
19:41:12.424000,-431.0,-532.0,-201.0,-926.0,-174.0,-374.0,622.0,-528.0,147.0
19:41:12.428000,-450.0,-532.0,-195.0,-905.0,-164.0,-366.0,609.0,-525.0,142.0
19:41:12.433000,-468.0,-526.0,-194.0,-879.0,-155.0,-360.0,609.0,-525.0,142.0
19:41:12.437000,-468.0,-526.0,-194.0,-871.0,-145.0,-354.0,609.0,-525.0,142.0
19:41:12.442000,-490.0,-515.0,-194.0,-875.0,-144.0,-348.0,627.0,-525.0,136.0
19:41:12.447000,-507.0,-506.0,-175.0,-897.0,-143.0,-348.0,627.0,-525.0,136.0
19:41:12.452000,-521.0,-490.0,-170.0,-926.0,-149.0,-350.0,612.0,-534.0,127.0
19:41:12.457000,-525.0,-473.0,-170.0,-943.0,-179.0,-355.0,612.0,-534.0,127.0
19:41:12.461000,-528.0,-446.0,-156.0,-958.0,-213.0,-361.0,615.0,-535.0,124.0
19:41:12.466000,-514.0,-420.0,-142.0,-969.0,-238.0,-363.0,615.0,-535.0,124.0
19:41:12.470000,-491.0,-400.0,-136.0,-972.0,-260.0,-365.0,615.0,-535.0,124.0
19:41:12.475000,-459.0,-378.0,-144.0,-969.0,-274.0,-365.0,616.0,-525.0,121.0
19:41:12.480000,-429.0,-358.0,-156.0,-951.0,-279.0,-365.0,616.0,-525.0,121.0
19:41:12.485000,-390.0,-345.0,-148.0,-951.0,-279.0,-365.0,621.0,-531.0,120.0
19:41:12.489000,-361.0,-337.0,-131.0,-918.0,-256.0,-359.0,621.0,-531.0,120.0
19:41:12.494000,-337.0,-332.0,-133.0,-899.0,-229.0,-355.0,621.0,-531.0,120.0
19:41:12.499000,-311.0,-337.0,-142.0,-899.0,-229.0,-355.0,619.0,-522.0,114.0
19:41:12.504000,-293.0,-347.0,-156.0,-861.0,-213.0,-347.0,619.0,-522.0,114.0
19:41:12.508000,-282.0,-360.0,-163.0,-821.0,-185.0,-342.0,619.0,-525.0,108.0
19:41:12.513000,-282.0,-375.0,-159.0,-803.0,-150.0,-338.0,619.0,-525.0,108.0
19:41:12.517000,-287.0,-392.0,-175.0,-811.0,-110.0,-334.0,619.0,-525.0,108.0
19:41:12.522000,-300.0,-408.0,-181.0,-815.0,-78.0,-329.0,625.0,-519.0,111.0
19:41:12.527000,-312.0,-425.0,-155.0,-803.0,-77.0,-326.0,625.0,-519.0,111.0
19:41:12.531000,-312.0,-425.0,-155.0,-810.0,-80.0,-325.0,613.0,-514.0,102.0
19:41:12.536000,-353.0,-447.0,-138.0,-838.0,-57.0,-324.0,613.0,-514.0,102.0
19:41:12.541000,-353.0,-447.0,-138.0,-859.0,-34.0,-316.0,613.0,-514.0,102.0
19:41:12.546000,-372.0,-466.0,-128.0,-862.0,-27.0,-307.0,618.0,-516.0,100.0
19:41:12.551000,-403.0,-478.0,-120.0,-857.0,-15.0,-298.0,618.0,-516.0,100.0
19:41:12.555000,-429.0,-496.0,-133.0,-849.0,-8.0,-288.0,622.0,-520.0,109.0
19:41:12.560000,-452.0,-516.0,-135.0,-841.0,-15.0,-279.0,622.0,-520.0,109.0
19:41:12.564000,-483.0,-534.0,-110.0,-847.0,-7.0,-270.0,622.0,-520.0,109.0
19:41:12.569000,-518.0,-550.0,-109.0,-864.0,22.0,-259.0,622.0,-516.0,90.0
19:41:12.574000,-553.0,-570.0,-126.0,-870.0,38.0,-250.0,622.0,-516.0,90.0
19:41:12.579000,-591.0,-580.0,-126.0,-887.0,41.0,-242.0,615.0,-502.0,91.0
19:41:12.583000,-637.0,-587.0,-124.0,-921.0,37.0,-228.0,615.0,-502.0,91.0
19:41:12.588000,-682.0,-597.0,-112.0,-945.0,25.0,-210.0,615.0,-502.0,91.0
19:41:12.593000,-727.0,-610.0,-94.0,-951.0,18.0,-193.0,615.0,-514.0,76.0
19:41:12.598000,-779.0,-623.0,-91.0,-949.0,18.0,-178.0,615.0,-514.0,76.0
19:41:12.602000,-828.0,-634.0,-88.0,-949.0,18.0,-178.0,618.0,-505.0,85.0
19:41:12.607000,-873.0,-639.0,-98.0,-949.0,13.0,-169.0,618.0,-505.0,85.0
19:41:12.611000,-924.0,-642.0,-113.0,-957.0,15.0,-162.0,618.0,-505.0,85.0
19:41:12.616000,-983.0,-645.0,-92.0,-967.0,22.0,-149.0,619.0,-505.0,81.0
19:41:12.621000,-1050.0,-647.0,-58.0,-1019.0,37.0,-117.0,619.0,-505.0,81.0
19:41:12.626000,-1121.0,-648.0,-46.0,-1019.0,37.0,-117.0,616.0,-498.0,73.0
19:41:12.630000,-1180.0,-652.0,-93.0,-1048.0,47.0,-103.0,616.0,-498.0,73.0
19:41:12.635000,-1241.0,-656.0,-131.0,-1044.0,40.0,-88.0,616.0,-498.0,73.0
19:41:12.640000,-1297.0,-668.0,-121.0,-1005.0,3.0,-71.0,619.0,-499.0,51.0
19:41:12.645000,-1355.0,-682.0,-133.0,-978.0,-13.0,-55.0,619.0,-499.0,51.0
19:41:12.649000,-1414.0,-700.0,-191.0,-981.0,8.0,-38.0,615.0,-484.0,43.0
19:41:12.654000,-1414.0,-700.0,-191.0,-984.0,37.0,-22.0,615.0,-484.0,43.0
19:41:12.658000,-1477.0,-718.0,-252.0,-972.0,40.0,-7.0,615.0,-484.0,43.0
19:41:12.663000,-1546.0,-728.0,-271.0,-976.0,26.0,11.0,610.0,-486.0,30.0
19:41:12.668000,-1614.0,-748.0,-273.0,-1001.0,21.0,31.0,610.0,-486.0,30.0
19:41:12.673000,-1687.0,-772.0,-289.0,-1011.0,18.0,49.0,603.0,-484.0,42.0
19:41:12.677000,-1773.0,-793.0,-308.0,-1000.0,31.0,67.0,603.0,-484.0,42.0
19:41:12.682000,-1861.0,-821.0,-340.0,-989.0,73.0,92.0,603.0,-484.0,42.0
19:41:12.687000,-1959.0,-856.0,-389.0,-966.0,104.0,127.0,604.0,-460.0,31.0
19:41:12.692000,-2069.0,-900.0,-417.0,-919.0,100.0,163.0,604.0,-460.0,31.0
19:41:12.696000,-2186.0,-956.0,-413.0,-874.0,79.0,193.0,609.0,-481.0,21.0
19:41:12.701000,-2303.0,-1019.0,-408.0,-848.0,66.0,220.0,609.0,-481.0,21.0
19:41:12.705000,-2418.0,-1091.0,-421.0,-831.0,63.0,244.0,609.0,-481.0,21.0
19:41:12.710000,-2522.0,-1171.0,-448.0,-809.0,53.0,264.0,604.0,-441.0,9.0
19:41:12.715000,-2622.0,-1257.0,-487.0,-809.0,38.0,264.0,604.0,-441.0,9.0
19:41:12.720000,-2733.0,-1346.0,-535.0,-788.0,38.0,285.0,592.0,-435.0,-10.0
19:41:12.724000,-2839.0,-1449.0,-590.0,-766.0,46.0,310.0,592.0,-435.0,-10.0
19:41:12.729000,-2944.0,-1560.0,-611.0,-731.0,56.0,341.0,592.0,-435.0,-10.0
19:41:12.734000,-3045.0,-1670.0,-622.0,-703.0,31.0,370.0,592.0,-421.0,-21.0
19:41:12.739000,-3126.0,-1782.0,-683.0,-715.0,22.0,391.0,592.0,-421.0,-21.0
19:41:12.743000,-3207.0,-1893.0,-756.0,-742.0,29.0,417.0,589.0,-409.0,-18.0
19:41:12.748000,-3295.0,-1999.0,-799.0,-741.0,24.0,454.0,589.0,-409.0,-18.0
19:41:12.752000,-3295.0,-1999.0,-799.0,-728.0,36.0,492.0,589.0,-409.0,-18.0
19:41:12.757000,-3470.0,-2200.0,-905.0,-720.0,60.0,531.0,574.0,-388.0,-28.0
19:41:12.762000,-3470.0,-2200.0,-905.0,-712.0,69.0,576.0,574.0,-388.0,-28.0
19:41:12.767000,-3551.0,-2297.0,-965.0,-700.0,64.0,619.0,571.0,-366.0,-42.0
19:41:12.771000,-3621.0,-2382.0,-1004.0,-706.0,55.0,658.0,571.0,-366.0,-42.0
19:41:12.776000,-3686.0,-2459.0,-1030.0,-721.0,61.0,696.0,571.0,-366.0,-42.0
19:41:12.781000,-3738.0,-2534.0,-1056.0,-734.0,83.0,735.0,553.0,-340.0,-49.0
19:41:12.786000,-3784.0,-2608.0,-1106.0,-742.0,117.0,769.0,553.0,-340.0,-49.0
19:41:12.790000,-3821.0,-2676.0,-1173.0,-735.0,134.0,803.0,529.0,-306.0,-60.0
19:41:12.795000,-3847.0,-2735.0,-1218.0,-738.0,117.0,841.0,529.0,-306.0,-60.0
19:41:12.799000,-3861.0,-2788.0,-1230.0,-753.0,104.0,866.0,529.0,-306.0,-60.0
19:41:12.804000,-3863.0,-2823.0,-1232.0,-789.0,102.0,885.0,498.0,-283.0,-70.0
19:41:12.809000,-3864.0,-2853.0,-1239.0,-828.0,124.0,911.0,498.0,-283.0,-70.0
19:41:12.814000,-3868.0,-2880.0,-1251.0,-828.0,124.0,911.0,496.0,-255.0,-72.0
19:41:12.818000,-3875.0,-2899.0,-1247.0,-815.0,200.0,954.0,496.0,-255.0,-72.0
19:41:12.823000,-3891.0,-2913.0,-1257.0,-800.0,242.0,984.0,496.0,-255.0,-72.0
19:41:12.828000,-3896.0,-2928.0,-1258.0,-800.0,242.0,984.0,478.0,-235.0,-75.0
19:41:12.833000,-3894.0,-2942.0,-1234.0,-780.0,257.0,1009.0,478.0,-235.0,-75.0
19:41:12.837000,-3898.0,-2935.0,-1208.0,-778.0,256.0,1031.0,460.0,-211.0,-67.0
19:41:12.842000,-3884.0,-2932.0,-1173.0,-778.0,256.0,1031.0,460.0,-211.0,-67.0
19:41:12.846000,-3863.0,-2922.0,-1148.0,-805.0,259.0,1039.0,460.0,-211.0,-67.0
19:41:12.851000,-3832.0,-2898.0,-1143.0,-822.0,264.0,1036.0,432.0,-181.0,-55.0
19:41:12.856000,-3784.0,-2876.0,-1131.0,-837.0,262.0,1035.0,432.0,-181.0,-55.0
19:41:12.861000,-3732.0,-2840.0,-1105.0,-849.0,250.0,1032.0,408.0,-136.0,-58.0
19:41:12.865000,-3665.0,-2809.0,-1072.0,-847.0,237.0,1026.0,408.0,-136.0,-58.0
19:41:12.870000,-3665.0,-2809.0,-1072.0,-834.0,231.0,1026.0,408.0,-136.0,-58.0
19:41:12.875000,-3599.0,-2769.0,-1034.0,-812.0,232.0,1023.0,385.0,-120.0,-51.0
19:41:12.879000,-3539.0,-2711.0,-987.0,-808.0,243.0,1016.0,385.0,-120.0,-51.0
19:41:12.884000,-3471.0,-2649.0,-945.0,-834.0,248.0,1004.0,369.0,-108.0,-10.0
19:41:12.889000,-3389.0,-2587.0,-902.0,-877.0,242.0,979.0,369.0,-108.0,-10.0
19:41:12.894000,-3287.0,-2516.0,-865.0,-916.0,229.0,946.0,346.0,-88.0,-19.0
19:41:12.898000,-3186.0,-2438.0,-829.0,-938.0,223.0,919.0,346.0,-88.0,-19.0
19:41:12.902000,-3087.0,-2356.0,-805.0,-936.0,235.0,888.0,346.0,-88.0,-19.0
19:41:12.908000,-2982.0,-2266.0,-789.0,-910.0,241.0,855.0,340.0,-81.0,3.0
19:41:12.912000,-2873.0,-2174.0,-767.0,-886.0,246.0,819.0,340.0,-81.0,3.0
19:41:12.917000,-2760.0,-2078.0,-749.0,-876.0,268.0,786.0,322.0,-60.0,18.0
19:41:12.922000,-2648.0,-1985.0,-742.0,-859.0,293.0,756.0,322.0,-60.0,18.0
19:41:12.926000,-2537.0,-1894.0,-728.0,-822.0,292.0,725.0,322.0,-60.0,18.0
19:41:12.931000,-2425.0,-1809.0,-680.0,-777.0,280.0,695.0,301.0,-42.0,42.0
19:41:12.936000,-2314.0,-1725.0,-622.0,-777.0,280.0,695.0,301.0,-42.0,42.0
19:41:12.941000,-2207.0,-1639.0,-595.0,-744.0,300.0,661.0,289.0,-33.0,49.0
19:41:12.945000,-2114.0,-1560.0,-598.0,-729.0,359.0,632.0,289.0,-33.0,49.0
19:41:12.949000,-2034.0,-1490.0,-592.0,-706.0,422.0,609.0,289.0,-33.0,49.0
19:41:12.955000,-1968.0,-1427.0,-565.0,-665.0,472.0,590.0,285.0,-28.0,63.0
19:41:12.959000,-1909.0,-1367.0,-536.0,-628.0,512.0,573.0,285.0,-28.0,63.0
19:41:12.964000,-1851.0,-1325.0,-518.0,-601.0,534.0,560.0,279.0,-25.0,67.0
19:41:12.969000,-1795.0,-1282.0,-518.0,-569.0,561.0,545.0,279.0,-25.0,67.0
19:41:12.973000,-1795.0,-1282.0,-518.0,-519.0,578.0,528.0,279.0,-25.0,67.0
19:41:12.978000,-1694.0,-1207.0,-461.0,-472.0,582.0,516.0,271.0,-24.0,85.0
19:41:12.983000,-1694.0,-1207.0,-461.0,-443.0,594.0,504.0,271.0,-24.0,85.0
19:41:12.988000,-1654.0,-1171.0,-424.0,-438.0,608.0,495.0,265.0,-13.0,85.0
19:41:12.992000,-1621.0,-1141.0,-376.0,-461.0,633.0,487.0,265.0,-13.0,85.0
19:41:12.996000,-1595.0,-1108.0,-326.0,-498.0,666.0,483.0,265.0,-13.0,85.0
19:41:13.002000,-1574.0,-1080.0,-291.0,-516.0,684.0,485.0,255.0,-10.0,100.0
19:41:13.006000,-1548.0,-1060.0,-273.0,-489.0,667.0,484.0,255.0,-10.0,100.0
19:41:13.011000,-1519.0,-1040.0,-249.0,-433.0,630.0,477.0,246.0,-1.0,124.0
19:41:13.016000,-1487.0,-1011.0,-203.0,-396.0,608.0,476.0,246.0,-1.0,124.0
19:41:13.020000,-1462.0,-989.0,-157.0,-383.0,617.0,479.0,246.0,-1.0,124.0
19:41:13.025000,-1440.0,-968.0,-137.0,-378.0,642.0,478.0,244.0,0.0,127.0
19:41:13.030000,-1414.0,-942.0,-129.0,-372.0,672.0,472.0,244.0,0.0,127.0
19:41:13.035000,-1386.0,-908.0,-130.0,-372.0,672.0,472.0,243.0,0.0,138.0
19:41:13.039000,-1369.0,-863.0,-132.0,-366.0,684.0,462.0,243.0,0.0,138.0
19:41:13.043000,-1360.0,-817.0,-132.0,-366.0,684.0,462.0,243.0,0.0,138.0
19:41:13.049000,-1341.0,-758.0,-123.0,-363.0,661.0,441.0,240.0,9.0,151.0
19:41:13.053000,-1330.0,-707.0,-119.0,-344.0,653.0,427.0,240.0,9.0,151.0
19:41:13.058000,-1316.0,-646.0,-125.0,-344.0,653.0,427.0,234.0,9.0,159.0
19:41:13.063000,-1288.0,-612.0,-114.0,-344.0,648.0,413.0,234.0,9.0,159.0
19:41:13.067000,-1246.0,-604.0,-129.0,-488.0,628.0,389.0,234.0,9.0,159.0
19:41:13.072000,-1239.0,-575.0,-175.0,-631.0,655.0,368.0,240.0,9.0,171.0
19:41:13.077000,-1235.0,-553.0,-168.0,-567.0,656.0,356.0,240.0,9.0,171.0
19:41:13.082000,-1216.0,-544.0,-140.0,-408.0,621.0,346.0,232.0,10.0,184.0
19:41:13.086000,-1195.0,-535.0,-128.0,-315.0,571.0,328.0,232.0,10.0,184.0
19:41:13.090000,-1195.0,-535.0,-128.0,-252.0,648.0,354.0,232.0,10.0,184.0
19:41:13.096000,-1162.0,-553.0,-142.0,-214.0,724.0,373.0,229.0,16.0,186.0
19:41:13.100000,-1108.0,-548.0,-163.0,-220.0,615.0,363.0,229.0,16.0,186.0
19:41:13.105000,-1054.0,-550.0,-132.0,-230.0,502.0,367.0,231.0,10.0,211.0
19:41:13.110000,-980.0,-541.0,-77.0,-259.0,421.0,355.0,231.0,10.0,211.0
