hh:mm:ss.ms,gyroX[mdps],gyroY[mdps],gyroZ[mdps],accX[mg],accY[mg],accZ[mg],magX[mG],magY[mG],magZ[mG]
19:40:25.128000,-244.0,-521.0,2385.0,-212.0,-254.0,95.0,507.0,-604.0,291.0
19:40:25.131000,-244.0,-521.0,2385.0,-212.0,-254.0,95.0,507.0,-604.0,291.0
19:40:25.135000,-268.0,-548.0,2425.0,-173.0,-252.0,95.0,507.0,-604.0,291.0
19:40:25.140000,-294.0,-571.0,2448.0,-130.0,-255.0,105.0,484.0,-622.0,277.0
19:40:25.145000,-317.0,-594.0,2466.0,-130.0,-255.0,105.0,484.0,-622.0,277.0
19:40:25.149000,-340.0,-617.0,2485.0,-86.0,-268.0,113.0,472.0,-643.0,270.0
19:40:25.154000,-362.0,-640.0,2504.0,-55.0,-285.0,118.0,472.0,-643.0,270.0
19:40:25.158000,-389.0,-660.0,2526.0,-44.0,-300.0,126.0,472.0,-643.0,270.0
19:40:25.163000,-418.0,-679.0,2557.0,-46.0,-317.0,134.0,463.0,-646.0,264.0
19:40:25.168000,-447.0,-702.0,2606.0,-35.0,-390.0,143.0,463.0,-646.0,264.0
19:40:25.173000,-470.0,-725.0,2676.0,-35.0,-390.0,143.0,441.0,-661.0,282.0
19:40:25.178000,-488.0,-749.0,2756.0,-26.0,-445.0,144.0,441.0,-661.0,282.0
19:40:25.182000,-488.0,-749.0,2756.0,-29.0,-491.0,146.0,441.0,-661.0,282.0
19:40:25.187000,-506.0,-798.0,2916.0,-42.0,-514.0,151.0,441.0,-672.0,256.0
19:40:25.192000,-506.0,-798.0,2916.0,-56.0,-524.0,159.0,441.0,-672.0,256.0
19:40:25.196000,-515.0,-822.0,2998.0,-68.0,-530.0,168.0,418.0,-684.0,247.0
19:40:25.201000,-520.0,-849.0,3075.0,-69.0,-549.0,175.0,418.0,-684.0,247.0
19:40:25.205000,-521.0,-872.0,3148.0,-73.0,-577.0,183.0,418.0,-684.0,247.0
19:40:25.210000,-524.0,-890.0,3211.0,-94.0,-590.0,196.0,394.0,-687.0,261.0
19:40:25.215000,-532.0,-900.0,3254.0,-123.0,-589.0,205.0,394.0,-687.0,261.0
19:40:25.220000,-538.0,-908.0,3278.0,-145.0,-600.0,215.0,10.0,-703.0,232.0
19:40:25.225000,-543.0,-908.0,3299.0,-152.0,-633.0,226.0,10.0,-703.0,232.0
19:40:25.229000,-546.0,-903.0,3341.0,-143.0,-673.0,238.0,10.0,-703.0,232.0
19:40:25.234000,-551.0,-898.0,3392.0,-135.0,-700.0,249.0,342.0,-712.0,231.0
19:40:25.239000,-548.0,-889.0,3422.0,-129.0,-715.0,256.0,342.0,-712.0,231.0
19:40:25.243000,-536.0,-879.0,3407.0,-129.0,-715.0,256.0,331.0,-708.0,226.0
19:40:25.248000,-525.0,-869.0,3377.0,-79.0,-770.0,261.0,331.0,-708.0,226.0
19:40:25.252000,-508.0,-853.0,3353.0,-61.0,-786.0,267.0,331.0,-708.0,226.0
19:40:25.257000,-492.0,-839.0,3324.0,-61.0,-786.0,267.0,309.0,-718.0,214.0
19:40:25.262000,-476.0,-825.0,3280.0,-49.0,-784.0,276.0,309.0,-718.0,214.0
19:40:25.267000,-461.0,-805.0,3209.0,-40.0,-764.0,279.0,285.0,-714.0,214.0
19:40:25.272000,-444.0,-786.0,3110.0,-42.0,-750.0,277.0,285.0,-714.0,214.0
19:40:25.276000,-417.0,-772.0,2998.0,-54.0,-752.0,272.0,285.0,-714.0,214.0
19:40:25.281000,-394.0,-759.0,2892.0,-77.0,-741.0,265.0,282.0,-711.0,222.0
19:40:25.286000,-385.0,-756.0,2795.0,-109.0,-719.0,272.0,282.0,-711.0,222.0
19:40:25.290000,-384.0,-762.0,2718.0,-131.0,-666.0,298.0,258.0,-715.0,214.0
19:40:25.295000,-415.0,-749.0,2661.0,-167.0,-628.0,299.0,258.0,-715.0,214.0
19:40:25.302000,-424.0,-739.0,2627.0,-210.0,-589.0,326.0,217.0,-712.0,226.0
19:40:25.304000,-424.0,-739.0,2627.0,-210.0,-589.0,326.0,217.0,-712.0,226.0
19:40:25.309000,-427.0,-734.0,2609.0,-190.0,-681.0,329.0,217.0,-712.0,226.0
19:40:25.314000,-438.0,-721.0,2607.0,-129.0,-663.0,308.0,214.0,-709.0,210.0
19:40:25.319000,-429.0,-697.0,2611.0,-53.0,-705.0,290.0,214.0,-709.0,210.0
19:40:25.323000,-430.0,-686.0,2650.0,2.0,-785.0,278.0,211.0,-702.0,210.0
19:40:25.328000,-419.0,-678.0,2710.0,29.0,-797.0,262.0,211.0,-702.0,210.0
19:40:25.332000,-401.0,-679.0,2767.0,51.0,-800.0,269.0,211.0,-702.0,210.0
19:40:25.337000,-382.0,-682.0,2819.0,81.0,-792.0,272.0,193.0,-705.0,205.0
19:40:25.342000,-364.0,-679.0,2870.0,94.0,-737.0,281.0,193.0,-705.0,205.0
19:40:25.347000,-361.0,-679.0,2908.0,94.0,-669.0,305.0,178.0,-687.0,217.0
19:40:25.351000,-373.0,-677.0,2931.0,100.0,-669.0,305.0,178.0,-687.0,217.0
19:40:25.356000,-398.0,-677.0,2941.0,180.0,-620.0,350.0,178.0,-687.0,217.0
19:40:25.361000,-422.0,-673.0,2941.0,180.0,-629.0,350.0,156.0,-691.0,199.0
19:40:25.366000,-440.0,-680.0,2926.0,284.0,-629.0,366.0,156.0,-691.0,199.0
19:40:25.370000,-443.0,-690.0,2884.0,411.0,-660.0,388.0,145.0,-676.0,204.0
19:40:25.375000,-434.0,-703.0,2827.0,541.0,-716.0,420.0,145.0,-676.0,204.0
19:40:25.379000,-417.0,-702.0,2778.0,670.0,-745.0,442.0,145.0,-676.0,204.0
19:40:25.384000,-394.0,-692.0,2737.0,775.0,-754.0,445.0,135.0,-663.0,207.0
19:40:25.389000,-378.0,-681.0,2692.0,825.0,-758.0,458.0,135.0,-663.0,207.0
19:40:25.394000,-357.0,-660.0,2623.0,831.0,-733.0,456.0,115.0,-658.0,208.0
19:40:25.398000,-332.0,-634.0,2529.0,802.0,-711.0,457.0,115.0,-658.0,208.0
19:40:25.403000,-332.0,-634.0,2529.0,768.0,-701.0,446.0,115.0,-658.0,208.0
19:40:25.408000,-304.0,-591.0,2443.0,763.0,-710.0,422.0,99.0,-654.0,216.0
19:40:25.413000,-277.0,-549.0,2389.0,777.0,-744.0,426.0,99.0,-654.0,216.0
19:40:25.417000,-252.0,-519.0,2377.0,808.0,-757.0,435.0,105.0,-649.0,201.0
19:40:25.422000,-237.0,-502.0,2394.0,856.0,-735.0,437.0,105.0,-649.0,201.0
19:40:25.426000,-221.0,-490.0,2396.0,893.0,-665.0,437.0,105.0,-649.0,201.0
19:40:25.431000,-210.0,-484.0,2366.0,937.0,-554.0,437.0,76.0,-636.0,229.0
19:40:25.436000,-210.0,-482.0,2342.0,1001.0,-487.0,432.0,76.0,-636.0,229.0
19:40:25.441000,-212.0,-484.0,2331.0,1070.0,-449.0,424.0,76.0,-636.0,229.0
19:40:25.445000,-219.0,-485.0,2322.0,1128.0,-416.0,413.0,76.0,-636.0,229.0
19:40:25.450000,-235.0,-479.0,2314.0,1182.0,-392.0,420.0,76.0,-636.0,229.0
19:40:25.455000,-268.0,-480.0,2311.0,1266.0,-359.0,438.0,76.0,-618.0,207.0
19:40:25.460000,-312.0,-489.0,2340.0,1382.0,-319.0,437.0,76.0,-618.0,207.0
19:40:25.464000,-361.0,-503.0,2387.0,1382.0,-319.0,437.0,69.0,-606.0,210.0
19:40:25.469000,-413.0,-506.0,2399.0,1459.0,-166.0,423.0,69.0,-606.0,210.0
19:40:25.473000,-480.0,-513.0,2354.0,1415.0,-68.0,424.0,69.0,-606.0,210.0
19:40:25.478000,-553.0,-529.0,2299.0,1415.0,-68.0,424.0,54.0,-603.0,207.0
19:40:25.483000,-624.0,-550.0,2270.0,1418.0,-38.0,419.0,54.0,-603.0,207.0
19:40:25.488000,-693.0,-569.0,2264.0,1447.0,-52.0,419.0,57.0,-594.0,207.0
19:40:25.492000,-752.0,-578.0,2272.0,1455.0,-71.0,419.0,57.0,-594.0,207.0
19:40:25.497000,-797.0,-587.0,2275.0,1446.0,-80.0,416.0,57.0,-594.0,207.0
19:40:25.502000,-813.0,-592.0,2266.0,1448.0,-102.0,422.0,45.0,-586.0,205.0
19:40:25.507000,-810.0,-589.0,2256.0,1477.0,-128.0,422.0,45.0,-586.0,205.0
19:40:25.511000,-798.0,-578.0,2245.0,1501.0,-155.0,425.0,46.0,-576.0,201.0
19:40:25.515000,-798.0,-578.0,2245.0,1513.0,-188.0,431.0,46.0,-576.0,201.0
19:40:25.520000,-770.0,-561.0,2246.0,1527.0,-208.0,432.0,46.0,-576.0,201.0
19:40:25.525000,-733.0,-545.0,2244.0,1537.0,-198.0,432.0,43.0,-571.0,205.0
19:40:25.530000,-704.0,-525.0,2228.0,1559.0,-195.0,433.0,43.0,-571.0,205.0
19:40:25.535000,-680.0,-506.0,2228.0,1584.0,-207.0,441.0,33.0,-565.0,205.0
19:40:25.539000,-653.0,-499.0,2242.0,1600.0,-167.0,451.0,33.0,-565.0,205.0
19:40:25.544000,-632.0,-492.0,2248.0,1650.0,-141.0,460.0,33.0,-565.0,205.0
19:40:25.549000,-610.0,-502.0,2287.0,1743.0,-150.0,463.0,22.0,-555.0,205.0
19:40:25.554000,-592.0,-509.0,2357.0,1834.0,-176.0,464.0,22.0,-555.0,205.0
19:40:25.558000,-581.0,-519.0,2429.0,1887.0,-167.0,466.0,21.0,-546.0,217.0
19:40:25.563000,-571.0,-531.0,2446.0,1913.0,-118.0,471.0,21.0,-546.0,217.0
19:40:25.567000,-574.0,-550.0,2458.0,1931.0,-49.0,481.0,21.0,-546.0,217.0
19:40:25.572000,-592.0,-564.0,2471.0,1936.0,52.0,489.0,22.0,-537.0,225.0
19:40:25.577000,-619.0,-575.0,2490.0,1942.0,107.0,501.0,22.0,-537.0,225.0
19:40:25.582000,-660.0,-590.0,2537.0,1942.0,107.0,501.0,13.0,-534.0,211.0
19:40:25.587000,-714.0,-599.0,2571.0,1937.0,141.0,510.0,13.0,-534.0,211.0
19:40:25.591000,-761.0,-607.0,2578.0,1937.0,141.0,510.0,13.0,-534.0,211.0
19:40:25.596000,-819.0,-619.0,2583.0,1919.0,141.0,516.0,13.0,-514.0,213.0
19:40:25.601000,-853.0,-628.0,2590.0,1919.0,117.0,520.0,13.0,-514.0,213.0
19:40:25.605000,-880.0,-628.0,2578.0,1889.0,106.0,514.0,3.0,-513.0,217.0
19:40:25.610000,-900.0,-618.0,2584.0,1816.0,102.0,500.0,3.0,-513.0,217.0
19:40:25.614000,-900.0,-618.0,2584.0,1726.0,99.0,483.0,3.0,-513.0,217.0
19:40:25.619000,-947.0,-597.0,2710.0,1647.0,88.0,473.0,0.0,-502.0,219.0
19:40:25.624000,-971.0,-588.0,2802.0,1603.0,81.0,460.0,0.0,-502.0,219.0
19:40:25.629000,-971.0,-588.0,2802.0,1575.0,71.0,434.0,-9.0,-487.0,222.0
19:40:25.633000,-983.0,-576.0,2886.0,1548.0,69.0,410.0,-9.0,-487.0,222.0
19:40:25.638000,-993.0,-573.0,2950.0,1505.0,98.0,393.0,-9.0,-487.0,222.0
19:40:25.643000,-993.0,-566.0,2954.0,1450.0,146.0,376.0,0.0,-480.0,223.0
19:40:25.648000,-985.0,-559.0,2909.0,1426.0,170.0,367.0,0.0,-480.0,223.0
19:40:25.652000,-977.0,-553.0,2874.0,1447.0,147.0,360.0,-12.0,-469.0,216.0
19:40:25.657000,-963.0,-554.0,2884.0,1477.0,105.0,348.0,-12.0,-469.0,216.0
19:40:25.661000,-933.0,-556.0,2923.0,1497.0,65.0,331.0,-12.0,-469.0,216.0
19:40:25.666000,-900.0,-560.0,2966.0,1488.0,66.0,313.0,-15.0,-451.0,231.0
19:40:25.671000,-873.0,-571.0,2955.0,1428.0,128.0,300.0,-15.0,-451.0,231.0
19:40:25.676000,-857.0,-581.0,2884.0,1364.0,199.0,297.0,-16.0,-436.0,229.0
19:40:25.680000,-842.0,-588.0,2830.0,1330.0,257.0,302.0,-16.0,-436.0,229.0
19:40:25.684000,-846.0,-583.0,2815.0,1330.0,313.0,313.0,-16.0,-436.0,229.0
19:40:25.690000,-867.0,-573.0,2837.0,1330.0,313.0,313.0,-18.0,-424.0,234.0
19:40:25.694000,-891.0,-562.0,2856.0,1366.0,386.0,329.0,-18.0,-424.0,234.0
19:40:25.699000,-907.0,-561.0,2825.0,1366.0,386.0,329.0,-13.0,-418.0,246.0
19:40:25.704000,-933.0,-557.0,2783.0,1369.0,393.0,333.0,-13.0,-418.0,246.0
19:40:25.709000,-947.0,-559.0,2758.0,1387.0,379.0,327.0,-22.0,-408.0,238.0
19:40:25.713000,-941.0,-560.0,2774.0,1427.0,372.0,314.0,-22.0,-408.0,238.0
19:40:25.717000,-947.0,-571.0,2845.0,1463.0,342.0,322.0,-22.0,-408.0,238.0
19:40:25.723000,-935.0,-585.0,2877.0,1468.0,315.0,316.0,-28.0,-393.0,241.0
19:40:25.727000,-907.0,-605.0,2837.0,1442.0,337.0,297.0,-28.0,-393.0,241.0
19:40:25.732000,-875.0,-618.0,2803.0,1417.0,338.0,285.0,-27.0,-378.0,247.0
19:40:25.737000,-875.0,-618.0,2803.0,1390.0,336.0,267.0,-27.0,-378.0,247.0
19:40:25.741000,-850.0,-625.0,2786.0,1341.0,366.0,264.0,-27.0,-378.0,247.0
19:40:25.746000,-838.0,-619.0,2790.0,1277.0,418.0,254.0,-16.0,-354.0,247.0
19:40:25.751000,-825.0,-613.0,2787.0,1213.0,485.0,238.0,-16.0,-354.0,247.0
19:40:25.756000,-812.0,-611.0,2762.0,1167.0,525.0,223.0,-16.0,-334.0,258.0
19:40:25.760000,-786.0,-614.0,2731.0,1124.0,543.0,212.0,-16.0,-334.0,258.0
19:40:25.764000,-772.0,-622.0,2691.0,1077.0,534.0,196.0,-16.0,-334.0,258.0
19:40:25.770000,-736.0,-630.0,2643.0,1028.0,503.0,171.0,-6.0,-330.0,261.0
19:40:25.774000,-687.0,-639.0,2591.0,974.0,497.0,156.0,-6.0,-330.0,261.0
19:40:25.779000,-652.0,-639.0,2547.0,926.0,539.0,150.0,-15.0,-318.0,265.0
19:40:25.784000,-630.0,-637.0,2538.0,890.0,581.0,144.0,-15.0,-318.0,265.0
19:40:25.788000,-621.0,-631.0,2555.0,868.0,620.0,137.0,-15.0,-318.0,265.0
19:40:25.793000,-616.0,-620.0,2573.0,859.0,647.0,127.0,-15.0,-313.0,286.0
19:40:25.798000,-603.0,-606.0,2566.0,859.0,686.0,116.0,-15.0,-313.0,286.0
19:40:25.803000,-584.0,-590.0,2530.0,854.0,686.0,116.0,1.0,-288.0,271.0
19:40:25.807000,-581.0,-573.0,2510.0,866.0,706.0,120.0,1.0,-288.0,271.0
19:40:25.811000,-576.0,-555.0,2510.0,907.0,709.0,123.0,1.0,-288.0,271.0
19:40:25.816000,-571.0,-540.0,2485.0,949.0,744.0,118.0,3.0,-286.0,283.0
19:40:25.821000,-557.0,-515.0,2403.0,963.0,794.0,113.0,3.0,-286.0,283.0
19:40:25.826000,-542.0,-487.0,2321.0,958.0,830.0,106.0,16.0,-261.0,292.0
19:40:25.831000,-518.0,-464.0,2272.0,957.0,821.0,97.0,16.0,-261.0,292.0
19:40:25.835000,-518.0,-464.0,2272.0,971.0,782.0,82.0,16.0,-261.0,292.0
19:40:25.840000,-459.0,-424.0,2314.0,987.0,754.0,73.0,15.0,-259.0,286.0
19:40:25.845000,-437.0,-408.0,2338.0,982.0,737.0,74.0,15.0,-259.0,286.0
19:40:25.850000,-437.0,-408.0,2338.0,974.0,778.0,59.0,28.0,-241.0,291.0
19:40:25.854000,-407.0,-394.0,2345.0,968.0,856.0,51.0,28.0,-241.0,291.0
19:40:25.858000,-383.0,-380.0,2340.0,943.0,848.0,50.0,28.0,-241.0,291.0
19:40:25.864000,-354.0,-363.0,2335.0,921.0,842.0,35.0,33.0,-235.0,297.0
19:40:25.868000,-330.0,-354.0,2377.0,900.0,849.0,32.0,33.0,-235.0,297.0
19:40:25.873000,-309.0,-350.0,2447.0,864.0,847.0,37.0,51.0,-225.0,298.0
19:40:25.878000,-294.0,-346.0,2487.0,831.0,866.0,34.0,51.0,-225.0,298.0
19:40:25.882000,-281.0,-340.0,2498.0,817.0,902.0,27.0,31.0,-211.0,312.0
19:40:25.887000,-277.0,-331.0,2504.0,807.0,952.0,27.0,31.0,-211.0,312.0
19:40:25.891000,-279.0,-318.0,2505.0,782.0,965.0,29.0,31.0,-211.0,312.0
19:40:25.897000,-278.0,-312.0,2501.0,772.0,959.0,29.0,57.0,-201.0,297.0
19:40:25.901000,-290.0,-306.0,2514.0,773.0,957.0,24.0,57.0,-201.0,297.0
19:40:25.906000,-303.0,-298.0,2550.0,773.0,957.0,24.0,76.0,-181.0,307.0
19:40:25.911000,-321.0,-297.0,2578.0,768.0,961.0,25.0,76.0,-181.0,307.0
19:40:25.915000,-338.0,-286.0,2585.0,762.0,932.0,35.0,76.0,-181.0,307.0
19:40:25.920000,-345.0,-278.0,2559.0,763.0,939.0,20.0,94.0,-181.0,310.0
19:40:25.925000,-354.0,-274.0,2511.0,760.0,969.0,17.0,94.0,-181.0,310.0
19:40:25.929000,-357.0,-266.0,2454.0,726.0,955.0,28.0,91.0,-175.0,321.0
19:40:25.934000,-362.0,-259.0,2398.0,704.0,1013.0,29.0,91.0,-175.0,321.0
19:40:25.938000,-363.0,-261.0,2359.0,701.0,1005.0,35.0,91.0,-175.0,321.0
19:40:25.944000,-374.0,-266.0,2324.0,669.0,960.0,33.0,97.0,-162.0,328.0
19:40:25.948000,-386.0,-257.0,2292.0,615.0,979.0,43.0,97.0,-162.0,328.0
19:40:25.953000,-385.0,-261.0,2279.0,576.0,959.0,40.0,115.0,-147.0,319.0
19:40:25.958000,-385.0,-261.0,2279.0,574.0,937.0,30.0,115.0,-147.0,319.0
19:40:25.962000,-387.0,-261.0,2276.0,558.0,888.0,25.0,115.0,-147.0,319.0
19:40:25.967000,-387.0,-261.0,2259.0,530.0,921.0,29.0,135.0,-151.0,336.0
19:40:25.972000,-407.0,-250.0,2227.0,501.0,956.0,23.0,135.0,-151.0,336.0
19:40:25.976000,-401.0,-245.0,2188.0,466.0,969.0,6.0,151.0,-130.0,325.0
19:40:25.981000,-414.0,-239.0,2162.0,420.0,978.0,8.0,151.0,-130.0,325.0
19:40:25.985000,-416.0,-229.0,2137.0,384.0,989.0,5.0,151.0,-130.0,325.0
19:40:25.991000,-432.0,-219.0,2113.0,362.0,989.0,3.0,154.0,-139.0,336.0
19:40:25.995000,-438.0,-212.0,2084.0,340.0,997.0,-1.0,154.0,-139.0,336.0
19:40:26.000000,-452.0,-200.0,2040.0,311.0,1017.0,-2.0,166.0,-133.0,339.0
19:40:26.005000,-464.0,-188.0,1981.0,283.0,1025.0,-8.0,166.0,-133.0,339.0
19:40:26.009000,-487.0,-180.0,1933.0,275.0,1039.0,-4.0,166.0,-133.0,339.0
19:40:26.014000,-504.0,-170.0,1904.0,246.0,996.0,-7.0,177.0,-129.0,340.0
19:40:26.019000,-521.0,-166.0,1877.0,246.0,996.0,-7.0,177.0,-129.0,340.0
19:40:26.023000,-540.0,-157.0,1855.0,221.0,1010.0,-18.0,172.0,-130.0,346.0
19:40:26.028000,-551.0,-156.0,1834.0,185.0,981.0,-22.0,172.0,-130.0,346.0
19:40:26.032000,-570.0,-158.0,1813.0,162.0,1008.0,-33.0,172.0,-130.0,346.0
19:40:26.038000,-576.0,-159.0,1777.0,141.0,986.0,-25.0,190.0,-126.0,346.0
19:40:26.042000,-595.0,-164.0,1736.0,130.0,972.0,-27.0,190.0,-126.0,346.0
19:40:26.047000,-600.0,-168.0,1712.0,163.0,980.0,-27.0,216.0,-124.0,352.0
19:40:26.052000,-602.0,-176.0,1687.0,176.0,900.0,-38.0,216.0,-124.0,352.0
19:40:26.056000,-602.0,-176.0,1687.0,183.0,860.0,-44.0,216.0,-124.0,352.0
19:40:26.061000,-578.0,-190.0,1621.0,187.0,834.0,-55.0,220.0,-120.0,378.0
19:40:26.066000,-578.0,-190.0,1621.0,180.0,827.0,-62.0,220.0,-120.0,378.0
19:40:26.070000,-571.0,-189.0,1586.0,139.0,825.0,-66.0,237.0,-115.0,354.0
19:40:26.075000,-554.0,-194.0,1549.0,98.0,830.0,-75.0,237.0,-115.0,354.0
19:40:26.079000,-550.0,-198.0,1533.0,63.0,806.0,-84.0,237.0,-115.0,354.0
19:40:26.085000,-526.0,-206.0,1509.0,42.0,807.0,-97.0,238.0,-118.0,361.0
19:40:26.089000,-515.0,-211.0,1495.0,10.0,748.0,-105.0,238.0,-118.0,361.0
19:40:26.094000,-489.0,-217.0,1467.0,-40.0,774.0,-130.0,241.0,-124.0,369.0
19:40:26.099000,-484.0,-217.0,1439.0,-107.0,796.0,-141.0,241.0,-124.0,369.0
19:40:26.106000,-491.0,-209.0,1360.0,-284.0,869.0,-114.0,256.0,-118.0,369.0
19:40:26.108000,-491.0,-209.0,1360.0,-284.0,869.0,-114.0,256.0,-118.0,369.0
19:40:26.112000,-489.0,-205.0,1346.0,-225.0,753.0,-139.0,256.0,-118.0,369.0
19:40:26.117000,-486.0,-206.0,1332.0,-169.0,725.0,-149.0,252.0,-111.0,375.0
19:40:26.122000,-485.0,-197.0,1315.0,-208.0,702.0,-158.0,252.0,-111.0,375.0
19:40:26.127000,-487.0,-183.0,1262.0,-208.0,702.0,-158.0,273.0,-121.0,387.0
19:40:26.132000,-509.0,-171.0,1219.0,-283.0,834.0,-152.0,273.0,-121.0,387.0
19:40:26.136000,-512.0,-162.0,1172.0,-315.0,850.0,-135.0,273.0,-121.0,387.0
19:40:26.141000,-537.0,-160.0,1130.0,-299.0,843.0,-142.0,274.0,-123.0,390.0
19:40:26.146000,-539.0,-153.0,1082.0,-233.0,727.0,-138.0,274.0,-123.0,390.0
19:40:26.150000,-558.0,-147.0,1032.0,-233.0,727.0,-138.0,276.0,-115.0,402.0
19:40:26.155000,-565.0,-138.0,995.0,-217.0,763.0,-134.0,276.0,-115.0,402.0
19:40:26.159000,-565.0,-138.0,995.0,-249.0,707.0,-137.0,276.0,-115.0,402.0
19:40:26.164000,-601.0,-121.0,898.0,-293.0,768.0,-136.0,294.0,-120.0,385.0
19:40:26.169000,-607.0,-116.0,855.0,-303.0,744.0,-130.0,294.0,-120.0,385.0
19:40:26.174000,-607.0,-116.0,855.0,-303.0,707.0,-142.0,301.0,-127.0,397.0
19:40:26.179000,-632.0,-111.0,815.0,-277.0,730.0,-145.0,301.0,-127.0,397.0
19:40:26.183000,-638.0,-99.0,781.0,-263.0,634.0,-147.0,301.0,-127.0,397.0
19:40:26.188000,-646.0,-94.0,746.0,-233.0,667.0,-163.0,304.0,-124.0,412.0
19:40:26.193000,-649.0,-93.0,723.0,-234.0,619.0,-163.0,304.0,-124.0,412.0
19:40:26.197000,-651.0,-84.0,681.0,-279.0,616.0,-163.0,313.0,-130.0,399.0
19:40:26.202000,-657.0,-76.0,627.0,-275.0,669.0,-179.0,313.0,-130.0,399.0
19:40:26.206000,-649.0,-73.0,595.0,-271.0,594.0,-182.0,313.0,-130.0,399.0
19:40:26.211000,-653.0,-71.0,558.0,-273.0,661.0,-196.0,312.0,-139.0,405.0
19:40:26.216000,-655.0,-76.0,520.0,-264.0,624.0,-189.0,312.0,-139.0,405.0
19:40:26.221000,-647.0,-84.0,489.0,-257.0,587.0,-199.0,318.0,-135.0,408.0
19:40:26.226000,-632.0,-98.0,444.0,-209.0,572.0,-213.0,318.0,-135.0,408.0
19:40:26.230000,-614.0,-112.0,428.0,-200.0,504.0,-210.0,318.0,-135.0,408.0
19:40:26.235000,-595.0,-128.0,401.0,-203.0,512.0,-204.0,324.0,-144.0,408.0
19:40:26.240000,-574.0,-137.0,403.0,-203.0,512.0,-204.0,324.0,-144.0,408.0
19:40:26.244000,-550.0,-154.0,389.0,-207.0,462.0,-206.0,304.0,-135.0,408.0
19:40:26.249000,-551.0,-165.0,394.0,-233.0,535.0,-212.0,304.0,-135.0,408.0
19:40:26.253000,-546.0,-177.0,408.0,-238.0,513.0,-194.0,304.0,-135.0,408.0
19:40:26.258000,-560.0,-191.0,424.0,-244.0,520.0,-204.0,327.0,-144.0,418.0
19:40:26.263000,-578.0,-198.0,452.0,-242.0,626.0,-212.0,327.0,-144.0,418.0
19:40:26.268000,-597.0,-198.0,467.0,-285.0,555.0,-198.0,328.0,-150.0,420.0
19:40:26.273000,-612.0,-200.0,471.0,-325.0,600.0,-211.0,328.0,-150.0,420.0
19:40:26.277000,-612.0,-200.0,471.0,-330.0,639.0,-222.0,328.0,-150.0,420.0
19:40:26.281000,-632.0,-198.0,471.0,-368.0,592.0,-218.0,327.0,-156.0,432.0
19:40:26.287000,-643.0,-193.0,450.0,-403.0,596.0,-220.0,327.0,-156.0,432.0
19:40:26.291000,-654.0,-191.0,430.0,-409.0,610.0,-225.0,345.0,-153.0,427.0
19:40:26.296000,-655.0,-186.0,392.0,-424.0,572.0,-228.0,345.0,-153.0,427.0
19:40:26.300000,-646.0,-183.0,352.0,-444.0,526.0,-230.0,345.0,-153.0,427.0
19:40:26.305000,-639.0,-177.0,323.0,-456.0,547.0,-242.0,336.0,-160.0,430.0
19:40:26.310000,-620.0,-166.0,298.0,-485.0,474.0,-234.0,336.0,-160.0,430.0
19:40:26.315000,-600.0,-154.0,268.0,-503.0,451.0,-240.0,340.0,-157.0,438.0
19:40:26.320000,-574.0,-142.0,237.0,-497.0,460.0,-252.0,340.0,-157.0,438.0
19:40:26.324000,-548.0,-126.0,205.0,-522.0,431.0,-249.0,340.0,-157.0,438.0
19:40:26.329000,-535.0,-105.0,172.0,-543.0,505.0,-263.0,345.0,-151.0,436.0
19:40:26.334000,-519.0,-85.0,149.0,-558.0,542.0,-267.0,345.0,-151.0,436.0
19:40:26.338000,-513.0,-62.0,114.0,-558.0,542.0,-267.0,351.0,-166.0,432.0
19:40:26.343000,-513.0,-35.0,63.0,-615.0,619.0,-286.0,351.0,-166.0,432.0
19:40:26.347000,-510.0,-13.0,14.0,-615.0,619.0,-286.0,351.0,-166.0,432.0
19:40:26.352000,-508.0,9.0,-31.0,-613.0,599.0,-288.0,337.0,-165.0,436.0
19:40:26.357000,-508.0,32.0,-79.0,-632.0,534.0,-288.0,337.0,-165.0,436.0
19:40:26.362000,-499.0,55.0,-134.0,-633.0,581.0,-306.0,339.0,-169.0,438.0
19:40:26.367000,-493.0,77.0,-187.0,-632.0,573.0,-309.0,339.0,-169.0,438.0
19:40:26.371000,-494.0,98.0,-228.0,-630.0,587.0,-320.0,339.0,-169.0,438.0
19:40:26.376000,-497.0,121.0,-259.0,-618.0,669.0,-332.0,328.0,-175.0,445.0
19:40:26.381000,-496.0,140.0,-295.0,-621.0,650.0,-329.0,328.0,-175.0,445.0
19:40:26.385000,-496.0,156.0,-337.0,-620.0,659.0,-341.0,336.0,-177.0,445.0
19:40:26.390000,-492.0,177.0,-383.0,-602.0,681.0,-349.0,336.0,-177.0,445.0
19:40:26.394000,-492.0,177.0,-383.0,-600.0,641.0,-354.0,336.0,-177.0,445.0
19:40:26.399000,-490.0,192.0,-435.0,-588.0,676.0,-361.0,336.0,-172.0,439.0
19:40:26.404000,-486.0,209.0,-476.0,-581.0,667.0,-364.0,336.0,-172.0,439.0
19:40:26.408000,-477.0,223.0,-528.0,-588.0,678.0,-374.0,324.0,-172.0,471.0
19:40:26.414000,-480.0,233.0,-578.0,-581.0,718.0,-376.0,324.0,-172.0,471.0
19:40:26.418000,-471.0,241.0,-618.0,-585.0,685.0,-380.0,324.0,-172.0,471.0
19:40:26.423000,-467.0,247.0,-658.0,-572.0,708.0,-384.0,328.0,-168.0,451.0
19:40:26.428000,-466.0,250.0,-690.0,-552.0,695.0,-381.0,328.0,-168.0,451.0
19:40:26.432000,-457.0,256.0,-724.0,-538.0,687.0,-390.0,319.0,-177.0,450.0
19:40:26.437000,-451.0,261.0,-765.0,-508.0,737.0,-399.0,319.0,-177.0,450.0
19:40:26.441000,-441.0,268.0,-819.0,-491.0,729.0,-399.0,319.0,-177.0,450.0
19:40:26.446000,-431.0,277.0,-885.0,-474.0,769.0,-409.0,318.0,-184.0,456.0
19:40:26.451000,-424.0,278.0,-947.0,-469.0,809.0,-420.0,318.0,-184.0,456.0
19:40:26.456000,-412.0,280.0,-1010.0,-469.0,809.0,-420.0,313.0,-189.0,459.0
19:40:26.461000,-398.0,277.0,-1071.0,-498.0,785.0,-426.0,313.0,-189.0,459.0
19:40:26.465000,-380.0,271.0,-1115.0,-502.0,797.0,-429.0,307.0,-189.0,454.0
19:40:26.470000,-359.0,270.0,-1150.0,-494.0,747.0,-425.0,307.0,-189.0,454.0
19:40:26.474000,-341.0,263.0,-1171.0,-481.0,727.0,-430.0,307.0,-189.0,454.0
19:40:26.479000,-317.0,253.0,-1185.0,-432.0,754.0,-432.0,315.0,-178.0,456.0
19:40:26.484000,-296.0,244.0,-1209.0,-404.0,720.0,-432.0,315.0,-178.0,456.0
19:40:26.489000,-286.0,234.0,-1236.0,-396.0,790.0,-441.0,289.0,-190.0,465.0
19:40:26.493000,-273.0,226.0,-1267.0,-390.0,857.0,-439.0,289.0,-190.0,465.0
19:40:26.498000,-273.0,226.0,-1267.0,-412.0,857.0,-440.0,289.0,-190.0,465.0
19:40:26.503000,-271.0,219.0,-1292.0,-427.0,934.0,-448.0,264.0,-192.0,471.0
19:40:26.508000,-280.0,210.0,-1306.0,-439.0,934.0,-440.0,264.0,-192.0,471.0
19:40:26.512000,-292.0,205.0,-1313.0,-450.0,922.0,-443.0,273.0,-187.0,469.0
19:40:26.517000,-312.0,199.0,-1319.0,-428.0,971.0,-449.0,273.0,-187.0,469.0
19:40:26.521000,-333.0,196.0,-1323.0,-423.0,940.0,-448.0,273.0,-187.0,469.0
19:40:26.526000,-354.0,200.0,-1344.0,-446.0,981.0,-457.0,265.0,-193.0,462.0
19:40:26.531000,-389.0,208.0,-1372.0,-473.0,1048.0,-459.0,265.0,-193.0,462.0
19:40:26.536000,-426.0,220.0,-1407.0,-514.0,1067.0,-460.0,258.0,-192.0,459.0
19:40:26.540000,-471.0,226.0,-1444.0,-530.0,1127.0,-461.0,258.0,-192.0,459.0
19:40:26.545000,-520.0,231.0,-1470.0,-531.0,1116.0,-462.0,258.0,-192.0,459.0
19:40:26.550000,-567.0,236.0,-1490.0,-530.0,1093.0,-467.0,259.0,-201.0,477.0
19:40:26.555000,-616.0,238.0,-1505.0,-513.0,1078.0,-467.0,259.0,-201.0,477.0
19:40:26.559000,-658.0,238.0,-1513.0,-513.0,1078.0,-467.0,243.0,-199.0,456.0
19:40:26.564000,-697.0,236.0,-1519.0,-510.0,1011.0,-472.0,243.0,-199.0,456.0
19:40:26.568000,-738.0,236.0,-1523.0,-512.0,1011.0,-479.0,243.0,-199.0,456.0
19:40:26.573000,-772.0,238.0,-1533.0,-518.0,987.0,-479.0,240.0,-207.0,471.0
19:40:26.578000,-809.0,242.0,-1547.0,-532.0,976.0,-489.0,240.0,-207.0,471.0
19:40:26.582000,-842.0,247.0,-1565.0,-583.0,965.0,-492.0,232.0,-213.0,469.0
19:40:26.587000,-875.0,252.0,-1597.0,-583.0,965.0,-492.0,232.0,-213.0,469.0
19:40:26.592000,-908.0,252.0,-1625.0,-605.0,981.0,-492.0,229.0,-208.0,480.0
19:40:26.597000,-935.0,251.0,-1642.0,-599.0,959.0,-493.0,229.0,-208.0,480.0
19:40:26.601000,-935.0,251.0,-1642.0,-590.0,917.0,-504.0,229.0,-208.0,480.0
19:40:26.606000,-985.0,236.0,-1674.0,-569.0,920.0,-511.0,217.0,-229.0,475.0
19:40:26.611000,-985.0,236.0,-1674.0,-552.0,877.0,-519.0,217.0,-229.0,475.0
19:40:26.616000,-1005.0,225.0,-1703.0,-546.0,887.0,-534.0,214.0,-228.0,478.0
19:40:26.620000,-1029.0,206.0,-1733.0,-530.0,893.0,-535.0,214.0,-228.0,478.0
19:40:26.624000,-1050.0,183.0,-1752.0,-528.0,855.0,-542.0,214.0,-228.0,478.0
19:40:26.630000,-1077.0,159.0,-1776.0,-524.0,862.0,-549.0,205.0,-240.0,480.0
19:40:26.634000,-1102.0,130.0,-1798.0,-510.0,812.0,-555.0,205.0,-240.0,480.0
19:40:26.639000,-1113.0,98.0,-1816.0,-488.0,788.0,-579.0,198.0,-250.0,486.0
19:40:26.644000,-1126.0,66.0,-1838.0,-469.0,821.0,-601.0,198.0,-250.0,486.0
19:40:26.648000,-1138.0,37.0,-1859.0,-495.0,816.0,-620.0,198.0,-250.0,486.0
19:40:26.653000,-1152.0,14.0,-1891.0,-559.0,880.0,-635.0,193.0,-247.0,487.0
19:40:26.658000,-1180.0,-13.0,-1924.0,-623.0,963.0,-635.0,193.0,-247.0,487.0
19:40:26.663000,-1215.0,-45.0,-1953.0,-623.0,963.0,-635.0,178.0,-276.0,496.0
19:40:26.667000,-1253.0,-84.0,-1974.0,-687.0,957.0,-635.0,178.0,-276.0,496.0
19:40:26.671000,-1300.0,-133.0,-1973.0,-638.0,943.0,-632.0,178.0,-276.0,496.0
19:40:26.677000,-1344.0,-185.0,-1946.0,-638.0,943.0,-632.0,162.0,-274.0,493.0
19:40:26.681000,-1388.0,-238.0,-1911.0,-573.0,861.0,-637.0,162.0,-274.0,493.0
19:40:26.686000,-1440.0,-285.0,-1870.0,-519.0,870.0,-650.0,174.0,-298.0,501.0
19:40:26.691000,-1498.0,-333.0,-1827.0,-501.0,941.0,-652.0,174.0,-298.0,501.0
19:40:26.695000,-1563.0,-385.0,-1787.0,-523.0,962.0,-644.0,174.0,-298.0,501.0
19:40:26.700000,-1635.0,-435.0,-1746.0,-540.0,1015.0,-646.0,165.0,-304.0,499.0
19:40:26.705000,-1710.0,-483.0,-1705.0,-550.0,1079.0,-639.0,165.0,-304.0,499.0
19:40:26.709000,-1710.0,-483.0,-1705.0,-576.0,1031.0,-633.0,172.0,-310.0,505.0
19:40:26.714000,-1846.0,-554.0,-1596.0,-608.0,971.0,-635.0,172.0,-310.0,505.0
19:40:26.718000,-1846.0,-554.0,-1596.0,-638.0,962.0,-638.0,172.0,-310.0,505.0
19:40:26.724000,-1899.0,-581.0,-1526.0,-671.0,871.0,-637.0,151.0,-330.0,516.0
19:40:26.728000,-1946.0,-618.0,-1463.0,-684.0,796.0,-631.0,151.0,-330.0,516.0
19:40:26.733000,-2015.0,-663.0,-1428.0,-661.0,805.0,-637.0,165.0,-358.0,508.0
19:40:26.738000,-2076.0,-716.0,-1410.0,-638.0,808.0,-656.0,165.0,-358.0,508.0
19:40:26.742000,-2128.0,-770.0,-1421.0,-643.0,872.0,-664.0,165.0,-358.0,508.0
19:40:26.747000,-2193.0,-838.0,-1481.0,-660.0,941.0,-672.0,175.0,-369.0,516.0
19:40:26.752000,-2244.0,-914.0,-1558.0,-668.0,921.0,-701.0,175.0,-369.0,516.0
19:40:26.757000,-2306.0,-983.0,-1634.0,-670.0,941.0,-716.0,169.0,-390.0,544.0
19:40:26.761000,-2374.0,-1068.0,-1729.0,-653.0,962.0,-737.0,169.0,-390.0,544.0
19:40:26.765000,-2430.0,-1140.0,-1806.0,-624.0,944.0,-770.0,169.0,-390.0,544.0
19:40:26.771000,-2494.0,-1199.0,-1857.0,-614.0,963.0,-784.0,175.0,-403.0,516.0
19:40:26.775000,-2542.0,-1257.0,-1902.0,-657.0,1022.0,-800.0,175.0,-403.0,516.0
19:40:26.780000,-2614.0,-1290.0,-1983.0,-657.0,1022.0,-800.0,184.0,-430.0,514.0
19:40:26.785000,-2645.0,-1337.0,-1969.0,-674.0,1106.0,-812.0,184.0,-430.0,514.0
19:40:26.792000,-2646.0,-1369.0,-1855.0,-606.0,868.0,-805.0,204.0,-450.0,525.0
19:40:26.794000,-2744.0,-1434.0,-1784.0,-606.0,868.0,-805.0,204.0,-450.0,525.0
19:40:26.798000,-2848.0,-1444.0,-1821.0,-730.0,805.0,-782.0,204.0,-450.0,525.0
19:40:26.804000,-2837.0,-1432.0,-1899.0,-846.0,829.0,-863.0,187.0,-466.0,526.0
19:40:26.808000,-2763.0,-1428.0,-1894.0,-873.0,825.0,-921.0,187.0,-466.0,526.0
19:40:26.813000,-2759.0,-1420.0,-1855.0,-869.0,761.0,-938.0,226.0,-501.0,517.0
19:40:26.818000,-2776.0,-1407.0,-1796.0,-907.0,696.0,-935.0,226.0,-501.0,517.0
19:40:26.822000,-2776.0,-1407.0,-1796.0,-942.0,640.0,-965.0,226.0,-501.0,517.0
19:40:26.827000,-2662.0,-1426.0,-1714.0,-947.0,664.0,-985.0,232.0,-520.0,514.0
19:40:26.832000,-2662.0,-1426.0,-1714.0,-957.0,636.0,-967.0,232.0,-520.0,514.0
19:40:26.837000,-2571.0,-1454.0,-1710.0,-986.0,631.0,-991.0,247.0,-535.0,516.0
19:40:26.841000,-2506.0,-1445.0,-1835.0,-931.0,500.0,-991.0,247.0,-535.0,516.0
19:40:26.845000,-2469.0,-1418.0,-1751.0,-812.0,283.0,-1017.0,247.0,-535.0,516.0
19:40:26.851000,-2457.0,-1368.0,-1543.0,-872.0,294.0,-1037.0,261.0,-562.0,483.0
19:40:26.855000,-2408.0,-1388.0,-1684.0,-920.0,333.0,-1024.0,261.0,-562.0,483.0
19:40:26.860000,-2285.0,-1437.0,-1855.0,-764.0,222.0,-1027.0,277.0,-570.0,484.0
19:40:26.865000,-2189.0,-1448.0,-1793.0,-708.0,26.0,-1042.0,277.0,-570.0,484.0
19:40:26.869000,-2086.0,-1440.0,-1740.0,-745.0,-24.0,-1083.0,277.0,-570.0,484.0
19:40:26.874000,-1950.0,-1399.0,-1610.0,-614.0,-229.0,-1075.0,298.0,-589.0,475.0
19:40:26.879000,-1898.0,-1355.0,-1259.0,-441.0,-461.0,-1009.0,298.0,-589.0,475.0
19:40:26.884000,-1836.0,-1351.0,-1082.0,-441.0,-461.0,-1009.0,310.0,-604.0,468.0
19:40:26.888000,-1708.0,-1362.0,-1242.0,-224.0,-299.0,-921.0,310.0,-604.0,468.0
19:40:26.892000,-1614.0,-1344.0,-1395.0,-224.0,-299.0,-921.0,310.0,-604.0,468.0
19:40:26.898000,-1628.0,-1309.0,-1341.0,18.0,-359.0,-865.0,328.0,-606.0,456.0
19:40:26.902000,-1600.0,-1330.0,-1429.0,183.0,-473.0,-812.0,328.0,-606.0,456.0
19:40:26.907000,-1466.0,-1327.0,-1688.0,136.0,-524.0,-767.0,340.0,-621.0,441.0
19:40:26.912000,-1361.0,-1329.0,-1742.0,141.0,-854.0,-770.0,340.0,-621.0,441.0
19:40:26.916000,-1253.0,-1298.0,-1640.0,141.0,-854.0,-770.0,340.0,-621.0,441.0
19:40:26.921000,-1186.0,-1282.0,-1656.0,20.0,-768.0,-768.0,339.0,-625.0,447.0
19:40:26.926000,-1217.0,-1240.0,-1675.0,-92.0,-612.0,-750.0,339.0,-625.0,447.0
19:40:26.931000,-1282.0,-1221.0,-1630.0,-110.0,-594.0,-766.0,367.0,-621.0,429.0
19:40:26.935000,-1362.0,-1207.0,-1712.0,-188.0,-537.0,-752.0,367.0,-621.0,429.0
19:40:26.939000,-1362.0,-1207.0,-1712.0,-285.0,-520.0,-787.0,367.0,-621.0,429.0
19:40:26.945000,-1395.0,-1190.0,-1866.0,-297.0,-472.0,-837.0,373.0,-630.0,418.0
19:40:26.949000,-1400.0,-1164.0,-1852.0,-293.0,-472.0,-859.0,373.0,-630.0,418.0
19:40:26.954000,-1417.0,-1118.0,-1674.0,-292.0,-422.0,-883.0,409.0,-636.0,406.0
19:40:26.959000,-1445.0,-1122.0,-1643.0,-292.0,-273.0,-901.0,409.0,-636.0,406.0
19:40:26.963000,-1438.0,-1089.0,-1752.0,-288.0,-361.0,-938.0,409.0,-636.0,406.0
19:40:26.968000,-1396.0,-1071.0,-1876.0,-284.0,-438.0,-956.0,430.0,-637.0,393.0
19:40:26.973000,-1370.0,-1085.0,-2046.0,-292.0,-434.0,-950.0,430.0,-637.0,393.0
19:40:26.978000,-1323.0,-1124.0,-2043.0,-304.0,-471.0,-983.0,430.0,-637.0,384.0
19:40:26.982000,-1318.0,-1106.0,-1870.0,-365.0,-461.0,-1004.0,430.0,-637.0,384.0
19:40:26.986000,-1371.0,-1110.0,-1796.0,-383.0,-470.0,-1013.0,430.0,-637.0,384.0
19:40:26.992000,-1293.0,-1178.0,-1813.0,-273.0,-583.0,-1036.0,444.0,-637.0,376.0
19:40:26.996000,-1196.0,-1236.0,-1696.0,-171.0,-756.0,-1055.0,444.0,-637.0,376.0
19:40:27.001000,-1194.0,-1248.0,-1522.0,-171.0,-756.0,-1055.0,444.0,-642.0,373.0
19:40:27.006000,-1171.0,-1292.0,-1481.0,-196.0,-755.0,-1051.0,444.0,-642.0,373.0
19:40:27.010000,-1134.0,-1307.0,-1540.0,-301.0,-637.0,-1048.0,444.0,-642.0,373.0
19:40:27.015000,-1070.0,-1311.0,-1526.0,-349.0,-564.0,-1061.0,475.0,-627.0,355.0
19:40:27.020000,-980.0,-1336.0,-1377.0,-333.0,-595.0,-1053.0,475.0,-627.0,355.0
19:40:27.025000,-933.0,-1387.0,-1379.0,-362.0,-605.0,-1017.0,495.0,-627.0,336.0
19:40:27.029000,-891.0,-1418.0,-1344.0,-363.0,-605.0,-988.0,495.0,-627.0,336.0
19:40:27.033000,-860.0,-1429.0,-1241.0,-286.0,-682.0,-992.0,495.0,-627.0,336.0
19:40:27.039000,-798.0,-1431.0,-1162.0,-273.0,-674.0,-995.0,507.0,-628.0,343.0
19:40:27.043000,-780.0,-1432.0,-1027.0,-308.0,-640.0,-981.0,507.0,-628.0,343.0
19:40:27.048000,-825.0,-1399.0,-1010.0,-369.0,-565.0,-955.0,508.0,-624.0,324.0
19:40:27.053000,-825.0,-1399.0,-1010.0,-458.0,-421.0,-943.0,508.0,-624.0,324.0
19:40:27.057000,-844.0,-1362.0,-1129.0,-500.0,-359.0,-920.0,508.0,-624.0,324.0
19:40:27.062000,-807.0,-1363.0,-1234.0,-455.0,-440.0,-900.0,520.0,-621.0,304.0
19:40:27.067000,-778.0,-1342.0,-1177.0,-404.0,-588.0,-891.0,520.0,-621.0,304.0
19:40:27.072000,-773.0,-1310.0,-994.0,-504.0,-601.0,-869.0,526.0,-616.0,301.0
19:40:27.076000,-754.0,-1311.0,-1027.0,-605.0,-490.0,-844.0,526.0,-616.0,301.0
19:40:27.080000,-735.0,-1320.0,-1192.0,-540.0,-437.0,-822.0,526.0,-616.0,301.0
19:40:27.086000,-716.0,-1329.0,-1264.0,-414.0,-498.0,-802.0,523.0,-609.0,297.0
19:40:27.090000,-711.0,-1313.0,-1171.0,-406.0,-544.0,-789.0,523.0,-609.0,297.0
19:40:27.095000,-701.0,-1296.0,-1148.0,-518.0,-423.0,-777.0,553.0,-610.0,274.0
19:40:27.100000,-679.0,-1291.0,-1264.0,-570.0,-309.0,-759.0,553.0,-610.0,274.0
19:40:27.104000,-677.0,-1296.0,-1325.0,-526.0,-389.0,-746.0,553.0,-610.0,274.0
19:40:27.109000,-702.0,-1299.0,-1162.0,-542.0,-420.0,-738.0,559.0,-604.0,273.0
19:40:27.113000,-750.0,-1279.0,-1107.0,-674.0,-344.0,-745.0,559.0,-604.0,273.0
19:40:27.119000,-737.0,-1259.0,-1173.0,-674.0,-344.0,-745.0,562.0,-598.0,282.0
19:40:27.123000,-758.0,-1229.0,-1274.0,-796.0,-355.0,-750.0,562.0,-598.0,282.0
19:40:27.128000,-739.0,-1235.0,-1348.0,-762.0,-359.0,-725.0,570.0,-598.0,250.0
19:40:27.133000,-676.0,-1253.0,-1251.0,-626.0,-424.0,-708.0,570.0,-598.0,250.0
19:40:27.137000,-648.0,-1239.0,-1024.0,-541.0,-586.0,-707.0,570.0,-598.0,250.0
19:40:27.142000,-579.0,-1238.0,-999.0,-625.0,-608.0,-710.0,580.0,-577.0,235.0
19:40:27.147000,-519.0,-1246.0,-1102.0,-737.0,-483.0,-694.0,580.0,-577.0,235.0
19:40:27.151000,-455.0,-1257.0,-1057.0,-660.0,-441.0,-672.0,582.0,-579.0,226.0
19:40:27.156000,-428.0,-1254.0,-1045.0,-577.0,-452.0,-658.0,582.0,-579.0,226.0
19:40:27.160000,-428.0,-1254.0,-1045.0,-618.0,-372.0,-632.0,582.0,-579.0,226.0
19:40:27.166000,-389.0,-1265.0,-1197.0,-614.0,-357.0,-620.0,585.0,-583.0,228.0
19:40:27.170000,-333.0,-1266.0,-1188.0,-547.0,-465.0,-621.0,585.0,-583.0,228.0
19:40:27.175000,-291.0,-1260.0,-932.0,-625.0,-457.0,-609.0,603.0,-561.0,205.0
19:40:27.180000,-299.0,-1239.0,-812.0,-791.0,-324.0,-593.0,603.0,-561.0,205.0
19:40:27.184000,-284.0,-1253.0,-817.0,-848.0,-251.0,-576.0,603.0,-561.0,205.0
19:40:27.189000,-331.0,-1241.0,-865.0,-797.0,-212.0,-561.0,600.0,-553.0,204.0
19:40:27.194000,-348.0,-1241.0,-926.0,-721.0,-176.0,-556.0,600.0,-553.0,204.0
19:40:27.198000,-320.0,-1246.0,-974.0,-652.0,-240.0,-548.0,589.0,-559.0,210.0
19:40:27.203000,-329.0,-1238.0,-902.0,-643.0,-301.0,-531.0,589.0,-559.0,210.0
19:40:27.207000,-330.0,-1243.0,-808.0,-711.0,-256.0,-527.0,589.0,-559.0,210.0
19:40:27.212000,-322.0,-1240.0,-800.0,-768.0,-226.0,-526.0,613.0,-535.0,186.0
19:40:27.217000,-344.0,-1227.0,-760.0,-803.0,-191.0,-508.0,613.0,-535.0,186.0
19:40:27.222000,-364.0,-1225.0,-805.0,-803.0,-191.0,-508.0,609.0,-535.0,177.0
19:40:27.227000,-348.0,-1236.0,-897.0,-821.0,-124.0,-493.0,609.0,-535.0,177.0
19:40:27.231000,-349.0,-1229.0,-849.0,-767.0,-160.0,-486.0,609.0,-535.0,177.0
19:40:27.236000,-361.0,-1226.0,-737.0,-711.0,-246.0,-468.0,607.0,-523.0,168.0
19:40:27.241000,-349.0,-1229.0,-722.0,-744.0,-231.0,-452.0,607.0,-523.0,168.0
19:40:27.245000,-368.0,-1213.0,-735.0,-808.0,-165.0,-446.0,618.0,-519.0,150.0
19:40:27.250000,-368.0,-1215.0,-655.0,-833.0,-149.0,-432.0,618.0,-519.0,150.0
19:40:27.254000,-368.0,-1215.0,-655.0,-864.0,-134.0,-422.0,618.0,-519.0,150.0
19:40:27.260000,-399.0,-1184.0,-696.0,-896.0,-120.0,-417.0,621.0,-528.0,142.0
19:40:27.264000,-407.0,-1166.0,-625.0,-896.0,-145.0,-409.0,621.0,-528.0,142.0
19:40:27.269000,-407.0,-1166.0,-625.0,-917.0,-158.0,-399.0,621.0,-513.0,133.0
19:40:27.274000,-419.0,-1141.0,-601.0,-959.0,-141.0,-395.0,621.0,-513.0,133.0
19:40:27.278000,-412.0,-1113.0,-665.0,-962.0,-150.0,-394.0,621.0,-513.0,133.0
19:40:27.283000,-386.0,-1093.0,-664.0,-933.0,-189.0,-387.0,619.0,-505.0,130.0
19:40:27.288000,-371.0,-1072.0,-582.0,-945.0,-161.0,-379.0,619.0,-505.0,130.0
19:40:27.292000,-373.0,-1045.0,-585.0,-961.0,-122.0,-372.0,616.0,-507.0,114.0
19:40:27.297000,-348.0,-1032.0,-574.0,-944.0,-169.0,-368.0,616.0,-507.0,114.0
19:40:27.301000,-351.0,-1000.0,-522.0,-958.0,-203.0,-362.0,616.0,-507.0,114.0
19:40:27.307000,-343.0,-979.0,-490.0,-1004.0,-177.0,-357.0,621.0,-504.0,114.0
19:40:27.311000,-317.0,-958.0,-509.0,-1011.0,-160.0,-359.0,621.0,-504.0,114.0
19:40:27.316000,-291.0,-933.0,-492.0,-978.0,-185.0,-353.0,616.0,-499.0,106.0
19:40:27.321000,-279.0,-907.0,-399.0,-974.0,-187.0,-346.0,616.0,-499.0,106.0
19:40:27.325000,-270.0,-881.0,-382.0,-996.0,-159.0,-341.0,616.0,-499.0,106.0
19:40:27.330000,-252.0,-861.0,-426.0,-996.0,-159.0,-341.0,612.0,-486.0,100.0
19:40:27.335000,-235.0,-834.0,-411.0,-981.0,-176.0,-334.0,612.0,-486.0,100.0
19:40:27.339000,-217.0,-811.0,-352.0,-963.0,-217.0,-327.0,610.0,-484.0,94.0
19:40:27.344000,-210.0,-793.0,-315.0,-981.0,-222.0,-318.0,610.0,-484.0,94.0
19:40:27.348000,-200.0,-768.0,-316.0,-1000.0,-182.0,-310.0,610.0,-484.0,94.0
19:40:27.354000,-184.0,-746.0,-354.0,-1015.0,-144.0,-308.0,621.0,-478.0,84.0
19:40:27.358000,-177.0,-719.0,-359.0,-1005.0,-147.0,-305.0,621.0,-478.0,84.0
19:40:27.363000,-180.0,-700.0,-343.0,-991.0,-175.0,-292.0,618.0,-483.0,78.0
19:40:27.368000,-182.0,-681.0,-382.0,-1003.0,-164.0,-278.0,618.0,-483.0,78.0
19:40:27.372000,-182.0,-681.0,-382.0,-1006.0,-138.0,-274.0,618.0,-483.0,78.0
19:40:27.377000,-169.0,-667.0,-387.0,-991.0,-144.0,-266.0,601.0,-480.0,79.0
19:40:27.382000,-174.0,-653.0,-363.0,-980.0,-154.0,-253.0,601.0,-480.0,79.0
19:40:27.386000,-188.0,-635.0,-323.0,-992.0,-134.0,-241.0,612.0,-468.0,72.0
19:40:27.391000,-199.0,-620.0,-333.0,-1010.0,-92.0,-234.0,612.0,-468.0,72.0
19:40:27.395000,-201.0,-602.0,-382.0,-999.0,-103.0,-224.0,612.0,-468.0,72.0
19:40:27.401000,-200.0,-590.0,-351.0,-983.0,-145.0,-209.0,618.0,-471.0,64.0
19:40:27.405000,-219.0,-577.0,-312.0,-993.0,-121.0,-202.0,618.0,-471.0,64.0
19:40:27.410000,-228.0,-564.0,-359.0,-984.0,-89.0,-196.0,600.0,-475.0,73.0
19:40:27.415000,-217.0,-562.0,-387.0,-940.0,-127.0,-184.0,600.0,-475.0,73.0
19:40:27.419000,-222.0,-556.0,-315.0,-927.0,-136.0,-177.0,613.0,-459.0,52.0
19:40:27.424000,-234.0,-543.0,-293.0,-962.0,-81.0,-176.0,613.0,-459.0,52.0
19:40:27.428000,-232.0,-529.0,-352.0,-973.0,-68.0,-170.0,613.0,-459.0,52.0
19:40:27.433000,-235.0,-522.0,-361.0,-957.0,-88.0,-158.0,622.0,-471.0,51.0
19:40:27.438000,-251.0,-514.0,-363.0,-952.0,-92.0,-153.0,622.0,-471.0,51.0
19:40:27.443000,-237.0,-508.0,-344.0,-952.0,-92.0,-153.0,613.0,-466.0,49.0
19:40:27.447000,-235.0,-499.0,-299.0,-977.0,-73.0,-141.0,613.0,-466.0,49.0
19:40:27.452000,-248.0,-490.0,-279.0,-977.0,-73.0,-141.0,613.0,-466.0,49.0
19:40:27.457000,-259.0,-482.0,-256.0,-988.0,-25.0,-131.0,622.0,-463.0,57.0
19:40:27.462000,-278.0,-467.0,-260.0,-976.0,2.0,-124.0,622.0,-463.0,57.0
19:40:27.466000,-289.0,-452.0,-280.0,-967.0,18.0,-120.0,615.0,-459.0,43.0
19:40:27.471000,-298.0,-445.0,-261.0,-968.0,24.0,-109.0,615.0,-459.0,43.0
19:40:27.475000,-298.0,-445.0,-261.0,-964.0,27.0,-95.0,615.0,-459.0,43.0
19:40:27.480000,-353.0,-415.0,-210.0,-969.0,32.0,-85.0,616.0,-448.0,37.0
19:40:27.485000,-371.0,-401.0,-184.0,-970.0,35.0,-78.0,616.0,-448.0,37.0
19:40:27.490000,-371.0,-401.0,-184.0,-969.0,38.0,-74.0,621.0,-451.0,30.0
19:40:27.494000,-396.0,-380.0,-173.0,-980.0,61.0,-63.0,621.0,-451.0,30.0
19:40:27.499000,-415.0,-369.0,-172.0,-979.0,70.0,-54.0,621.0,-451.0,30.0
19:40:27.504000,-436.0,-355.0,-153.0,-980.0,68.0,-51.0,600.0,-451.0,36.0
19:40:27.509000,-466.0,-339.0,-144.0,-986.0,93.0,-43.0,600.0,-451.0,36.0
19:40:27.513000,-494.0,-336.0,-159.0,-971.0,120.0,-34.0,607.0,-441.0,28.0
19:40:27.518000,-529.0,-328.0,-192.0,-934.0,110.0,-29.0,607.0,-441.0,28.0
19:40:27.522000,-555.0,-326.0,-175.0,-899.0,82.0,-24.0,607.0,-441.0,28.0
19:40:27.527000,-583.0,-329.0,-124.0,-894.0,86.0,-19.0,604.0,-442.0,28.0
19:40:27.532000,-609.0,-336.0,-95.0,-898.0,111.0,-15.0,604.0,-442.0,28.0
19:40:27.537000,-643.0,-343.0,-72.0,-901.0,144.0,-10.0,604.0,-447.0,49.0
19:40:27.541000,-684.0,-352.0,-51.0,-911.0,179.0,-7.0,604.0,-447.0,49.0
19:40:27.546000,-726.0,-361.0,-42.0,-914.0,205.0,-9.0,604.0,-447.0,49.0
19:40:27.551000,-774.0,-368.0,-52.0,-914.0,205.0,-9.0,621.0,-441.0,24.0
19:40:27.556000,-816.0,-382.0,-44.0,-895.0,212.0,-9.0,621.0,-441.0,24.0
19:40:27.560000,-867.0,-404.0,7.0,-854.0,205.0,-3.0,613.0,-438.0,18.0
19:40:27.565000,-937.0,-425.0,38.0,-826.0,226.0,2.0,613.0,-438.0,18.0
19:40:27.569000,-1017.0,-457.0,22.0,-830.0,287.0,13.0,613.0,-438.0,18.0
19:40:27.574000,-1094.0,-494.0,31.0,-824.0,328.0,22.0,607.0,-432.0,15.0
19:40:27.579000,-1180.0,-536.0,80.0,-808.0,324.0,30.0,607.0,-432.0,15.0
19:40:27.583000,-1180.0,-536.0,80.0,-811.0,320.0,42.0,612.0,-427.0,15.0
19:40:27.588000,-1371.0,-628.0,134.0,-832.0,346.0,50.0,612.0,-427.0,15.0
19:40:27.593000,-1371.0,-628.0,134.0,-850.0,388.0,62.0,612.0,-427.0,15.0
19:40:27.598000,-1486.0,-679.0,124.0,-833.0,417.0,78.0,606.0,-426.0,10.0
19:40:27.603000,-1606.0,-739.0,163.0,-801.0,432.0,97.0,606.0,-426.0,10.0
19:40:27.607000,-1740.0,-803.0,213.0,-793.0,455.0,118.0,600.0,-424.0,-3.0
19:40:27.612000,-1886.0,-868.0,214.0,-791.0,472.0,141.0,600.0,-424.0,-3.0
19:40:27.616000,-2024.0,-947.0,202.0,-761.0,463.0,166.0,600.0,-424.0,-3.0
19:40:27.621000,-2169.0,-1031.0,221.0,-716.0,446.0,196.0,600.0,-417.0,3.0
19:40:27.626000,-2313.0,-1125.0,234.0,-686.0,432.0,225.0,600.0,-417.0,3.0
19:40:27.631000,-2450.0,-1218.0,224.0,-676.0,420.0,252.0,604.0,-400.0,-4.0
19:40:27.635000,-2579.0,-1318.0,189.0,-676.0,414.0,283.0,604.0,-400.0,-4.0
19:40:27.640000,-2714.0,-1416.0,161.0,-669.0,407.0,324.0,604.0,-400.0,-4.0
19:40:27.645000,-2863.0,-1525.0,153.0,-643.0,399.0,366.0,589.0,-400.0,-19.0
19:40:27.650000,-2991.0,-1639.0,151.0,-628.0,384.0,401.0,589.0,-400.0,-19.0
19:40:27.654000,-3116.0,-1746.0,116.0,-628.0,384.0,401.0,576.0,-385.0,-25.0
19:40:27.659000,-3250.0,-1848.0,58.0,-630.0,359.0,442.0,576.0,-385.0,-25.0
19:40:27.663000,-3373.0,-1959.0,-6.0,-632.0,344.0,490.0,576.0,-385.0,-25.0
19:40:27.668000,-3492.0,-2067.0,-56.0,-617.0,321.0,542.0,592.0,-366.0,-37.0
19:40:27.672000,-3589.0,-2179.0,-109.0,-572.0,257.0,648.0,592.0,-366.0,-37.0
19:40:27.677000,-3675.0,-2284.0,-182.0,-572.0,257.0,648.0,559.0,-348.0,-54.0
19:40:27.682000,-3754.0,-2373.0,-240.0,-551.0,218.0,695.0,559.0,-348.0,-54.0
19:40:27.687000,-3811.0,-2462.0,-292.0,-546.0,184.0,740.0,555.0,-340.0,-49.0
19:40:27.692000,-3867.0,-2545.0,-380.0,-570.0,181.0,782.0,555.0,-340.0,-49.0
19:40:27.696000,-3867.0,-2545.0,-380.0,-590.0,177.0,824.0,555.0,-340.0,-49.0
19:40:27.701000,-3967.0,-2685.0,-495.0,-599.0,157.0,863.0,531.0,-306.0,-60.0
19:40:27.706000,-3967.0,-2685.0,-495.0,-619.0,157.0,900.0,531.0,-306.0,-60.0
19:40:27.711000,-4010.0,-2746.0,-567.0,-641.0,176.0,938.0,517.0,-273.0,-63.0
19:40:27.715000,-4052.0,-2793.0,-631.0,-655.0,188.0,971.0,517.0,-273.0,-63.0
19:40:27.719000,-4096.0,-2829.0,-655.0,-693.0,211.0,1003.0,517.0,-273.0,-63.0
19:40:27.725000,-4134.0,-2854.0,-723.0,-737.0,234.0,1032.0,492.0,-256.0,-72.0
19:40:27.729000,-4146.0,-2876.0,-807.0,-748.0,212.0,1060.0,492.0,-256.0,-72.0
19:40:27.734000,-4158.0,-2879.0,-866.0,-748.0,171.0,1090.0,486.0,-235.0,-70.0
19:40:27.739000,-4160.0,-2874.0,-890.0,-761.0,151.0,1114.0,486.0,-235.0,-70.0
19:40:27.743000,-4150.0,-2863.0,-897.0,-802.0,148.0,1124.0,486.0,-235.0,-70.0
19:40:27.748000,-4139.0,-2835.0,-919.0,-863.0,158.0,1127.0,471.0,-214.0,-72.0
19:40:27.753000,-4102.0,-2808.0,-966.0,-916.0,175.0,1128.0,471.0,-214.0,-72.0
19:40:27.758000,-4070.0,-2772.0,-1025.0,-944.0,173.0,1120.0,451.0,-195.0,-70.0
19:40:27.762000,-4021.0,-2734.0,-1055.0,-959.0,145.0,1104.0,451.0,-195.0,-70.0
19:40:27.766000,-3957.0,-2704.0,-1044.0,-959.0,128.0,1104.0,451.0,-195.0,-70.0
19:40:27.772000,-3886.0,-2666.0,-1047.0,-983.0,128.0,1081.0,414.0,-153.0,-49.0
19:40:27.776000,-3803.0,-2632.0,-1062.0,-1012.0,139.0,1052.0,414.0,-153.0,-49.0
19:40:27.781000,-3710.0,-2609.0,-1038.0,-1011.0,144.0,1028.0,396.0,-123.0,-34.0
19:40:27.786000,-3621.0,-2581.0,-965.0,-976.0,131.0,1002.0,396.0,-123.0,-34.0
19:40:27.790000,-3533.0,-2549.0,-896.0,-944.0,136.0,972.0,396.0,-123.0,-34.0
19:40:27.795000,-3439.0,-2521.0,-864.0,-930.0,181.0,944.0,382.0,-103.0,-24.0
19:40:27.800000,-3347.0,-2484.0,-833.0,-902.0,224.0,919.0,382.0,-103.0,-24.0
19:40:27.805000,-3250.0,-2450.0,-788.0,-869.0,252.0,901.0,378.0,-94.0,-12.0
19:40:27.809000,-3154.0,-2408.0,-747.0,-854.0,273.0,886.0,378.0,-94.0,-12.0
19:40:27.813000,-3154.0,-2408.0,-747.0,-850.0,292.0,866.0,378.0,-94.0,-12.0
19:40:27.819000,-3061.0,-2363.0,-732.0,-847.0,310.0,846.0,352.0,-79.0,-7.0
19:40:27.823000,-2975.0,-2315.0,-723.0,-840.0,322.0,819.0,352.0,-79.0,-7.0
19:40:27.828000,-2890.0,-2260.0,-698.0,-846.0,345.0,790.0,346.0,-63.0,7.0
19:40:27.833000,-2809.0,-2200.0,-668.0,-860.0,381.0,771.0,346.0,-63.0,7.0
19:40:27.837000,-2732.0,-2139.0,-641.0,-864.0,417.0,755.0,346.0,-63.0,7.0
19:40:27.842000,-2660.0,-2069.0,-604.0,-849.0,423.0,746.0,318.0,-39.0,40.0
19:40:27.847000,-2590.0,-1997.0,-543.0,-831.0,415.0,735.0,318.0,-39.0,40.0
19:40:27.852000,-2517.0,-1920.0,-490.0,-814.0,408.0,718.0,306.0,-30.0,55.0
19:40:27.856000,-2437.0,-1847.0,-459.0,-796.0,393.0,701.0,306.0,-30.0,55.0
19:40:27.860000,-2343.0,-1775.0,-456.0,-780.0,389.0,679.0,306.0,-30.0,55.0
19:40:27.866000,-2245.0,-1704.0,-487.0,-748.0,400.0,652.0,298.0,-28.0,69.0
19:40:27.870000,-2149.0,-1628.0,-508.0,-703.0,411.0,627.0,298.0,-28.0,69.0
19:40:27.875000,-2064.0,-1551.0,-490.0,-703.0,411.0,627.0,294.0,-25.0,69.0
19:40:27.880000,-1985.0,-1468.0,-460.0,-686.0,443.0,604.0,294.0,-25.0,69.0
19:40:27.884000,-1920.0,-1391.0,-441.0,-692.0,528.0,571.0,294.0,-25.0,69.0
19:40:27.889000,-1862.0,-1325.0,-431.0,-692.0,528.0,571.0,283.0,-18.0,88.0
19:40:27.894000,-1810.0,-1257.0,-402.0,-666.0,546.0,552.0,283.0,-18.0,88.0
19:40:27.899000,-1762.0,-1201.0,-354.0,-630.0,547.0,534.0,286.0,-9.0,94.0
19:40:27.903000,-1716.0,-1151.0,-311.0,-604.0,548.0,521.0,286.0,-9.0,94.0
19:40:27.907000,-1673.0,-1103.0,-276.0,-589.0,553.0,504.0,286.0,-9.0,94.0
19:40:27.912000,-1673.0,-1103.0,-276.0,-580.0,555.0,489.0,271.0,-6.0,114.0
19:40:27.917000,-1579.0,-1019.0,-217.0,-570.0,554.0,474.0,271.0,-6.0,114.0
19:40:27.922000,-1519.0,-976.0,-198.0,-555.0,551.0,457.0,261.0,0.0,129.0
19:40:27.927000,-1519.0,-976.0,-198.0,-541.0,544.0,440.0,261.0,0.0,129.0
19:40:27.931000,-1455.0,-938.0,-191.0,-534.0,533.0,427.0,265.0,6.0,148.0
19:40:27.936000,-1391.0,-902.0,-179.0,-529.0,522.0,413.0,265.0,6.0,148.0
19:40:27.940000,-1327.0,-865.0,-156.0,-530.0,519.0,399.0,265.0,6.0,148.0
19:40:27.946000,-1260.0,-830.0,-147.0,-534.0,524.0,385.0,262.0,3.0,148.0
19:40:27.950000,-1196.0,-797.0,-147.0,-528.0,525.0,379.0,262.0,3.0,148.0
19:40:27.955000,-1142.0,-764.0,-142.0,-514.0,531.0,376.0,261.0,6.0,150.0
19:40:27.960000,-1096.0,-734.0,-130.0,-499.0,545.0,371.0,261.0,6.0,150.0
19:40:27.964000,-1064.0,-704.0,-102.0,-484.0,563.0,362.0,261.0,6.0,150.0
19:40:27.969000,-1047.0,-669.0,-67.0,-477.0,591.0,351.0,256.0,10.0,165.0
19:40:27.974000,-1041.0,-633.0,-33.0,-477.0,616.0,342.0,256.0,10.0,165.0
19:40:27.979000,-1040.0,-597.0,-4.0,-477.0,616.0,342.0,252.0,15.0,169.0
19:40:27.983000,-1045.0,-564.0,24.0,-459.0,601.0,326.0,252.0,15.0,169.0
19:40:27.987000,-1042.0,-530.0,28.0,-459.0,601.0,326.0,252.0,15.0,169.0
19:40:27.993000,-1032.0,-496.0,-4.0,-459.0,600.0,313.0,250.0,9.0,175.0
19:40:27.997000,-1016.0,-459.0,-40.0,-462.0,598.0,303.0,250.0,9.0,175.0
19:40:28.002000,-991.0,-418.0,-60.0,-454.0,585.0,290.0,261.0,15.0,198.0
19:40:28.007000,-965.0,-376.0,-74.0,-437.0,573.0,281.0,261.0,15.0,198.0
19:40:28.011000,-938.0,-338.0,-94.0,-426.0,577.0,277.0,261.0,15.0,198.0
19:40:28.016000,-907.0,-299.0,-128.0,-426.0,595.0,274.0,259.0,13.0,192.0
19:40:28.021000,-877.0,-265.0,-150.0,-422.0,604.0,274.0,259.0,13.0,192.0
19:40:28.026000,-845.0,-232.0,-144.0,-404.0,582.0,277.0,252.0,28.0,219.0
19:40:28.030000,-812.0,-204.0,-124.0,-383.0,549.0,279.0,252.0,28.0,219.0
19:40:28.034000,-812.0,-204.0,-124.0,-375.0,531.0,279.0,252.0,28.0,219.0
19:40:28.040000,-772.0,-176.0,-102.0,-387.0,534.0,286.0,253.0,28.0,199.0
19:40:28.044000,-740.0,-156.0,-81.0,-397.0,541.0,302.0,253.0,28.0,199.0
19:40:28.049000,-714.0,-144.0,-44.0,-388.0,556.0,309.0,252.0,12.0,211.0
19:40:28.054000,-679.0,-133.0,-18.0,-376.0,593.0,317.0,252.0,12.0,211.0
19:40:28.058000,-644.0,-133.0,-23.0,-357.0,628.0,326.0,252.0,12.0,211.0
19:40:28.063000,-608.0,-131.0,-25.0,-329.0,651.0,330.0,255.0,21.0,219.0
19:40:28.068000,-573.0,-130.0,-16.0,-314.0,679.0,341.0,255.0,21.0,219.0
19:40:28.073000,-550.0,-135.0,-17.0,-318.0,729.0,356.0,237.0,12.0,223.0
19:40:28.077000,-518.0,-144.0,-29.0,-319.0,840.0,372.0,237.0,12.0,223.0
19:40:28.081000,-487.0,-154.0,-46.0,-294.0,766.0,396.0,237.0,12.0,223.0
19:40:28.087000,-541.0,-141.0,-24.0,-278.0,598.0,376.0,247.0,18.0,232.0
19:40:28.091000,-481.0,-157.0,35.0,-308.0,617.0,340.0,247.0,18.0,232.0
19:40:28.096000,-457.0,-142.0,44.0,-308.0,617.0,340.0,256.0,16.0,235.0
19:40:28.101000,-448.0,-142.0,28.0,-326.0,690.0,346.0,256.0,16.0,235.0
19:40:28.105000,-406.0,-134.0,29.0,-309.0,759.0,338.0,256.0,16.0,235.0
19:40:28.110000,-392.0,-125.0,42.0,-292.0,800.0,326.0,258.0,16.0,232.0
19:40:28.115000,-382.0,-115.0,46.0,-283.0,650.0,345.0,258.0,16.0,232.0
19:40:28.120000,-415.0,-102.0,81.0,-286.0,650.0,345.0,253.0,25.0,241.0
19:40:28.124000,-383.0,-88.0,158.0,-315.0,509.0,320.0,253.0,25.0,241.0
19:40:28.128000,-383.0,-88.0,158.0,-372.0,581.0,279.0,253.0,25.0,241.0
19:40:28.134000,-358.0,-63.0,193.0,-412.0,706.0,278.0,246.0,24.0,240.0
19:40:28.138000,-361.0,-54.0,151.0,-393.0,777.0,275.0,246.0,24.0,240.0
19:40:28.143000,-361.0,-54.0,151.0,-340.0,790.0,263.0,256.0,24.0,246.0
19:40:28.148000,-348.0,-51.0,112.0,-298.0,758.0,256.0,256.0,24.0,246.0
19:40:28.152000,-337.0,-48.0,81.0,-282.0,718.0,252.0,256.0,24.0,246.0
19:40:28.157000,-315.0,-49.0,48.0,-279.0,691.0,244.0,252.0,18.0,258.0
19:40:28.162000,-295.0,-51.0,21.0,-283.0,666.0,234.0,252.0,18.0,258.0
19:40:28.166000,-276.0,-53.0,-6.0,-292.0,670.0,219.0,249.0,16.0,262.0
19:40:28.171000,-254.0,-56.0,-46.0,-301.0,697.0,208.0,249.0,16.0,262.0
19:40:28.175000,-234.0,-63.0,-96.0,-302.0,725.0,209.0,249.0,16.0,262.0
19:40:28.181000,-216.0,-77.0,-159.0,-287.0,750.0,215.0,250.0,19.0,246.0
19:40:28.185000,-195.0,-95.0,-224.0,-258.0,767.0,221.0,250.0,19.0,246.0
19:40:28.190000,-181.0,-114.0,-280.0,-227.0,774.0,228.0,252.0,21.0,252.0
19:40:28.195000,-167.0,-137.0,-324.0,-207.0,772.0,233.0,252.0,21.0,252.0
19:40:28.199000,-154.0,-159.0,-361.0,-205.0,776.0,229.0,252.0,21.0,252.0
19:40:28.204000,-137.0,-178.0,-400.0,-205.0,802.0,222.0,250.0,12.0,246.0
