hh:mm:ss.ms,gyroX[mdps],gyroY[mdps],gyroZ[mdps],accX[mg],accY[mg],accZ[mg],magX[mG],magY[mG],magZ[mG]
19:41:42.469000,-1254.0,-677.0,1365.0,-299.0,-461.0,-451.0,387.0,-616.0,426.0
19:41:42.474000,-1245.0,-683.0,1458.0,-297.0,-460.0,-428.0,387.0,-616.0,426.0
19:41:42.478000,-1239.0,-679.0,1538.0,-291.0,-507.0,-408.0,378.0,-610.0,421.0
19:41:42.483000,-1218.0,-683.0,1603.0,-254.0,-545.0,-383.0,378.0,-610.0,421.0
19:41:42.487000,-1201.0,-679.0,1675.0,-175.0,-668.0,-392.0,378.0,-610.0,421.0
19:41:42.502000,-1154.0,-710.0,1964.0,-88.0,-666.0,-316.0,366.0,-622.0,418.0
19:41:42.507000,-1154.0,-710.0,1964.0,-37.0,-674.0,-291.0,366.0,-622.0,418.0
19:41:42.511000,-1136.0,-722.0,2042.0,9.0,-687.0,-268.0,366.0,-622.0,418.0
19:41:42.516000,-1133.0,-725.0,2116.0,34.0,-672.0,-251.0,361.0,-649.0,387.0
19:41:42.521000,-1136.0,-725.0,2188.0,53.0,-674.0,-221.0,361.0,-649.0,387.0
19:41:42.525000,-1136.0,-728.0,2255.0,70.0,-643.0,-199.0,340.0,-655.0,379.0
19:41:42.530000,-1149.0,-730.0,2315.0,114.0,-584.0,-175.0,340.0,-655.0,379.0
19:41:42.534000,-1167.0,-732.0,2393.0,139.0,-672.0,-144.0,340.0,-655.0,379.0
19:41:42.539000,-1194.0,-734.0,2496.0,136.0,-681.0,-133.0,333.0,-652.0,367.0
19:41:42.544000,-1208.0,-737.0,2590.0,161.0,-687.0,-110.0,333.0,-652.0,367.0
19:41:42.549000,-1218.0,-738.0,2673.0,176.0,-767.0,-89.0,325.0,-667.0,357.0
19:41:42.554000,-1232.0,-746.0,2746.0,213.0,-726.0,-74.0,325.0,-667.0,357.0
19:41:42.558000,-1246.0,-756.0,2816.0,213.0,-726.0,-74.0,315.0,-673.0,358.0
19:41:42.563000,-1250.0,-765.0,2885.0,316.0,-803.0,-30.0,315.0,-673.0,358.0
19:41:42.567000,-1262.0,-765.0,2943.0,316.0,-803.0,-30.0,315.0,-673.0,358.0
19:41:42.572000,-1275.0,-758.0,3007.0,353.0,-766.0,-10.0,298.0,-666.0,343.0
19:41:42.577000,-1270.0,-754.0,3024.0,377.0,-774.0,18.0,298.0,-666.0,343.0
19:41:42.582000,-1267.0,-749.0,3040.0,419.0,-780.0,37.0,276.0,-672.0,337.0
19:41:42.586000,-1259.0,-741.0,3090.0,481.0,-859.0,55.0,276.0,-672.0,337.0
19:41:42.591000,-1255.0,-735.0,3129.0,529.0,-888.0,70.0,276.0,-672.0,337.0
19:41:42.596000,-1241.0,-727.0,3113.0,555.0,-883.0,93.0,249.0,-678.0,339.0
19:41:42.601000,-1225.0,-721.0,3087.0,588.0,-872.0,108.0,249.0,-678.0,339.0
19:41:42.605000,-1221.0,-706.0,3088.0,644.0,-837.0,119.0,241.0,-685.0,318.0
19:41:42.610000,-1218.0,-688.0,3126.0,691.0,-791.0,131.0,241.0,-685.0,318.0
19:41:42.614000,-1218.0,-688.0,3126.0,707.0,-771.0,140.0,241.0,-685.0,318.0
19:41:42.619000,-1220.0,-668.0,3184.0,691.0,-756.0,140.0,225.0,-676.0,312.0
19:41:42.624000,-1215.0,-649.0,3240.0,685.0,-768.0,139.0,225.0,-676.0,312.0
19:41:42.629000,-1204.0,-638.0,3303.0,703.0,-851.0,137.0,217.0,-672.0,307.0
19:41:42.633000,-1188.0,-639.0,3384.0,731.0,-919.0,140.0,217.0,-672.0,307.0
19:41:42.638000,-1173.0,-641.0,3484.0,764.0,-903.0,166.0,217.0,-672.0,307.0
19:41:42.643000,-1155.0,-658.0,3560.0,807.0,-884.0,197.0,187.0,-681.0,306.0
19:41:42.648000,-1147.0,-665.0,3628.0,854.0,-870.0,212.0,187.0,-681.0,306.0
19:41:42.652000,-1155.0,-661.0,3703.0,876.0,-822.0,268.0,186.0,-669.0,292.0
19:41:42.657000,-1177.0,-683.0,3759.0,909.0,-769.0,326.0,186.0,-669.0,292.0
19:41:42.661000,-1204.0,-677.0,3808.0,943.0,-761.0,322.0,186.0,-669.0,292.0
19:41:42.666000,-1239.0,-660.0,3859.0,972.0,-761.0,289.0,160.0,-676.0,285.0
19:41:42.671000,-1260.0,-661.0,3908.0,997.0,-791.0,302.0,160.0,-676.0,285.0
19:41:42.675000,-1272.0,-681.0,3950.0,1007.0,-858.0,361.0,147.0,-661.0,276.0
19:41:42.680000,-1301.0,-693.0,3987.0,1007.0,-858.0,361.0,147.0,-661.0,276.0
19:41:42.684000,-1323.0,-687.0,3979.0,1027.0,-837.0,379.0,147.0,-661.0,276.0
19:41:42.690000,-1318.0,-699.0,3932.0,1065.0,-797.0,394.0,127.0,-660.0,274.0
19:41:42.695000,-1312.0,-725.0,3861.0,1154.0,-847.0,430.0,127.0,-660.0,274.0
19:41:42.699000,-1318.0,-720.0,3761.0,1221.0,-864.0,452.0,114.0,-645.0,280.0
19:41:42.704000,-1326.0,-697.0,3691.0,1229.0,-823.0,470.0,114.0,-645.0,280.0
19:41:42.708000,-1330.0,-689.0,3698.0,1226.0,-795.0,471.0,114.0,-645.0,280.0
19:41:42.713000,-1323.0,-683.0,3721.0,1224.0,-818.0,456.0,115.0,-634.0,276.0
19:41:42.717000,-1323.0,-683.0,3721.0,1202.0,-885.0,445.0,115.0,-634.0,276.0
19:41:42.722000,-1290.0,-672.0,3701.0,1144.0,-938.0,451.0,88.0,-628.0,270.0
19:41:42.727000,-1254.0,-662.0,3644.0,1102.0,-927.0,473.0,88.0,-628.0,270.0
19:41:42.732000,-1213.0,-648.0,3555.0,1113.0,-841.0,496.0,79.0,-622.0,268.0
19:41:42.737000,-1190.0,-622.0,3502.0,1154.0,-756.0,532.0,79.0,-622.0,268.0
19:41:42.741000,-1186.0,-594.0,3473.0,1205.0,-717.0,532.0,79.0,-622.0,268.0
19:41:42.746000,-1166.0,-569.0,3426.0,1204.0,-670.0,511.0,69.0,-606.0,274.0
19:41:42.751000,-1148.0,-539.0,3318.0,1175.0,-607.0,534.0,69.0,-606.0,274.0
19:41:42.756000,-1136.0,-516.0,3224.0,1217.0,-611.0,559.0,63.0,-600.0,265.0
19:41:42.760000,-1141.0,-486.0,3242.0,1237.0,-629.0,551.0,63.0,-600.0,265.0
19:41:42.764000,-1141.0,-447.0,3308.0,1200.0,-587.0,529.0,63.0,-600.0,265.0
19:41:42.770000,-1124.0,-420.0,3302.0,1228.0,-605.0,504.0,30.0,-595.0,270.0
19:41:42.774000,-1097.0,-394.0,3270.0,1269.0,-636.0,476.0,30.0,-595.0,270.0
19:41:42.779000,-1055.0,-364.0,3210.0,1269.0,-636.0,476.0,39.0,-579.0,259.0
19:41:42.784000,-1015.0,-343.0,3121.0,1274.0,-589.0,464.0,39.0,-579.0,259.0
19:41:42.788000,-967.0,-340.0,3019.0,1274.0,-589.0,464.0,39.0,-579.0,259.0
19:41:42.793000,-965.0,-328.0,2982.0,1360.0,-545.0,445.0,25.0,-579.0,264.0
19:41:42.798000,-956.0,-329.0,3022.0,1411.0,-502.0,463.0,25.0,-579.0,264.0
19:41:42.802000,-963.0,-335.0,3066.0,1441.0,-357.0,502.0,27.0,-556.0,271.0
19:41:42.807000,-966.0,-321.0,3061.0,1441.0,-357.0,502.0,27.0,-556.0,271.0
19:41:42.811000,-966.0,-312.0,3003.0,1418.0,-292.0,508.0,27.0,-556.0,271.0
19:41:42.817000,-968.0,-303.0,2898.0,1426.0,-195.0,534.0,15.0,-550.0,264.0
19:41:42.821000,-941.0,-293.0,2811.0,1472.0,-182.0,543.0,15.0,-550.0,264.0
19:41:42.826000,-937.0,-282.0,2809.0,1560.0,-225.0,533.0,6.0,-541.0,249.0
19:41:42.831000,-954.0,-263.0,2867.0,1618.0,-221.0,527.0,6.0,-541.0,249.0
19:41:42.835000,-954.0,-263.0,2867.0,1585.0,-157.0,546.0,6.0,-541.0,249.0
19:41:42.840000,-981.0,-254.0,2887.0,1546.0,-90.0,555.0,9.0,-523.0,250.0
19:41:42.845000,-1007.0,-252.0,2897.0,1519.0,-89.0,556.0,9.0,-523.0,250.0
19:41:42.849000,-1062.0,-247.0,2921.0,1503.0,-116.0,549.0,-1.0,-523.0,250.0
19:41:42.854000,-1090.0,-235.0,2941.0,1540.0,-144.0,524.0,-1.0,-523.0,250.0
19:41:42.858000,-1116.0,-217.0,2981.0,1608.0,-140.0,510.0,-1.0,-523.0,250.0
19:41:42.864000,-1143.0,-204.0,3039.0,1650.0,-85.0,494.0,-7.0,-511.0,253.0
19:41:42.868000,-1164.0,-189.0,3070.0,1669.0,-29.0,490.0,-7.0,-511.0,253.0
19:41:42.873000,-1183.0,-191.0,3045.0,1720.0,10.0,509.0,-10.0,-501.0,255.0
19:41:42.878000,-1200.0,-211.0,2992.0,1804.0,-39.0,520.0,-10.0,-501.0,255.0
19:41:42.882000,-1197.0,-224.0,2990.0,1874.0,-156.0,510.0,-10.0,-501.0,255.0
19:41:42.887000,-1179.0,-226.0,3034.0,1864.0,-224.0,503.0,-9.0,-483.0,252.0
19:41:42.891000,-1175.0,-233.0,3063.0,1785.0,-214.0,522.0,-9.0,-483.0,252.0
19:41:42.897000,-1157.0,-252.0,3054.0,1785.0,-214.0,522.0,-39.0,-474.0,253.0
19:41:42.901000,-1127.0,-251.0,3044.0,1716.0,-188.0,525.0,-39.0,-474.0,253.0
19:41:42.906000,-1105.0,-233.0,3065.0,1674.0,-165.0,508.0,-34.0,-462.0,243.0
19:41:42.911000,-1094.0,-216.0,3127.0,1642.0,-146.0,500.0,-34.0,-462.0,243.0
19:41:42.915000,-1079.0,-207.0,3217.0,1646.0,-137.0,499.0,-34.0,-462.0,243.0
19:41:42.920000,-1052.0,-199.0,3242.0,1648.0,-132.0,488.0,-22.0,-445.0,252.0
19:41:42.925000,-1044.0,-200.0,3203.0,1590.0,-137.0,483.0,-22.0,-445.0,252.0
19:41:42.929000,-1008.0,-210.0,3163.0,1538.0,-144.0,471.0,-31.0,-432.0,252.0
19:41:42.934000,-977.0,-210.0,3127.0,1525.0,-130.0,439.0,-31.0,-432.0,252.0
19:41:42.938000,-977.0,-210.0,3127.0,1555.0,-93.0,421.0,-31.0,-432.0,252.0
19:41:42.944000,-941.0,-212.0,3072.0,1615.0,-89.0,409.0,-30.0,-418.0,271.0
19:41:42.948000,-902.0,-214.0,3042.0,1670.0,-82.0,398.0,-30.0,-418.0,271.0
19:41:42.953000,-869.0,-226.0,3070.0,1682.0,-61.0,383.0,-39.0,-409.0,259.0
19:41:42.958000,-828.0,-251.0,3142.0,1629.0,-25.0,367.0,-39.0,-409.0,259.0
19:41:42.962000,-795.0,-272.0,3140.0,1553.0,4.0,351.0,-39.0,-409.0,259.0
19:41:42.967000,-756.0,-294.0,3085.0,1491.0,10.0,337.0,-34.0,-376.0,270.0
19:41:42.972000,-708.0,-317.0,3037.0,1480.0,36.0,333.0,-34.0,-376.0,270.0
19:41:42.976000,-686.0,-333.0,3028.0,1496.0,91.0,327.0,-33.0,-367.0,267.0
19:41:42.981000,-661.0,-344.0,3033.0,1485.0,148.0,315.0,-33.0,-367.0,267.0
19:41:42.985000,-639.0,-352.0,3027.0,1450.0,198.0,301.0,-33.0,-367.0,267.0
19:41:42.991000,-620.0,-354.0,3026.0,1383.0,227.0,292.0,-34.0,-355.0,274.0
19:41:42.995000,-608.0,-361.0,3014.0,1301.0,235.0,286.0,-34.0,-355.0,274.0
19:41:43.000000,-578.0,-374.0,2976.0,1301.0,235.0,286.0,-34.0,-348.0,267.0
19:41:43.005000,-541.0,-382.0,2956.0,1257.0,284.0,269.0,-34.0,-348.0,267.0
19:41:43.009000,-535.0,-384.0,2960.0,1223.0,377.0,261.0,-34.0,-348.0,267.0
19:41:43.014000,-555.0,-376.0,2938.0,1159.0,468.0,253.0,-31.0,-327.0,270.0
19:41:43.019000,-567.0,-371.0,2872.0,1080.0,505.0,240.0,-31.0,-327.0,270.0
19:41:43.023000,-572.0,-368.0,2795.0,1047.0,499.0,226.0,-22.0,-315.0,264.0
19:41:43.028000,-563.0,-362.0,2754.0,1067.0,470.0,201.0,-22.0,-315.0,264.0
19:41:43.032000,-556.0,-359.0,2730.0,1065.0,465.0,183.0,-22.0,-315.0,264.0
19:41:43.038000,-549.0,-354.0,2681.0,1021.0,508.0,172.0,-15.0,-294.0,273.0
19:41:43.042000,-537.0,-353.0,2625.0,996.0,544.0,155.0,-15.0,-294.0,273.0
19:41:43.047000,-520.0,-354.0,2580.0,1020.0,545.0,138.0,-15.0,-273.0,283.0
19:41:43.052000,-520.0,-354.0,2580.0,1051.0,534.0,121.0,-15.0,-273.0,283.0
19:41:43.056000,-508.0,-350.0,2564.0,1070.0,541.0,109.0,-15.0,-273.0,283.0
19:41:43.061000,-495.0,-347.0,2584.0,1067.0,553.0,101.0,7.0,-270.0,285.0
19:41:43.066000,-487.0,-347.0,2634.0,1032.0,566.0,90.0,7.0,-270.0,285.0
19:41:43.070000,-483.0,-353.0,2676.0,1002.0,584.0,82.0,9.0,-255.0,306.0
19:41:43.075000,-471.0,-359.0,2695.0,1023.0,589.0,69.0,9.0,-255.0,306.0
19:41:43.079000,-444.0,-368.0,2690.0,1071.0,561.0,50.0,9.0,-255.0,306.0
19:41:43.085000,-419.0,-375.0,2690.0,1101.0,551.0,42.0,12.0,-237.0,294.0
19:41:43.089000,-398.0,-378.0,2699.0,1095.0,582.0,34.0,12.0,-237.0,294.0
19:41:43.094000,-378.0,-370.0,2664.0,1068.0,613.0,27.0,15.0,-234.0,292.0
19:41:43.099000,-359.0,-366.0,2646.0,1027.0,648.0,29.0,15.0,-234.0,292.0
19:41:43.103000,-348.0,-366.0,2636.0,960.0,677.0,31.0,15.0,-234.0,292.0
19:41:43.108000,-347.0,-365.0,2615.0,897.0,699.0,32.0,31.0,-208.0,306.0
19:41:43.122000,-371.0,-357.0,2520.0,795.0,743.0,27.0,37.0,-204.0,321.0
19:41:43.127000,-382.0,-350.0,2485.0,776.0,781.0,25.0,54.0,-183.0,312.0
19:41:43.132000,-399.0,-338.0,2457.0,751.0,811.0,23.0,54.0,-183.0,312.0
19:41:43.136000,-419.0,-324.0,2439.0,736.0,844.0,23.0,54.0,-183.0,312.0
19:41:43.141000,-436.0,-307.0,2414.0,713.0,864.0,20.0,72.0,-183.0,312.0
19:41:43.146000,-457.0,-297.0,2379.0,681.0,873.0,19.0,72.0,-183.0,312.0
19:41:43.150000,-471.0,-286.0,2338.0,668.0,877.0,16.0,78.0,-166.0,312.0
19:41:43.155000,-485.0,-278.0,2310.0,665.0,863.0,14.0,78.0,-166.0,312.0
19:41:43.159000,-485.0,-278.0,2310.0,676.0,862.0,13.0,78.0,-166.0,312.0
19:41:43.164000,-492.0,-273.0,2280.0,672.0,854.0,14.0,87.0,-180.0,316.0
19:41:43.169000,-501.0,-268.0,2242.0,675.0,857.0,13.0,87.0,-180.0,316.0
19:41:43.174000,-500.0,-262.0,2214.0,659.0,878.0,16.0,81.0,-156.0,325.0
19:41:43.179000,-507.0,-258.0,2186.0,627.0,903.0,20.0,81.0,-156.0,325.0
19:41:43.183000,-511.0,-258.0,2160.0,603.0,915.0,20.0,81.0,-156.0,325.0
19:41:43.187000,-518.0,-258.0,2130.0,589.0,935.0,22.0,96.0,-151.0,330.0
19:41:43.193000,-525.0,-261.0,2102.0,567.0,926.0,17.0,96.0,-151.0,330.0
19:41:43.197000,-532.0,-263.0,2074.0,533.0,900.0,12.0,118.0,-142.0,337.0
19:41:43.202000,-532.0,-264.0,2051.0,497.0,895.0,10.0,118.0,-142.0,337.0
19:41:43.206000,-531.0,-262.0,2011.0,474.0,895.0,8.0,118.0,-142.0,337.0
19:41:43.211000,-528.0,-264.0,1971.0,475.0,885.0,5.0,132.0,-130.0,339.0
19:41:43.216000,-524.0,-261.0,1940.0,477.0,905.0,-1.0,132.0,-130.0,339.0
19:41:43.221000,-524.0,-259.0,1914.0,477.0,905.0,-1.0,142.0,-133.0,334.0
19:41:43.226000,-535.0,-253.0,1895.0,463.0,958.0,1.0,142.0,-133.0,334.0
19:41:43.230000,-548.0,-247.0,1878.0,425.0,984.0,0.0,142.0,-133.0,334.0
19:41:43.235000,-566.0,-242.0,1850.0,393.0,1029.0,-6.0,148.0,-130.0,337.0
19:41:43.240000,-578.0,-235.0,1811.0,362.0,1021.0,-10.0,148.0,-130.0,337.0
19:41:43.244000,-597.0,-234.0,1774.0,333.0,1006.0,-18.0,169.0,-129.0,345.0
19:41:43.249000,-609.0,-231.0,1730.0,289.0,979.0,-17.0,169.0,-129.0,345.0
19:41:43.253000,-602.0,-234.0,1695.0,255.0,893.0,-25.0,169.0,-129.0,345.0
19:41:43.258000,-594.0,-231.0,1660.0,260.0,866.0,-26.0,183.0,-121.0,363.0
19:41:43.263000,-578.0,-224.0,1631.0,252.0,803.0,-27.0,183.0,-121.0,363.0
19:41:43.268000,-576.0,-222.0,1620.0,249.0,847.0,-47.0,187.0,-124.0,357.0
19:41:43.273000,-576.0,-222.0,1620.0,239.0,897.0,-51.0,187.0,-124.0,357.0
19:41:43.277000,-564.0,-214.0,1611.0,199.0,906.0,-54.0,187.0,-124.0,357.0
19:41:43.282000,-569.0,-214.0,1595.0,178.0,1026.0,-54.0,192.0,-124.0,361.0
19:41:43.287000,-576.0,-210.0,1574.0,155.0,944.0,-48.0,192.0,-124.0,361.0
19:41:43.291000,-570.0,-207.0,1552.0,133.0,931.0,-63.0,202.0,-111.0,352.0
19:41:43.296000,-576.0,-206.0,1518.0,125.0,968.0,-76.0,202.0,-111.0,352.0
19:41:43.300000,-560.0,-198.0,1481.0,83.0,871.0,-78.0,202.0,-111.0,352.0
19:41:43.305000,-553.0,-196.0,1435.0,50.0,948.0,-88.0,216.0,-120.0,363.0
19:41:43.310000,-549.0,-197.0,1387.0,36.0,954.0,-96.0,216.0,-120.0,363.0
19:41:43.315000,-537.0,-190.0,1333.0,0.0,941.0,-102.0,228.0,-118.0,372.0
19:41:43.320000,-547.0,-186.0,1294.0,-26.0,1003.0,-116.0,228.0,-118.0,372.0
19:41:43.324000,-544.0,-174.0,1274.0,-69.0,966.0,-125.0,228.0,-118.0,372.0
19:41:43.329000,-554.0,-169.0,1238.0,-126.0,977.0,-119.0,235.0,-121.0,367.0
19:41:43.334000,-560.0,-170.0,1196.0,-126.0,977.0,-119.0,235.0,-121.0,367.0
19:41:43.338000,-550.0,-168.0,1148.0,-157.0,944.0,-132.0,229.0,-120.0,376.0
19:41:43.343000,-561.0,-171.0,1101.0,-191.0,938.0,-143.0,229.0,-120.0,376.0
19:41:43.350000,-553.0,-166.0,1073.0,-237.0,940.0,-148.0,247.0,-123.0,388.0
19:41:43.352000,-555.0,-169.0,1043.0,-237.0,940.0,-148.0,247.0,-123.0,388.0
19:41:43.357000,-551.0,-168.0,1026.0,-239.0,991.0,-157.0,247.0,-123.0,388.0
19:41:43.362000,-541.0,-167.0,1003.0,-229.0,961.0,-166.0,255.0,-118.0,397.0
19:41:43.367000,-552.0,-168.0,969.0,-248.0,996.0,-166.0,255.0,-118.0,397.0
19:41:43.371000,-546.0,-164.0,938.0,-260.0,1035.0,-167.0,264.0,-127.0,388.0
19:41:43.376000,-554.0,-168.0,913.0,-251.0,986.0,-171.0,264.0,-127.0,388.0
19:41:43.380000,-554.0,-168.0,913.0,-231.0,997.0,-173.0,264.0,-127.0,388.0
19:41:43.385000,-551.0,-168.0,883.0,-207.0,954.0,-176.0,261.0,-123.0,388.0
19:41:43.390000,-550.0,-173.0,848.0,-183.0,945.0,-179.0,261.0,-123.0,388.0
19:41:43.395000,-547.0,-170.0,803.0,-170.0,919.0,-187.0,262.0,-124.0,388.0
19:41:43.399000,-536.0,-171.0,763.0,-175.0,917.0,-195.0,262.0,-124.0,388.0
19:41:43.404000,-537.0,-169.0,741.0,-184.0,915.0,-200.0,262.0,-124.0,388.0
19:41:43.409000,-525.0,-166.0,740.0,-204.0,904.0,-206.0,276.0,-126.0,396.0
19:41:43.414000,-529.0,-169.0,744.0,-223.0,948.0,-211.0,276.0,-126.0,396.0
19:41:43.418000,-522.0,-165.0,738.0,-237.0,933.0,-213.0,268.0,-118.0,390.0
19:41:43.423000,-522.0,-168.0,724.0,-235.0,938.0,-215.0,268.0,-118.0,390.0
19:41:43.427000,-526.0,-165.0,723.0,-223.0,893.0,-220.0,268.0,-118.0,390.0
19:41:43.432000,-520.0,-163.0,725.0,-231.0,866.0,-218.0,280.0,-132.0,406.0
19:41:43.437000,-530.0,-163.0,721.0,-242.0,866.0,-222.0,280.0,-132.0,406.0
19:41:43.442000,-520.0,-159.0,709.0,-242.0,866.0,-222.0,301.0,-130.0,399.0
19:41:43.446000,-524.0,-162.0,695.0,-251.0,817.0,-225.0,301.0,-130.0,399.0
19:41:43.451000,-520.0,-155.0,681.0,-265.0,813.0,-224.0,301.0,-130.0,399.0
19:41:43.456000,-508.0,-156.0,666.0,-269.0,759.0,-226.0,297.0,-132.0,405.0
19:41:43.461000,-498.0,-153.0,647.0,-260.0,750.0,-233.0,297.0,-132.0,405.0
19:41:43.465000,-486.0,-147.0,637.0,-252.0,733.0,-236.0,294.0,-138.0,403.0
19:41:43.470000,-485.0,-142.0,636.0,-245.0,730.0,-238.0,294.0,-138.0,403.0
19:41:43.474000,-485.0,-142.0,636.0,-241.0,768.0,-246.0,294.0,-138.0,403.0
19:41:43.479000,-481.0,-123.0,627.0,-256.0,754.0,-247.0,295.0,-132.0,433.0
19:41:43.484000,-491.0,-107.0,606.0,-276.0,802.0,-252.0,295.0,-132.0,433.0
19:41:43.489000,-491.0,-107.0,606.0,-291.0,775.0,-252.0,295.0,-132.0,433.0
19:41:43.493000,-497.0,-91.0,576.0,-308.0,757.0,-257.0,295.0,-132.0,433.0
19:41:43.498000,-508.0,-74.0,545.0,-308.0,782.0,-267.0,295.0,-132.0,433.0
19:41:43.503000,-519.0,-54.0,522.0,-323.0,746.0,-265.0,303.0,-142.0,420.0
19:41:43.508000,-529.0,-38.0,483.0,-349.0,774.0,-270.0,303.0,-142.0,420.0
19:41:43.512000,-545.0,-18.0,442.0,-349.0,763.0,-278.0,315.0,-139.0,417.0
19:41:43.517000,-555.0,-2.0,410.0,-352.0,730.0,-282.0,315.0,-139.0,417.0
19:41:43.521000,-570.0,9.0,378.0,-350.0,729.0,-286.0,315.0,-139.0,417.0
19:41:43.526000,-576.0,17.0,345.0,-331.0,685.0,-289.0,316.0,-141.0,424.0
19:41:43.531000,-581.0,21.0,319.0,-300.0,673.0,-297.0,316.0,-141.0,424.0
19:41:43.536000,-580.0,26.0,305.0,-277.0,647.0,-302.0,316.0,-145.0,418.0
19:41:43.540000,-583.0,30.0,297.0,-276.0,656.0,-307.0,316.0,-145.0,418.0
19:41:43.545000,-590.0,31.0,285.0,-275.0,680.0,-311.0,316.0,-145.0,418.0
19:41:43.550000,-593.0,32.0,279.0,-277.0,654.0,-314.0,324.0,-153.0,439.0
19:41:43.555000,-595.0,30.0,266.0,-277.0,654.0,-314.0,324.0,-153.0,439.0
19:41:43.559000,-596.0,29.0,254.0,-280.0,667.0,-327.0,321.0,-147.0,427.0
19:41:43.564000,-590.0,28.0,245.0,-273.0,633.0,-335.0,321.0,-147.0,427.0
19:41:43.568000,-588.0,25.0,237.0,-265.0,593.0,-346.0,301.0,-157.0,456.0
19:41:43.573000,-581.0,22.0,232.0,-265.0,593.0,-346.0,301.0,-157.0,456.0
19:41:43.577000,-571.0,15.0,222.0,-255.0,551.0,-350.0,301.0,-157.0,456.0
19:41:43.583000,-572.0,6.0,206.0,-251.0,564.0,-354.0,327.0,-157.0,439.0
19:41:43.587000,-564.0,0.0,190.0,-245.0,563.0,-356.0,327.0,-157.0,439.0
19:41:43.592000,-561.0,-15.0,165.0,-248.0,543.0,-356.0,321.0,-154.0,441.0
19:41:43.597000,-548.0,-29.0,154.0,-224.0,545.0,-359.0,321.0,-154.0,441.0
19:41:43.601000,-548.0,-29.0,154.0,-184.0,488.0,-364.0,321.0,-154.0,441.0
19:41:43.606000,-533.0,-47.0,144.0,-148.0,499.0,-373.0,328.0,-156.0,441.0
19:41:43.611000,-515.0,-65.0,133.0,-117.0,477.0,-382.0,328.0,-156.0,441.0
19:41:43.616000,-487.0,-84.0,116.0,-136.0,468.0,-388.0,325.0,-168.0,451.0
19:41:43.620000,-469.0,-105.0,81.0,-166.0,512.0,-391.0,325.0,-168.0,451.0
19:41:43.624000,-441.0,-125.0,39.0,-172.0,489.0,-389.0,325.0,-168.0,451.0
19:41:43.630000,-417.0,-149.0,-2.0,-151.0,463.0,-393.0,322.0,-165.0,447.0
19:41:43.634000,-385.0,-172.0,-25.0,-132.0,415.0,-397.0,322.0,-165.0,447.0
19:41:43.639000,-355.0,-200.0,-46.0,-118.0,406.0,-393.0,324.0,-172.0,445.0
19:41:43.644000,-326.0,-228.0,-59.0,-99.0,396.0,-391.0,324.0,-172.0,445.0
19:41:43.648000,-290.0,-251.0,-70.0,-115.0,401.0,-391.0,324.0,-172.0,445.0
19:41:43.653000,-259.0,-271.0,-86.0,-153.0,437.0,-386.0,324.0,-175.0,447.0
19:41:43.658000,-233.0,-289.0,-93.0,-197.0,433.0,-375.0,324.0,-175.0,447.0
19:41:43.663000,-211.0,-304.0,-100.0,-197.0,433.0,-375.0,315.0,-177.0,462.0
19:41:43.667000,-188.0,-313.0,-103.0,-238.0,442.0,-371.0,315.0,-177.0,462.0
19:41:43.671000,-171.0,-318.0,-107.0,-284.0,443.0,-367.0,315.0,-177.0,462.0
19:41:43.677000,-156.0,-315.0,-107.0,-336.0,432.0,-360.0,316.0,-177.0,445.0
19:41:43.681000,-140.0,-308.0,-119.0,-389.0,419.0,-362.0,316.0,-177.0,445.0
19:41:43.686000,-142.0,-288.0,-145.0,-457.0,468.0,-372.0,327.0,-175.0,450.0
19:41:43.691000,-154.0,-262.0,-183.0,-544.0,524.0,-362.0,327.0,-175.0,450.0
19:41:43.695000,-154.0,-262.0,-183.0,-617.0,579.0,-351.0,327.0,-175.0,450.0
19:41:43.700000,-201.0,-200.0,-270.0,-660.0,642.0,-350.0,318.0,-177.0,448.0
19:41:43.705000,-231.0,-162.0,-324.0,-682.0,661.0,-347.0,318.0,-177.0,448.0
19:41:43.710000,-231.0,-162.0,-324.0,-688.0,678.0,-353.0,319.0,-171.0,466.0
19:41:43.714000,-258.0,-123.0,-375.0,-696.0,702.0,-354.0,319.0,-171.0,466.0
19:41:43.718000,-290.0,-80.0,-437.0,-702.0,743.0,-355.0,319.0,-171.0,466.0
19:41:43.724000,-320.0,-38.0,-516.0,-698.0,760.0,-358.0,327.0,-177.0,460.0
19:41:43.728000,-347.0,2.0,-608.0,-676.0,759.0,-363.0,327.0,-177.0,460.0
19:41:43.733000,-364.0,39.0,-703.0,-636.0,754.0,-367.0,318.0,-175.0,462.0
19:41:43.738000,-380.0,73.0,-798.0,-588.0,751.0,-377.0,318.0,-175.0,462.0
19:41:43.751000,-405.0,165.0,-1064.0,-496.0,806.0,-397.0,306.0,-172.0,459.0
19:41:43.757000,-407.0,189.0,-1136.0,-472.0,833.0,-402.0,282.0,-184.0,456.0
19:41:43.761000,-412.0,202.0,-1204.0,-435.0,835.0,-406.0,282.0,-184.0,456.0
19:41:43.766000,-418.0,213.0,-1260.0,-435.0,835.0,-406.0,309.0,-181.0,459.0
19:41:43.771000,-422.0,226.0,-1309.0,-388.0,840.0,-415.0,309.0,-181.0,459.0
19:41:43.775000,-428.0,238.0,-1345.0,-346.0,853.0,-421.0,309.0,-181.0,459.0
19:41:43.780000,-436.0,253.0,-1372.0,-308.0,870.0,-427.0,294.0,-175.0,463.0
19:41:43.785000,-447.0,272.0,-1400.0,-281.0,905.0,-435.0,294.0,-175.0,463.0
19:41:43.790000,-469.0,287.0,-1427.0,-274.0,955.0,-433.0,282.0,-184.0,468.0
19:41:43.794000,-491.0,301.0,-1444.0,-252.0,1005.0,-436.0,282.0,-184.0,468.0
19:41:43.798000,-515.0,315.0,-1454.0,-252.0,1005.0,-436.0,282.0,-184.0,468.0
19:41:43.804000,-543.0,327.0,-1456.0,-234.0,1023.0,-444.0,274.0,-181.0,468.0
19:41:43.808000,-571.0,338.0,-1460.0,-213.0,1044.0,-454.0,274.0,-181.0,468.0
19:41:43.813000,-602.0,345.0,-1460.0,-195.0,1064.0,-466.0,264.0,-180.0,469.0
19:41:43.818000,-602.0,345.0,-1460.0,-189.0,1060.0,-471.0,264.0,-180.0,469.0
19:41:43.822000,-632.0,353.0,-1454.0,-187.0,1069.0,-481.0,264.0,-180.0,469.0
19:41:43.827000,-653.0,359.0,-1452.0,-174.0,1066.0,-489.0,265.0,-198.0,469.0
19:41:43.832000,-675.0,360.0,-1458.0,-152.0,1058.0,-495.0,265.0,-198.0,469.0
19:41:43.837000,-694.0,359.0,-1460.0,-129.0,1080.0,-509.0,247.0,-196.0,468.0
19:41:43.841000,-713.0,360.0,-1451.0,-128.0,1098.0,-515.0,247.0,-196.0,468.0
19:41:43.845000,-739.0,355.0,-1445.0,-136.0,1108.0,-518.0,247.0,-196.0,468.0
19:41:43.851000,-754.0,348.0,-1451.0,-134.0,1091.0,-528.0,246.0,-195.0,468.0
19:41:43.855000,-766.0,338.0,-1473.0,-123.0,1048.0,-532.0,246.0,-195.0,468.0
19:41:43.860000,-772.0,326.0,-1495.0,-91.0,1009.0,-549.0,241.0,-208.0,471.0
19:41:43.865000,-767.0,319.0,-1507.0,-65.0,975.0,-568.0,241.0,-208.0,471.0
19:41:43.869000,-770.0,311.0,-1502.0,-68.0,973.0,-572.0,241.0,-208.0,471.0
19:41:43.874000,-772.0,302.0,-1493.0,-87.0,979.0,-579.0,234.0,-211.0,480.0
19:41:43.879000,-770.0,291.0,-1497.0,-107.0,983.0,-588.0,234.0,-211.0,480.0
19:41:43.884000,-772.0,277.0,-1516.0,-107.0,983.0,-588.0,207.0,-217.0,484.0
19:41:43.888000,-781.0,270.0,-1543.0,-120.0,991.0,-599.0,207.0,-217.0,484.0
19:41:43.892000,-793.0,267.0,-1567.0,-124.0,1001.0,-607.0,207.0,-217.0,484.0
19:41:43.898000,-810.0,266.0,-1571.0,-106.0,994.0,-604.0,208.0,-226.0,472.0
19:41:43.902000,-826.0,261.0,-1565.0,-67.0,953.0,-599.0,208.0,-226.0,472.0
19:41:43.907000,-838.0,254.0,-1572.0,-29.0,960.0,-607.0,208.0,-225.0,480.0
19:41:43.912000,-851.0,245.0,-1595.0,-1.0,974.0,-612.0,208.0,-225.0,480.0
19:41:43.916000,-851.0,245.0,-1595.0,13.0,975.0,-621.0,208.0,-225.0,480.0
19:41:43.921000,-869.0,232.0,-1655.0,18.0,999.0,-641.0,189.0,-240.0,483.0
19:41:43.925000,-869.0,232.0,-1655.0,-2.0,995.0,-651.0,189.0,-240.0,483.0
19:41:43.931000,-873.0,224.0,-1694.0,-35.0,1017.0,-669.0,201.0,-238.0,487.0
19:41:43.935000,-878.0,220.0,-1737.0,-68.0,1056.0,-690.0,201.0,-238.0,487.0
19:41:43.939000,-885.0,216.0,-1776.0,-124.0,1086.0,-699.0,201.0,-238.0,487.0
19:41:43.945000,-907.0,212.0,-1806.0,-186.0,1149.0,-712.0,181.0,-256.0,480.0
19:41:43.949000,-928.0,207.0,-1820.0,-243.0,1184.0,-726.0,181.0,-256.0,480.0
19:41:43.954000,-954.0,200.0,-1826.0,-293.0,1212.0,-737.0,172.0,-276.0,490.0
19:41:43.959000,-986.0,193.0,-1824.0,-333.0,1246.0,-746.0,172.0,-276.0,490.0
19:41:43.963000,-1019.0,184.0,-1815.0,-366.0,1245.0,-752.0,172.0,-276.0,490.0
19:41:43.968000,-1054.0,170.0,-1799.0,-385.0,1236.0,-755.0,168.0,-268.0,492.0
19:41:43.973000,-1082.0,154.0,-1773.0,-395.0,1204.0,-753.0,168.0,-268.0,492.0
19:41:43.978000,-1111.0,135.0,-1732.0,-395.0,1204.0,-753.0,163.0,-291.0,495.0
19:41:43.982000,-1142.0,112.0,-1680.0,-370.0,1146.0,-732.0,163.0,-291.0,495.0
19:41:43.986000,-1173.0,84.0,-1620.0,-332.0,1074.0,-713.0,163.0,-291.0,495.0
19:41:43.992000,-1199.0,54.0,-1555.0,-332.0,1074.0,-713.0,156.0,-298.0,493.0
19:41:43.996000,-1213.0,23.0,-1484.0,-258.0,995.0,-709.0,156.0,-298.0,493.0
19:41:44.001000,-1215.0,-4.0,-1417.0,-154.0,887.0,-705.0,153.0,-298.0,493.0
19:41:44.006000,-1213.0,-27.0,-1367.0,-53.0,801.0,-711.0,153.0,-298.0,493.0
19:41:44.010000,-1213.0,-46.0,-1333.0,14.0,789.0,-721.0,153.0,-298.0,493.0
19:41:44.015000,-1218.0,-64.0,-1314.0,34.0,819.0,-724.0,148.0,-309.0,504.0
19:41:44.020000,-1234.0,-84.0,-1299.0,12.0,883.0,-727.0,148.0,-309.0,504.0
19:41:44.025000,-1253.0,-112.0,-1281.0,-29.0,941.0,-724.0,145.0,-328.0,513.0
19:41:44.029000,-1277.0,-145.0,-1255.0,-73.0,966.0,-722.0,145.0,-328.0,513.0
19:41:44.033000,-1277.0,-145.0,-1255.0,-121.0,975.0,-721.0,145.0,-328.0,513.0
19:41:44.039000,-1305.0,-180.0,-1218.0,-171.0,986.0,-718.0,150.0,-336.0,508.0
19:41:44.043000,-1336.0,-216.0,-1166.0,-228.0,998.0,-716.0,150.0,-336.0,508.0
19:41:44.048000,-1368.0,-249.0,-1113.0,-301.0,981.0,-716.0,150.0,-348.0,499.0
19:41:44.053000,-1398.0,-280.0,-1071.0,-382.0,941.0,-723.0,150.0,-348.0,499.0
19:41:44.057000,-1425.0,-308.0,-1028.0,-461.0,932.0,-728.0,150.0,-348.0,499.0
19:41:44.062000,-1444.0,-339.0,-991.0,-525.0,892.0,-724.0,135.0,-372.0,523.0
19:41:44.067000,-1467.0,-375.0,-963.0,-559.0,814.0,-740.0,135.0,-372.0,523.0
19:41:44.072000,-1474.0,-417.0,-945.0,-569.0,804.0,-752.0,145.0,-363.0,517.0
19:41:44.076000,-1477.0,-463.0,-960.0,-593.0,809.0,-754.0,145.0,-363.0,517.0
19:41:44.080000,-1465.0,-508.0,-1015.0,-610.0,772.0,-781.0,145.0,-363.0,517.0
19:41:44.086000,-1447.0,-562.0,-1056.0,-563.0,755.0,-780.0,145.0,-382.0,504.0
19:41:44.090000,-1428.0,-634.0,-1037.0,-506.0,709.0,-771.0,145.0,-382.0,504.0
19:41:44.094000,-1416.0,-699.0,-998.0,-502.0,639.0,-805.0,157.0,-408.0,517.0
19:41:44.100000,-1409.0,-763.0,-974.0,-502.0,639.0,-805.0,157.0,-408.0,517.0
19:41:44.104000,-1398.0,-854.0,-969.0,-490.0,667.0,-814.0,157.0,-408.0,517.0
19:41:44.109000,-1364.0,-954.0,-993.0,-495.0,700.0,-800.0,165.0,-414.0,513.0
19:41:44.114000,-1315.0,-1037.0,-1036.0,-572.0,658.0,-847.0,165.0,-414.0,513.0
19:41:44.119000,-1277.0,-1134.0,-1045.0,-642.0,636.0,-892.0,166.0,-412.0,508.0
19:41:44.123000,-1232.0,-1258.0,-1061.0,-695.0,631.0,-894.0,166.0,-412.0,508.0
19:41:44.127000,-1201.0,-1378.0,-1098.0,-761.0,600.0,-902.0,166.0,-412.0,508.0
19:41:44.133000,-1197.0,-1474.0,-1159.0,-840.0,582.0,-948.0,174.0,-427.0,511.0
19:41:44.137000,-1169.0,-1568.0,-1208.0,-851.0,689.0,-997.0,174.0,-427.0,511.0
19:41:44.142000,-1171.0,-1631.0,-1262.0,-798.0,796.0,-998.0,172.0,-444.0,517.0
19:41:44.147000,-1171.0,-1631.0,-1262.0,-855.0,872.0,-1015.0,172.0,-444.0,517.0
19:41:44.151000,-1209.0,-1640.0,-1413.0,-910.0,1046.0,-1020.0,172.0,-444.0,517.0
19:41:44.156000,-1256.0,-1666.0,-1466.0,-773.0,1141.0,-951.0,187.0,-439.0,514.0
19:41:44.161000,-1351.0,-1715.0,-1340.0,-750.0,1173.0,-903.0,187.0,-439.0,514.0
19:41:44.166000,-1458.0,-1747.0,-1342.0,-933.0,1275.0,-920.0,211.0,-471.0,523.0
19:41:44.170000,-1533.0,-1764.0,-1418.0,-957.0,1239.0,-902.0,211.0,-471.0,523.0
19:41:44.178000,-1673.0,-1835.0,-1264.0,-956.0,960.0,-855.0,222.0,-471.0,525.0
19:41:44.180000,-1673.0,-1835.0,-1264.0,-956.0,960.0,-855.0,222.0,-471.0,525.0
19:41:44.184000,-1746.0,-1843.0,-1292.0,-928.0,841.0,-898.0,222.0,-471.0,525.0
19:41:44.189000,-1753.0,-1796.0,-1148.0,-897.0,699.0,-860.0,237.0,-490.0,520.0
19:41:44.194000,-1870.0,-1804.0,-965.0,-1044.0,711.0,-801.0,237.0,-490.0,520.0
19:41:44.198000,-1942.0,-1840.0,-1096.0,-1044.0,711.0,-801.0,246.0,-510.0,505.0
19:41:44.203000,-1864.0,-1775.0,-1045.0,-800.0,310.0,-940.0,246.0,-510.0,505.0
19:41:44.207000,-1827.0,-1654.0,-788.0,-800.0,310.0,-940.0,246.0,-510.0,505.0
19:41:44.213000,-1770.0,-1554.0,-827.0,-773.0,212.0,-967.0,264.0,-507.0,514.0
19:41:44.217000,-1777.0,-1488.0,-919.0,-462.0,291.0,-840.0,264.0,-507.0,514.0
19:41:44.222000,-1826.0,-1474.0,-912.0,-462.0,291.0,-840.0,273.0,-523.0,504.0
19:41:44.227000,-1740.0,-1512.0,-1023.0,-262.0,165.0,-841.0,273.0,-523.0,504.0
19:41:44.231000,-1731.0,-1515.0,-1086.0,-102.0,-17.0,-875.0,273.0,-523.0,504.0
19:41:44.236000,-1753.0,-1515.0,-982.0,190.0,-197.0,-855.0,277.0,-534.0,499.0
19:41:44.241000,-1712.0,-1479.0,-1028.0,321.0,-240.0,-881.0,277.0,-534.0,499.0
19:41:44.245000,-1745.0,-1481.0,-1192.0,227.0,-273.0,-873.0,301.0,-553.0,492.0
19:41:44.250000,-1810.0,-1484.0,-1164.0,220.0,-421.0,-868.0,301.0,-553.0,492.0
19:41:44.254000,-1810.0,-1484.0,-1164.0,281.0,-432.0,-951.0,301.0,-553.0,492.0
19:41:44.260000,-1813.0,-1467.0,-1172.0,335.0,-370.0,-967.0,315.0,-564.0,493.0
19:41:44.264000,-1821.0,-1462.0,-1183.0,335.0,-490.0,-987.0,315.0,-564.0,493.0
19:41:44.269000,-1858.0,-1433.0,-1095.0,175.0,-533.0,-1061.0,327.0,-573.0,475.0
19:41:44.274000,-1920.0,-1360.0,-1075.0,-40.0,-340.0,-1085.0,327.0,-573.0,475.0
19:41:44.278000,-1985.0,-1321.0,-1275.0,-80.0,-284.0,-1095.0,327.0,-573.0,475.0
19:41:44.283000,-1972.0,-1337.0,-1388.0,-20.0,-381.0,-1108.0,333.0,-582.0,469.0
19:41:44.288000,-2053.0,-1338.0,-1367.0,-63.0,-318.0,-1133.0,333.0,-582.0,469.0
19:41:44.292000,-2123.0,-1288.0,-1339.0,-188.0,-214.0,-1180.0,355.0,-580.0,460.0
19:41:44.297000,-2091.0,-1262.0,-1402.0,-283.0,-247.0,-1200.0,355.0,-580.0,460.0
19:41:44.301000,-2125.0,-1229.0,-1600.0,-265.0,-256.0,-1194.0,355.0,-580.0,460.0
19:41:44.307000,-2065.0,-1273.0,-1782.0,-111.0,-349.0,-1177.0,358.0,-598.0,451.0
19:41:44.311000,-2000.0,-1332.0,-1669.0,-4.0,-603.0,-1189.0,358.0,-598.0,451.0
19:41:44.316000,-1978.0,-1358.0,-1403.0,-4.0,-603.0,-1189.0,373.0,-597.0,439.0
19:41:44.321000,-1958.0,-1346.0,-1299.0,-37.0,-626.0,-1216.0,373.0,-597.0,439.0
19:41:44.325000,-1947.0,-1357.0,-1528.0,-126.0,-457.0,-1188.0,373.0,-597.0,439.0
19:41:44.330000,-1893.0,-1381.0,-1672.0,-133.0,-420.0,-1160.0,400.0,-603.0,424.0
19:41:44.344000,-1747.0,-1417.0,-1300.0,-35.0,-752.0,-1121.0,391.0,-618.0,421.0
19:41:44.349000,-1657.0,-1409.0,-1460.0,-120.0,-576.0,-1122.0,420.0,-615.0,405.0
19:41:44.354000,-1560.0,-1425.0,-1498.0,-205.0,-563.0,-1126.0,420.0,-615.0,405.0
19:41:44.358000,-1560.0,-1425.0,-1498.0,-155.0,-648.0,-1076.0,420.0,-615.0,405.0
19:41:44.363000,-1538.0,-1422.0,-1359.0,-111.0,-683.0,-1024.0,423.0,-625.0,388.0
19:41:44.368000,-1556.0,-1418.0,-1194.0,-149.0,-675.0,-980.0,423.0,-625.0,388.0
19:41:44.372000,-1557.0,-1437.0,-1142.0,-246.0,-622.0,-956.0,439.0,-616.0,378.0
19:41:44.377000,-1542.0,-1430.0,-1229.0,-245.0,-663.0,-920.0,439.0,-616.0,378.0
19:41:44.381000,-1521.0,-1479.0,-1160.0,-186.0,-677.0,-873.0,439.0,-616.0,378.0
19:41:44.386000,-1530.0,-1484.0,-1105.0,-284.0,-451.0,-851.0,444.0,-621.0,382.0
19:41:44.391000,-1552.0,-1441.0,-1272.0,-396.0,-291.0,-820.0,444.0,-621.0,382.0
19:41:44.396000,-1528.0,-1413.0,-1378.0,-444.0,-462.0,-773.0,444.0,-621.0,382.0
19:41:44.401000,-1526.0,-1418.0,-1254.0,-467.0,-682.0,-716.0,444.0,-621.0,382.0
19:41:44.405000,-1519.0,-1442.0,-1214.0,-445.0,-624.0,-699.0,444.0,-621.0,382.0
19:41:44.410000,-1489.0,-1435.0,-1431.0,-331.0,-539.0,-707.0,486.0,-625.0,328.0
19:41:44.415000,-1385.0,-1439.0,-1565.0,-238.0,-648.0,-689.0,486.0,-625.0,328.0
19:41:44.419000,-1236.0,-1466.0,-1498.0,-238.0,-648.0,-689.0,481.0,-618.0,330.0
19:41:44.424000,-1143.0,-1462.0,-1430.0,-438.0,-734.0,-622.0,481.0,-618.0,330.0
19:41:44.428000,-1117.0,-1460.0,-1362.0,-438.0,-734.0,-622.0,481.0,-618.0,330.0
19:41:44.433000,-1104.0,-1459.0,-1379.0,-542.0,-617.0,-578.0,490.0,-621.0,316.0
19:41:44.438000,-1091.0,-1464.0,-1551.0,-644.0,-508.0,-549.0,490.0,-621.0,316.0
19:41:44.443000,-1039.0,-1447.0,-1562.0,-635.0,-538.0,-537.0,502.0,-619.0,306.0
19:41:44.447000,-1001.0,-1424.0,-1426.0,-537.0,-611.0,-538.0,502.0,-619.0,306.0
19:41:44.452000,-983.0,-1410.0,-1297.0,-488.0,-552.0,-514.0,502.0,-619.0,306.0
19:41:44.457000,-978.0,-1376.0,-1310.0,-615.0,-491.0,-498.0,520.0,-601.0,298.0
19:41:44.462000,-947.0,-1348.0,-1327.0,-718.0,-453.0,-488.0,520.0,-601.0,298.0
19:41:44.466000,-947.0,-1317.0,-1316.0,-720.0,-454.0,-480.0,526.0,-591.0,286.0
19:41:44.471000,-949.0,-1292.0,-1306.0,-736.0,-494.0,-472.0,526.0,-591.0,286.0
19:41:44.475000,-949.0,-1292.0,-1306.0,-726.0,-503.0,-456.0,526.0,-591.0,286.0
19:41:44.480000,-924.0,-1293.0,-1308.0,-670.0,-489.0,-434.0,535.0,-595.0,271.0
19:41:44.485000,-919.0,-1279.0,-1197.0,-639.0,-464.0,-435.0,535.0,-595.0,271.0
19:41:44.490000,-907.0,-1243.0,-1130.0,-697.0,-424.0,-444.0,547.0,-585.0,255.0
19:41:44.494000,-877.0,-1224.0,-1147.0,-734.0,-485.0,-441.0,547.0,-585.0,255.0
19:41:44.499000,-861.0,-1189.0,-1094.0,-744.0,-567.0,-444.0,547.0,-585.0,255.0
19:41:44.504000,-839.0,-1163.0,-992.0,-805.0,-540.0,-456.0,547.0,-585.0,241.0
19:41:44.508000,-795.0,-1145.0,-1019.0,-836.0,-461.0,-468.0,547.0,-585.0,241.0
19:41:44.513000,-796.0,-1106.0,-1099.0,-776.0,-440.0,-463.0,555.0,-586.0,249.0
19:41:44.518000,-770.0,-1092.0,-1078.0,-706.0,-485.0,-476.0,555.0,-586.0,249.0
19:41:44.523000,-732.0,-1063.0,-975.0,-706.0,-485.0,-476.0,556.0,-573.0,228.0
19:41:44.527000,-725.0,-1025.0,-923.0,-782.0,-509.0,-485.0,556.0,-573.0,228.0
19:41:44.531000,-713.0,-1005.0,-985.0,-808.0,-491.0,-485.0,556.0,-573.0,228.0
19:41:44.537000,-686.0,-1003.0,-943.0,-808.0,-491.0,-485.0,565.0,-570.0,220.0
19:41:44.541000,-626.0,-989.0,-853.0,-764.0,-541.0,-500.0,565.0,-570.0,220.0
19:41:44.546000,-567.0,-971.0,-874.0,-769.0,-542.0,-522.0,567.0,-571.0,207.0
19:41:44.551000,-515.0,-968.0,-905.0,-743.0,-505.0,-527.0,567.0,-571.0,207.0
19:41:44.555000,-516.0,-942.0,-859.0,-743.0,-505.0,-527.0,567.0,-571.0,207.0
19:41:44.560000,-490.0,-932.0,-779.0,-726.0,-492.0,-531.0,571.0,-561.0,204.0
19:41:44.565000,-471.0,-900.0,-821.0,-790.0,-464.0,-552.0,571.0,-561.0,204.0
19:41:44.570000,-428.0,-900.0,-802.0,-832.0,-477.0,-563.0,573.0,-564.0,199.0
19:41:44.574000,-411.0,-882.0,-741.0,-785.0,-521.0,-564.0,573.0,-564.0,199.0
19:41:44.578000,-411.0,-882.0,-741.0,-780.0,-514.0,-568.0,573.0,-564.0,199.0
19:41:44.583000,-387.0,-870.0,-728.0,-840.0,-458.0,-569.0,576.0,-555.0,184.0
19:41:44.588000,-343.0,-875.0,-777.0,-839.0,-452.0,-569.0,576.0,-555.0,184.0
19:41:44.593000,-314.0,-877.0,-742.0,-803.0,-483.0,-570.0,588.0,-546.0,184.0
19:41:44.598000,-294.0,-875.0,-653.0,-833.0,-436.0,-573.0,588.0,-546.0,184.0
19:41:44.602000,-276.0,-865.0,-683.0,-861.0,-374.0,-568.0,588.0,-546.0,184.0
19:41:44.607000,-257.0,-871.0,-715.0,-808.0,-394.0,-556.0,582.0,-541.0,166.0
19:41:44.612000,-263.0,-857.0,-654.0,-777.0,-410.0,-538.0,582.0,-541.0,166.0
19:41:44.617000,-273.0,-854.0,-578.0,-825.0,-354.0,-523.0,589.0,-546.0,171.0
19:41:44.621000,-285.0,-845.0,-583.0,-857.0,-344.0,-520.0,589.0,-546.0,171.0
19:41:44.625000,-268.0,-848.0,-603.0,-812.0,-400.0,-516.0,589.0,-546.0,171.0
19:41:44.631000,-231.0,-866.0,-562.0,-745.0,-406.0,-506.0,579.0,-532.0,162.0
19:41:44.635000,-227.0,-864.0,-516.0,-729.0,-362.0,-494.0,579.0,-532.0,162.0
19:41:44.640000,-229.0,-856.0,-503.0,-737.0,-344.0,-480.0,577.0,-535.0,163.0
19:41:44.645000,-217.0,-856.0,-495.0,-737.0,-344.0,-480.0,577.0,-535.0,163.0
19:41:44.650000,-220.0,-856.0,-456.0,-735.0,-369.0,-463.0,591.0,-531.0,160.0
19:41:44.654000,-207.0,-851.0,-421.0,-730.0,-376.0,-449.0,591.0,-531.0,160.0
19:41:44.658000,-185.0,-849.0,-406.0,-746.0,-389.0,-441.0,591.0,-531.0,160.0
19:41:44.664000,-184.0,-830.0,-488.0,-794.0,-377.0,-429.0,586.0,-534.0,144.0
19:41:44.668000,-166.0,-824.0,-575.0,-833.0,-335.0,-410.0,586.0,-534.0,144.0
19:41:44.672000,-153.0,-819.0,-574.0,-817.0,-348.0,-388.0,597.0,-522.0,142.0
19:41:44.678000,-146.0,-814.0,-544.0,-782.0,-385.0,-366.0,597.0,-522.0,142.0
19:41:44.682000,-146.0,-814.0,-544.0,-796.0,-378.0,-351.0,597.0,-522.0,142.0
19:41:44.687000,-114.0,-805.0,-585.0,-823.0,-341.0,-340.0,594.0,-517.0,138.0
19:41:44.692000,-114.0,-805.0,-585.0,-814.0,-323.0,-322.0,594.0,-517.0,138.0
19:41:44.697000,-96.0,-806.0,-587.0,-788.0,-321.0,-308.0,603.0,-520.0,135.0
19:41:44.701000,-95.0,-799.0,-550.0,-788.0,-313.0,-297.0,603.0,-520.0,135.0
19:41:44.705000,-82.0,-797.0,-528.0,-821.0,-313.0,-281.0,603.0,-520.0,135.0
19:41:44.711000,-84.0,-790.0,-513.0,-858.0,-300.0,-259.0,595.0,-511.0,130.0
19:41:44.715000,-86.0,-791.0,-496.0,-894.0,-236.0,-242.0,595.0,-511.0,130.0
19:41:44.720000,-93.0,-791.0,-481.0,-929.0,-161.0,-232.0,598.0,-516.0,133.0
19:41:44.725000,-109.0,-781.0,-484.0,-953.0,-118.0,-227.0,598.0,-516.0,133.0
19:41:44.729000,-125.0,-771.0,-472.0,-962.0,-108.0,-214.0,598.0,-516.0,133.0
19:41:44.734000,-161.0,-759.0,-455.0,-970.0,-113.0,-197.0,588.0,-505.0,109.0
19:41:44.739000,-173.0,-751.0,-448.0,-988.0,-122.0,-189.0,588.0,-505.0,109.0
19:41:44.744000,-166.0,-749.0,-463.0,-988.0,-122.0,-189.0,594.0,-495.0,114.0
19:41:44.748000,-170.0,-742.0,-440.0,-930.0,-166.0,-152.0,594.0,-495.0,114.0
19:41:44.752000,-172.0,-739.0,-359.0,-930.0,-147.0,-140.0,594.0,-495.0,114.0
19:41:44.758000,-178.0,-725.0,-305.0,-919.0,-147.0,-140.0,592.0,-495.0,108.0
19:41:44.762000,-174.0,-713.0,-277.0,-947.0,-109.0,-123.0,592.0,-495.0,108.0
19:41:44.767000,-161.0,-698.0,-274.0,-947.0,-109.0,-123.0,603.0,-502.0,105.0
19:41:44.772000,-171.0,-675.0,-242.0,-958.0,-134.0,-110.0,603.0,-502.0,105.0
19:41:44.776000,-165.0,-663.0,-207.0,-963.0,-160.0,-97.0,603.0,-502.0,105.0
19:41:44.781000,-151.0,-649.0,-216.0,-981.0,-169.0,-93.0,591.0,-493.0,109.0
19:41:44.786000,-145.0,-634.0,-206.0,-988.0,-177.0,-88.0,591.0,-493.0,109.0
19:41:44.791000,-149.0,-616.0,-184.0,-977.0,-181.0,-80.0,583.0,-487.0,94.0
19:41:44.795000,-149.0,-599.0,-223.0,-979.0,-160.0,-74.0,583.0,-487.0,94.0
19:41:44.799000,-149.0,-599.0,-223.0,-979.0,-138.0,-71.0,583.0,-487.0,94.0
19:41:44.805000,-138.0,-585.0,-282.0,-944.0,-169.0,-74.0,595.0,-489.0,81.0
19:41:44.809000,-125.0,-564.0,-257.0,-935.0,-207.0,-79.0,595.0,-489.0,81.0
19:41:44.814000,-117.0,-541.0,-215.0,-986.0,-186.0,-78.0,591.0,-486.0,81.0
19:41:44.819000,-109.0,-524.0,-215.0,-1019.0,-156.0,-81.0,591.0,-486.0,81.0
19:41:44.823000,-112.0,-503.0,-198.0,-1012.0,-151.0,-86.0,591.0,-486.0,81.0
19:41:44.828000,-121.0,-486.0,-159.0,-1016.0,-128.0,-88.0,589.0,-490.0,78.0
19:41:44.833000,-123.0,-469.0,-177.0,-1036.0,-122.0,-95.0,589.0,-490.0,78.0
19:41:44.838000,-123.0,-448.0,-193.0,-1036.0,-171.0,-106.0,583.0,-498.0,81.0
19:41:44.842000,-122.0,-426.0,-141.0,-1038.0,-203.0,-114.0,583.0,-498.0,81.0
19:41:44.846000,-112.0,-409.0,-104.0,-1055.0,-191.0,-118.0,583.0,-498.0,81.0
19:41:44.852000,-114.0,-385.0,-112.0,-1047.0,-192.0,-122.0,577.0,-481.0,79.0
19:41:44.856000,-114.0,-361.0,-95.0,-1043.0,-192.0,-131.0,577.0,-481.0,79.0
19:41:44.861000,-107.0,-339.0,-77.0,-1043.0,-192.0,-131.0,588.0,-487.0,76.0
19:41:44.866000,-107.0,-313.0,-66.0,-1071.0,-171.0,-139.0,588.0,-487.0,76.0
19:41:44.870000,-121.0,-282.0,-61.0,-1094.0,-153.0,-143.0,588.0,-487.0,76.0
19:41:44.875000,-129.0,-259.0,-62.0,-1110.0,-145.0,-144.0,589.0,-484.0,67.0
19:41:44.880000,-123.0,-243.0,-66.0,-1117.0,-150.0,-145.0,589.0,-484.0,67.0
19:41:44.885000,-128.0,-224.0,-52.0,-1094.0,-167.0,-150.0,580.0,-492.0,63.0
19:41:44.889000,-137.0,-204.0,-51.0,-1066.0,-171.0,-150.0,580.0,-492.0,63.0
19:41:44.893000,-143.0,-195.0,-63.0,-1054.0,-147.0,-148.0,580.0,-492.0,63.0
19:41:44.899000,-157.0,-185.0,-62.0,-1043.0,-126.0,-149.0,573.0,-487.0,78.0
19:41:44.903000,-172.0,-182.0,-47.0,-1028.0,-124.0,-149.0,573.0,-487.0,78.0
19:41:44.908000,-185.0,-180.0,-42.0,-1021.0,-119.0,-149.0,588.0,-489.0,57.0
19:41:44.913000,-185.0,-180.0,-42.0,-1032.0,-104.0,-149.0,588.0,-489.0,57.0
19:41:44.917000,-213.0,-180.0,-51.0,-1042.0,-86.0,-150.0,588.0,-489.0,57.0
19:41:44.922000,-245.0,-182.0,-45.0,-1043.0,-79.0,-148.0,591.0,-495.0,61.0
19:41:44.927000,-270.0,-194.0,-37.0,-1039.0,-81.0,-144.0,591.0,-495.0,61.0
19:41:44.969000,-480.0,-301.0,-43.0,-952.0,-65.0,-115.0,577.0,-478.0,69.0
19:41:44.974000,-508.0,-319.0,25.0,-952.0,-65.0,-115.0,577.0,-478.0,69.0
19:41:44.979000,-536.0,-332.0,32.0,-972.0,-59.0,-108.0,577.0,-478.0,69.0
19:41:44.983000,-559.0,-345.0,-4.0,-1005.0,-44.0,-104.0,585.0,-466.0,49.0
19:41:44.988000,-590.0,-357.0,-1.0,-989.0,-52.0,-98.0,585.0,-466.0,49.0
19:41:44.992000,-613.0,-382.0,32.0,-941.0,-73.0,-84.0,585.0,-466.0,49.0
19:41:44.997000,-623.0,-410.0,47.0,-917.0,-86.0,-70.0,571.0,-480.0,43.0
19:41:45.002000,-639.0,-433.0,43.0,-934.0,-102.0,-66.0,571.0,-480.0,43.0
19:41:45.007000,-650.0,-462.0,18.0,-961.0,-103.0,-59.0,588.0,-478.0,40.0
19:41:45.011000,-676.0,-490.0,0.0,-966.0,-81.0,-45.0,588.0,-478.0,40.0
19:41:45.016000,-676.0,-490.0,0.0,-943.0,-53.0,-23.0,580.0,-483.0,34.0
19:41:45.021000,-721.0,-513.0,-2.0,-892.0,-27.0,-2.0,580.0,-483.0,34.0
19:41:45.025000,-763.0,-537.0,41.0,-868.0,0.0,12.0,580.0,-483.0,34.0
19:41:45.030000,-812.0,-548.0,76.0,-923.0,62.0,31.0,586.0,-474.0,34.0
19:41:45.035000,-891.0,-543.0,42.0,-991.0,119.0,54.0,586.0,-474.0,34.0
19:41:45.040000,-961.0,-546.0,-15.0,-985.0,93.0,69.0,586.0,-474.0,30.0
19:41:45.044000,-1021.0,-553.0,2.0,-949.0,35.0,77.0,586.0,-474.0,30.0
19:41:45.048000,-1071.0,-557.0,35.0,-964.0,20.0,86.0,586.0,-474.0,30.0
19:41:45.054000,-1110.0,-564.0,23.0,-990.0,14.0,100.0,580.0,-456.0,16.0
19:41:45.058000,-1148.0,-588.0,21.0,-979.0,11.0,116.0,580.0,-456.0,16.0
19:41:45.063000,-1198.0,-604.0,9.0,-949.0,37.0,133.0,576.0,-457.0,25.0
19:41:45.068000,-1237.0,-627.0,-20.0,-920.0,58.0,156.0,576.0,-457.0,25.0
19:41:45.072000,-1281.0,-654.0,-37.0,-902.0,66.0,179.0,576.0,-457.0,25.0
19:41:45.077000,-1345.0,-676.0,-62.0,-895.0,72.0,202.0,582.0,-454.0,3.0
19:41:45.082000,-1390.0,-710.0,-67.0,-895.0,72.0,202.0,582.0,-454.0,3.0
19:41:45.087000,-1442.0,-749.0,-48.0,-892.0,54.0,223.0,573.0,-445.0,6.0
19:41:45.091000,-1502.0,-783.0,-49.0,-898.0,42.0,241.0,573.0,-445.0,6.0
19:41:45.095000,-1551.0,-834.0,-81.0,-911.0,66.0,263.0,573.0,-445.0,6.0
19:41:45.101000,-1591.0,-889.0,-127.0,-909.0,101.0,284.0,567.0,-448.0,-1.0
19:41:45.105000,-1643.0,-928.0,-157.0,-893.0,98.0,300.0,567.0,-448.0,-1.0
19:41:45.110000,-1677.0,-988.0,-211.0,-895.0,80.0,323.0,573.0,-441.0,-6.0
19:41:45.115000,-1733.0,-1038.0,-274.0,-891.0,90.0,345.0,573.0,-441.0,-6.0
19:41:45.119000,-1733.0,-1038.0,-274.0,-849.0,96.0,367.0,573.0,-441.0,-6.0
19:41:45.124000,-1870.0,-1136.0,-296.0,-818.0,107.0,391.0,549.0,-429.0,-4.0
19:41:45.129000,-1870.0,-1136.0,-296.0,-823.0,142.0,415.0,549.0,-429.0,-4.0
19:41:45.134000,-1969.0,-1178.0,-319.0,-838.0,182.0,447.0,550.0,-418.0,-18.0
19:41:45.138000,-2079.0,-1222.0,-331.0,-849.0,208.0,474.0,550.0,-418.0,-18.0
19:41:45.142000,-2186.0,-1264.0,-341.0,-863.0,242.0,498.0,550.0,-418.0,-18.0
19:41:45.148000,-2287.0,-1305.0,-399.0,-861.0,254.0,524.0,550.0,-399.0,-28.0
19:41:45.152000,-2402.0,-1337.0,-412.0,-848.0,242.0,557.0,550.0,-399.0,-28.0
19:41:45.157000,-2534.0,-1364.0,-424.0,-851.0,262.0,594.0,537.0,-390.0,-25.0
19:41:45.162000,-2658.0,-1396.0,-457.0,-882.0,287.0,618.0,537.0,-390.0,-25.0
19:41:45.166000,-2778.0,-1418.0,-543.0,-923.0,308.0,644.0,537.0,-390.0,-25.0
19:41:45.171000,-2888.0,-1454.0,-629.0,-909.0,292.0,681.0,541.0,-378.0,-45.0
19:41:45.176000,-3000.0,-1494.0,-640.0,-888.0,279.0,710.0,541.0,-378.0,-45.0
19:41:45.181000,-3101.0,-1530.0,-662.0,-888.0,279.0,710.0,540.0,-360.0,-52.0
19:41:45.185000,-3198.0,-1561.0,-717.0,-920.0,343.0,767.0,540.0,-360.0,-52.0
19:41:45.189000,-3288.0,-1584.0,-781.0,-946.0,327.0,804.0,540.0,-360.0,-52.0
19:41:45.195000,-3376.0,-1619.0,-809.0,-967.0,302.0,842.0,514.0,-330.0,-52.0
19:41:45.199000,-3452.0,-1662.0,-846.0,-967.0,302.0,842.0,514.0,-330.0,-52.0
19:41:45.204000,-3514.0,-1695.0,-837.0,-963.0,291.0,862.0,514.0,-307.0,-57.0
19:41:45.209000,-3585.0,-1722.0,-833.0,-935.0,280.0,885.0,514.0,-307.0,-57.0
19:41:45.213000,-3667.0,-1747.0,-874.0,-927.0,331.0,918.0,514.0,-307.0,-57.0
19:41:45.218000,-3743.0,-1775.0,-872.0,-908.0,383.0,952.0,502.0,-282.0,-60.0
19:41:45.223000,-3803.0,-1806.0,-849.0,-870.0,372.0,987.0,502.0,-282.0,-60.0
19:41:45.228000,-3847.0,-1829.0,-790.0,-851.0,334.0,1008.0,501.0,-255.0,-66.0
19:41:45.232000,-3888.0,-1859.0,-795.0,-885.0,321.0,1028.0,501.0,-255.0,-66.0
19:41:45.236000,-3888.0,-1859.0,-795.0,-922.0,343.0,1052.0,501.0,-255.0,-66.0
19:41:45.242000,-3918.0,-1888.0,-844.0,-886.0,310.0,1064.0,475.0,-238.0,-51.0
19:41:45.246000,-3924.0,-1921.0,-792.0,-832.0,230.0,1073.0,475.0,-238.0,-51.0
19:41:45.251000,-3933.0,-1946.0,-678.0,-821.0,242.0,1084.0,472.0,-213.0,-49.0
19:41:45.256000,-3943.0,-1965.0,-676.0,-851.0,313.0,1088.0,472.0,-213.0,-49.0
19:41:45.260000,-3931.0,-1978.0,-738.0,-860.0,330.0,1091.0,472.0,-213.0,-49.0
19:41:45.265000,-3913.0,-1997.0,-779.0,-844.0,334.0,1100.0,463.0,-192.0,-43.0
19:41:45.270000,-3877.0,-2023.0,-812.0,-835.0,344.0,1100.0,463.0,-192.0,-43.0
19:41:45.275000,-3843.0,-2028.0,-816.0,-826.0,309.0,1095.0,429.0,-153.0,-25.0
19:41:45.279000,-3810.0,-2024.0,-780.0,-827.0,285.0,1098.0,429.0,-153.0,-25.0
19:41:45.283000,-3756.0,-2032.0,-763.0,-801.0,270.0,1096.0,429.0,-153.0,-25.0
19:41:45.289000,-3707.0,-2034.0,-704.0,-749.0,224.0,1088.0,427.0,-130.0,-9.0
19:41:45.293000,-3675.0,-2027.0,-611.0,-743.0,241.0,1067.0,427.0,-130.0,-9.0
19:41:45.298000,-3643.0,-2003.0,-578.0,-743.0,241.0,1067.0,400.0,-121.0,-6.0
19:41:45.303000,-3595.0,-1981.0,-605.0,-777.0,305.0,1044.0,400.0,-121.0,-6.0
19:41:45.307000,-3535.0,-1950.0,-625.0,-800.0,330.0,1017.0,400.0,-121.0,-6.0
19:41:45.312000,-3488.0,-1910.0,-590.0,-788.0,315.0,983.0,396.0,-105.0,7.0
19:41:45.317000,-3446.0,-1881.0,-508.0,-762.0,293.0,960.0,396.0,-105.0,7.0
19:41:45.321000,-3402.0,-1851.0,-429.0,-796.0,360.0,889.0,397.0,-88.0,25.0
19:41:45.326000,-3368.0,-1809.0,-410.0,-796.0,360.0,889.0,397.0,-88.0,25.0
19:41:45.331000,-3329.0,-1780.0,-464.0,-838.0,449.0,860.0,370.0,-76.0,42.0
19:41:45.336000,-3280.0,-1758.0,-501.0,-833.0,509.0,838.0,370.0,-76.0,42.0
19:41:45.340000,-3280.0,-1758.0,-501.0,-769.0,495.0,817.0,370.0,-76.0,42.0
19:41:45.345000,-3188.0,-1724.0,-410.0,-712.0,449.0,800.0,373.0,-60.0,43.0
19:41:45.350000,-3188.0,-1724.0,-410.0,-696.0,413.0,771.0,373.0,-60.0,43.0
19:41:45.355000,-3120.0,-1704.0,-389.0,-700.0,395.0,735.0,366.0,-37.0,87.0
19:41:45.359000,-3045.0,-1677.0,-411.0,-707.0,401.0,706.0,366.0,-37.0,87.0
19:41:45.363000,-2963.0,-1660.0,-453.0,-712.0,436.0,676.0,366.0,-37.0,87.0
19:41:45.369000,-2880.0,-1633.0,-495.0,-719.0,472.0,643.0,354.0,-28.0,118.0
19:41:45.373000,-2801.0,-1601.0,-524.0,-722.0,477.0,618.0,354.0,-28.0,118.0
19:41:45.378000,-2725.0,-1573.0,-523.0,-717.0,455.0,596.0,339.0,-24.0,106.0
19:41:45.383000,-2646.0,-1547.0,-499.0,-722.0,428.0,575.0,339.0,-24.0,106.0
19:41:45.387000,-2576.0,-1519.0,-482.0,-721.0,402.0,557.0,339.0,-24.0,106.0
19:41:45.392000,-2512.0,-1482.0,-471.0,-703.0,410.0,526.0,339.0,-18.0,124.0
19:41:45.397000,-2437.0,-1439.0,-472.0,-698.0,458.0,503.0,339.0,-18.0,124.0
19:41:45.402000,-2369.0,-1411.0,-485.0,-698.0,458.0,503.0,348.0,-6.0,145.0
19:41:45.406000,-2316.0,-1376.0,-489.0,-703.0,532.0,478.0,348.0,-6.0,145.0
19:41:45.410000,-2266.0,-1339.0,-476.0,-703.0,532.0,478.0,348.0,-6.0,145.0
19:41:45.416000,-2205.0,-1297.0,-466.0,-704.0,533.0,455.0,336.0,-13.0,162.0
19:41:45.420000,-2128.0,-1248.0,-471.0,-711.0,533.0,425.0,336.0,-13.0,162.0
19:41:45.425000,-2055.0,-1200.0,-453.0,-711.0,529.0,405.0,319.0,-7.0,181.0
19:41:45.430000,-1987.0,-1153.0,-411.0,-686.0,522.0,388.0,319.0,-7.0,181.0
19:41:45.434000,-1925.0,-1109.0,-373.0,-669.0,515.0,373.0,319.0,-7.0,181.0
19:41:45.439000,-1860.0,-1058.0,-362.0,-684.0,513.0,354.0,313.0,1.0,192.0
19:41:45.444000,-1799.0,-1005.0,-373.0,-713.0,524.0,325.0,313.0,1.0,192.0
19:41:45.448000,-1799.0,-1005.0,-373.0,-730.0,542.0,300.0,319.0,10.0,201.0
19:41:45.453000,-1652.0,-896.0,-383.0,-724.0,557.0,275.0,319.0,10.0,201.0
19:41:45.457000,-1652.0,-896.0,-383.0,-706.0,575.0,260.0,319.0,10.0,201.0
19:41:45.463000,-1588.0,-846.0,-378.0,-690.0,594.0,256.0,306.0,10.0,219.0
19:41:45.467000,-1544.0,-800.0,-360.0,-677.0,612.0,247.0,306.0,10.0,219.0
19:41:45.472000,-1514.0,-749.0,-361.0,-667.0,640.0,226.0,313.0,4.0,223.0
19:41:45.477000,-1487.0,-698.0,-381.0,-660.0,661.0,204.0,313.0,4.0,223.0
19:41:45.481000,-1457.0,-648.0,-392.0,-656.0,664.0,185.0,313.0,4.0,223.0
19:41:45.486000,-1426.0,-606.0,-388.0,-667.0,677.0,164.0,322.0,12.0,229.0
19:41:45.491000,-1389.0,-567.0,-417.0,-682.0,710.0,142.0,322.0,12.0,229.0
19:41:45.495000,-1353.0,-532.0,-480.0,-662.0,729.0,124.0,295.0,13.0,262.0
19:41:45.500000,-1306.0,-507.0,-569.0,-609.0,719.0,109.0,295.0,13.0,262.0
19:41:45.504000,-1248.0,-490.0,-640.0,-542.0,663.0,101.0,295.0,13.0,262.0
19:41:45.509000,-1199.0,-476.0,-631.0,-492.0,595.0,96.0,295.0,7.0,265.0
19:41:45.514000,-1152.0,-471.0,-592.0,-487.0,594.0,88.0,295.0,7.0,265.0
19:41:45.519000,-1100.0,-464.0,-630.0,-487.0,594.0,88.0,289.0,7.0,265.0
19:41:45.524000,-1041.0,-455.0,-709.0,-498.0,642.0,72.0,289.0,7.0,265.0
19:41:45.528000,-984.0,-453.0,-732.0,-470.0,670.0,65.0,289.0,7.0,265.0
19:41:45.533000,-937.0,-448.0,-707.0,-430.0,662.0,65.0,295.0,9.0,271.0
19:41:45.538000,-892.0,-448.0,-697.0,-413.0,668.0,63.0,295.0,9.0,271.0
19:41:45.542000,-856.0,-445.0,-715.0,-406.0,706.0,62.0,280.0,7.0,279.0
19:41:45.547000,-837.0,-443.0,-730.0,-391.0,749.0,66.0,280.0,7.0,279.0
19:41:45.551000,-821.0,-439.0,-728.0,-377.0,777.0,66.0,280.0,7.0,279.0
19:41:45.557000,-813.0,-438.0,-721.0,-371.0,784.0,65.0,276.0,10.0,286.0
19:41:45.561000,-799.0,-442.0,-709.0,-360.0,773.0,64.0,276.0,10.0,286.0
19:41:45.566000,-799.0,-442.0,-709.0,-346.0,759.0,56.0,280.0,3.0,288.0
19:41:45.571000,-772.0,-448.0,-707.0,-336.0,755.0,49.0,280.0,3.0,288.0
19:41:45.575000,-747.0,-451.0,-723.0,-320.0,741.0,48.0,280.0,3.0,288.0
19:41:45.580000,-726.0,-453.0,-711.0,-309.0,703.0,42.0,268.0,10.0,297.0
19:41:45.585000,-695.0,-452.0,-664.0,-329.0,681.0,29.0,268.0,10.0,297.0
19:41:45.589000,-651.0,-454.0,-667.0,-353.0,701.0,16.0,258.0,9.0,304.0
19:41:45.594000,-606.0,-446.0,-721.0,-346.0,723.0,8.0,258.0,9.0,304.0
19:41:45.598000,-578.0,-429.0,-723.0,-340.0,736.0,10.0,258.0,9.0,304.0
19:41:45.604000,-560.0,-412.0,-665.0,-365.0,766.0,15.0,267.0,9.0,309.0
19:41:45.608000,-548.0,-393.0,-627.0,-394.0,799.0,24.0,267.0,9.0,309.0
19:41:45.613000,-543.0,-374.0,-610.0,-389.0,806.0,35.0,268.0,1.0,310.0
19:41:45.618000,-541.0,-358.0,-580.0,-362.0,795.0,47.0,268.0,1.0,310.0
19:41:45.622000,-545.0,-340.0,-540.0,-340.0,795.0,52.0,268.0,1.0,310.0
