hh:mm:ss.ms,gyroX[mdps],gyroY[mdps],gyroZ[mdps],accX[mg],accY[mg],accZ[mg],magX[mG],magY[mG],magZ[mG]
19:40:12.197000,-254.0,-361.0,1947.0,-419.0,-499.0,44.0,486.0,-631.0,310.0
19:40:12.202000,-260.0,-361.0,1971.0,-419.0,-493.0,45.0,486.0,-631.0,310.0
19:40:12.206000,-261.0,-361.0,1985.0,-401.0,-492.0,48.0,486.0,-631.0,310.0
19:40:12.211000,-259.0,-361.0,2002.0,-367.0,-502.0,57.0,486.0,-645.0,309.0
19:40:12.216000,-261.0,-363.0,2025.0,-331.0,-516.0,65.0,486.0,-645.0,309.0
19:40:12.220000,-263.0,-367.0,2060.0,-294.0,-521.0,68.0,472.0,-649.0,310.0
19:40:12.225000,-267.0,-371.0,2109.0,-264.0,-519.0,71.0,472.0,-649.0,310.0
19:40:12.229000,-285.0,-369.0,2171.0,-253.0,-511.0,84.0,472.0,-649.0,310.0
19:40:12.235000,-307.0,-371.0,2232.0,-261.0,-506.0,102.0,460.0,-663.0,300.0
19:40:12.239000,-329.0,-366.0,2284.0,-261.0,-506.0,102.0,460.0,-663.0,300.0
19:40:12.244000,-345.0,-363.0,2335.0,-292.0,-524.0,96.0,442.0,-687.0,300.0
19:40:12.249000,-365.0,-350.0,2393.0,-285.0,-545.0,85.0,442.0,-687.0,300.0
19:40:12.253000,-373.0,-343.0,2428.0,-285.0,-617.0,76.0,442.0,-687.0,300.0
19:40:12.258000,-380.0,-331.0,2443.0,-279.0,-624.0,61.0,429.0,-685.0,289.0
19:40:12.263000,-382.0,-329.0,2444.0,-222.0,-592.0,63.0,429.0,-685.0,289.0
19:40:12.267000,-391.0,-326.0,2439.0,-162.0,-571.0,66.0,406.0,-699.0,292.0
19:40:12.272000,-401.0,-327.0,2420.0,-88.0,-510.0,70.0,406.0,-699.0,292.0
19:40:12.276000,-401.0,-327.0,2420.0,-32.0,-480.0,77.0,406.0,-699.0,292.0
19:40:12.282000,-434.0,-339.0,2361.0,2.0,-462.0,78.0,388.0,-703.0,288.0
19:40:12.286000,-434.0,-339.0,2361.0,30.0,-468.0,83.0,388.0,-703.0,288.0
19:40:12.291000,-453.0,-350.0,2343.0,50.0,-497.0,88.0,387.0,-712.0,279.0
19:40:12.296000,-476.0,-358.0,2349.0,56.0,-512.0,98.0,387.0,-712.0,279.0
19:40:12.300000,-495.0,-361.0,2354.0,74.0,-511.0,99.0,387.0,-712.0,279.0
19:40:12.305000,-517.0,-365.0,2345.0,119.0,-530.0,97.0,369.0,-720.0,279.0
19:40:12.310000,-535.0,-371.0,2347.0,181.0,-557.0,99.0,369.0,-720.0,279.0
19:40:12.314000,-556.0,-380.0,2363.0,221.0,-568.0,104.0,333.0,-729.0,279.0
19:40:12.319000,-582.0,-388.0,2377.0,209.0,-527.0,115.0,333.0,-729.0,279.0
19:40:12.323000,-620.0,-397.0,2391.0,181.0,-473.0,129.0,333.0,-729.0,279.0
19:40:12.329000,-658.0,-415.0,2426.0,173.0,-475.0,139.0,319.0,-721.0,256.0
19:40:12.333000,-697.0,-436.0,2500.0,169.0,-503.0,143.0,319.0,-721.0,256.0
19:40:12.338000,-741.0,-455.0,2570.0,169.0,-503.0,143.0,301.0,-721.0,261.0
19:40:12.343000,-779.0,-483.0,2612.0,156.0,-558.0,156.0,301.0,-721.0,261.0
19:40:12.347000,-802.0,-506.0,2650.0,156.0,-558.0,156.0,301.0,-721.0,261.0
19:40:12.352000,-810.0,-511.0,2666.0,187.0,-580.0,142.0,285.0,-739.0,253.0
19:40:12.356000,-817.0,-528.0,2669.0,82.0,-643.0,162.0,285.0,-739.0,253.0
19:40:12.361000,-807.0,-546.0,2684.0,82.0,-643.0,162.0,285.0,-729.0,249.0
19:40:12.366000,-786.0,-555.0,2713.0,64.0,-675.0,158.0,285.0,-729.0,249.0
19:40:12.371000,-764.0,-561.0,2742.0,5.0,-719.0,178.0,252.0,-735.0,249.0
19:40:12.376000,-746.0,-550.0,2750.0,-50.0,-713.0,185.0,252.0,-735.0,249.0
19:40:12.380000,-746.0,-550.0,2750.0,-62.0,-670.0,179.0,252.0,-735.0,249.0
19:40:12.385000,-720.0,-522.0,2744.0,-93.0,-635.0,195.0,246.0,-730.0,240.0
19:40:12.390000,-714.0,-501.0,2748.0,-90.0,-596.0,208.0,246.0,-730.0,240.0
19:40:12.394000,-714.0,-501.0,2748.0,-61.0,-580.0,211.0,217.0,-735.0,232.0
19:40:12.399000,-711.0,-478.0,2728.0,-56.0,-589.0,200.0,217.0,-735.0,232.0
19:40:12.403000,-712.0,-447.0,2700.0,-19.0,-610.0,175.0,217.0,-735.0,232.0
19:40:12.408000,-702.0,-422.0,2706.0,73.0,-672.0,132.0,198.0,-736.0,247.0
19:40:12.413000,-686.0,-409.0,2709.0,151.0,-777.0,90.0,198.0,-736.0,247.0
19:40:12.418000,-660.0,-400.0,2628.0,147.0,-819.0,81.0,178.0,-720.0,229.0
19:40:12.423000,-628.0,-393.0,2484.0,89.0,-783.0,88.0,178.0,-720.0,229.0
19:40:12.427000,-611.0,-385.0,2323.0,63.0,-716.0,111.0,178.0,-720.0,229.0
19:40:12.432000,-613.0,-396.0,2226.0,105.0,-602.0,174.0,172.0,-718.0,213.0
19:40:12.437000,-644.0,-406.0,2228.0,201.0,-483.0,222.0,172.0,-718.0,213.0
19:40:12.441000,-679.0,-427.0,2254.0,290.0,-456.0,244.0,156.0,-714.0,219.0
19:40:12.446000,-694.0,-450.0,2234.0,369.0,-486.0,283.0,156.0,-714.0,219.0
19:40:12.450000,-676.0,-459.0,2191.0,475.0,-539.0,290.0,156.0,-714.0,219.0
19:40:12.455000,-653.0,-458.0,2172.0,475.0,-539.0,290.0,153.0,-715.0,219.0
19:40:12.460000,-630.0,-445.0,2178.0,526.0,-624.0,276.0,153.0,-715.0,219.0
19:40:12.465000,-614.0,-429.0,2217.0,481.0,-666.0,275.0,130.0,-706.0,214.0
19:40:12.470000,-620.0,-413.0,2251.0,381.0,-605.0,284.0,130.0,-706.0,214.0
19:40:12.474000,-626.0,-396.0,2282.0,296.0,-481.0,295.0,130.0,-706.0,214.0
19:40:12.479000,-635.0,-378.0,2342.0,258.0,-387.0,297.0,111.0,-687.0,213.0
19:40:12.484000,-660.0,-367.0,2397.0,261.0,-310.0,341.0,111.0,-687.0,213.0
19:40:12.488000,-688.0,-356.0,2441.0,329.0,-279.0,392.0,111.0,-699.0,205.0
19:40:12.492000,-688.0,-356.0,2441.0,451.0,-264.0,379.0,111.0,-699.0,205.0
19:40:12.497000,-713.0,-338.0,2490.0,574.0,-261.0,368.0,111.0,-699.0,205.0
19:40:12.502000,-736.0,-321.0,2539.0,713.0,-279.0,389.0,91.0,-673.0,226.0
19:40:12.507000,-754.0,-314.0,2596.0,869.0,-283.0,393.0,91.0,-673.0,226.0
19:40:12.512000,-765.0,-312.0,2650.0,986.0,-278.0,415.0,91.0,-672.0,204.0
19:40:12.517000,-793.0,-326.0,2685.0,1081.0,-273.0,446.0,91.0,-672.0,204.0
19:40:12.521000,-814.0,-347.0,2748.0,1188.0,-261.0,460.0,91.0,-672.0,204.0
19:40:12.525000,-837.0,-365.0,2783.0,1292.0,-282.0,485.0,90.0,-661.0,199.0
19:40:12.531000,-863.0,-375.0,2788.0,1367.0,-301.0,520.0,90.0,-661.0,199.0
19:40:12.535000,-880.0,-378.0,2760.0,1371.0,-301.0,542.0,63.0,-648.0,216.0
19:40:12.540000,-907.0,-369.0,2735.0,1326.0,-269.0,547.0,63.0,-648.0,216.0
19:40:12.544000,-953.0,-351.0,2720.0,1287.0,-230.0,556.0,63.0,-648.0,216.0
19:40:12.549000,-992.0,-329.0,2716.0,1265.0,-223.0,538.0,48.0,-637.0,199.0
19:40:12.554000,-1041.0,-306.0,2738.0,1264.0,-172.0,523.0,48.0,-637.0,199.0
19:40:12.559000,-1109.0,-289.0,2748.0,1264.0,-172.0,523.0,51.0,-621.0,193.0
19:40:12.564000,-1178.0,-275.0,2732.0,1285.0,-143.0,498.0,51.0,-621.0,193.0
19:40:12.568000,-1237.0,-281.0,2731.0,1345.0,-143.0,498.0,51.0,-621.0,193.0
19:40:12.573000,-1274.0,-304.0,2711.0,1426.0,-172.0,479.0,34.0,-619.0,189.0
19:40:12.577000,-1315.0,-337.0,2688.0,1589.0,-229.0,480.0,34.0,-619.0,189.0
19:40:12.582000,-1341.0,-384.0,2711.0,1589.0,-229.0,480.0,33.0,-600.0,187.0
19:40:12.587000,-1344.0,-436.0,2745.0,1692.0,-277.0,477.0,33.0,-600.0,187.0
19:40:12.592000,-1339.0,-499.0,2715.0,1750.0,-348.0,480.0,28.0,-606.0,190.0
19:40:12.596000,-1325.0,-571.0,2685.0,1779.0,-365.0,501.0,28.0,-606.0,190.0
19:40:12.601000,-1325.0,-571.0,2685.0,1842.0,-357.0,535.0,28.0,-606.0,190.0
19:40:12.606000,-1278.0,-655.0,2744.0,1895.0,-362.0,549.0,15.0,-600.0,189.0
19:40:12.611000,-1099.0,-655.0,2744.0,1884.0,-338.0,553.0,15.0,-600.0,189.0
19:40:12.615000,-1246.0,-667.0,2742.0,1813.0,-293.0,564.0,7.0,-579.0,186.0
19:40:12.620000,-1216.0,-660.0,2684.0,1725.0,-259.0,573.0,7.0,-579.0,186.0
19:40:12.624000,-1179.0,-648.0,2652.0,1658.0,-274.0,579.0,7.0,-579.0,186.0
19:40:12.629000,-1151.0,-635.0,2650.0,1610.0,-290.0,588.0,9.0,-562.0,190.0
19:40:12.634000,-1129.0,-629.0,2657.0,1580.0,-291.0,597.0,9.0,-562.0,190.0
19:40:12.639000,-1107.0,-624.0,2693.0,1562.0,-290.0,596.0,-3.0,-549.0,189.0
19:40:12.643000,-1078.0,-615.0,2710.0,1537.0,-308.0,578.0,-3.0,-549.0,189.0
19:40:12.648000,-1029.0,-606.0,2709.0,1513.0,-320.0,564.0,-3.0,-549.0,189.0
19:40:12.653000,-1002.0,-592.0,2699.0,1542.0,-311.0,564.0,-19.0,-541.0,192.0
19:40:12.658000,-973.0,-592.0,2735.0,1612.0,-277.0,570.0,-19.0,-541.0,192.0
19:40:12.662000,-959.0,-601.0,2779.0,1612.0,-277.0,570.0,-10.0,-528.0,199.0
19:40:12.667000,-953.0,-611.0,2770.0,1695.0,-63.0,587.0,-10.0,-528.0,199.0
19:40:12.671000,-957.0,-622.0,2713.0,1717.0,18.0,600.0,-10.0,-528.0,199.0
19:40:12.676000,-965.0,-634.0,2715.0,1717.0,18.0,600.0,-13.0,-522.0,198.0
19:40:12.681000,-978.0,-641.0,2729.0,1718.0,22.0,610.0,-13.0,-522.0,198.0
19:40:12.686000,-989.0,-645.0,2666.0,1665.0,23.0,619.0,-21.0,-511.0,199.0
19:40:12.690000,-994.0,-640.0,2601.0,1619.0,36.0,616.0,-21.0,-511.0,199.0
19:40:12.695000,-1003.0,-631.0,2562.0,1596.0,55.0,606.0,-21.0,-511.0,199.0
19:40:12.700000,-1013.0,-620.0,2524.0,1557.0,92.0,613.0,-27.0,-487.0,192.0
19:40:12.705000,-1026.0,-604.0,2531.0,1521.0,107.0,615.0,-27.0,-487.0,192.0
19:40:12.709000,-1026.0,-604.0,2531.0,1502.0,101.0,611.0,-30.0,-483.0,187.0
19:40:12.714000,-1051.0,-590.0,2677.0,1488.0,83.0,612.0,-30.0,-483.0,187.0
19:40:12.718000,-1051.0,-590.0,2677.0,1463.0,84.0,600.0,-30.0,-483.0,187.0
19:40:12.723000,-1061.0,-570.0,2731.0,1422.0,117.0,589.0,-18.0,-468.0,196.0
19:40:12.728000,-1056.0,-560.0,2741.0,1391.0,123.0,584.0,-18.0,-468.0,196.0
19:40:12.733000,-1053.0,-557.0,2781.0,1382.0,119.0,571.0,-40.0,-453.0,198.0
19:40:12.737000,-1069.0,-551.0,2853.0,1377.0,150.0,565.0,-40.0,-453.0,198.0
19:40:12.742000,-1073.0,-554.0,2909.0,1362.0,180.0,538.0,-40.0,-453.0,198.0
19:40:12.747000,-1082.0,-543.0,2940.0,1313.0,202.0,514.0,-37.0,-456.0,198.0
19:40:12.752000,-1090.0,-538.0,2935.0,1255.0,203.0,502.0,-37.0,-456.0,198.0
19:40:12.756000,-1099.0,-529.0,2911.0,1248.0,190.0,482.0,-40.0,-436.0,199.0
19:40:12.761000,-1096.0,-531.0,2909.0,1300.0,168.0,483.0,-40.0,-436.0,199.0
19:40:12.765000,-1088.0,-539.0,2949.0,1370.0,120.0,484.0,-40.0,-436.0,199.0
19:40:12.770000,-1075.0,-548.0,3001.0,1384.0,140.0,455.0,-39.0,-408.0,208.0
19:40:12.775000,-1065.0,-539.0,2962.0,1331.0,212.0,438.0,-39.0,-408.0,208.0
19:40:12.780000,-1038.0,-538.0,2849.0,1331.0,212.0,438.0,-40.0,-394.0,217.0
19:40:12.784000,-991.0,-549.0,2794.0,1311.0,183.0,444.0,-40.0,-394.0,217.0
19:40:12.789000,-944.0,-561.0,2811.0,1361.0,78.0,432.0,-40.0,-394.0,217.0
19:40:12.794000,-886.0,-578.0,2816.0,1414.0,50.0,415.0,-45.0,-376.0,208.0
19:40:12.799000,-830.0,-590.0,2790.0,1423.0,115.0,397.0,-45.0,-376.0,208.0
19:40:12.803000,-792.0,-606.0,2774.0,1390.0,196.0,387.0,-51.0,-363.0,216.0
19:40:12.808000,-773.0,-615.0,2754.0,1333.0,285.0,377.0,-51.0,-363.0,216.0
19:40:12.812000,-758.0,-626.0,2727.0,1267.0,375.0,358.0,-51.0,-363.0,216.0
19:40:12.817000,-759.0,-632.0,2714.0,1216.0,441.0,353.0,-43.0,-354.0,220.0
19:40:12.822000,-766.0,-629.0,2705.0,1177.0,485.0,354.0,-43.0,-354.0,220.0
19:40:12.827000,-779.0,-621.0,2695.0,1145.0,509.0,346.0,-39.0,-343.0,219.0
19:40:12.831000,-779.0,-621.0,2695.0,1123.0,542.0,335.0,-39.0,-343.0,219.0
19:40:12.835000,-781.0,-619.0,2687.0,1107.0,544.0,321.0,-39.0,-343.0,219.0
19:40:12.841000,-777.0,-613.0,2699.0,1094.0,529.0,312.0,-31.0,-315.0,237.0
19:40:12.846000,-765.0,-612.0,2741.0,1061.0,547.0,302.0,-31.0,-315.0,237.0
19:40:12.850000,-740.0,-608.0,2730.0,1009.0,586.0,286.0,-27.0,-297.0,231.0
19:40:12.855000,-704.0,-599.0,2658.0,966.0,617.0,269.0,-27.0,-297.0,231.0
19:40:12.859000,-658.0,-584.0,2608.0,924.0,634.0,255.0,-27.0,-297.0,231.0
19:40:12.864000,-620.0,-568.0,2605.0,867.0,669.0,248.0,-19.0,-289.0,240.0
19:40:12.869000,-598.0,-551.0,2618.0,799.0,727.0,235.0,-19.0,-289.0,240.0
19:40:12.874000,-588.0,-533.0,2611.0,752.0,798.0,219.0,-18.0,-273.0,247.0
19:40:12.878000,-575.0,-515.0,2579.0,756.0,812.0,208.0,-18.0,-273.0,247.0
19:40:12.882000,-567.0,-499.0,2537.0,821.0,814.0,200.0,-18.0,-273.0,247.0
19:40:12.888000,-553.0,-485.0,2508.0,917.0,798.0,191.0,-9.0,-274.0,250.0
19:40:12.893000,-535.0,-476.0,2510.0,917.0,798.0,191.0,-9.0,-274.0,250.0
19:40:12.897000,-517.0,-473.0,2526.0,985.0,787.0,184.0,-7.0,-256.0,244.0
19:40:12.902000,-499.0,-478.0,2520.0,1001.0,795.0,180.0,-7.0,-256.0,244.0
19:40:12.906000,-478.0,-487.0,2486.0,1006.0,803.0,171.0,-7.0,-256.0,244.0
19:40:12.911000,-457.0,-501.0,2454.0,1032.0,818.0,172.0,9.0,-232.0,264.0
19:40:12.916000,-435.0,-509.0,2426.0,1067.0,813.0,175.0,9.0,-232.0,264.0
19:40:12.921000,-415.0,-515.0,2401.0,1082.0,834.0,170.0,27.0,-226.0,259.0
19:40:12.925000,-399.0,-518.0,2384.0,1065.0,896.0,167.0,27.0,-226.0,259.0
19:40:12.933000,-390.0,-516.0,2377.0,981.0,946.0,169.0,27.0,-205.0,270.0
19:40:12.935000,-389.0,-514.0,2383.0,981.0,946.0,169.0,27.0,-205.0,270.0
19:40:12.939000,-389.0,-514.0,2383.0,953.0,975.0,174.0,27.0,-205.0,270.0
19:40:12.944000,-389.0,-512.0,2394.0,922.0,931.0,166.0,25.0,-207.0,271.0
19:40:12.949000,-375.0,-502.0,2393.0,895.0,948.0,153.0,25.0,-207.0,271.0
19:40:12.954000,-369.0,-494.0,2393.0,873.0,924.0,160.0,49.0,-193.0,274.0
19:40:12.958000,-355.0,-485.0,2412.0,856.0,926.0,148.0,49.0,-193.0,274.0
19:40:12.962000,-359.0,-474.0,2453.0,818.0,934.0,152.0,49.0,-193.0,274.0
19:40:12.968000,-359.0,-462.0,2505.0,753.0,920.0,147.0,55.0,-187.0,285.0
19:40:12.972000,-366.0,-452.0,2533.0,711.0,943.0,153.0,55.0,-187.0,285.0
19:40:12.977000,-370.0,-439.0,2542.0,692.0,894.0,145.0,66.0,-172.0,276.0
19:40:12.982000,-361.0,-420.0,2541.0,699.0,924.0,138.0,66.0,-172.0,276.0
19:40:12.986000,-364.0,-406.0,2536.0,699.0,909.0,146.0,66.0,-172.0,276.0
19:40:12.991000,-359.0,-392.0,2523.0,691.0,960.0,133.0,84.0,-157.0,291.0
19:40:12.996000,-373.0,-380.0,2503.0,668.0,1017.0,144.0,84.0,-157.0,291.0
19:40:13.001000,-380.0,-367.0,2482.0,668.0,1017.0,144.0,97.0,-157.0,291.0
19:40:13.005000,-397.0,-355.0,2456.0,623.0,1022.0,136.0,97.0,-157.0,291.0
19:40:13.009000,-420.0,-355.0,2434.0,585.0,1072.0,138.0,97.0,-157.0,291.0
19:40:13.015000,-436.0,-348.0,2410.0,544.0,1016.0,147.0,103.0,-139.0,301.0
19:40:13.019000,-449.0,-345.0,2380.0,504.0,997.0,150.0,103.0,-139.0,301.0
19:40:13.024000,-458.0,-340.0,2345.0,504.0,997.0,150.0,120.0,-138.0,307.0
19:40:13.029000,-464.0,-336.0,2312.0,486.0,958.0,148.0,120.0,-138.0,307.0
19:40:13.033000,-483.0,-331.0,2291.0,482.0,995.0,142.0,120.0,-138.0,307.0
19:40:13.038000,-487.0,-323.0,2263.0,471.0,1008.0,150.0,124.0,-126.0,298.0
19:40:13.043000,-501.0,-312.0,2221.0,439.0,1026.0,141.0,124.0,-126.0,298.0
19:40:13.048000,-519.0,-298.0,2180.0,415.0,1092.0,145.0,132.0,-121.0,313.0
19:40:13.052000,-519.0,-298.0,2180.0,395.0,1041.0,147.0,132.0,-121.0,313.0
19:40:13.056000,-529.0,-284.0,2160.0,390.0,1011.0,133.0,132.0,-121.0,313.0
19:40:13.062000,-541.0,-270.0,2146.0,374.0,1026.0,135.0,165.0,-115.0,319.0
19:40:13.066000,-548.0,-252.0,2120.0,325.0,1028.0,136.0,165.0,-115.0,319.0
19:40:13.071000,-564.0,-237.0,2080.0,266.0,1061.0,136.0,174.0,-108.0,315.0
19:40:13.076000,-592.0,-226.0,2040.0,221.0,1045.0,144.0,174.0,-108.0,315.0
19:40:13.080000,-612.0,-212.0,2008.0,194.0,983.0,137.0,174.0,-108.0,315.0
19:40:13.085000,-625.0,-205.0,1978.0,197.0,986.0,139.0,186.0,-111.0,319.0
19:40:13.090000,-640.0,-196.0,1946.0,212.0,901.0,136.0,186.0,-111.0,319.0
19:40:13.095000,-634.0,-184.0,1916.0,212.0,916.0,107.0,201.0,-111.0,319.0
19:40:13.099000,-652.0,-169.0,1878.0,205.0,1034.0,109.0,201.0,-111.0,319.0
19:40:13.103000,-662.0,-154.0,1838.0,170.0,1013.0,106.0,201.0,-111.0,319.0
19:40:13.109000,-667.0,-141.0,1794.0,138.0,1084.0,88.0,213.0,-106.0,334.0
19:40:13.113000,-688.0,-133.0,1747.0,138.0,1084.0,88.0,213.0,-106.0,334.0
19:40:13.118000,-681.0,-123.0,1704.0,121.0,1064.0,88.0,211.0,-114.0,349.0
19:40:13.123000,-684.0,-118.0,1666.0,83.0,956.0,69.0,211.0,-114.0,349.0
19:40:13.127000,-685.0,-118.0,1642.0,64.0,990.0,66.0,211.0,-114.0,349.0
19:40:13.132000,-667.0,-116.0,1612.0,32.0,919.0,62.0,241.0,-100.0,342.0
19:40:13.137000,-668.0,-117.0,1586.0,-4.0,882.0,47.0,241.0,-100.0,342.0
19:40:13.142000,-658.0,-119.0,1560.0,-15.0,914.0,43.0,247.0,-114.0,348.0
19:40:13.146000,-658.0,-114.0,1531.0,-50.0,867.0,29.0,247.0,-114.0,348.0
19:40:13.150000,-658.0,-114.0,1531.0,-68.0,913.0,24.0,247.0,-114.0,348.0
19:40:13.156000,-653.0,-102.0,1481.0,-71.0,884.0,19.0,249.0,-109.0,352.0
19:40:13.160000,-653.0,-102.0,1481.0,-95.0,853.0,-2.0,249.0,-109.0,352.0
19:40:13.165000,-660.0,-93.0,1457.0,-123.0,945.0,-13.0,267.0,-102.0,348.0
19:40:13.170000,-661.0,-82.0,1432.0,-183.0,880.0,-51.0,267.0,-102.0,348.0
19:40:13.174000,-642.0,-65.0,1395.0,-288.0,1012.0,-62.0,267.0,-102.0,348.0
19:40:13.179000,-689.0,-52.0,1341.0,-389.0,1112.0,-34.0,268.0,-103.0,352.0
19:40:13.184000,-704.0,-44.0,1288.0,-377.0,994.0,-45.0,268.0,-103.0,352.0
19:40:13.189000,-722.0,-46.0,1269.0,-270.0,949.0,-66.0,271.0,-109.0,370.0
19:40:13.193000,-711.0,-42.0,1255.0,-225.0,823.0,-86.0,271.0,-109.0,370.0
19:40:13.197000,-713.0,-26.0,1221.0,-240.0,870.0,-86.0,282.0,-105.0,360.0
19:40:13.203000,-726.0,-16.0,1166.0,-269.0,938.0,-82.0,282.0,-105.0,360.0
19:40:13.207000,-733.0,-7.0,1110.0,-289.0,943.0,-80.0,282.0,-105.0,360.0
19:40:13.212000,-762.0,-2.0,1063.0,-261.0,919.0,-70.0,277.0,-112.0,367.0
19:40:13.217000,-773.0,4.0,1031.0,-210.0,843.0,-82.0,277.0,-112.0,367.0
19:40:13.221000,-780.0,4.0,1006.0,-210.0,843.0,-82.0,297.0,-123.0,376.0
19:40:13.226000,-788.0,9.0,997.0,-175.0,805.0,-89.0,297.0,-123.0,376.0
19:40:13.230000,-791.0,14.0,985.0,-175.0,772.0,-94.0,297.0,-123.0,376.0
19:40:13.236000,-805.0,14.0,967.0,-195.0,828.0,-104.0,306.0,-114.0,379.0
19:40:13.240000,-807.0,13.0,945.0,-228.0,807.0,-114.0,306.0,-114.0,379.0
19:40:13.245000,-818.0,10.0,927.0,-243.0,807.0,-114.0,304.0,-114.0,399.0
19:40:13.250000,-812.0,9.0,920.0,-233.0,762.0,-118.0,304.0,-114.0,399.0
19:40:13.254000,-812.0,9.0,920.0,-244.0,656.0,-127.0,304.0,-114.0,399.0
19:40:13.259000,-809.0,16.0,905.0,-242.0,677.0,-137.0,310.0,-121.0,391.0
19:40:13.264000,-799.0,23.0,878.0,-253.0,652.0,-143.0,310.0,-121.0,391.0
19:40:13.268000,-799.0,23.0,878.0,-286.0,626.0,-157.0,327.0,-126.0,390.0
19:40:13.273000,-796.0,32.0,845.0,-300.0,695.0,-168.0,327.0,-126.0,390.0
19:40:13.277000,-792.0,41.0,802.0,-303.0,655.0,-167.0,327.0,-126.0,390.0
19:40:13.283000,-788.0,49.0,771.0,-309.0,593.0,-174.0,322.0,-126.0,400.0
19:40:13.287000,-783.0,56.0,743.0,-311.0,631.0,-189.0,322.0,-126.0,400.0
19:40:13.292000,-784.0,62.0,714.0,-321.0,609.0,-190.0,313.0,-127.0,408.0
19:40:13.297000,-777.0,73.0,667.0,-334.0,565.0,-191.0,313.0,-127.0,408.0
19:40:13.301000,-775.0,78.0,623.0,-313.0,603.0,-208.0,313.0,-127.0,408.0
19:40:13.306000,-767.0,88.0,587.0,-297.0,574.0,-218.0,336.0,-135.0,408.0
19:40:13.311000,-756.0,86.0,562.0,-310.0,543.0,-223.0,336.0,-135.0,408.0
19:40:13.315000,-751.0,86.0,547.0,-310.0,595.0,-239.0,336.0,-144.0,405.0
19:40:13.320000,-743.0,88.0,530.0,-339.0,561.0,-244.0,336.0,-144.0,405.0
19:40:13.324000,-731.0,85.0,507.0,-346.0,514.0,-248.0,336.0,-144.0,405.0
19:40:13.330000,-716.0,74.0,494.0,-346.0,518.0,-248.0,330.0,-147.0,415.0
19:40:13.334000,-697.0,65.0,478.0,-331.0,460.0,-264.0,330.0,-147.0,415.0
19:40:13.339000,-681.0,61.0,461.0,-331.0,460.0,-264.0,333.0,-151.0,411.0
19:40:13.344000,-662.0,57.0,438.0,-344.0,443.0,-271.0,333.0,-151.0,411.0
19:40:13.348000,-648.0,51.0,410.0,-356.0,515.0,-288.0,333.0,-151.0,411.0
19:40:13.353000,-637.0,51.0,380.0,-382.0,511.0,-285.0,331.0,-147.0,418.0
19:40:13.358000,-626.0,46.0,347.0,-403.0,538.0,-292.0,331.0,-147.0,418.0
19:40:13.362000,-612.0,42.0,316.0,-412.0,602.0,-305.0,343.0,-159.0,426.0
19:40:13.367000,-599.0,44.0,277.0,-439.0,544.0,-302.0,343.0,-159.0,426.0
19:40:13.371000,-599.0,44.0,277.0,-451.0,538.0,-306.0,343.0,-159.0,426.0
19:40:13.377000,-580.0,41.0,238.0,-442.0,549.0,-317.0,337.0,-151.0,427.0
19:40:13.381000,-553.0,42.0,198.0,-450.0,476.0,-312.0,337.0,-151.0,427.0
19:40:13.386000,-528.0,47.0,168.0,-456.0,489.0,-315.0,342.0,-157.0,421.0
19:40:13.391000,-501.0,51.0,140.0,-459.0,524.0,-319.0,342.0,-157.0,421.0
19:40:13.395000,-473.0,49.0,114.0,-472.0,487.0,-312.0,342.0,-157.0,421.0
19:40:13.400000,-444.0,51.0,78.0,-470.0,507.0,-316.0,339.0,-156.0,436.0
19:40:13.405000,-421.0,56.0,44.0,-449.0,550.0,-323.0,339.0,-156.0,436.0
19:40:13.409000,-394.0,60.0,18.0,-466.0,523.0,-321.0,331.0,-162.0,433.0
19:40:13.414000,-374.0,69.0,-11.0,-495.0,576.0,-329.0,331.0,-162.0,433.0
19:40:13.418000,-366.0,84.0,-39.0,-517.0,637.0,-334.0,331.0,-162.0,433.0
19:40:13.424000,-351.0,93.0,-72.0,-564.0,591.0,-328.0,337.0,-169.0,436.0
19:40:13.428000,-350.0,104.0,-115.0,-567.0,634.0,-334.0,337.0,-169.0,436.0
19:40:13.433000,-346.0,116.0,-151.0,-567.0,634.0,-334.0,328.0,-160.0,427.0
19:40:13.438000,-335.0,128.0,-191.0,-554.0,573.0,-355.0,328.0,-160.0,427.0
19:40:13.442000,-334.0,147.0,-226.0,-554.0,573.0,-355.0,328.0,-160.0,427.0
19:40:13.447000,-333.0,159.0,-263.0,-568.0,666.0,-370.0,339.0,-172.0,432.0
19:40:13.452000,-336.0,175.0,-312.0,-606.0,674.0,-356.0,339.0,-172.0,432.0
19:40:13.456000,-338.0,184.0,-359.0,-615.0,668.0,-362.0,334.0,-172.0,423.0
19:40:13.461000,-324.0,195.0,-390.0,-570.0,701.0,-386.0,334.0,-172.0,423.0
19:40:13.465000,-311.0,212.0,-418.0,-554.0,639.0,-396.0,334.0,-172.0,423.0
19:40:13.471000,-316.0,231.0,-467.0,-600.0,659.0,-412.0,322.0,-172.0,442.0
19:40:13.475000,-331.0,238.0,-521.0,-659.0,750.0,-404.0,322.0,-172.0,442.0
19:40:13.479000,-331.0,238.0,-521.0,-668.0,762.0,-394.0,318.0,-174.0,448.0
19:40:13.485000,-359.0,251.0,-591.0,-625.0,778.0,-420.0,318.0,-174.0,448.0
19:40:13.489000,-359.0,251.0,-591.0,-593.0,777.0,-436.0,318.0,-174.0,448.0
19:40:13.494000,-371.0,266.0,-620.0,-596.0,776.0,-437.0,324.0,-174.0,444.0
19:40:13.499000,-390.0,277.0,-657.0,-600.0,820.0,-442.0,324.0,-174.0,444.0
19:40:13.503000,-403.0,287.0,-703.0,-594.0,793.0,-450.0,310.0,-180.0,442.0
19:40:13.508000,-413.0,295.0,-748.0,-581.0,780.0,-462.0,310.0,-180.0,442.0
19:40:13.516000,-430.0,307.0,-833.0,-580.0,792.0,-463.0,309.0,-180.0,448.0
19:40:13.518000,-430.0,307.0,-833.0,-580.0,792.0,-463.0,309.0,-180.0,448.0
19:40:13.522000,-441.0,308.0,-875.0,-562.0,813.0,-471.0,309.0,-180.0,448.0
19:40:13.527000,-447.0,305.0,-913.0,-549.0,804.0,-479.0,306.0,-181.0,442.0
19:40:13.532000,-448.0,303.0,-961.0,-546.0,815.0,-484.0,306.0,-181.0,442.0
19:40:13.536000,-452.0,299.0,-1017.0,-546.0,815.0,-484.0,301.0,-184.0,451.0
19:40:13.541000,-452.0,298.0,-1068.0,-506.0,825.0,-483.0,301.0,-184.0,451.0
19:40:13.545000,-451.0,305.0,-1112.0,-478.0,846.0,-486.0,301.0,-184.0,451.0
19:40:13.550000,-450.0,314.0,-1150.0,-478.0,846.0,-486.0,297.0,-186.0,451.0
19:40:13.555000,-450.0,325.0,-1188.0,-472.0,869.0,-486.0,297.0,-186.0,451.0
19:40:13.560000,-455.0,336.0,-1216.0,-472.0,869.0,-486.0,294.0,-184.0,445.0
19:40:13.565000,-454.0,349.0,-1241.0,-468.0,886.0,-485.0,294.0,-184.0,445.0
19:40:13.569000,-459.0,363.0,-1261.0,-472.0,862.0,-489.0,294.0,-184.0,445.0
19:40:13.574000,-459.0,379.0,-1282.0,-472.0,859.0,-486.0,280.0,-192.0,462.0
19:40:13.579000,-462.0,395.0,-1309.0,-478.0,849.0,-489.0,280.0,-192.0,462.0
19:40:13.583000,-464.0,410.0,-1335.0,-473.0,848.0,-491.0,270.0,-193.0,457.0
19:40:13.588000,-462.0,427.0,-1365.0,-458.0,840.0,-497.0,270.0,-193.0,457.0
19:40:13.592000,-462.0,427.0,-1365.0,-433.0,853.0,-505.0,270.0,-193.0,457.0
19:40:13.597000,-469.0,442.0,-1391.0,-403.0,851.0,-504.0,249.0,-187.0,459.0
19:40:13.602000,-473.0,459.0,-1418.0,-374.0,864.0,-512.0,249.0,-187.0,459.0
19:40:13.607000,-485.0,473.0,-1445.0,-348.0,896.0,-516.0,250.0,-195.0,453.0
19:40:13.612000,-497.0,485.0,-1470.0,-339.0,905.0,-524.0,250.0,-195.0,453.0
19:40:13.616000,-518.0,496.0,-1494.0,-336.0,939.0,-527.0,250.0,-195.0,453.0
19:40:13.621000,-541.0,501.0,-1514.0,-341.0,929.0,-534.0,247.0,-207.0,463.0
19:40:13.626000,-560.0,503.0,-1531.0,-334.0,928.0,-552.0,247.0,-207.0,463.0
19:40:13.630000,-582.0,499.0,-1542.0,-335.0,918.0,-559.0,238.0,-192.0,459.0
19:40:13.635000,-600.0,494.0,-1558.0,-333.0,892.0,-571.0,238.0,-192.0,459.0
19:40:13.639000,-620.0,484.0,-1563.0,-305.0,883.0,-577.0,238.0,-192.0,459.0
19:40:13.644000,-632.0,469.0,-1555.0,-277.0,844.0,-588.0,223.0,-210.0,460.0
19:40:13.649000,-648.0,454.0,-1545.0,-249.0,867.0,-599.0,223.0,-210.0,460.0
19:40:13.654000,-667.0,437.0,-1535.0,-249.0,867.0,-599.0,208.0,-208.0,469.0
19:40:13.659000,-683.0,427.0,-1527.0,-230.0,879.0,-604.0,208.0,-208.0,469.0
19:40:13.663000,-708.0,420.0,-1516.0,-223.0,859.0,-622.0,208.0,-208.0,469.0
19:40:13.668000,-732.0,413.0,-1502.0,-225.0,896.0,-632.0,204.0,-214.0,466.0
19:40:13.673000,-759.0,410.0,-1486.0,-242.0,899.0,-632.0,204.0,-214.0,466.0
19:40:13.677000,-792.0,400.0,-1467.0,-256.0,896.0,-641.0,198.0,-219.0,469.0
19:40:13.682000,-828.0,387.0,-1456.0,-270.0,924.0,-637.0,198.0,-219.0,469.0
19:40:13.689000,-863.0,371.0,-1447.0,-258.0,871.0,-625.0,196.0,-228.0,469.0
19:40:13.691000,-891.0,352.0,-1434.0,-258.0,871.0,-625.0,196.0,-228.0,469.0
19:40:13.696000,-891.0,352.0,-1434.0,-216.0,840.0,-617.0,196.0,-228.0,469.0
19:40:13.701000,-919.0,314.0,-1403.0,-167.0,763.0,-615.0,187.0,-234.0,481.0
19:40:13.706000,-919.0,314.0,-1403.0,-120.0,746.0,-619.0,187.0,-234.0,481.0
19:40:13.710000,-924.0,294.0,-1386.0,-112.0,724.0,-617.0,175.0,-244.0,478.0
19:40:13.715000,-923.0,278.0,-1365.0,-133.0,725.0,-629.0,175.0,-244.0,478.0
19:40:13.719000,-923.0,260.0,-1342.0,-181.0,770.0,-635.0,175.0,-244.0,478.0
19:40:13.724000,-922.0,245.0,-1327.0,-246.0,756.0,-645.0,166.0,-250.0,477.0
19:40:13.729000,-917.0,233.0,-1308.0,-308.0,762.0,-665.0,166.0,-250.0,477.0
19:40:13.734000,-915.0,221.0,-1288.0,-382.0,769.0,-661.0,166.0,-261.0,480.0
19:40:13.738000,-912.0,204.0,-1272.0,-452.0,745.0,-662.0,166.0,-261.0,480.0
19:40:13.743000,-913.0,186.0,-1259.0,-489.0,752.0,-664.0,166.0,-261.0,480.0
19:40:13.748000,-919.0,163.0,-1247.0,-496.0,706.0,-647.0,154.0,-270.0,481.0
19:40:13.753000,-930.0,136.0,-1235.0,-455.0,659.0,-643.0,154.0,-270.0,481.0
19:40:13.757000,-947.0,108.0,-1222.0,-455.0,659.0,-643.0,153.0,-277.0,477.0
19:40:13.762000,-961.0,81.0,-1212.0,-296.0,535.0,-626.0,153.0,-277.0,477.0
19:40:13.766000,-967.0,56.0,-1201.0,-296.0,513.0,-641.0,153.0,-277.0,477.0
19:40:13.771000,-977.0,32.0,-1196.0,-161.0,511.0,-650.0,151.0,-283.0,489.0
19:40:13.776000,-982.0,18.0,-1197.0,-161.0,511.0,-650.0,151.0,-283.0,489.0
19:40:13.781000,-986.0,14.0,-1214.0,-166.0,556.0,-687.0,142.0,-297.0,480.0
19:40:13.785000,-997.0,19.0,-1273.0,-245.0,678.0,-713.0,142.0,-297.0,480.0
19:40:13.790000,-1012.0,31.0,-1354.0,-382.0,777.0,-739.0,142.0,-297.0,480.0
19:40:13.795000,-1045.0,35.0,-1426.0,-514.0,898.0,-766.0,136.0,-303.0,495.0
19:40:13.800000,-1078.0,29.0,-1488.0,-633.0,967.0,-767.0,136.0,-303.0,495.0
19:40:13.804000,-1113.0,6.0,-1540.0,-718.0,972.0,-780.0,141.0,-309.0,481.0
19:40:13.809000,-1142.0,-28.0,-1554.0,-730.0,953.0,-787.0,141.0,-309.0,481.0
19:40:13.813000,-1142.0,-28.0,-1554.0,-686.0,830.0,-799.0,141.0,-309.0,481.0
19:40:13.818000,-1154.0,-73.0,-1527.0,-610.0,732.0,-812.0,121.0,-336.0,511.0
19:40:13.823000,-1170.0,-126.0,-1487.0,-532.0,683.0,-801.0,121.0,-336.0,511.0
19:40:13.828000,-1185.0,-185.0,-1456.0,-464.0,643.0,-814.0,130.0,-339.0,496.0
19:40:13.832000,-1199.0,-240.0,-1424.0,-420.0,681.0,-819.0,130.0,-339.0,496.0
19:40:13.837000,-1233.0,-296.0,-1384.0,-429.0,716.0,-820.0,130.0,-339.0,496.0
19:40:13.842000,-1262.0,-345.0,-1345.0,-472.0,764.0,-845.0,129.0,-354.0,502.0
19:40:13.847000,-1304.0,-386.0,-1312.0,-534.0,857.0,-847.0,129.0,-354.0,502.0
19:40:13.851000,-1360.0,-417.0,-1309.0,-604.0,890.0,-863.0,129.0,-366.0,504.0
19:40:13.856000,-1410.0,-443.0,-1325.0,-666.0,942.0,-890.0,129.0,-366.0,504.0
19:40:13.860000,-1459.0,-471.0,-1340.0,-725.0,990.0,-900.0,129.0,-366.0,504.0
19:40:13.865000,-1495.0,-489.0,-1364.0,-782.0,950.0,-930.0,135.0,-375.0,505.0
19:40:13.870000,-1522.0,-495.0,-1393.0,-826.0,905.0,-950.0,135.0,-375.0,505.0
19:40:13.875000,-1545.0,-502.0,-1404.0,-826.0,905.0,-950.0,124.0,-387.0,505.0
19:40:13.879000,-1519.0,-505.0,-1436.0,-861.0,849.0,-985.0,124.0,-387.0,505.0
19:40:13.884000,-1490.0,-513.0,-1507.0,-898.0,802.0,-1035.0,124.0,-387.0,505.0
19:40:13.889000,-1492.0,-523.0,-1544.0,-940.0,788.0,-1039.0,133.0,-408.0,499.0
19:40:13.894000,-1466.0,-561.0,-1489.0,-955.0,700.0,-1057.0,133.0,-408.0,499.0
19:40:13.898000,-1480.0,-594.0,-1449.0,-1001.0,720.0,-1098.0,139.0,-423.0,498.0
19:40:13.903000,-1463.0,-611.0,-1422.0,-1001.0,720.0,-1098.0,139.0,-423.0,498.0
19:40:13.908000,-1455.0,-632.0,-1410.0,-996.0,772.0,-1144.0,145.0,-429.0,504.0
19:40:13.912000,-1456.0,-659.0,-1404.0,-907.0,832.0,-1137.0,145.0,-429.0,504.0
19:40:13.916000,-1456.0,-659.0,-1404.0,-839.0,905.0,-1149.0,145.0,-429.0,504.0
19:40:13.921000,-1462.0,-682.0,-1432.0,-809.0,951.0,-1129.0,150.0,-447.0,496.0
19:40:13.926000,-1471.0,-765.0,-1426.0,-723.0,935.0,-1110.0,150.0,-447.0,496.0
19:40:13.931000,-1489.0,-802.0,-1373.0,-694.0,905.0,-1166.0,150.0,-465.0,499.0
19:40:13.936000,-1463.0,-814.0,-1388.0,-781.0,976.0,-1142.0,150.0,-465.0,499.0
19:40:13.940000,-1441.0,-893.0,-1438.0,-812.0,986.0,-1054.0,150.0,-465.0,499.0
19:40:13.945000,-1491.0,-935.0,-1356.0,-779.0,868.0,-1054.0,165.0,-466.0,513.0
19:40:13.950000,-1477.0,-966.0,-1222.0,-775.0,854.0,-1081.0,165.0,-466.0,513.0
19:40:13.955000,-1507.0,-937.0,-1190.0,-749.0,793.0,-1048.0,163.0,-478.0,499.0
19:40:13.959000,-1538.0,-945.0,-1200.0,-695.0,728.0,-996.0,163.0,-478.0,499.0
19:40:13.963000,-1511.0,-984.0,-1288.0,-649.0,760.0,-970.0,163.0,-478.0,499.0
19:40:13.969000,-1493.0,-968.0,-1288.0,-539.0,696.0,-939.0,181.0,-504.0,498.0
19:40:13.973000,-1570.0,-962.0,-1180.0,-443.0,542.0,-866.0,181.0,-504.0,498.0
19:40:13.978000,-1605.0,-1001.0,-1059.0,-363.0,355.0,-864.0,183.0,-517.0,490.0
19:40:13.983000,-1598.0,-962.0,-986.0,-290.0,192.0,-811.0,183.0,-517.0,490.0
19:40:13.987000,-1631.0,-961.0,-1063.0,-290.0,192.0,-811.0,183.0,-517.0,490.0
19:40:13.992000,-1708.0,-915.0,-1069.0,-114.0,13.0,-719.0,190.0,-532.0,486.0
19:40:13.997000,-1736.0,-947.0,-977.0,168.0,-257.0,-698.0,190.0,-532.0,486.0
19:40:14.002000,-1680.0,-1106.0,-961.0,282.0,-404.0,-645.0,199.0,-540.0,483.0
19:40:14.006000,-1612.0,-1133.0,-1149.0,331.0,-213.0,-627.0,199.0,-540.0,483.0
19:40:14.010000,-1541.0,-1050.0,-1390.0,375.0,-82.0,-676.0,199.0,-540.0,483.0
19:40:14.016000,-1414.0,-1091.0,-1441.0,462.0,-309.0,-693.0,217.0,-541.0,484.0
19:40:14.020000,-1308.0,-1108.0,-1591.0,567.0,-373.0,-673.0,217.0,-541.0,484.0
19:40:14.025000,-1241.0,-1084.0,-2005.0,507.0,-265.0,-702.0,216.0,-559.0,492.0
19:40:14.030000,-1278.0,-982.0,-2235.0,448.0,-310.0,-797.0,216.0,-559.0,492.0
19:40:14.034000,-1278.0,-982.0,-2235.0,479.0,-336.0,-824.0,216.0,-559.0,492.0
19:40:14.039000,-1392.0,-917.0,-2118.0,366.0,-254.0,-755.0,241.0,-573.0,465.0
19:40:14.044000,-1486.0,-963.0,-2022.0,183.0,-164.0,-785.0,241.0,-573.0,465.0
19:40:14.049000,-1596.0,-977.0,-2055.0,63.0,30.0,-862.0,250.0,-585.0,459.0
19:40:14.053000,-1614.0,-1006.0,-2193.0,24.0,73.0,-908.0,250.0,-585.0,459.0
19:40:14.057000,-1549.0,-1030.0,-2246.0,106.0,-244.0,-1011.0,250.0,-585.0,459.0
19:40:14.063000,-1537.0,-987.0,-2125.0,179.0,-407.0,-1040.0,267.0,-595.0,459.0
19:40:14.067000,-1560.0,-1003.0,-1972.0,168.0,-382.0,-991.0,267.0,-595.0,459.0
19:40:14.072000,-1603.0,-1031.0,-1906.0,115.0,-432.0,-1016.0,277.0,-606.0,453.0
19:40:14.077000,-1666.0,-1049.0,-1925.0,99.0,-434.0,-1029.0,277.0,-606.0,453.0
19:40:14.081000,-1734.0,-1110.0,-1876.0,134.0,-438.0,-993.0,277.0,-606.0,453.0
19:40:14.086000,-1798.0,-1157.0,-1768.0,142.0,-574.0,-1084.0,304.0,-609.0,447.0
19:40:14.091000,-1753.0,-1174.0,-1676.0,159.0,-531.0,-1136.0,304.0,-609.0,447.0
19:40:14.096000,-1684.0,-1269.0,-1585.0,159.0,-531.0,-1136.0,306.0,-622.0,444.0
19:40:14.100000,-1579.0,-1274.0,-1617.0,136.0,-438.0,-1177.0,306.0,-622.0,444.0
19:40:14.104000,-1423.0,-1336.0,-1713.0,136.0,-438.0,-1177.0,306.0,-622.0,444.0
19:40:14.110000,-1276.0,-1428.0,-1702.0,100.0,-460.0,-1154.0,334.0,-628.0,424.0
19:40:14.114000,-1133.0,-1491.0,-1523.0,144.0,-648.0,-1144.0,334.0,-628.0,424.0
19:40:14.119000,-1109.0,-1537.0,-1337.0,186.0,-807.0,-1138.0,349.0,-636.0,415.0
19:40:14.124000,-1110.0,-1566.0,-1312.0,206.0,-702.0,-1101.0,349.0,-636.0,415.0
19:40:14.128000,-1110.0,-1566.0,-1312.0,226.0,-584.0,-1053.0,349.0,-636.0,415.0
19:40:14.133000,-1241.0,-1634.0,-1204.0,242.0,-587.0,-1017.0,364.0,-640.0,408.0
19:40:14.138000,-1275.0,-1641.0,-1192.0,167.0,-576.0,-1023.0,364.0,-640.0,408.0
19:40:14.142000,-1275.0,-1641.0,-1192.0,18.0,-528.0,-1020.0,361.0,-640.0,393.0
19:40:14.147000,-1269.0,-1655.0,-1227.0,-26.0,-526.0,-1022.0,361.0,-640.0,393.0
19:40:14.151000,-1246.0,-1654.0,-1108.0,-33.0,-520.0,-1004.0,361.0,-640.0,393.0
19:40:14.156000,-1206.0,-1659.0,-1006.0,-74.0,-425.0,-970.0,366.0,-637.0,391.0
19:40:14.161000,-1214.0,-1650.0,-1048.0,-132.0,-368.0,-944.0,366.0,-637.0,391.0
19:40:14.166000,-1204.0,-1637.0,-1178.0,-208.0,-390.0,-928.0,387.0,-645.0,375.0
19:40:14.171000,-1190.0,-1610.0,-1287.0,-258.0,-444.0,-911.0,387.0,-645.0,375.0
19:40:14.175000,-1140.0,-1605.0,-1288.0,-302.0,-505.0,-874.0,387.0,-645.0,375.0
19:40:14.180000,-1169.0,-1584.0,-1253.0,-399.0,-443.0,-842.0,411.0,-643.0,361.0
19:40:14.185000,-1215.0,-1533.0,-1294.0,-569.0,-286.0,-865.0,411.0,-643.0,361.0
19:40:14.190000,-1161.0,-1486.0,-1376.0,-554.0,-312.0,-947.0,408.0,-645.0,363.0
19:40:14.194000,-1009.0,-1442.0,-1176.0,-38.0,-885.0,-729.0,408.0,-645.0,363.0
19:40:14.198000,-1469.0,-1430.0,-570.0,328.0,-1321.0,-248.0,408.0,-645.0,363.0
19:40:14.204000,-2228.0,-1482.0,-593.0,-78.0,-807.0,-648.0,436.0,-646.0,340.0
19:40:14.208000,-1876.0,-1249.0,-1404.0,-78.0,-807.0,-648.0,436.0,-646.0,340.0
19:40:14.213000,-1166.0,-1216.0,-1758.0,-610.0,-185.0,-1226.0,444.0,-657.0,331.0
19:40:14.218000,-980.0,-1307.0,-1457.0,-693.0,-110.0,-963.0,444.0,-657.0,331.0
19:40:14.222000,-1066.0,-1260.0,-1175.0,-817.0,-462.0,-668.0,444.0,-657.0,331.0
19:40:14.227000,-1297.0,-1346.0,-1057.0,-817.0,-462.0,-668.0,450.0,-648.0,316.0
19:40:14.232000,-1453.0,-1528.0,-906.0,-824.0,-697.0,-538.0,450.0,-648.0,316.0
19:40:14.237000,-1400.0,-1451.0,-864.0,-722.0,-748.0,-684.0,474.0,-646.0,301.0
19:40:14.241000,-1176.0,-1308.0,-917.0,-757.0,-672.0,-923.0,474.0,-646.0,301.0
19:40:14.245000,-1176.0,-1308.0,-917.0,-723.0,-581.0,-885.0,474.0,-646.0,301.0
19:40:14.251000,-1022.0,-1253.0,-947.0,-578.0,-545.0,-761.0,475.0,-642.0,288.0
19:40:14.255000,-1022.0,-1253.0,-947.0,-494.0,-577.0,-717.0,475.0,-642.0,288.0
19:40:14.260000,-1025.0,-1250.0,-956.0,-481.0,-551.0,-694.0,486.0,-652.0,273.0
19:40:14.265000,-989.0,-1272.0,-1042.0,-453.0,-564.0,-697.0,486.0,-652.0,273.0
19:40:14.269000,-922.0,-1246.0,-1052.0,-419.0,-670.0,-723.0,486.0,-652.0,273.0
19:40:14.274000,-855.0,-1223.0,-964.0,-474.0,-720.0,-690.0,475.0,-636.0,267.0
19:40:14.279000,-847.0,-1234.0,-951.0,-558.0,-715.0,-662.0,475.0,-636.0,267.0
19:40:14.284000,-807.0,-1241.0,-978.0,-590.0,-732.0,-682.0,495.0,-637.0,258.0
19:40:14.288000,-757.0,-1236.0,-957.0,-618.0,-726.0,-692.0,495.0,-637.0,258.0
19:40:14.292000,-710.0,-1217.0,-941.0,-682.0,-643.0,-676.0,495.0,-637.0,258.0
19:40:14.298000,-718.0,-1190.0,-1035.0,-679.0,-566.0,-649.0,496.0,-633.0,258.0
19:40:14.302000,-716.0,-1190.0,-1063.0,-596.0,-606.0,-640.0,496.0,-633.0,258.0
19:40:14.307000,-735.0,-1194.0,-975.0,-616.0,-611.0,-640.0,504.0,-625.0,240.0
19:40:14.312000,-714.0,-1195.0,-1007.0,-720.0,-541.0,-642.0,504.0,-625.0,240.0
19:40:14.316000,-692.0,-1199.0,-1080.0,-720.0,-541.0,-642.0,504.0,-625.0,240.0
19:40:14.321000,-723.0,-1181.0,-1015.0,-740.0,-499.0,-633.0,508.0,-625.0,223.0
19:40:14.326000,-754.0,-1164.0,-940.0,-740.0,-491.0,-615.0,508.0,-625.0,223.0
19:40:14.331000,-766.0,-1143.0,-1006.0,-747.0,-427.0,-612.0,528.0,-622.0,219.0
19:40:14.335000,-756.0,-1133.0,-1122.0,-750.0,-352.0,-618.0,528.0,-622.0,219.0
19:40:14.339000,-764.0,-1124.0,-1168.0,-744.0,-345.0,-601.0,528.0,-622.0,219.0
19:40:14.345000,-777.0,-1121.0,-1157.0,-708.0,-391.0,-582.0,525.0,-609.0,202.0
19:40:14.349000,-781.0,-1109.0,-1087.0,-672.0,-464.0,-575.0,525.0,-609.0,202.0
19:40:14.354000,-760.0,-1108.0,-1086.0,-707.0,-532.0,-577.0,528.0,-610.0,201.0
19:40:14.359000,-732.0,-1094.0,-1116.0,-773.0,-540.0,-576.0,528.0,-610.0,201.0
19:40:14.363000,-732.0,-1094.0,-1116.0,-813.0,-535.0,-568.0,528.0,-610.0,201.0
19:40:14.368000,-732.0,-1071.0,-1145.0,-867.0,-469.0,-550.0,537.0,-601.0,193.0
19:40:14.373000,-714.0,-1064.0,-1220.0,-869.0,-483.0,-536.0,537.0,-601.0,193.0
19:40:14.378000,-700.0,-1068.0,-1166.0,-781.0,-543.0,-522.0,544.0,-597.0,192.0
19:40:14.382000,-691.0,-1066.0,-1075.0,-716.0,-536.0,-529.0,544.0,-597.0,192.0
19:40:14.390000,-614.0,-1036.0,-1004.0,-823.0,-448.0,-532.0,534.0,-595.0,171.0
19:40:14.392000,-614.0,-1036.0,-1004.0,-823.0,-448.0,-532.0,534.0,-595.0,171.0
19:40:14.396000,-576.0,-1005.0,-1048.0,-839.0,-468.0,-525.0,534.0,-595.0,171.0
19:40:14.401000,-555.0,-990.0,-1018.0,-836.0,-483.0,-491.0,553.0,-582.0,163.0
19:40:14.406000,-550.0,-1002.0,-972.0,-832.0,-473.0,-476.0,553.0,-582.0,163.0
19:40:14.411000,-545.0,-1001.0,-939.0,-832.0,-473.0,-476.0,552.0,-582.0,162.0
19:40:14.415000,-568.0,-982.0,-911.0,-801.0,-433.0,-471.0,552.0,-582.0,162.0
19:40:14.419000,-569.0,-963.0,-872.0,-851.0,-375.0,-467.0,552.0,-582.0,162.0
19:40:14.425000,-557.0,-952.0,-936.0,-851.0,-375.0,-467.0,562.0,-562.0,157.0
19:40:14.429000,-518.0,-954.0,-985.0,-843.0,-357.0,-461.0,562.0,-562.0,157.0
19:40:14.434000,-506.0,-933.0,-919.0,-843.0,-357.0,-461.0,568.0,-565.0,159.0
19:40:14.439000,-497.0,-913.0,-852.0,-819.0,-402.0,-454.0,568.0,-565.0,159.0
19:40:14.443000,-475.0,-896.0,-826.0,-847.0,-406.0,-446.0,568.0,-565.0,159.0
19:40:14.448000,-461.0,-877.0,-830.0,-875.0,-406.0,-440.0,561.0,-565.0,144.0
19:40:14.453000,-430.0,-858.0,-841.0,-873.0,-411.0,-430.0,561.0,-565.0,144.0
19:40:14.458000,-396.0,-845.0,-878.0,-861.0,-390.0,-425.0,567.0,-550.0,139.0
19:40:14.462000,-373.0,-823.0,-918.0,-866.0,-382.0,-414.0,567.0,-550.0,139.0
19:40:14.466000,-373.0,-823.0,-918.0,-847.0,-401.0,-408.0,567.0,-550.0,139.0
19:40:14.472000,-341.0,-802.0,-831.0,-872.0,-412.0,-404.0,576.0,-543.0,129.0
19:40:14.476000,-326.0,-781.0,-823.0,-921.0,-352.0,-392.0,576.0,-543.0,129.0
19:40:14.481000,-315.0,-760.0,-854.0,-911.0,-362.0,-385.0,562.0,-549.0,112.0
19:40:14.486000,-297.0,-744.0,-774.0,-905.0,-390.0,-386.0,562.0,-549.0,112.0
19:40:14.490000,-294.0,-711.0,-712.0,-939.0,-359.0,-381.0,562.0,-549.0,112.0
19:40:14.495000,-270.0,-695.0,-667.0,-975.0,-322.0,-374.0,577.0,-538.0,123.0
19:40:14.500000,-252.0,-673.0,-673.0,-989.0,-275.0,-363.0,577.0,-538.0,123.0
19:40:14.505000,-243.0,-651.0,-736.0,-972.0,-232.0,-350.0,571.0,-535.0,120.0
19:40:14.509000,-217.0,-639.0,-772.0,-920.0,-242.0,-339.0,571.0,-535.0,120.0
19:40:14.513000,-221.0,-619.0,-711.0,-890.0,-268.0,-326.0,571.0,-535.0,120.0
19:40:14.519000,-232.0,-595.0,-639.0,-919.0,-254.0,-316.0,567.0,-531.0,103.0
19:40:14.523000,-226.0,-585.0,-617.0,-960.0,-258.0,-312.0,567.0,-531.0,103.0
19:40:14.528000,-214.0,-572.0,-599.0,-960.0,-258.0,-312.0,580.0,-525.0,99.0
19:40:14.533000,-215.0,-554.0,-624.0,-976.0,-231.0,-311.0,580.0,-525.0,99.0
19:40:14.537000,-200.0,-546.0,-616.0,-958.0,-231.0,-303.0,580.0,-525.0,99.0
19:40:14.542000,-194.0,-533.0,-583.0,-916.0,-251.0,-298.0,573.0,-529.0,99.0
19:40:14.547000,-193.0,-525.0,-553.0,-906.0,-265.0,-289.0,573.0,-529.0,99.0
19:40:14.552000,-179.0,-522.0,-564.0,-933.0,-231.0,-278.0,576.0,-514.0,99.0
19:40:14.556000,-172.0,-514.0,-608.0,-923.0,-192.0,-263.0,576.0,-514.0,99.0
19:40:14.560000,-170.0,-513.0,-561.0,-923.0,-192.0,-263.0,576.0,-514.0,99.0
19:40:14.566000,-168.0,-503.0,-515.0,-894.0,-189.0,-257.0,577.0,-514.0,93.0
19:40:14.570000,-168.0,-495.0,-541.0,-918.0,-147.0,-253.0,577.0,-514.0,93.0
19:40:14.575000,-169.0,-489.0,-591.0,-953.0,-116.0,-242.0,579.0,-504.0,91.0
19:40:14.580000,-169.0,-489.0,-591.0,-937.0,-132.0,-234.0,579.0,-504.0,91.0
19:40:14.584000,-167.0,-486.0,-532.0,-912.0,-161.0,-226.0,579.0,-504.0,91.0
19:40:14.589000,-184.0,-478.0,-429.0,-943.0,-125.0,-219.0,577.0,-514.0,90.0
19:40:14.594000,-211.0,-461.0,-411.0,-983.0,-71.0,-216.0,577.0,-514.0,90.0
19:40:14.598000,-212.0,-452.0,-418.0,-988.0,-76.0,-214.0,591.0,-502.0,76.0
19:40:14.603000,-210.0,-443.0,-380.0,-984.0,-95.0,-210.0,591.0,-502.0,76.0
19:40:14.607000,-231.0,-429.0,-358.0,-985.0,-74.0,-203.0,591.0,-502.0,76.0
19:40:14.613000,-247.0,-417.0,-363.0,-978.0,-73.0,-199.0,568.0,-502.0,93.0
19:40:14.617000,-261.0,-406.0,-320.0,-959.0,-104.0,-195.0,568.0,-502.0,93.0
19:40:14.622000,-270.0,-402.0,-205.0,-965.0,-98.0,-186.0,582.0,-486.0,73.0
19:40:14.627000,-293.0,-398.0,-155.0,-1000.0,-44.0,-178.0,582.0,-486.0,73.0
19:40:14.631000,-312.0,-391.0,-206.0,-1005.0,-28.0,-173.0,582.0,-486.0,73.0
19:40:14.636000,-317.0,-392.0,-221.0,-982.0,-67.0,-166.0,579.0,-501.0,70.0
19:40:14.640000,-348.0,-380.0,-196.0,-967.0,-98.0,-160.0,579.0,-501.0,70.0
19:40:14.645000,-358.0,-390.0,-127.0,-967.0,-98.0,-160.0,586.0,-498.0,90.0
19:40:14.650000,-389.0,-392.0,-103.0,-971.0,-85.0,-152.0,586.0,-498.0,90.0
19:40:14.655000,-423.0,-396.0,-146.0,-981.0,-18.0,-144.0,588.0,-498.0,73.0
19:40:14.660000,-450.0,-406.0,-162.0,-965.0,27.0,-136.0,588.0,-498.0,73.0
19:40:14.664000,-492.0,-413.0,-157.0,-951.0,31.0,-126.0,588.0,-498.0,73.0
19:40:14.669000,-521.0,-429.0,-164.0,-970.0,45.0,-117.0,583.0,-486.0,61.0
19:40:14.674000,-560.0,-443.0,-153.0,-980.0,41.0,-112.0,583.0,-486.0,61.0
19:40:14.678000,-590.0,-465.0,-97.0,-972.0,5.0,-110.0,586.0,-489.0,52.0
19:40:14.683000,-632.0,-481.0,-91.0,-986.0,-6.0,-107.0,586.0,-489.0,52.0
19:40:14.687000,-632.0,-481.0,-91.0,-1017.0,34.0,-97.0,586.0,-489.0,52.0
19:40:14.692000,-662.0,-504.0,-130.0,-1015.0,66.0,-91.0,591.0,-489.0,55.0
19:40:14.697000,-693.0,-529.0,-128.0,-976.0,56.0,-84.0,591.0,-489.0,55.0
19:40:14.702000,-745.0,-548.0,-107.0,-955.0,51.0,-76.0,570.0,-481.0,48.0
19:40:14.707000,-775.0,-569.0,-91.0,-995.0,85.0,-73.0,570.0,-481.0,48.0
19:40:14.711000,-815.0,-588.0,-143.0,-1029.0,99.0,-62.0,570.0,-481.0,48.0
19:40:14.716000,-860.0,-609.0,-167.0,-1000.0,67.0,-51.0,583.0,-475.0,37.0
19:40:14.721000,-899.0,-637.0,-91.0,-989.0,48.0,-45.0,583.0,-475.0,37.0
19:40:14.725000,-958.0,-651.0,-26.0,-1018.0,65.0,-42.0,576.0,-468.0,40.0
19:40:14.730000,-1001.0,-672.0,-16.0,-1056.0,86.0,-38.0,576.0,-468.0,40.0
19:40:14.734000,-1040.0,-694.0,-56.0,-1058.0,72.0,-32.0,576.0,-468.0,40.0
19:40:14.739000,-1084.0,-715.0,-85.0,-1021.0,21.0,-30.0,562.0,-477.0,54.0
19:40:14.744000,-1113.0,-740.0,-60.0,-1015.0,-5.0,-31.0,562.0,-477.0,54.0
19:40:14.749000,-1155.0,-760.0,-42.0,-1015.0,-5.0,-31.0,586.0,-469.0,27.0
19:40:14.754000,-1204.0,-779.0,-30.0,-1042.0,7.0,-30.0,586.0,-469.0,27.0
19:40:14.758000,-1260.0,-800.0,-14.0,-1071.0,37.0,-30.0,586.0,-469.0,27.0
19:40:14.763000,-1339.0,-830.0,11.0,-1102.0,84.0,-22.0,574.0,-468.0,25.0
19:40:14.768000,-1431.0,-872.0,46.0,-1108.0,127.0,-6.0,574.0,-468.0,25.0
19:40:14.772000,-1536.0,-920.0,51.0,-1074.0,158.0,17.0,573.0,-459.0,13.0
19:40:14.777000,-1629.0,-971.0,34.0,-1005.0,161.0,39.0,573.0,-459.0,13.0
19:40:14.781000,-1717.0,-1035.0,7.0,-947.0,145.0,62.0,573.0,-459.0,13.0
19:40:14.786000,-1819.0,-1109.0,-28.0,-900.0,137.0,98.0,570.0,-451.0,-1.0
19:40:14.791000,-1911.0,-1191.0,-38.0,-832.0,132.0,130.0,570.0,-451.0,-1.0
19:40:14.796000,-2002.0,-1271.0,-57.0,-783.0,126.0,154.0,561.0,-448.0,-6.0
19:40:14.801000,-2002.0,-1271.0,-57.0,-774.0,123.0,180.0,561.0,-448.0,-6.0
19:40:14.805000,-2108.0,-1341.0,-125.0,-774.0,135.0,213.0,561.0,-448.0,-6.0
19:40:14.810000,-2209.0,-1420.0,-210.0,-755.0,141.0,249.0,558.0,-441.0,-13.0
19:40:14.815000,-2314.0,-1493.0,-246.0,-736.0,128.0,284.0,558.0,-441.0,-13.0
19:40:14.819000,-2429.0,-1555.0,-248.0,-748.0,132.0,324.0,556.0,-426.0,-24.0
19:40:14.824000,-2545.0,-1623.0,-291.0,-776.0,175.0,366.0,556.0,-426.0,-24.0
19:40:14.828000,-2659.0,-1682.0,-401.0,-777.0,193.0,401.0,556.0,-426.0,-24.0
19:40:14.833000,-2760.0,-1729.0,-466.0,-782.0,152.0,438.0,529.0,-415.0,-28.0
19:40:14.838000,-2866.0,-1766.0,-478.0,-839.0,134.0,473.0,529.0,-415.0,-28.0
19:40:14.843000,-2968.0,-1806.0,-538.0,-875.0,149.0,506.0,538.0,-406.0,-43.0
19:40:14.848000,-3057.0,-1853.0,-588.0,-850.0,131.0,541.0,538.0,-406.0,-43.0
19:40:14.852000,-3165.0,-1888.0,-597.0,-817.0,130.0,572.0,538.0,-406.0,-43.0
19:40:14.856000,-3253.0,-1924.0,-623.0,-834.0,191.0,602.0,528.0,-373.0,-58.0
19:40:14.862000,-3337.0,-1952.0,-760.0,-850.0,226.0,639.0,528.0,-373.0,-58.0
19:40:14.866000,-3423.0,-1990.0,-855.0,-850.0,226.0,639.0,513.0,-355.0,-46.0
19:40:14.871000,-3516.0,-2016.0,-879.0,-836.0,213.0,677.0,513.0,-355.0,-46.0
19:40:14.875000,-3597.0,-2055.0,-907.0,-855.0,235.0,714.0,513.0,-355.0,-46.0
19:40:14.880000,-3676.0,-2079.0,-956.0,-880.0,267.0,750.0,504.0,-345.0,-64.0
19:40:14.885000,-3745.0,-2107.0,-1045.0,-904.0,289.0,778.0,504.0,-345.0,-64.0
19:40:14.890000,-3806.0,-2139.0,-1078.0,-910.0,278.0,814.0,493.0,-318.0,-72.0
19:40:14.895000,-3848.0,-2161.0,-1119.0,-904.0,265.0,845.0,493.0,-318.0,-72.0
19:40:14.899000,-3848.0,-2161.0,-1119.0,-918.0,243.0,869.0,493.0,-318.0,-72.0
19:40:14.904000,-3921.0,-2187.0,-1082.0,-924.0,195.0,894.0,472.0,-262.0,-52.0
19:40:14.909000,-3921.0,-2187.0,-1082.0,-962.0,219.0,910.0,472.0,-262.0,-52.0
19:40:14.913000,-3947.0,-2193.0,-1142.0,-989.0,272.0,924.0,472.0,-262.0,-52.0
19:40:14.918000,-3960.0,-2198.0,-1172.0,-978.0,277.0,941.0,472.0,-262.0,-52.0
19:40:14.922000,-3985.0,-2198.0,-1150.0,-990.0,297.0,967.0,472.0,-262.0,-52.0
19:40:14.927000,-4011.0,-2202.0,-1150.0,-985.0,313.0,988.0,442.0,-220.0,-69.0
19:40:14.932000,-4025.0,-2209.0,-1135.0,-951.0,288.0,1005.0,442.0,-220.0,-69.0
19:40:14.937000,-4023.0,-2212.0,-1118.0,-919.0,266.0,1009.0,439.0,-202.0,-64.0
19:40:14.942000,-4000.0,-2210.0,-1076.0,-904.0,243.0,1023.0,439.0,-202.0,-64.0
19:40:14.949000,-3942.0,-2221.0,-1080.0,-877.0,267.0,1033.0,418.0,-175.0,-52.0
19:40:14.951000,-3942.0,-2221.0,-1080.0,-877.0,267.0,1033.0,418.0,-175.0,-52.0
19:40:14.955000,-3906.0,-2224.0,-1050.0,-828.0,251.0,1033.0,418.0,-175.0,-52.0
19:40:14.960000,-3864.0,-2218.0,-1018.0,-827.0,271.0,1021.0,409.0,-165.0,-36.0
19:40:14.965000,-3805.0,-2211.0,-1000.0,-829.0,274.0,1019.0,409.0,-165.0,-36.0
19:40:14.970000,-3766.0,-2210.0,-932.0,-829.0,274.0,1019.0,394.0,-139.0,-31.0
19:40:14.974000,-3733.0,-2187.0,-828.0,-809.0,251.0,1007.0,394.0,-139.0,-31.0
19:40:14.979000,-3684.0,-2174.0,-752.0,-803.0,254.0,986.0,394.0,-139.0,-31.0
19:40:14.984000,-3635.0,-2137.0,-762.0,-821.0,299.0,958.0,376.0,-121.0,-22.0
19:40:14.989000,-3586.0,-2095.0,-802.0,-870.0,421.0,913.0,376.0,-121.0,-22.0
19:40:14.993000,-3528.0,-2071.0,-821.0,-870.0,421.0,913.0,351.0,-91.0,22.0
19:40:14.998000,-3472.0,-2037.0,-803.0,-861.0,443.0,903.0,351.0,-91.0,22.0
19:40:15.002000,-3427.0,-2008.0,-757.0,-834.0,421.0,893.0,351.0,-91.0,22.0
19:40:15.007000,-3377.0,-1979.0,-702.0,-810.0,385.0,879.0,343.0,-70.0,21.0
19:40:15.012000,-3315.0,-1944.0,-655.0,-783.0,345.0,847.0,343.0,-70.0,21.0
19:40:15.017000,-3248.0,-1944.0,-651.0,-768.0,337.0,818.0,337.0,-61.0,42.0
19:40:15.021000,-3248.0,-1918.0,-651.0,-753.0,372.0,786.0,337.0,-61.0,42.0
19:40:15.026000,-3183.0,-1879.0,-667.0,-740.0,414.0,750.0,337.0,-61.0,42.0
19:40:15.031000,-3110.0,-1841.0,-686.0,-744.0,455.0,716.0,334.0,-42.0,51.0
19:40:15.036000,-3041.0,-1798.0,-720.0,-735.0,457.0,687.0,334.0,-42.0,51.0
19:40:15.040000,-2978.0,-1759.0,-697.0,-730.0,446.0,661.0,307.0,-49.0,76.0
19:40:15.045000,-2907.0,-1726.0,-666.0,-747.0,468.0,629.0,307.0,-49.0,76.0
19:40:15.049000,-2837.0,-1683.0,-651.0,-756.0,489.0,604.0,307.0,-49.0,76.0
19:40:15.054000,-2766.0,-1648.0,-640.0,-740.0,489.0,581.0,307.0,-31.0,84.0
19:40:15.059000,-2692.0,-1615.0,-630.0,-707.0,482.0,555.0,307.0,-31.0,84.0
19:40:15.064000,-2614.0,-1582.0,-627.0,-670.0,477.0,519.0,298.0,-22.0,123.0
19:40:15.068000,-2526.0,-1537.0,-632.0,-645.0,484.0,484.0,298.0,-22.0,123.0
19:40:15.073000,-2439.0,-1493.0,-645.0,-645.0,503.0,459.0,298.0,-22.0,123.0
19:40:15.078000,-2356.0,-1449.0,-653.0,-657.0,530.0,437.0,279.0,-16.0,144.0
19:40:15.083000,-2283.0,-1408.0,-657.0,-657.0,530.0,437.0,279.0,-16.0,144.0
19:40:15.087000,-2212.0,-1371.0,-651.0,-660.0,562.0,418.0,292.0,-9.0,153.0
19:40:15.092000,-2142.0,-1333.0,-632.0,-605.0,597.0,380.0,292.0,-9.0,153.0
19:40:15.096000,-2072.0,-1295.0,-609.0,-605.0,597.0,380.0,292.0,-9.0,153.0
19:40:15.101000,-2006.0,-1261.0,-590.0,-589.0,602.0,366.0,274.0,-12.0,168.0
19:40:15.106000,-1938.0,-1229.0,-581.0,-586.0,606.0,352.0,274.0,-12.0,168.0
19:40:15.111000,-1869.0,-1201.0,-581.0,-590.0,611.0,335.0,268.0,-1.0,174.0
19:40:15.115000,-1804.0,-1182.0,-563.0,-584.0,606.0,321.0,268.0,-1.0,174.0
19:40:15.120000,-1804.0,-1182.0,-563.0,-554.0,589.0,302.0,268.0,-1.0,174.0
19:40:15.125000,-1680.0,-1131.0,-498.0,-519.0,588.0,282.0,283.0,-4.0,201.0
19:40:15.130000,-1680.0,-1131.0,-498.0,-499.0,615.0,271.0,283.0,-4.0,201.0
19:40:15.134000,-1626.0,-1112.0,-492.0,-487.0,654.0,254.0,267.0,1.0,204.0
19:40:15.139000,-1570.0,-1089.0,-506.0,-481.0,690.0,234.0,267.0,1.0,204.0
19:40:15.143000,-1514.0,-1064.0,-529.0,-470.0,711.0,222.0,267.0,1.0,204.0
19:40:15.148000,-1465.0,-1044.0,-530.0,-461.0,724.0,211.0,247.0,0.0,226.0
19:40:15.153000,-1420.0,-1022.0,-518.0,-463.0,733.0,197.0,247.0,0.0,226.0
19:40:15.158000,-1374.0,-998.0,-518.0,-467.0,743.0,181.0,253.0,1.0,238.0
19:40:15.162000,-1329.0,-969.0,-539.0,-474.0,759.0,162.0,253.0,1.0,238.0
19:40:15.167000,-1284.0,-933.0,-570.0,-482.0,773.0,144.0,253.0,1.0,238.0
19:40:15.172000,-1243.0,-898.0,-593.0,-485.0,782.0,132.0,241.0,3.0,244.0
19:40:15.177000,-1206.0,-865.0,-592.0,-480.0,777.0,122.0,241.0,3.0,244.0
19:40:15.181000,-1170.0,-835.0,-570.0,-480.0,777.0,122.0,241.0,9.0,252.0
19:40:15.186000,-1132.0,-806.0,-548.0,-458.0,756.0,102.0,241.0,9.0,252.0
19:40:15.190000,-1094.0,-776.0,-527.0,-458.0,756.0,102.0,241.0,9.0,252.0
19:40:15.195000,-1054.0,-744.0,-499.0,-440.0,752.0,91.0,238.0,3.0,253.0
19:40:15.200000,-1012.0,-714.0,-466.0,-423.0,743.0,78.0,238.0,3.0,253.0
19:40:15.204000,-972.0,-683.0,-433.0,-411.0,745.0,57.0,238.0,3.0,282.0
19:40:15.209000,-937.0,-650.0,-404.0,-411.0,745.0,57.0,238.0,3.0,282.0
19:40:15.214000,-908.0,-614.0,-380.0,-410.0,760.0,50.0,238.0,3.0,282.0
19:40:15.219000,-882.0,-581.0,-363.0,-408.0,780.0,43.0,235.0,-9.0,270.0
19:40:15.224000,-860.0,-550.0,-350.0,-406.0,799.0,37.0,235.0,-9.0,270.0
19:40:15.228000,-838.0,-522.0,-349.0,-399.0,811.0,34.0,235.0,6.0,282.0
19:40:15.233000,-816.0,-497.0,-352.0,-381.0,813.0,30.0,235.0,6.0,282.0
19:40:15.237000,-816.0,-497.0,-352.0,-353.0,808.0,25.0,235.0,6.0,282.0
19:40:15.242000,-795.0,-473.0,-343.0,-330.0,799.0,19.0,232.0,-9.0,288.0
19:40:15.247000,-769.0,-458.0,-336.0,-320.0,801.0,17.0,232.0,-9.0,288.0
19:40:15.251000,-739.0,-448.0,-354.0,-312.0,806.0,19.0,228.0,-6.0,298.0
19:40:15.256000,-708.0,-443.0,-380.0,-292.0,795.0,22.0,228.0,-6.0,298.0
19:40:15.261000,-674.0,-441.0,-389.0,-271.0,780.0,28.0,211.0,0.0,300.0
19:40:15.266000,-641.0,-446.0,-387.0,-253.0,773.0,35.0,211.0,0.0,300.0
19:40:15.270000,-606.0,-452.0,-389.0,-234.0,770.0,40.0,211.0,0.0,300.0
19:40:15.275000,-569.0,-455.0,-383.0,-217.0,763.0,44.0,228.0,-10.0,297.0
