hh:mm:ss.ms,gyroX[mdps],gyroY[mdps],gyroZ[mdps],accX[mg],accY[mg],accZ[mg],magX[mG],magY[mG],magZ[mG]
19:39:38.279000,-1333.0,-480.0,1277.0,-248.0,-547.0,-261.0,402.0,-613.0,414.0
19:39:38.284000,-1350.0,-490.0,1313.0,-214.0,-550.0,-236.0,402.0,-613.0,414.0
19:39:38.289000,-1362.0,-510.0,1367.0,-173.0,-586.0,-210.0,402.0,-613.0,414.0
19:39:38.293000,-1378.0,-529.0,1465.0,-123.0,-619.0,-179.0,405.0,-627.0,384.0
19:39:38.298000,-1395.0,-557.0,1585.0,-136.0,-620.0,-135.0,405.0,-627.0,384.0
19:39:38.302000,-1416.0,-578.0,1690.0,-136.0,-633.0,-103.0,405.0,-627.0,384.0
19:39:38.307000,-1444.0,-588.0,1778.0,-49.0,-615.0,-86.0,402.0,-643.0,373.0
19:39:38.312000,-1476.0,-610.0,1857.0,57.0,-589.0,-64.0,402.0,-643.0,373.0
19:39:38.317000,-1512.0,-637.0,1953.0,57.0,-589.0,-64.0,391.0,-649.0,355.0
19:39:38.321000,-1537.0,-662.0,2062.0,199.0,-650.0,-21.0,391.0,-649.0,355.0
19:39:38.326000,-1559.0,-691.0,2177.0,199.0,-650.0,-21.0,391.0,-649.0,355.0
19:39:38.331000,-1580.0,-714.0,2289.0,230.0,-688.0,5.0,367.0,-675.0,367.0
19:39:38.336000,-1586.0,-735.0,2396.0,242.0,-729.0,18.0,367.0,-675.0,367.0
19:39:38.340000,-1594.0,-757.0,2503.0,240.0,-782.0,35.0,376.0,-667.0,334.0
19:39:38.345000,-1601.0,-779.0,2597.0,224.0,-842.0,57.0,376.0,-667.0,334.0
19:39:38.349000,-1603.0,-801.0,2670.0,214.0,-876.0,82.0,376.0,-667.0,334.0
19:39:38.354000,-1602.0,-823.0,2743.0,227.0,-901.0,109.0,358.0,-670.0,325.0
19:39:38.359000,-1605.0,-845.0,2827.0,269.0,-939.0,134.0,358.0,-670.0,325.0
19:39:38.363000,-1605.0,-845.0,2827.0,322.0,-981.0,163.0,330.0,-699.0,321.0
19:39:38.368000,-1600.0,-885.0,2938.0,375.0,-1004.0,192.0,330.0,-699.0,321.0
19:39:38.373000,-1600.0,-885.0,2938.0,439.0,-1036.0,218.0,330.0,-699.0,321.0
19:39:38.378000,-1593.0,-905.0,2982.0,510.0,-1057.0,238.0,312.0,-699.0,304.0
19:39:38.383000,-1570.0,-922.0,3031.0,556.0,-1041.0,253.0,312.0,-699.0,304.0
19:39:38.387000,-1554.0,-939.0,3066.0,573.0,-1016.0,275.0,286.0,-708.0,286.0
19:39:38.392000,-1542.0,-949.0,3089.0,589.0,-985.0,297.0,286.0,-708.0,286.0
19:39:38.396000,-1530.0,-956.0,3123.0,617.0,-949.0,314.0,286.0,-708.0,286.0
19:39:38.401000,-1528.0,-968.0,3157.0,635.0,-922.0,330.0,279.0,-705.0,274.0
19:39:38.405000,-1530.0,-977.0,3172.0,637.0,-911.0,334.0,279.0,-705.0,274.0
19:39:38.411000,-1541.0,-982.0,3199.0,630.0,-895.0,330.0,270.0,-697.0,270.0
19:39:38.415000,-1549.0,-982.0,3264.0,611.0,-899.0,345.0,270.0,-697.0,270.0
19:39:38.420000,-1560.0,-983.0,3355.0,589.0,-929.0,381.0,255.0,-700.0,261.0
19:39:38.425000,-1570.0,-996.0,3451.0,574.0,-944.0,416.0,255.0,-700.0,261.0
19:39:38.429000,-1586.0,-1001.0,3530.0,570.0,-935.0,432.0,255.0,-700.0,261.0
19:39:38.434000,-1586.0,-989.0,3579.0,570.0,-950.0,435.0,234.0,-703.0,252.0
19:39:38.439000,-1587.0,-987.0,3650.0,590.0,-950.0,435.0,234.0,-703.0,252.0
19:39:38.444000,-1575.0,-993.0,3710.0,621.0,-976.0,443.0,201.0,-702.0,246.0
19:39:38.448000,-1540.0,-988.0,3673.0,630.0,-982.0,450.0,201.0,-702.0,246.0
19:39:38.452000,-1506.0,-991.0,3619.0,708.0,-1039.0,488.0,201.0,-702.0,246.0
19:39:38.458000,-1466.0,-984.0,3592.0,708.0,-1039.0,488.0,172.0,-703.0,243.0
19:39:38.462000,-1409.0,-975.0,3573.0,726.0,-1034.0,494.0,172.0,-703.0,243.0
19:39:38.467000,-1360.0,-970.0,3560.0,728.0,-1029.0,498.0,171.0,-705.0,232.0
19:39:38.472000,-1312.0,-968.0,3528.0,751.0,-1058.0,509.0,171.0,-705.0,232.0
19:39:38.476000,-1312.0,-968.0,3528.0,744.0,-1033.0,518.0,171.0,-705.0,232.0
19:39:38.481000,-1250.0,-947.0,3463.0,684.0,-930.0,528.0,154.0,-681.0,231.0
19:39:38.486000,-1220.0,-917.0,3378.0,642.0,-852.0,536.0,154.0,-681.0,231.0
19:39:38.491000,-1186.0,-896.0,3355.0,636.0,-848.0,548.0,135.0,-687.0,226.0
19:39:38.495000,-1169.0,-870.0,3388.0,631.0,-842.0,548.0,135.0,-687.0,226.0
19:39:38.499000,-1139.0,-840.0,3384.0,635.0,-786.0,539.0,135.0,-687.0,226.0
19:39:38.505000,-1115.0,-819.0,3343.0,657.0,-732.0,544.0,130.0,-672.0,231.0
19:39:38.509000,-1089.0,-798.0,3329.0,676.0,-682.0,572.0,130.0,-672.0,231.0
19:39:38.514000,-1083.0,-788.0,3325.0,683.0,-620.0,591.0,112.0,-676.0,223.0
19:39:38.519000,-1087.0,-756.0,3286.0,699.0,-552.0,589.0,112.0,-676.0,223.0
19:39:38.523000,-1078.0,-723.0,3240.0,750.0,-539.0,602.0,112.0,-676.0,223.0
19:39:38.528000,-1087.0,-700.0,3255.0,808.0,-582.0,622.0,82.0,-660.0,205.0
19:39:38.533000,-1085.0,-674.0,3318.0,833.0,-606.0,635.0,82.0,-660.0,205.0
19:39:38.537000,-1084.0,-647.0,3353.0,866.0,-585.0,645.0,81.0,-646.0,208.0
19:39:38.542000,-1104.0,-620.0,3358.0,937.0,-537.0,657.0,81.0,-646.0,208.0
19:39:38.546000,-1119.0,-599.0,3388.0,937.0,-537.0,657.0,81.0,-646.0,208.0
19:39:38.552000,-1144.0,-570.0,3404.0,997.0,-491.0,661.0,72.0,-645.0,211.0
19:39:38.556000,-1164.0,-540.0,3389.0,1030.0,-450.0,666.0,72.0,-645.0,211.0
19:39:38.561000,-1182.0,-508.0,3369.0,1069.0,-430.0,668.0,61.0,-624.0,210.0
19:39:38.566000,-1195.0,-478.0,3353.0,1121.0,-411.0,670.0,61.0,-624.0,210.0
19:39:38.570000,-1199.0,-450.0,3315.0,1167.0,-398.0,677.0,61.0,-624.0,210.0
19:39:38.575000,-1199.0,-435.0,3255.0,1202.0,-385.0,687.0,46.0,-616.0,204.0
19:39:38.579000,-1199.0,-435.0,3255.0,1243.0,-379.0,691.0,46.0,-616.0,204.0
19:39:38.585000,-1188.0,-411.0,3162.0,1279.0,-379.0,687.0,37.0,-606.0,204.0
19:39:38.589000,-1168.0,-407.0,3137.0,1308.0,-371.0,691.0,37.0,-606.0,204.0
19:39:38.594000,-1168.0,-407.0,3137.0,1343.0,-406.0,692.0,22.0,-600.0,196.0
19:39:38.599000,-1133.0,-405.0,3108.0,1392.0,-452.0,685.0,22.0,-600.0,196.0
19:39:38.603000,-1101.0,-399.0,3095.0,1429.0,-444.0,673.0,22.0,-600.0,196.0
19:39:38.608000,-1071.0,-389.0,3076.0,1446.0,-393.0,662.0,15.0,-577.0,210.0
19:39:38.613000,-1035.0,-383.0,3070.0,1474.0,-343.0,658.0,15.0,-577.0,210.0
19:39:38.618000,-1003.0,-375.0,3051.0,1483.0,-324.0,662.0,12.0,-562.0,196.0
19:39:38.622000,-979.0,-358.0,2984.0,1471.0,-299.0,661.0,12.0,-562.0,196.0
19:39:38.626000,-938.0,-350.0,2924.0,1464.0,-288.0,665.0,12.0,-562.0,196.0
19:39:38.632000,-917.0,-332.0,2916.0,1456.0,-278.0,671.0,-1.0,-556.0,205.0
19:39:38.636000,-919.0,-306.0,2900.0,1439.0,-194.0,661.0,-1.0,-556.0,205.0
19:39:38.641000,-913.0,-293.0,2857.0,1439.0,-194.0,661.0,3.0,-552.0,195.0
19:39:38.646000,-907.0,-277.0,2851.0,1478.0,-94.0,644.0,3.0,-552.0,195.0
19:39:38.650000,-900.0,-256.0,2885.0,1501.0,-48.0,639.0,3.0,-552.0,195.0
19:39:38.655000,-889.0,-243.0,2919.0,1501.0,-48.0,639.0,3.0,-541.0,199.0
19:39:38.660000,-875.0,-223.0,2911.0,1507.0,-21.0,644.0,3.0,-541.0,199.0
19:39:38.665000,-867.0,-217.0,2843.0,1525.0,12.0,643.0,-21.0,-520.0,196.0
19:39:38.669000,-864.0,-219.0,2810.0,1689.0,-11.0,651.0,-21.0,-520.0,196.0
19:39:38.673000,-857.0,-216.0,2860.0,1689.0,-11.0,651.0,-21.0,-520.0,196.0
19:39:38.679000,-854.0,-211.0,2905.0,1734.0,-19.0,643.0,-24.0,-496.0,205.0
19:39:38.683000,-856.0,-214.0,2917.0,1733.0,27.0,643.0,-24.0,-496.0,205.0
19:39:38.688000,-856.0,-214.0,2909.0,1738.0,81.0,640.0,-33.0,-487.0,202.0
19:39:38.693000,-854.0,-207.0,2910.0,1732.0,118.0,618.0,-33.0,-487.0,202.0
19:39:38.697000,-854.0,-207.0,2910.0,1706.0,133.0,613.0,-33.0,-487.0,202.0
19:39:38.702000,-869.0,-203.0,2930.0,1678.0,149.0,622.0,-39.0,-490.0,205.0
19:39:38.707000,-889.0,-202.0,2949.0,1664.0,176.0,623.0,-39.0,-490.0,205.0
19:39:38.712000,-904.0,-205.0,2940.0,1669.0,203.0,609.0,-37.0,-466.0,199.0
19:39:38.716000,-928.0,-198.0,2934.0,1664.0,208.0,601.0,-37.0,-466.0,199.0
19:39:38.720000,-959.0,-198.0,2946.0,1649.0,193.0,595.0,-37.0,-466.0,199.0
19:39:38.726000,-975.0,-200.0,2981.0,1646.0,152.0,573.0,-33.0,-453.0,201.0
19:39:38.730000,-973.0,-197.0,3031.0,1658.0,106.0,564.0,-33.0,-453.0,201.0
19:39:38.735000,-968.0,-193.0,3094.0,1677.0,86.0,561.0,-37.0,-445.0,198.0
19:39:38.740000,-967.0,-205.0,3140.0,1673.0,115.0,548.0,-37.0,-445.0,198.0
19:39:38.744000,-968.0,-217.0,3135.0,1663.0,159.0,533.0,-37.0,-445.0,198.0
19:39:38.749000,-970.0,-235.0,3137.0,1666.0,181.0,521.0,-42.0,-418.0,195.0
19:39:38.754000,-965.0,-252.0,3173.0,1666.0,186.0,514.0,-42.0,-418.0,195.0
19:39:38.759000,-972.0,-264.0,3218.0,1666.0,186.0,514.0,-55.0,-402.0,214.0
19:39:38.763000,-961.0,-279.0,3247.0,1649.0,99.0,498.0,-55.0,-402.0,214.0
19:39:38.767000,-957.0,-289.0,3219.0,1604.0,110.0,472.0,-55.0,-402.0,214.0
19:39:38.773000,-969.0,-305.0,3129.0,1552.0,147.0,466.0,-34.0,-387.0,207.0
19:39:38.777000,-962.0,-321.0,3073.0,1547.0,184.0,454.0,-34.0,-387.0,207.0
19:39:38.782000,-950.0,-333.0,3133.0,1574.0,221.0,432.0,-34.0,-369.0,205.0
19:39:38.787000,-949.0,-347.0,3194.0,1527.0,272.0,428.0,-34.0,-369.0,205.0
19:39:38.791000,-952.0,-362.0,3194.0,1406.0,338.0,435.0,-34.0,-369.0,205.0
19:39:38.796000,-961.0,-368.0,3129.0,1302.0,370.0,426.0,-40.0,-355.0,211.0
19:39:38.801000,-943.0,-392.0,3021.0,1261.0,382.0,416.0,-40.0,-355.0,211.0
19:39:38.806000,-907.0,-410.0,2963.0,1282.0,357.0,402.0,-33.0,-340.0,214.0
19:39:38.810000,-907.0,-410.0,2963.0,1328.0,296.0,391.0,-33.0,-340.0,214.0
19:39:38.814000,-863.0,-421.0,2982.0,1333.0,256.0,394.0,-33.0,-340.0,214.0
19:39:38.820000,-826.0,-437.0,3014.0,1289.0,274.0,393.0,-34.0,-304.0,225.0
19:39:38.824000,-779.0,-446.0,3032.0,1254.0,313.0,382.0,-34.0,-304.0,225.0
19:39:38.829000,-731.0,-450.0,3061.0,1208.0,365.0,378.0,-13.0,-295.0,229.0
19:39:38.834000,-701.0,-448.0,3066.0,1121.0,424.0,367.0,-13.0,-295.0,229.0
19:39:38.838000,-670.0,-438.0,3049.0,1025.0,467.0,339.0,-13.0,-295.0,229.0
19:39:38.843000,-654.0,-422.0,3010.0,940.0,496.0,326.0,-19.0,-279.0,234.0
19:39:38.848000,-634.0,-407.0,2949.0,899.0,483.0,302.0,-19.0,-279.0,234.0
19:39:38.853000,-601.0,-397.0,2935.0,893.0,446.0,284.0,-10.0,-268.0,234.0
19:39:38.857000,-578.0,-393.0,2977.0,874.0,435.0,277.0,-10.0,-268.0,234.0
19:39:38.861000,-560.0,-380.0,3007.0,837.0,504.0,262.0,-10.0,-268.0,234.0
19:39:38.867000,-540.0,-373.0,2990.0,809.0,597.0,258.0,-6.0,-246.0,237.0
19:39:38.871000,-521.0,-367.0,2937.0,820.0,655.0,255.0,-6.0,-246.0,237.0
19:39:38.876000,-502.0,-367.0,2877.0,820.0,655.0,255.0,4.0,-238.0,240.0
19:39:38.881000,-489.0,-364.0,2820.0,857.0,698.0,253.0,4.0,-238.0,240.0
19:39:38.894000,-466.0,-371.0,2742.0,926.0,675.0,269.0,9.0,-217.0,262.0
19:39:38.900000,-471.0,-378.0,2715.0,922.0,677.0,274.0,28.0,-201.0,253.0
19:39:38.904000,-470.0,-385.0,2695.0,915.0,704.0,270.0,28.0,-201.0,253.0
19:39:38.909000,-466.0,-385.0,2690.0,905.0,734.0,266.0,40.0,-195.0,256.0
19:39:38.914000,-466.0,-381.0,2686.0,876.0,752.0,271.0,40.0,-195.0,256.0
19:39:38.918000,-466.0,-381.0,2686.0,835.0,774.0,275.0,40.0,-195.0,256.0
19:39:38.923000,-474.0,-374.0,2669.0,808.0,814.0,277.0,54.0,-178.0,273.0
19:39:38.928000,-488.0,-363.0,2650.0,789.0,833.0,280.0,54.0,-178.0,273.0
19:39:38.932000,-509.0,-350.0,2657.0,760.0,850.0,281.0,64.0,-166.0,270.0
19:39:38.937000,-539.0,-331.0,2667.0,683.0,902.0,280.0,64.0,-166.0,270.0
19:39:38.941000,-580.0,-308.0,2629.0,588.0,937.0,275.0,64.0,-166.0,270.0
19:39:38.946000,-623.0,-283.0,2583.0,573.0,899.0,272.0,76.0,-157.0,268.0
19:39:38.951000,-645.0,-263.0,2588.0,587.0,828.0,267.0,76.0,-157.0,268.0
19:39:38.956000,-670.0,-251.0,2604.0,582.0,798.0,264.0,82.0,-151.0,271.0
19:39:38.961000,-695.0,-233.0,2617.0,585.0,809.0,256.0,82.0,-151.0,271.0
19:39:38.965000,-707.0,-218.0,2607.0,573.0,860.0,247.0,82.0,-151.0,271.0
19:39:38.970000,-725.0,-207.0,2567.0,533.0,915.0,243.0,96.0,-147.0,274.0
19:39:38.975000,-732.0,-191.0,2508.0,500.0,939.0,239.0,96.0,-147.0,274.0
19:39:38.979000,-750.0,-185.0,2463.0,500.0,939.0,239.0,120.0,-124.0,283.0
19:39:38.984000,-758.0,-183.0,2433.0,486.0,938.0,237.0,120.0,-124.0,283.0
19:39:38.988000,-763.0,-179.0,2402.0,430.0,907.0,228.0,132.0,-123.0,303.0
19:39:38.994000,-766.0,-179.0,2363.0,430.0,907.0,228.0,132.0,-123.0,303.0
19:39:38.998000,-770.0,-175.0,2315.0,381.0,873.0,227.0,132.0,-123.0,303.0
19:39:39.003000,-760.0,-172.0,2270.0,355.0,832.0,225.0,139.0,-123.0,288.0
19:39:39.008000,-753.0,-177.0,2228.0,353.0,808.0,217.0,139.0,-123.0,288.0
19:39:39.012000,-740.0,-179.0,2193.0,378.0,796.0,215.0,147.0,-121.0,297.0
19:39:39.017000,-723.0,-178.0,2149.0,398.0,806.0,202.0,147.0,-121.0,297.0
19:39:39.021000,-723.0,-178.0,2149.0,368.0,858.0,193.0,147.0,-121.0,297.0
19:39:39.026000,-705.0,-163.0,2018.0,304.0,929.0,187.0,160.0,-109.0,295.0
19:39:39.031000,-705.0,-163.0,2018.0,234.0,960.0,191.0,160.0,-109.0,295.0
19:39:39.036000,-707.0,-156.0,1957.0,186.0,946.0,191.0,175.0,-102.0,298.0
19:39:39.041000,-702.0,-146.0,1917.0,153.0,906.0,188.0,175.0,-102.0,298.0
19:39:39.045000,-704.0,-135.0,1892.0,113.0,864.0,186.0,175.0,-102.0,298.0
19:39:39.050000,-697.0,-121.0,1870.0,71.0,813.0,177.0,183.0,-100.0,312.0
19:39:39.055000,-688.0,-100.0,1843.0,57.0,765.0,162.0,183.0,-100.0,312.0
19:39:39.059000,-662.0,-79.0,1819.0,56.0,759.0,146.0,205.0,-93.0,322.0
19:39:39.064000,-645.0,-56.0,1794.0,32.0,791.0,137.0,205.0,-93.0,322.0
19:39:39.068000,-629.0,-40.0,1766.0,0.0,879.0,124.0,205.0,-93.0,322.0
19:39:39.073000,-623.0,-17.0,1725.0,-55.0,972.0,116.0,223.0,-109.0,321.0
19:39:39.078000,-622.0,-1.0,1660.0,-104.0,1056.0,112.0,223.0,-109.0,321.0
19:39:39.083000,-635.0,13.0,1590.0,-104.0,1056.0,112.0,228.0,-96.0,337.0
19:39:39.088000,-642.0,20.0,1537.0,-114.0,1016.0,97.0,228.0,-96.0,337.0
19:39:39.092000,-660.0,23.0,1504.0,-114.0,1016.0,97.0,228.0,-96.0,337.0
19:39:39.097000,-663.0,23.0,1475.0,-105.0,966.0,91.0,228.0,-105.0,324.0
19:39:39.102000,-674.0,20.0,1437.0,-101.0,925.0,85.0,228.0,-105.0,324.0
19:39:39.106000,-681.0,21.0,1388.0,-98.0,956.0,74.0,243.0,-93.0,334.0
19:39:39.111000,-697.0,16.0,1345.0,-104.0,983.0,65.0,243.0,-93.0,334.0
19:39:39.115000,-720.0,17.0,1311.0,-114.0,1006.0,61.0,243.0,-93.0,334.0
19:39:39.120000,-742.0,18.0,1263.0,-158.0,1023.0,42.0,244.0,-96.0,337.0
19:39:39.125000,-761.0,23.0,1241.0,-199.0,1005.0,20.0,244.0,-96.0,337.0
19:39:39.130000,-757.0,26.0,1229.0,-228.0,909.0,-9.0,243.0,-100.0,345.0
19:39:39.135000,-768.0,36.0,1200.0,-296.0,855.0,-13.0,243.0,-100.0,345.0
19:39:39.139000,-768.0,36.0,1200.0,-377.0,852.0,-6.0,243.0,-100.0,345.0
19:39:39.144000,-779.0,39.0,1168.0,-365.0,877.0,-17.0,274.0,-100.0,352.0
19:39:39.149000,-789.0,39.0,1155.0,-281.0,832.0,-30.0,274.0,-100.0,352.0
19:39:39.153000,-773.0,42.0,1131.0,-239.0,839.0,-52.0,268.0,-102.0,354.0
19:39:39.158000,-782.0,42.0,1075.0,-226.0,899.0,-53.0,268.0,-102.0,354.0
19:39:39.162000,-778.0,53.0,1012.0,-255.0,890.0,-58.0,268.0,-102.0,354.0
19:39:39.167000,-780.0,55.0,928.0,-262.0,973.0,-59.0,273.0,-109.0,361.0
19:39:39.172000,-793.0,58.0,861.0,-236.0,881.0,-56.0,273.0,-109.0,361.0
19:39:39.177000,-791.0,56.0,814.0,-205.0,848.0,-68.0,280.0,-102.0,357.0
19:39:39.182000,-806.0,51.0,790.0,-154.0,808.0,-69.0,280.0,-102.0,357.0
19:39:39.186000,-805.0,55.0,774.0,-128.0,745.0,-89.0,280.0,-102.0,357.0
19:39:39.191000,-809.0,49.0,743.0,-118.0,792.0,-95.0,283.0,-109.0,364.0
19:39:39.196000,-809.0,56.0,699.0,-161.0,723.0,-106.0,283.0,-109.0,364.0
19:39:39.200000,-799.0,58.0,634.0,-161.0,723.0,-106.0,289.0,-117.0,379.0
19:39:39.205000,-816.0,59.0,617.0,-189.0,804.0,-129.0,289.0,-117.0,379.0
19:39:39.209000,-809.0,62.0,627.0,-199.0,752.0,-127.0,289.0,-117.0,379.0
19:39:39.214000,-826.0,58.0,640.0,-231.0,733.0,-145.0,303.0,-123.0,373.0
19:39:39.219000,-801.0,65.0,665.0,-208.0,798.0,-168.0,303.0,-123.0,373.0
19:39:39.224000,-798.0,55.0,664.0,-204.0,669.0,-172.0,298.0,-115.0,376.0
19:39:39.229000,-785.0,59.0,655.0,-199.0,700.0,-182.0,298.0,-115.0,376.0
19:39:39.233000,-765.0,53.0,636.0,-173.0,674.0,-194.0,298.0,-115.0,376.0
19:39:39.238000,-752.0,47.0,613.0,-172.0,679.0,-202.0,289.0,-117.0,384.0
19:39:39.243000,-721.0,46.0,591.0,-190.0,690.0,-220.0,289.0,-117.0,384.0
19:39:39.247000,-541.0,46.0,591.0,-243.0,676.0,-222.0,294.0,-118.0,387.0
19:39:39.252000,-706.0,40.0,543.0,-264.0,657.0,-227.0,294.0,-118.0,387.0
19:39:39.256000,-669.0,34.0,520.0,-250.0,593.0,-241.0,294.0,-118.0,387.0
19:39:39.261000,-647.0,24.0,500.0,-257.0,568.0,-241.0,315.0,-115.0,409.0
19:39:39.266000,-622.0,21.0,481.0,-271.0,564.0,-252.0,315.0,-115.0,409.0
19:39:39.271000,-598.0,12.0,460.0,-273.0,635.0,-259.0,310.0,-130.0,394.0
19:39:39.276000,-568.0,8.0,441.0,-304.0,607.0,-264.0,310.0,-130.0,394.0
19:39:39.280000,-544.0,3.0,406.0,-324.0,670.0,-265.0,310.0,-130.0,394.0
19:39:39.285000,-537.0,4.0,380.0,-324.0,693.0,-278.0,309.0,-126.0,397.0
19:39:39.290000,-504.0,7.0,354.0,-347.0,671.0,-285.0,309.0,-126.0,397.0
19:39:39.294000,-506.0,8.0,338.0,-384.0,663.0,-286.0,312.0,-127.0,396.0
19:39:39.299000,-489.0,14.0,306.0,-415.0,688.0,-298.0,312.0,-127.0,396.0
19:39:39.303000,-490.0,6.0,256.0,-420.0,664.0,-288.0,312.0,-127.0,396.0
19:39:39.308000,-477.0,9.0,219.0,-405.0,628.0,-300.0,306.0,-129.0,396.0
19:39:39.313000,-462.0,0.0,183.0,-405.0,628.0,-300.0,306.0,-129.0,396.0
19:39:39.318000,-452.0,0.0,154.0,-394.0,646.0,-304.0,297.0,-138.0,412.0
19:39:39.322000,-445.0,-9.0,123.0,-400.0,649.0,-302.0,297.0,-138.0,412.0
19:39:39.327000,-440.0,-20.0,103.0,-396.0,726.0,-307.0,297.0,-138.0,412.0
19:39:39.332000,-441.0,-30.0,84.0,-398.0,708.0,-294.0,307.0,-130.0,408.0
19:39:39.337000,-439.0,-46.0,63.0,-376.0,754.0,-288.0,307.0,-130.0,408.0
19:39:39.341000,-433.0,-58.0,41.0,-360.0,726.0,-285.0,319.0,-141.0,409.0
19:39:39.346000,-436.0,-71.0,15.0,-354.0,729.0,-278.0,319.0,-141.0,409.0
19:39:39.350000,-436.0,-71.0,15.0,-352.0,754.0,-271.0,319.0,-141.0,409.0
19:39:39.355000,-417.0,-82.0,-40.0,-371.0,701.0,-261.0,325.0,-138.0,418.0
19:39:39.360000,-417.0,-82.0,-40.0,-371.0,749.0,-259.0,325.0,-138.0,418.0
19:39:39.365000,-404.0,-80.0,-58.0,-408.0,711.0,-258.0,309.0,-144.0,418.0
19:39:39.369000,-407.0,-68.0,-76.0,-437.0,728.0,-253.0,309.0,-144.0,418.0
19:39:39.374000,-405.0,-46.0,-96.0,-468.0,738.0,-267.0,309.0,-144.0,418.0
19:39:39.379000,-395.0,-23.0,-126.0,-503.0,746.0,-266.0,312.0,-145.0,415.0
19:39:39.384000,-413.0,3.0,-136.0,-543.0,792.0,-278.0,312.0,-145.0,415.0
19:39:39.388000,-408.0,31.0,-163.0,-584.0,843.0,-284.0,316.0,-138.0,415.0
19:39:39.393000,-432.0,50.0,-186.0,-611.0,852.0,-289.0,316.0,-138.0,415.0
19:39:39.400000,-453.0,84.0,-231.0,-596.0,824.0,-313.0,312.0,-150.0,412.0
19:39:39.402000,-453.0,84.0,-231.0,-596.0,824.0,-313.0,312.0,-150.0,412.0
19:39:39.406000,-450.0,102.0,-242.0,-599.0,782.0,-331.0,312.0,-150.0,412.0
19:39:39.411000,-453.0,114.0,-275.0,-593.0,745.0,-339.0,295.0,-148.0,420.0
19:39:39.416000,-424.0,121.0,-324.0,-568.0,672.0,-361.0,295.0,-148.0,420.0
19:39:39.421000,-401.0,128.0,-378.0,-568.0,672.0,-361.0,307.0,-151.0,430.0
19:39:39.426000,-371.0,135.0,-412.0,-511.0,716.0,-381.0,307.0,-151.0,430.0
19:39:39.430000,-347.0,135.0,-450.0,-477.0,716.0,-392.0,307.0,-151.0,430.0
19:39:39.435000,-333.0,136.0,-488.0,-484.0,797.0,-407.0,306.0,-154.0,426.0
19:39:39.440000,-322.0,131.0,-534.0,-511.0,879.0,-399.0,306.0,-154.0,426.0
19:39:39.445000,-308.0,126.0,-571.0,-553.0,845.0,-403.0,292.0,-156.0,436.0
19:39:39.449000,-308.0,116.0,-591.0,-553.0,896.0,-404.0,292.0,-156.0,436.0
19:39:39.453000,-308.0,116.0,-591.0,-546.0,838.0,-406.0,292.0,-156.0,436.0
19:39:39.459000,-294.0,105.0,-623.0,-533.0,828.0,-410.0,301.0,-153.0,424.0
19:39:39.463000,-272.0,105.0,-640.0,-506.0,831.0,-418.0,301.0,-153.0,424.0
19:39:39.468000,-272.0,105.0,-640.0,-482.0,810.0,-427.0,301.0,-156.0,427.0
19:39:39.473000,-287.0,99.0,-653.0,-466.0,867.0,-423.0,301.0,-156.0,427.0
19:39:39.477000,-279.0,105.0,-674.0,-471.0,840.0,-427.0,301.0,-156.0,427.0
19:39:39.482000,-295.0,103.0,-697.0,-460.0,874.0,-432.0,300.0,-154.0,426.0
19:39:39.487000,-305.0,107.0,-705.0,-457.0,900.0,-434.0,300.0,-154.0,426.0
19:39:39.492000,-332.0,105.0,-707.0,-457.0,927.0,-426.0,291.0,-168.0,432.0
19:39:39.496000,-352.0,107.0,-701.0,-455.0,902.0,-428.0,291.0,-168.0,432.0
19:39:39.500000,-367.0,110.0,-702.0,-457.0,895.0,-445.0,291.0,-168.0,432.0
19:39:39.506000,-382.0,114.0,-695.0,-471.0,881.0,-442.0,286.0,-163.0,430.0
19:39:39.510000,-400.0,123.0,-681.0,-507.0,849.0,-434.0,286.0,-163.0,430.0
19:39:39.515000,-411.0,129.0,-686.0,-507.0,856.0,-434.0,277.0,-160.0,432.0
19:39:39.520000,-416.0,132.0,-681.0,-534.0,788.0,-429.0,277.0,-160.0,432.0
19:39:39.524000,-415.0,135.0,-673.0,-544.0,790.0,-440.0,277.0,-160.0,432.0
19:39:39.533000,-397.0,151.0,-697.0,-613.0,765.0,-451.0,256.0,-163.0,460.0
19:39:39.539000,-392.0,162.0,-725.0,-613.0,765.0,-451.0,256.0,-163.0,460.0
19:39:39.543000,-382.0,166.0,-772.0,-654.0,805.0,-442.0,256.0,-163.0,460.0
19:39:39.547000,-360.0,168.0,-835.0,-670.0,733.0,-433.0,256.0,-163.0,460.0
19:39:39.553000,-325.0,172.0,-901.0,-632.0,673.0,-456.0,261.0,-169.0,438.0
19:39:39.557000,-296.0,180.0,-980.0,-588.0,671.0,-465.0,261.0,-169.0,438.0
19:39:39.562000,-275.0,188.0,-1063.0,-570.0,670.0,-462.0,253.0,-169.0,439.0
19:39:39.567000,-265.0,203.0,-1160.0,-570.0,743.0,-459.0,253.0,-169.0,439.0
19:39:39.571000,-265.0,203.0,-1160.0,-584.0,800.0,-449.0,253.0,-169.0,439.0
19:39:39.576000,-254.0,215.0,-1265.0,-564.0,822.0,-449.0,246.0,-177.0,448.0
19:39:39.581000,-248.0,217.0,-1358.0,-510.0,819.0,-450.0,246.0,-177.0,448.0
19:39:39.586000,-235.0,219.0,-1440.0,-462.0,802.0,-448.0,244.0,-171.0,453.0
19:39:39.590000,-235.0,219.0,-1509.0,-427.0,850.0,-441.0,244.0,-171.0,453.0
19:39:39.594000,-238.0,217.0,-1575.0,-424.0,879.0,-442.0,244.0,-171.0,453.0
19:39:39.600000,-240.0,217.0,-1654.0,-450.0,934.0,-447.0,241.0,-184.0,445.0
19:39:39.604000,-256.0,217.0,-1734.0,-490.0,987.0,-440.0,241.0,-184.0,445.0
19:39:39.609000,-270.0,222.0,-1798.0,-533.0,1020.0,-437.0,232.0,-183.0,448.0
19:39:39.614000,-287.0,232.0,-1839.0,-554.0,1049.0,-440.0,232.0,-183.0,448.0
19:39:39.621000,-308.0,262.0,-1892.0,-547.0,1003.0,-439.0,211.0,-187.0,441.0
19:39:39.623000,-308.0,262.0,-1892.0,-547.0,1003.0,-439.0,211.0,-187.0,441.0
19:39:39.627000,-315.0,275.0,-1915.0,-537.0,977.0,-433.0,211.0,-187.0,441.0
19:39:39.633000,-324.0,284.0,-1935.0,-526.0,965.0,-429.0,201.0,-184.0,451.0
19:39:39.637000,-336.0,284.0,-1955.0,-507.0,974.0,-422.0,201.0,-184.0,451.0
19:39:39.642000,-343.0,277.0,-1967.0,-507.0,974.0,-422.0,201.0,-189.0,453.0
19:39:39.647000,-359.0,268.0,-1967.0,-486.0,967.0,-413.0,201.0,-189.0,453.0
19:39:39.651000,-371.0,247.0,-1966.0,-454.0,978.0,-395.0,201.0,-189.0,453.0
19:39:39.656000,-378.0,217.0,-1962.0,-394.0,932.0,-381.0,181.0,-205.0,454.0
19:39:39.661000,-382.0,175.0,-1967.0,-307.0,911.0,-378.0,181.0,-205.0,454.0
19:39:39.666000,-387.0,147.0,-1982.0,-215.0,902.0,-377.0,153.0,-207.0,466.0
19:39:39.670000,-426.0,132.0,-1989.0,-151.0,899.0,-375.0,153.0,-207.0,466.0
19:39:39.674000,-426.0,132.0,-1989.0,-138.0,957.0,-368.0,153.0,-207.0,466.0
19:39:39.680000,-485.0,102.0,-2023.0,-172.0,1013.0,-373.0,165.0,-208.0,447.0
19:39:39.684000,-521.0,91.0,-2048.0,-212.0,1095.0,-374.0,165.0,-208.0,447.0
19:39:39.689000,-521.0,91.0,-2048.0,-237.0,1126.0,-356.0,159.0,-207.0,448.0
19:39:39.694000,-569.0,64.0,-2055.0,-221.0,1121.0,-347.0,159.0,-207.0,448.0
19:39:39.698000,-632.0,43.0,-2034.0,-188.0,1098.0,-363.0,159.0,-207.0,448.0
19:39:39.703000,-685.0,34.0,-2009.0,-187.0,1088.0,-379.0,150.0,-216.0,457.0
19:39:39.707000,-742.0,16.0,-2006.0,-205.0,1132.0,-398.0,150.0,-216.0,457.0
19:39:39.713000,-790.0,8.0,-2021.0,-253.0,1161.0,-423.0,138.0,-229.0,450.0
19:39:39.717000,-840.0,-14.0,-2042.0,-300.0,1230.0,-436.0,138.0,-229.0,450.0
19:39:39.721000,-903.0,-51.0,-2049.0,-334.0,1256.0,-442.0,138.0,-229.0,450.0
19:39:39.727000,-971.0,-95.0,-2031.0,-340.0,1270.0,-431.0,126.0,-244.0,457.0
19:39:39.731000,-1055.0,-154.0,-1960.0,-272.0,1282.0,-420.0,126.0,-244.0,457.0
19:39:39.736000,-1116.0,-221.0,-1855.0,-272.0,1282.0,-420.0,130.0,-258.0,462.0
19:39:39.741000,-1184.0,-281.0,-1756.0,-137.0,1132.0,-448.0,130.0,-258.0,462.0
19:39:39.745000,-1227.0,-327.0,-1689.0,-139.0,1156.0,-484.0,130.0,-258.0,462.0
19:39:39.750000,-1260.0,-368.0,-1640.0,-139.0,1156.0,-484.0,126.0,-265.0,466.0
19:39:39.755000,-1329.0,-411.0,-1585.0,-227.0,1187.0,-484.0,126.0,-265.0,466.0
19:39:39.760000,-1426.0,-461.0,-1509.0,-355.0,1328.0,-465.0,118.0,-282.0,466.0
19:39:39.764000,-1545.0,-520.0,-1442.0,-472.0,1384.0,-436.0,118.0,-282.0,466.0
19:39:39.768000,-1689.0,-593.0,-1408.0,-569.0,1390.0,-387.0,118.0,-282.0,466.0
19:39:39.774000,-1819.0,-653.0,-1360.0,-545.0,1374.0,-374.0,118.0,-279.0,472.0
19:39:39.778000,-1889.0,-705.0,-1311.0,-427.0,1179.0,-438.0,118.0,-279.0,472.0
19:39:39.783000,-1972.0,-745.0,-1320.0,-448.0,1093.0,-541.0,111.0,-307.0,484.0
19:39:39.788000,-2101.0,-802.0,-1346.0,-623.0,1262.0,-598.0,111.0,-307.0,484.0
19:39:39.792000,-2101.0,-802.0,-1346.0,-881.0,1404.0,-550.0,111.0,-307.0,484.0
19:39:39.797000,-2277.0,-924.0,-1443.0,-1203.0,1565.0,-572.0,114.0,-330.0,487.0
19:39:39.802000,-2440.0,-963.0,-1510.0,-1152.0,1678.0,-732.0,114.0,-330.0,487.0
19:39:39.807000,-2384.0,-961.0,-1486.0,-915.0,1458.0,-826.0,127.0,-352.0,487.0
19:39:39.811000,-2329.0,-906.0,-1598.0,-897.0,1253.0,-844.0,127.0,-352.0,487.0
19:39:39.815000,-2279.0,-934.0,-1702.0,-837.0,1226.0,-842.0,127.0,-352.0,487.0
19:39:39.821000,-2291.0,-989.0,-1687.0,-749.0,1178.0,-801.0,132.0,-354.0,502.0
19:39:39.825000,-2354.0,-1070.0,-1570.0,-878.0,1258.0,-842.0,132.0,-354.0,502.0
19:39:39.829000,-2321.0,-1092.0,-1603.0,-994.0,1333.0,-910.0,127.0,-382.0,498.0
19:39:39.835000,-2309.0,-1091.0,-1626.0,-878.0,1294.0,-861.0,127.0,-382.0,498.0
19:39:39.839000,-2340.0,-1163.0,-1623.0,-846.0,1247.0,-822.0,127.0,-382.0,498.0
19:39:39.844000,-2349.0,-1229.0,-1719.0,-912.0,1203.0,-834.0,129.0,-397.0,493.0
19:39:39.849000,-2354.0,-1292.0,-1794.0,-873.0,1156.0,-857.0,129.0,-397.0,493.0
19:39:39.854000,-2366.0,-1332.0,-1807.0,-873.0,1156.0,-857.0,138.0,-421.0,501.0
19:39:39.858000,-2415.0,-1395.0,-1802.0,-770.0,1126.0,-810.0,138.0,-421.0,501.0
19:39:39.862000,-2404.0,-1337.0,-1792.0,-887.0,947.0,-779.0,138.0,-421.0,501.0
19:39:39.868000,-2366.0,-1227.0,-1183.0,-900.0,352.0,-878.0,154.0,-465.0,511.0
19:39:39.872000,-2358.0,-1205.0,-860.0,-902.0,-6.0,-887.0,154.0,-465.0,511.0
19:39:39.877000,-2341.0,-1161.0,-1134.0,-1069.0,365.0,-833.0,162.0,-483.0,502.0
19:39:39.882000,-2337.0,-1106.0,-1236.0,-798.0,695.0,-848.0,162.0,-483.0,502.0
19:39:39.886000,-2352.0,-1132.0,-1102.0,-330.0,533.0,-767.0,162.0,-483.0,502.0
19:39:39.891000,-2388.0,-1115.0,-1103.0,-244.0,258.0,-695.0,178.0,-486.0,498.0
19:39:39.896000,-2348.0,-1098.0,-1139.0,-228.0,122.0,-728.0,178.0,-486.0,498.0
19:39:39.901000,-2328.0,-1103.0,-1125.0,-121.0,-68.0,-652.0,186.0,-504.0,504.0
19:39:39.905000,-2328.0,-1103.0,-1125.0,-99.0,-274.0,-628.0,186.0,-504.0,504.0
19:39:39.913000,-2360.0,-1061.0,-1146.0,97.0,-490.0,-562.0,199.0,-528.0,498.0
19:39:39.915000,-2360.0,-1061.0,-1146.0,97.0,-490.0,-562.0,199.0,-528.0,498.0
19:39:39.919000,-2387.0,-1071.0,-1316.0,202.0,-392.0,-581.0,199.0,-528.0,498.0
19:39:39.924000,-2305.0,-1039.0,-1530.0,241.0,-379.0,-576.0,198.0,-543.0,489.0
19:39:39.929000,-2280.0,-1036.0,-1602.0,320.0,-409.0,-576.0,198.0,-543.0,489.0
19:39:39.933000,-2157.0,-1018.0,-1628.0,251.0,-343.0,-621.0,220.0,-555.0,486.0
19:39:39.938000,-2082.0,-1001.0,-1825.0,189.0,-212.0,-653.0,220.0,-555.0,486.0
19:39:39.942000,-2020.0,-974.0,-2053.0,236.0,-163.0,-650.0,220.0,-555.0,486.0
19:39:39.948000,-1991.0,-952.0,-2100.0,262.0,-169.0,-641.0,229.0,-589.0,480.0
19:39:39.952000,-1981.0,-980.0,-2060.0,186.0,-35.0,-659.0,229.0,-589.0,480.0
19:39:39.957000,-2053.0,-956.0,-2266.0,186.0,-35.0,-659.0,241.0,-597.0,477.0
19:39:39.962000,-2179.0,-935.0,-2394.0,66.0,-43.0,-690.0,241.0,-597.0,477.0
19:39:39.966000,-2205.0,-989.0,-2422.0,66.0,-212.0,-690.0,241.0,-597.0,477.0
19:39:39.971000,-2198.0,-953.0,-2422.0,178.0,-212.0,-744.0,262.0,-615.0,460.0
19:39:39.976000,-2128.0,-1015.0,-2213.0,304.0,-318.0,-778.0,262.0,-615.0,460.0
19:39:39.980000,-2109.0,-1068.0,-1985.0,286.0,-437.0,-747.0,273.0,-616.0,460.0
19:39:39.985000,-2076.0,-1056.0,-2181.0,177.0,-174.0,-808.0,273.0,-616.0,460.0
19:39:39.989000,-2135.0,-1117.0,-2200.0,101.0,-123.0,-807.0,273.0,-616.0,460.0
19:39:39.995000,-2209.0,-1172.0,-2068.0,141.0,-394.0,-817.0,297.0,-642.0,454.0
19:39:39.999000,-2090.0,-1279.0,-2015.0,209.0,-419.0,-859.0,297.0,-642.0,454.0
19:39:40.004000,-1920.0,-1378.0,-1955.0,185.0,-556.0,-845.0,297.0,-642.0,454.0
19:39:40.009000,-1843.0,-1372.0,-1841.0,123.0,-780.0,-914.0,297.0,-642.0,454.0
19:39:40.013000,-1843.0,-1372.0,-1841.0,119.0,-811.0,-964.0,297.0,-642.0,454.0
19:39:40.018000,-1762.0,-1416.0,-1690.0,77.0,-835.0,-916.0,345.0,-652.0,417.0
19:39:40.023000,-1745.0,-1483.0,-1586.0,87.0,-700.0,-938.0,345.0,-652.0,417.0
19:39:40.027000,-1707.0,-1514.0,-1503.0,91.0,-565.0,-947.0,354.0,-652.0,415.0
19:39:40.032000,-1648.0,-1538.0,-1347.0,36.0,-549.0,-933.0,354.0,-652.0,415.0
19:39:40.036000,-1605.0,-1579.0,-1199.0,34.0,-529.0,-926.0,354.0,-652.0,415.0
19:39:40.042000,-1586.0,-1623.0,-1183.0,26.0,-546.0,-923.0,352.0,-661.0,399.0
19:39:40.046000,-1519.0,-1654.0,-1234.0,20.0,-562.0,-945.0,352.0,-661.0,399.0
19:39:40.051000,-1451.0,-1634.0,-1247.0,-23.0,-670.0,-942.0,372.0,-670.0,384.0
19:39:40.056000,-1410.0,-1656.0,-1177.0,-63.0,-792.0,-899.0,372.0,-670.0,384.0
19:39:40.060000,-1403.0,-1689.0,-1057.0,-192.0,-839.0,-910.0,372.0,-670.0,384.0
19:39:40.065000,-1365.0,-1675.0,-1097.0,-276.0,-731.0,-942.0,399.0,-667.0,370.0
19:39:40.070000,-1305.0,-1669.0,-1221.0,-272.0,-699.0,-933.0,399.0,-667.0,370.0
19:39:40.074000,-1210.0,-1673.0,-1290.0,-149.0,-714.0,-939.0,402.0,-669.0,370.0
19:39:40.079000,-1141.0,-1695.0,-1148.0,-149.0,-714.0,-939.0,402.0,-669.0,370.0
19:39:40.083000,-1092.0,-1724.0,-1110.0,-108.0,-653.0,-899.0,402.0,-669.0,370.0
19:39:40.089000,-1029.0,-1758.0,-1314.0,-316.0,-518.0,-895.0,417.0,-667.0,342.0
19:39:40.093000,-1033.0,-1738.0,-1510.0,-467.0,-451.0,-889.0,417.0,-667.0,342.0
19:39:40.098000,-1099.0,-1716.0,-1254.0,-256.0,-815.0,-842.0,438.0,-660.0,333.0
19:39:40.103000,-1122.0,-1712.0,-888.0,88.0,-1157.0,-820.0,438.0,-660.0,333.0
19:39:40.107000,-1150.0,-1659.0,-866.0,60.0,-1127.0,-828.0,438.0,-660.0,333.0
19:39:40.111000,-1150.0,-1659.0,-866.0,-179.0,-879.0,-848.0,444.0,-667.0,310.0
19:39:40.121000,-1168.0,-1619.0,-1194.0,-603.0,-546.0,-835.0,459.0,-667.0,325.0
19:39:40.126000,-1085.0,-1635.0,-1396.0,-616.0,-541.0,-872.0,459.0,-667.0,325.0
19:39:40.130000,-983.0,-1585.0,-1468.0,-467.0,-660.0,-867.0,459.0,-667.0,325.0
19:39:40.136000,-910.0,-1591.0,-1406.0,-363.0,-744.0,-831.0,457.0,-652.0,297.0
19:39:40.140000,-901.0,-1578.0,-1272.0,-335.0,-786.0,-803.0,457.0,-652.0,297.0
19:39:40.145000,-924.0,-1553.0,-1191.0,-377.0,-696.0,-793.0,474.0,-666.0,280.0
19:39:40.150000,-941.0,-1544.0,-1196.0,-428.0,-631.0,-766.0,474.0,-666.0,280.0
19:39:40.154000,-962.0,-1567.0,-1215.0,-465.0,-652.0,-753.0,474.0,-666.0,280.0
19:39:40.159000,-983.0,-1577.0,-1229.0,-514.0,-702.0,-746.0,496.0,-651.0,271.0
19:39:40.164000,-992.0,-1576.0,-1216.0,-574.0,-695.0,-767.0,496.0,-651.0,271.0
19:39:40.168000,-951.0,-1582.0,-1138.0,-618.0,-651.0,-786.0,496.0,-648.0,261.0
19:39:40.173000,-902.0,-1575.0,-1044.0,-667.0,-642.0,-769.0,496.0,-648.0,261.0
19:39:40.177000,-856.0,-1584.0,-1004.0,-704.0,-615.0,-762.0,496.0,-648.0,261.0
19:39:40.183000,-783.0,-1564.0,-1050.0,-675.0,-616.0,-744.0,508.0,-649.0,252.0
19:39:40.187000,-789.0,-1528.0,-1117.0,-675.0,-616.0,-744.0,508.0,-649.0,252.0
19:39:40.192000,-819.0,-1500.0,-1142.0,-593.0,-654.0,-691.0,508.0,-645.0,240.0
19:39:40.197000,-852.0,-1456.0,-1208.0,-573.0,-685.0,-660.0,508.0,-645.0,240.0
19:39:40.204000,-842.0,-1435.0,-1254.0,-652.0,-741.0,-653.0,528.0,-643.0,216.0
19:39:40.206000,-815.0,-1400.0,-1229.0,-652.0,-741.0,-653.0,528.0,-643.0,216.0
19:39:40.210000,-777.0,-1381.0,-1125.0,-718.0,-839.0,-656.0,528.0,-643.0,216.0
19:39:40.215000,-735.0,-1388.0,-1099.0,-798.0,-782.0,-641.0,529.0,-637.0,213.0
19:39:40.220000,-680.0,-1369.0,-1207.0,-872.0,-583.0,-642.0,529.0,-637.0,213.0
19:39:40.225000,-644.0,-1308.0,-1334.0,-871.0,-461.0,-649.0,526.0,-631.0,205.0
19:39:40.230000,-606.0,-1276.0,-1338.0,-807.0,-450.0,-636.0,526.0,-631.0,205.0
19:39:40.234000,-606.0,-1276.0,-1338.0,-759.0,-515.0,-608.0,526.0,-631.0,205.0
19:39:40.239000,-574.0,-1261.0,-1320.0,-764.0,-572.0,-584.0,541.0,-612.0,190.0
19:39:40.244000,-574.0,-1228.0,-1339.0,-715.0,-527.0,-561.0,541.0,-612.0,190.0
19:39:40.248000,-609.0,-1197.0,-1259.0,-661.0,-444.0,-531.0,538.0,-612.0,181.0
19:39:40.253000,-662.0,-1161.0,-1169.0,-698.0,-363.0,-514.0,538.0,-612.0,181.0
19:39:40.257000,-704.0,-1130.0,-1177.0,-733.0,-359.0,-511.0,538.0,-612.0,181.0
19:39:40.262000,-701.0,-1122.0,-1183.0,-706.0,-444.0,-505.0,555.0,-598.0,177.0
19:39:40.267000,-681.0,-1116.0,-1109.0,-722.0,-514.0,-503.0,555.0,-598.0,177.0
19:39:40.272000,-640.0,-1106.0,-1022.0,-783.0,-500.0,-494.0,556.0,-600.0,171.0
19:39:40.277000,-635.0,-1082.0,-1005.0,-824.0,-430.0,-471.0,556.0,-600.0,171.0
19:39:40.281000,-638.0,-1073.0,-1047.0,-823.0,-420.0,-470.0,556.0,-600.0,171.0
19:39:40.286000,-602.0,-1059.0,-1078.0,-811.0,-483.0,-472.0,555.0,-595.0,160.0
19:39:40.291000,-567.0,-1045.0,-1080.0,-809.0,-579.0,-467.0,555.0,-595.0,160.0
19:39:40.295000,-520.0,-1033.0,-1004.0,-809.0,-579.0,-467.0,567.0,-582.0,156.0
19:39:40.300000,-471.0,-1028.0,-967.0,-822.0,-624.0,-465.0,567.0,-582.0,156.0
19:39:40.304000,-443.0,-1014.0,-1005.0,-844.0,-578.0,-457.0,567.0,-582.0,156.0
19:39:40.309000,-427.0,-1011.0,-996.0,-846.0,-498.0,-444.0,570.0,-579.0,145.0
19:39:40.314000,-429.0,-989.0,-1015.0,-824.0,-418.0,-428.0,570.0,-579.0,145.0
19:39:40.319000,-424.0,-976.0,-1022.0,-794.0,-377.0,-416.0,577.0,-565.0,133.0
19:39:40.324000,-421.0,-956.0,-968.0,-784.0,-420.0,-408.0,577.0,-565.0,133.0
19:39:40.328000,-421.0,-956.0,-968.0,-814.0,-430.0,-396.0,577.0,-565.0,133.0
19:39:40.333000,-425.0,-934.0,-935.0,-863.0,-417.0,-385.0,571.0,-558.0,124.0
19:39:40.338000,-427.0,-914.0,-949.0,-895.0,-376.0,-386.0,571.0,-558.0,124.0
19:39:40.342000,-427.0,-914.0,-949.0,-910.0,-360.0,-388.0,583.0,-555.0,117.0
19:39:40.347000,-421.0,-886.0,-957.0,-906.0,-351.0,-381.0,583.0,-555.0,117.0
19:39:40.351000,-429.0,-861.0,-956.0,-904.0,-343.0,-364.0,583.0,-555.0,117.0
19:39:40.356000,-434.0,-835.0,-941.0,-897.0,-329.0,-357.0,582.0,-552.0,121.0
19:39:40.361000,-419.0,-806.0,-934.0,-896.0,-344.0,-352.0,582.0,-552.0,121.0
19:39:40.365000,-392.0,-776.0,-921.0,-909.0,-373.0,-347.0,589.0,-549.0,117.0
19:39:40.371000,-365.0,-743.0,-903.0,-934.0,-387.0,-339.0,589.0,-549.0,117.0
19:39:40.375000,-335.0,-716.0,-879.0,-946.0,-411.0,-332.0,577.0,-538.0,124.0
19:39:40.380000,-296.0,-691.0,-847.0,-919.0,-442.0,-322.0,577.0,-538.0,124.0
19:39:40.384000,-255.0,-670.0,-821.0,-887.0,-431.0,-313.0,577.0,-538.0,124.0
19:39:40.389000,-211.0,-660.0,-817.0,-866.0,-359.0,-307.0,591.0,-534.0,93.0
19:39:40.394000,-193.0,-637.0,-828.0,-848.0,-318.0,-301.0,591.0,-534.0,93.0
19:39:40.399000,-172.0,-616.0,-792.0,-848.0,-318.0,-301.0,601.0,-529.0,96.0
19:39:40.403000,-150.0,-602.0,-705.0,-833.0,-319.0,-292.0,601.0,-529.0,96.0
19:39:40.408000,-139.0,-595.0,-637.0,-843.0,-281.0,-289.0,601.0,-529.0,96.0
19:39:40.413000,-119.0,-588.0,-625.0,-843.0,-281.0,-289.0,589.0,-520.0,102.0
19:39:40.418000,-105.0,-583.0,-630.0,-860.0,-239.0,-290.0,589.0,-520.0,102.0
19:39:40.422000,-119.0,-574.0,-587.0,-834.0,-223.0,-279.0,594.0,-508.0,94.0
19:39:40.427000,-137.0,-563.0,-541.0,-803.0,-181.0,-276.0,594.0,-508.0,94.0
19:39:40.431000,-148.0,-554.0,-466.0,-801.0,-162.0,-277.0,594.0,-508.0,94.0
19:39:40.436000,-162.0,-540.0,-406.0,-825.0,-202.0,-280.0,573.0,-504.0,85.0
19:39:40.441000,-175.0,-528.0,-412.0,-873.0,-204.0,-286.0,573.0,-504.0,85.0
19:39:40.446000,-181.0,-518.0,-426.0,-903.0,-197.0,-288.0,598.0,-511.0,90.0
19:39:40.450000,-189.0,-509.0,-404.0,-879.0,-217.0,-296.0,598.0,-511.0,90.0
19:39:40.455000,-189.0,-509.0,-404.0,-854.0,-221.0,-300.0,598.0,-511.0,90.0
19:39:40.460000,-186.0,-513.0,-381.0,-841.0,-215.0,-296.0,594.0,-505.0,76.0
19:39:40.465000,-175.0,-515.0,-351.0,-817.0,-224.0,-291.0,594.0,-505.0,76.0
19:39:40.469000,-182.0,-521.0,-310.0,-806.0,-214.0,-285.0,586.0,-507.0,73.0
19:39:40.474000,-179.0,-525.0,-296.0,-824.0,-202.0,-284.0,586.0,-507.0,73.0
19:39:40.478000,-170.0,-528.0,-329.0,-837.0,-203.0,-282.0,586.0,-507.0,73.0
19:39:40.483000,-165.0,-526.0,-361.0,-836.0,-209.0,-272.0,591.0,-508.0,75.0
19:39:40.488000,-168.0,-529.0,-358.0,-832.0,-218.0,-262.0,591.0,-508.0,75.0
19:39:40.492000,-170.0,-527.0,-313.0,-845.0,-239.0,-256.0,592.0,-502.0,61.0
19:39:40.497000,-168.0,-527.0,-277.0,-874.0,-254.0,-253.0,592.0,-502.0,61.0
19:39:40.502000,-167.0,-521.0,-286.0,-906.0,-241.0,-250.0,592.0,-502.0,61.0
19:39:40.507000,-171.0,-509.0,-323.0,-927.0,-239.0,-244.0,589.0,-502.0,69.0
19:39:40.512000,-168.0,-494.0,-314.0,-937.0,-254.0,-238.0,589.0,-502.0,69.0
19:39:40.516000,-178.0,-476.0,-270.0,-937.0,-254.0,-238.0,586.0,-490.0,58.0
19:39:40.521000,-190.0,-462.0,-266.0,-955.0,-253.0,-228.0,586.0,-490.0,58.0
19:39:40.525000,-191.0,-455.0,-303.0,-956.0,-216.0,-218.0,586.0,-490.0,58.0
19:39:40.530000,-180.0,-446.0,-317.0,-931.0,-230.0,-214.0,591.0,-496.0,58.0
19:39:40.535000,-169.0,-436.0,-298.0,-898.0,-261.0,-217.0,591.0,-496.0,58.0
19:39:40.539000,-157.0,-427.0,-273.0,-912.0,-279.0,-212.0,592.0,-486.0,64.0
19:39:40.544000,-142.0,-416.0,-274.0,-952.0,-272.0,-208.0,592.0,-486.0,64.0
19:39:40.549000,-142.0,-416.0,-274.0,-972.0,-264.0,-205.0,592.0,-486.0,64.0
19:39:40.554000,-116.0,-405.0,-272.0,-960.0,-258.0,-204.0,592.0,-489.0,48.0
19:39:40.559000,-97.0,-405.0,-272.0,-950.0,-237.0,-208.0,592.0,-489.0,48.0
19:39:40.563000,-97.0,-405.0,-272.0,-950.0,-212.0,-205.0,588.0,-486.0,45.0
19:39:40.568000,-88.0,-403.0,-260.0,-960.0,-173.0,-202.0,588.0,-486.0,45.0
19:39:40.572000,-91.0,-401.0,-262.0,-974.0,-136.0,-202.0,588.0,-486.0,45.0
19:39:40.577000,-102.0,-393.0,-270.0,-981.0,-101.0,-201.0,588.0,-484.0,43.0
19:39:40.582000,-116.0,-385.0,-278.0,-983.0,-86.0,-198.0,588.0,-484.0,43.0
19:39:40.587000,-127.0,-380.0,-284.0,-967.0,-87.0,-194.0,595.0,-484.0,45.0
19:39:40.591000,-133.0,-375.0,-266.0,-951.0,-110.0,-191.0,595.0,-484.0,45.0
19:39:40.596000,-142.0,-374.0,-202.0,-959.0,-120.0,-184.0,595.0,-484.0,45.0
19:39:40.601000,-160.0,-368.0,-142.0,-994.0,-96.0,-177.0,589.0,-480.0,52.0
19:39:40.606000,-184.0,-361.0,-145.0,-1017.0,-60.0,-169.0,589.0,-480.0,52.0
19:39:40.610000,-210.0,-357.0,-158.0,-1017.0,-37.0,-155.0,586.0,-477.0,43.0
19:39:40.615000,-244.0,-352.0,-143.0,-967.0,-41.0,-141.0,586.0,-477.0,43.0
19:39:40.619000,-281.0,-345.0,-115.0,-948.0,-51.0,-133.0,586.0,-477.0,43.0
19:39:40.624000,-312.0,-337.0,-100.0,-960.0,-55.0,-124.0,592.0,-477.0,31.0
19:39:40.629000,-336.0,-326.0,-107.0,-960.0,-55.0,-124.0,592.0,-477.0,31.0
19:39:40.634000,-356.0,-307.0,-102.0,-975.0,-67.0,-117.0,583.0,-483.0,34.0
19:39:40.638000,-385.0,-284.0,-93.0,-983.0,-84.0,-110.0,583.0,-483.0,34.0
19:39:40.643000,-407.0,-260.0,-112.0,-993.0,-82.0,-102.0,583.0,-483.0,34.0
19:39:40.648000,-428.0,-238.0,-115.0,-994.0,-78.0,-93.0,583.0,-471.0,33.0
19:39:40.653000,-452.0,-219.0,-101.0,-989.0,-91.0,-81.0,583.0,-471.0,33.0
19:39:40.657000,-473.0,-202.0,-94.0,-989.0,-102.0,-75.0,588.0,-475.0,31.0
19:39:40.662000,-487.0,-184.0,-82.0,-987.0,-121.0,-75.0,588.0,-475.0,31.0
19:39:40.669000,-499.0,-171.0,-76.0,-990.0,-133.0,-67.0,588.0,-481.0,25.0
19:39:40.671000,-499.0,-171.0,-76.0,-990.0,-133.0,-67.0,588.0,-481.0,25.0
19:39:40.675000,-515.0,-153.0,-103.0,-997.0,-122.0,-66.0,588.0,-481.0,25.0
19:39:40.681000,-534.0,-141.0,-137.0,-974.0,-137.0,-65.0,576.0,-468.0,25.0
19:39:40.685000,-540.0,-137.0,-151.0,-939.0,-158.0,-70.0,576.0,-468.0,25.0
19:39:40.690000,-543.0,-134.0,-160.0,-923.0,-172.0,-74.0,589.0,-472.0,25.0
19:39:40.695000,-552.0,-135.0,-154.0,-927.0,-179.0,-76.0,589.0,-472.0,25.0
19:39:40.699000,-556.0,-143.0,-135.0,-941.0,-174.0,-80.0,589.0,-472.0,25.0
19:39:40.704000,-553.0,-152.0,-146.0,-956.0,-152.0,-86.0,594.0,-469.0,27.0
19:39:40.709000,-552.0,-160.0,-200.0,-945.0,-122.0,-87.0,594.0,-469.0,27.0
19:39:40.723000,-597.0,-192.0,-165.0,-892.0,-100.0,-73.0,577.0,-463.0,33.0
19:39:40.728000,-623.0,-211.0,-172.0,-942.0,-29.0,-71.0,577.0,-463.0,33.0
19:39:40.732000,-645.0,-230.0,-217.0,-942.0,-29.0,-71.0,577.0,-463.0,33.0
19:39:40.737000,-669.0,-254.0,-231.0,-945.0,-20.0,-70.0,592.0,-456.0,15.0
19:39:40.742000,-700.0,-287.0,-187.0,-924.0,-32.0,-62.0,592.0,-456.0,15.0
19:39:40.746000,-737.0,-324.0,-142.0,-911.0,-26.0,-52.0,592.0,-456.0,15.0
19:39:40.751000,-776.0,-361.0,-159.0,-926.0,18.0,-49.0,589.0,-462.0,16.0
19:39:40.756000,-825.0,-406.0,-172.0,-932.0,63.0,-40.0,589.0,-462.0,16.0
19:39:40.761000,-882.0,-448.0,-137.0,-896.0,73.0,-29.0,595.0,-457.0,4.0
19:39:40.765000,-940.0,-448.0,-137.0,-866.0,68.0,-23.0,595.0,-457.0,4.0
19:39:40.769000,-940.0,-491.0,-101.0,-874.0,77.0,-14.0,595.0,-457.0,4.0
19:39:40.775000,-1052.0,-592.0,-111.0,-889.0,102.0,-3.0,591.0,-448.0,0.0
19:39:40.779000,-1052.0,-592.0,-111.0,-881.0,130.0,9.0,591.0,-448.0,0.0
19:39:40.784000,-1123.0,-641.0,-107.0,-863.0,149.0,25.0,594.0,-436.0,4.0
19:39:40.789000,-1199.0,-693.0,-74.0,-878.0,179.0,42.0,594.0,-436.0,4.0
19:39:40.793000,-1278.0,-744.0,-99.0,-874.0,207.0,54.0,594.0,-436.0,4.0
19:39:40.798000,-1358.0,-802.0,-145.0,-832.0,198.0,70.0,582.0,-430.0,-10.0
19:39:40.803000,-1439.0,-864.0,-146.0,-802.0,177.0,83.0,582.0,-430.0,-10.0
19:39:40.808000,-1513.0,-928.0,-117.0,-813.0,168.0,98.0,586.0,-430.0,-10.0
19:39:40.812000,-1599.0,-984.0,-93.0,-871.0,184.0,121.0,586.0,-430.0,-10.0
19:39:40.816000,-1680.0,-1040.0,-111.0,-889.0,203.0,132.0,586.0,-430.0,-10.0
19:39:40.822000,-1761.0,-1101.0,-142.0,-875.0,208.0,145.0,580.0,-427.0,-12.0
19:39:40.826000,-1851.0,-1160.0,-158.0,-878.0,236.0,166.0,580.0,-427.0,-12.0
19:39:40.831000,-1936.0,-1229.0,-174.0,-878.0,236.0,166.0,577.0,-418.0,-22.0
19:39:40.836000,-2020.0,-1299.0,-173.0,-902.0,266.0,221.0,577.0,-418.0,-22.0
19:39:40.840000,-2115.0,-1375.0,-197.0,-906.0,278.0,255.0,577.0,-418.0,-22.0
19:39:40.845000,-2214.0,-1452.0,-228.0,-906.0,278.0,255.0,559.0,-405.0,-37.0
19:39:40.850000,-2314.0,-1535.0,-216.0,-871.0,268.0,283.0,559.0,-405.0,-37.0
19:39:40.854000,-2411.0,-1622.0,-222.0,-811.0,263.0,343.0,558.0,-393.0,-54.0
19:39:40.859000,-2510.0,-1706.0,-256.0,-811.0,263.0,343.0,558.0,-393.0,-54.0
19:39:40.863000,-2612.0,-1791.0,-298.0,-787.0,276.0,379.0,558.0,-393.0,-54.0
19:39:40.869000,-2716.0,-1869.0,-301.0,-767.0,280.0,417.0,547.0,-379.0,-52.0
19:39:40.873000,-2814.0,-1943.0,-302.0,-763.0,279.0,456.0,547.0,-379.0,-52.0
19:39:40.878000,-2915.0,-2013.0,-345.0,-790.0,297.0,503.0,546.0,-361.0,-57.0
19:39:40.883000,-3010.0,-2079.0,-385.0,-801.0,298.0,551.0,546.0,-361.0,-57.0
19:39:40.887000,-3010.0,-2079.0,-385.0,-794.0,283.0,600.0,546.0,-361.0,-57.0
19:39:40.892000,-3119.0,-2136.0,-420.0,-787.0,262.0,652.0,540.0,-346.0,-78.0
19:39:40.896000,-3209.0,-2201.0,-445.0,-769.0,233.0,698.0,540.0,-346.0,-78.0
19:39:40.902000,-3292.0,-2259.0,-464.0,-751.0,212.0,741.0,517.0,-336.0,-79.0
19:39:40.906000,-3380.0,-2307.0,-468.0,-753.0,215.0,785.0,517.0,-336.0,-79.0
19:39:40.911000,-3456.0,-2342.0,-477.0,-782.0,228.0,823.0,507.0,-324.0,-90.0
19:39:40.916000,-3532.0,-2366.0,-501.0,-824.0,227.0,864.0,507.0,-324.0,-90.0
19:39:40.920000,-3603.0,-2381.0,-526.0,-854.0,209.0,902.0,507.0,-324.0,-90.0
19:39:40.925000,-3665.0,-2389.0,-554.0,-874.0,201.0,941.0,493.0,-268.0,-90.0
19:39:40.930000,-3727.0,-2396.0,-604.0,-871.0,181.0,971.0,493.0,-268.0,-90.0
19:39:40.934000,-3775.0,-2387.0,-613.0,-873.0,137.0,989.0,474.0,-255.0,-87.0
19:39:40.939000,-3803.0,-2378.0,-608.0,-922.0,135.0,1005.0,474.0,-255.0,-87.0
19:39:40.943000,-3840.0,-2356.0,-674.0,-960.0,172.0,1015.0,474.0,-255.0,-87.0
19:39:40.949000,-3855.0,-2332.0,-772.0,-949.0,176.0,1018.0,453.0,-240.0,-81.0
19:39:40.953000,-3857.0,-2306.0,-793.0,-949.0,176.0,1018.0,453.0,-240.0,-81.0
19:39:40.958000,-3866.0,-2277.0,-778.0,-932.0,149.0,1023.0,436.0,-214.0,-82.0
19:39:40.963000,-3871.0,-2244.0,-796.0,-960.0,154.0,1029.0,436.0,-214.0,-82.0
19:39:40.967000,-3853.0,-2220.0,-836.0,-1012.0,192.0,1028.0,436.0,-214.0,-82.0
19:39:40.972000,-3839.0,-2186.0,-885.0,-1027.0,213.0,1022.0,430.0,-190.0,-70.0
19:39:40.977000,-3818.0,-2146.0,-894.0,-1000.0,217.0,1011.0,430.0,-190.0,-70.0
19:39:40.981000,-3794.0,-2116.0,-844.0,-970.0,193.0,1005.0,397.0,-144.0,-34.0
19:39:40.986000,-3768.0,-2092.0,-815.0,-960.0,178.0,1001.0,397.0,-144.0,-34.0
19:39:40.990000,-3768.0,-2092.0,-815.0,-961.0,193.0,990.0,397.0,-144.0,-34.0
19:39:40.996000,-3668.0,-2048.0,-746.0,-956.0,195.0,980.0,394.0,-121.0,-37.0
19:39:41.000000,-3668.0,-2048.0,-746.0,-932.0,187.0,963.0,394.0,-121.0,-37.0
19:39:41.005000,-3591.0,-2013.0,-715.0,-899.0,156.0,940.0,384.0,-105.0,-30.0
19:39:41.010000,-3497.0,-1974.0,-669.0,-892.0,131.0,922.0,384.0,-105.0,-30.0
19:39:41.014000,-3402.0,-1927.0,-672.0,-903.0,169.0,899.0,384.0,-105.0,-30.0
19:39:41.019000,-3310.0,-1871.0,-725.0,-894.0,213.0,878.0,367.0,-97.0,-10.0
19:39:41.024000,-3229.0,-1806.0,-754.0,-865.0,235.0,857.0,367.0,-97.0,-10.0
19:39:41.028000,-3140.0,-1748.0,-763.0,-846.0,270.0,825.0,351.0,-79.0,10.0
19:39:41.033000,-3049.0,-1690.0,-776.0,-851.0,297.0,798.0,351.0,-79.0,10.0
19:39:41.037000,-2963.0,-1638.0,-775.0,-870.0,317.0,775.0,351.0,-79.0,10.0
19:39:41.042000,-2884.0,-1583.0,-768.0,-894.0,342.0,743.0,346.0,-67.0,9.0
19:39:41.047000,-2808.0,-1523.0,-745.0,-901.0,371.0,708.0,346.0,-67.0,9.0
19:39:41.052000,-2732.0,-1464.0,-716.0,-901.0,371.0,708.0,334.0,-58.0,24.0
19:39:41.057000,-2664.0,-1407.0,-690.0,-892.0,420.0,653.0,334.0,-58.0,24.0
19:39:41.061000,-2588.0,-1358.0,-680.0,-892.0,420.0,653.0,334.0,-58.0,24.0
19:39:41.066000,-2503.0,-1322.0,-694.0,-841.0,438.0,607.0,319.0,-37.0,48.0
19:39:41.071000,-2412.0,-1284.0,-693.0,-841.0,438.0,607.0,319.0,-37.0,48.0
19:39:41.075000,-2310.0,-1252.0,-668.0,-779.0,418.0,578.0,304.0,-33.0,67.0
19:39:41.080000,-2206.0,-1219.0,-628.0,-723.0,386.0,553.0,304.0,-33.0,67.0
19:39:41.084000,-2106.0,-1185.0,-604.0,-698.0,373.0,532.0,304.0,-33.0,67.0
19:39:41.090000,-1998.0,-1147.0,-590.0,-693.0,384.0,505.0,300.0,-15.0,79.0
19:39:41.094000,-1889.0,-1116.0,-589.0,-680.0,382.0,476.0,300.0,-15.0,79.0
19:39:41.099000,-1787.0,-1086.0,-606.0,-660.0,379.0,453.0,288.0,-9.0,87.0
19:39:41.104000,-1694.0,-1054.0,-623.0,-637.0,403.0,431.0,288.0,-9.0,87.0
19:39:41.108000,-1694.0,-1054.0,-623.0,-604.0,435.0,414.0,288.0,-9.0,87.0
19:39:41.113000,-1619.0,-1022.0,-597.0,-582.0,477.0,389.0,288.0,-10.0,99.0
19:39:41.118000,-1544.0,-985.0,-561.0,-596.0,521.0,376.0,288.0,-10.0,99.0
19:39:41.122000,-1493.0,-949.0,-526.0,-618.0,549.0,369.0,273.0,-3.0,112.0
19:39:41.127000,-1435.0,-918.0,-515.0,-619.0,571.0,360.0,273.0,-3.0,112.0
19:39:41.131000,-1391.0,-886.0,-504.0,-591.0,580.0,357.0,273.0,-3.0,112.0
19:39:41.137000,-1346.0,-849.0,-457.0,-561.0,589.0,351.0,271.0,0.0,132.0
19:39:41.141000,-1299.0,-815.0,-411.0,-553.0,601.0,350.0,271.0,0.0,132.0
19:39:41.146000,-1253.0,-778.0,-389.0,-556.0,613.0,349.0,276.0,6.0,133.0
19:39:41.151000,-1206.0,-740.0,-382.0,-553.0,612.0,354.0,276.0,6.0,133.0
19:39:41.158000,-1124.0,-669.0,-333.0,-524.0,587.0,352.0,262.0,0.0,150.0
19:39:41.160000,-1124.0,-669.0,-333.0,-524.0,587.0,352.0,262.0,0.0,150.0
19:39:41.164000,-1085.0,-627.0,-294.0,-523.0,587.0,346.0,262.0,0.0,150.0
19:39:41.169000,-1050.0,-584.0,-265.0,-523.0,604.0,342.0,262.0,7.0,151.0
19:39:41.174000,-1014.0,-537.0,-255.0,-533.0,604.0,342.0,262.0,7.0,151.0
19:39:41.179000,-975.0,-486.0,-251.0,-539.0,621.0,333.0,265.0,3.0,157.0
19:39:41.184000,-936.0,-439.0,-239.0,-531.0,623.0,327.0,265.0,3.0,157.0
19:39:41.188000,-901.0,-392.0,-227.0,-512.0,615.0,324.0,265.0,3.0,157.0
19:39:41.193000,-866.0,-350.0,-205.0,-482.0,604.0,321.0,261.0,12.0,171.0
19:39:41.198000,-832.0,-317.0,-182.0,-452.0,599.0,324.0,261.0,12.0,171.0
19:39:41.202000,-800.0,-286.0,-172.0,-430.0,602.0,327.0,262.0,-1.0,168.0
19:39:41.207000,-770.0,-255.0,-169.0,-412.0,609.0,327.0,262.0,-1.0,168.0
19:39:41.211000,-770.0,-255.0,-169.0,-398.0,618.0,325.0,262.0,-1.0,168.0
19:39:41.216000,-743.0,-225.0,-161.0,-389.0,638.0,320.0,253.0,16.0,175.0
19:39:41.221000,-720.0,-196.0,-152.0,-390.0,671.0,317.0,253.0,16.0,175.0
19:39:41.226000,-708.0,-168.0,-139.0,-401.0,706.0,318.0,259.0,16.0,181.0
19:39:41.231000,-702.0,-140.0,-129.0,-416.0,732.0,317.0,259.0,16.0,181.0
19:39:41.235000,-697.0,-114.0,-126.0,-420.0,740.0,318.0,259.0,16.0,181.0
19:39:41.240000,-688.0,-98.0,-116.0,-408.0,721.0,322.0,250.0,18.0,184.0
19:39:41.245000,-675.0,-86.0,-95.0,-387.0,687.0,323.0,250.0,18.0,184.0
19:39:41.249000,-654.0,-76.0,-76.0,-369.0,660.0,319.0,261.0,15.0,210.0
19:39:41.254000,-623.0,-68.0,-74.0,-356.0,647.0,315.0,261.0,15.0,210.0
19:39:41.258000,-590.0,-61.0,-88.0,-345.0,644.0,310.0,261.0,15.0,210.0
19:39:41.263000,-559.0,-51.0,-96.0,-341.0,654.0,304.0,253.0,12.0,204.0
19:39:41.268000,-529.0,-45.0,-93.0,-345.0,674.0,301.0,253.0,12.0,204.0
19:39:41.273000,-508.0,-39.0,-84.0,-345.0,674.0,301.0,247.0,24.0,202.0
19:39:41.278000,-490.0,-32.0,-70.0,-352.0,696.0,298.0,247.0,24.0,202.0
19:39:41.282000,-476.0,-22.0,-55.0,-357.0,710.0,292.0,247.0,24.0,202.0
19:39:41.287000,-461.0,-9.0,-37.0,-361.0,709.0,286.0,252.0,27.0,207.0
19:39:41.292000,-440.0,1.0,-17.0,-365.0,687.0,272.0,252.0,27.0,207.0
19:39:41.296000,-416.0,14.0,1.0,-365.0,687.0,272.0,241.0,18.0,214.0
19:39:41.301000,-392.0,23.0,26.0,-362.0,670.0,267.0,241.0,18.0,214.0
19:39:41.305000,-365.0,36.0,51.0,-365.0,658.0,260.0,241.0,18.0,214.0
19:39:41.310000,-336.0,49.0,56.0,-381.0,665.0,253.0,249.0,24.0,223.0
19:39:41.315000,-306.0,60.0,43.0,-404.0,691.0,249.0,249.0,24.0,223.0
19:39:41.320000,-282.0,71.0,37.0,-415.0,715.0,246.0,249.0,21.0,211.0
19:39:41.325000,-260.0,79.0,53.0,-415.0,715.0,244.0,249.0,21.0,211.0
19:39:41.329000,-260.0,79.0,53.0,-414.0,700.0,243.0,249.0,21.0,211.0
19:39:41.334000,-233.0,81.0,69.0,-416.0,685.0,240.0,247.0,27.0,225.0
19:39:41.339000,-206.0,82.0,66.0,-412.0,672.0,238.0,247.0,27.0,225.0
19:39:41.386000,161.0,-16.0,-27.0,-280.0,780.0,319.0,253.0,24.0,226.0
19:39:41.390000,164.0,-27.0,-21.0,-280.0,780.0,319.0,253.0,24.0,226.0
19:39:41.395000,156.0,-30.0,-11.0,-280.0,822.0,321.0,255.0,21.0,237.0
19:39:41.400000,137.0,-25.0,-7.0,-307.0,872.0,317.0,255.0,21.0,237.0
19:39:41.404000,116.0,-16.0,-23.0,-359.0,926.0,313.0,255.0,21.0,237.0
19:39:41.409000,94.0,-2.0,-46.0,-403.0,961.0,307.0,252.0,24.0,214.0
19:39:41.414000,74.0,16.0,-59.0,-426.0,963.0,299.0,252.0,24.0,214.0
19:39:41.419000,62.0,32.0,-63.0,-433.0,942.0,292.0,250.0,22.0,219.0
19:39:41.423000,57.0,46.0,-67.0,-432.0,913.0,289.0,250.0,22.0,219.0
19:39:41.427000,57.0,46.0,-67.0,-425.0,882.0,286.0,250.0,22.0,219.0
