hh:mm:ss.ms,gyroX[mdps],gyroY[mdps],gyroZ[mdps],accX[mg],accY[mg],accZ[mg],magX[mG],magY[mG],magZ[mG]
19:41:56.464000,-2453.0,-404.0,534.0,-286.0,-263.0,-435.0,277.0,-487.0,538.0
19:41:56.469000,-2465.0,-364.0,596.0,-304.0,-262.0,-429.0,271.0,-517.0,520.0
19:41:56.474000,-2465.0,-319.0,627.0,-322.0,-294.0,-424.0,271.0,-517.0,520.0
19:41:56.479000,-2473.0,-284.0,639.0,-339.0,-319.0,-421.0,261.0,-532.0,517.0
19:41:56.483000,-2501.0,-251.0,737.0,-352.0,-351.0,-412.0,261.0,-532.0,517.0
19:41:56.488000,-2501.0,-251.0,737.0,-279.0,-460.0,-379.0,261.0,-532.0,517.0
19:41:56.525000,-2506.0,-72.0,1163.0,-54.0,-438.0,-258.0,237.0,-603.0,480.0
19:41:56.530000,-2506.0,-70.0,1130.0,246.0,-527.0,-258.0,237.0,-603.0,480.0
19:41:56.535000,-2484.0,-54.0,1247.0,385.0,-603.0,-284.0,237.0,-603.0,480.0
19:41:56.540000,-2444.0,-16.0,1337.0,283.0,-643.0,-305.0,237.0,-603.0,480.0
19:41:56.545000,-2423.0,1.0,1365.0,236.0,-659.0,-286.0,241.0,-621.0,454.0
19:41:56.549000,-2397.0,1.0,1421.0,298.0,-673.0,-300.0,241.0,-621.0,454.0
19:41:56.553000,-2378.0,9.0,1485.0,268.0,-695.0,-328.0,241.0,-621.0,454.0
19:41:56.559000,-2325.0,0.0,1498.0,329.0,-716.0,-344.0,226.0,-624.0,438.0
19:41:56.563000,-2309.0,-26.0,1596.0,329.0,-716.0,-344.0,226.0,-624.0,438.0
19:41:56.567000,-2277.0,-46.0,1691.0,261.0,-866.0,-339.0,213.0,-627.0,414.0
19:41:56.573000,-2238.0,-63.0,1801.0,261.0,-866.0,-339.0,213.0,-627.0,414.0
19:41:56.577000,-2207.0,-77.0,1928.0,393.0,-795.0,-384.0,196.0,-640.0,400.0
19:41:56.582000,-2176.0,-86.0,1940.0,477.0,-800.0,-397.0,196.0,-640.0,400.0
19:41:56.586000,-2177.0,-128.0,1934.0,408.0,-757.0,-355.0,196.0,-640.0,400.0
19:41:56.592000,-2193.0,-151.0,2087.0,384.0,-730.0,-325.0,193.0,-642.0,387.0
19:41:56.596000,-2168.0,-137.0,2220.0,240.0,-774.0,-349.0,193.0,-642.0,387.0
19:41:56.601000,-2168.0,-158.0,2405.0,105.0,-827.0,-296.0,189.0,-646.0,382.0
19:41:56.606000,-2144.0,-167.0,2544.0,278.0,-878.0,-252.0,189.0,-646.0,382.0
19:41:56.610000,-2144.0,-167.0,2544.0,507.0,-845.0,-289.0,189.0,-646.0,382.0
19:41:56.615000,-2099.0,-170.0,2523.0,596.0,-857.0,-274.0,166.0,-654.0,375.0
19:41:56.620000,-2065.0,-184.0,2515.0,573.0,-883.0,-242.0,166.0,-654.0,375.0
19:41:56.624000,-2057.0,-196.0,2571.0,547.0,-848.0,-217.0,162.0,-645.0,355.0
19:41:56.629000,-2053.0,-178.0,2658.0,579.0,-636.0,-216.0,162.0,-645.0,355.0
19:41:56.633000,-1980.0,-161.0,2576.0,415.0,-577.0,-194.0,162.0,-645.0,355.0
19:41:56.639000,-1960.0,-148.0,2480.0,374.0,-797.0,-151.0,147.0,-651.0,339.0
19:41:56.643000,-1986.0,-127.0,2683.0,433.0,-865.0,-134.0,147.0,-651.0,339.0
19:41:56.648000,-2002.0,-119.0,2869.0,269.0,-882.0,-132.0,129.0,-642.0,328.0
19:41:56.653000,-1994.0,-110.0,2949.0,238.0,-836.0,-106.0,129.0,-642.0,328.0
19:41:56.657000,-1970.0,-95.0,2989.0,335.0,-628.0,-114.0,129.0,-642.0,328.0
19:41:56.662000,-1939.0,-79.0,2841.0,447.0,-663.0,-103.0,108.0,-628.0,324.0
19:41:56.667000,-1941.0,-87.0,2863.0,556.0,-756.0,-53.0,108.0,-628.0,324.0
19:41:56.671000,-1935.0,-93.0,2988.0,556.0,-756.0,-53.0,106.0,-633.0,319.0
19:41:56.676000,-1932.0,-100.0,3028.0,601.0,-730.0,-32.0,106.0,-633.0,319.0
19:41:56.680000,-1875.0,-119.0,2975.0,636.0,-727.0,-35.0,106.0,-633.0,319.0
19:41:56.686000,-1862.0,-132.0,2968.0,702.0,-818.0,-26.0,97.0,-616.0,301.0
19:41:56.690000,-1803.0,-169.0,2982.0,735.0,-890.0,6.0,97.0,-616.0,301.0
19:41:56.694000,-1729.0,-194.0,2963.0,814.0,-835.0,15.0,91.0,-612.0,298.0
19:41:56.700000,-1672.0,-205.0,2919.0,933.0,-760.0,23.0,91.0,-612.0,298.0
19:41:56.704000,-1642.0,-211.0,2902.0,962.0,-781.0,56.0,91.0,-612.0,298.0
19:41:56.708000,-1642.0,-211.0,2902.0,907.0,-772.0,84.0,69.0,-609.0,304.0
19:41:56.714000,-1584.0,-219.0,2887.0,828.0,-676.0,89.0,69.0,-609.0,304.0
19:41:56.718000,-1584.0,-219.0,2887.0,803.0,-695.0,109.0,63.0,-589.0,286.0
19:41:56.723000,-1578.0,-212.0,2911.0,764.0,-702.0,144.0,63.0,-589.0,286.0
19:41:56.727000,-1583.0,-198.0,2918.0,745.0,-658.0,174.0,63.0,-589.0,286.0
19:41:56.733000,-1614.0,-182.0,2952.0,799.0,-640.0,172.0,67.0,-588.0,274.0
19:41:56.737000,-1612.0,-170.0,3007.0,891.0,-651.0,176.0,67.0,-588.0,274.0
19:41:56.741000,-1642.0,-161.0,3061.0,978.0,-578.0,186.0,57.0,-568.0,283.0
19:41:56.747000,-1641.0,-163.0,3041.0,1057.0,-498.0,192.0,57.0,-568.0,283.0
19:41:56.751000,-1633.0,-169.0,2996.0,1140.0,-570.0,204.0,57.0,-568.0,283.0
19:41:56.756000,-1619.0,-174.0,2981.0,1182.0,-734.0,197.0,63.0,-558.0,274.0
19:41:56.761000,-1582.0,-201.0,2992.0,1196.0,-747.0,218.0,63.0,-558.0,274.0
19:41:56.765000,-1555.0,-218.0,3040.0,1200.0,-623.0,244.0,55.0,-549.0,277.0
19:41:56.770000,-1535.0,-217.0,3051.0,1216.0,-610.0,260.0,55.0,-549.0,277.0
19:41:56.774000,-1542.0,-242.0,3077.0,1238.0,-616.0,275.0,55.0,-549.0,277.0
19:41:56.780000,-1503.0,-270.0,3136.0,1285.0,-591.0,286.0,48.0,-552.0,274.0
19:41:56.784000,-1519.0,-291.0,3196.0,1317.0,-572.0,297.0,48.0,-552.0,274.0
19:41:56.789000,-1522.0,-315.0,3221.0,1317.0,-572.0,297.0,37.0,-544.0,271.0
19:41:56.794000,-1514.0,-345.0,3208.0,1316.0,-552.0,309.0,37.0,-544.0,271.0
19:41:56.798000,-1483.0,-364.0,3190.0,1336.0,-529.0,334.0,42.0,-517.0,270.0
19:41:56.803000,-1474.0,-379.0,3185.0,1393.0,-521.0,359.0,42.0,-517.0,270.0
19:41:56.807000,-1463.0,-382.0,3129.0,1443.0,-500.0,387.0,42.0,-517.0,270.0
19:41:56.812000,-1433.0,-373.0,3070.0,1445.0,-465.0,384.0,42.0,-513.0,262.0
19:41:56.817000,-1395.0,-369.0,3030.0,1443.0,-490.0,386.0,42.0,-513.0,262.0
19:41:56.822000,-1349.0,-368.0,2956.0,1420.0,-514.0,403.0,40.0,-513.0,271.0
19:41:56.827000,-1279.0,-379.0,2890.0,1407.0,-530.0,406.0,40.0,-513.0,271.0
19:41:56.831000,-1279.0,-379.0,2890.0,1439.0,-566.0,407.0,40.0,-513.0,271.0
19:41:56.836000,-1204.0,-387.0,2901.0,1467.0,-596.0,408.0,27.0,-499.0,270.0
19:41:56.841000,-1129.0,-395.0,2912.0,1458.0,-560.0,407.0,27.0,-499.0,270.0
19:41:56.845000,-1064.0,-397.0,2853.0,1434.0,-431.0,406.0,34.0,-489.0,261.0
19:41:56.850000,-977.0,-406.0,2753.0,1458.0,-338.0,421.0,34.0,-489.0,261.0
19:41:56.854000,-924.0,-410.0,2685.0,1513.0,-323.0,443.0,34.0,-489.0,261.0
19:41:56.859000,-885.0,-413.0,2702.0,1514.0,-246.0,447.0,36.0,-490.0,273.0
19:41:56.864000,-860.0,-403.0,2699.0,1505.0,-108.0,452.0,36.0,-490.0,273.0
19:41:56.868000,-833.0,-403.0,2663.0,1564.0,-78.0,469.0,36.0,-475.0,288.0
19:41:56.874000,-849.0,-394.0,2739.0,1586.0,-47.0,467.0,36.0,-475.0,288.0
19:41:56.878000,-847.0,-382.0,2773.0,1538.0,55.0,464.0,36.0,-475.0,288.0
19:41:56.883000,-862.0,-368.0,2746.0,1531.0,46.0,472.0,36.0,-463.0,273.0
19:41:56.888000,-870.0,-357.0,2779.0,1579.0,-12.0,456.0,36.0,-463.0,273.0
19:41:56.892000,-855.0,-352.0,2862.0,1579.0,-12.0,456.0,33.0,-462.0,274.0
19:41:56.897000,-872.0,-352.0,2982.0,1642.0,-60.0,454.0,33.0,-462.0,274.0
19:41:56.901000,-849.0,-350.0,3019.0,1665.0,2.0,454.0,33.0,-462.0,274.0
19:41:56.906000,-847.0,-340.0,2930.0,1642.0,105.0,444.0,36.0,-459.0,268.0
19:41:56.911000,-843.0,-338.0,2922.0,1680.0,101.0,446.0,36.0,-459.0,268.0
19:41:56.915000,-833.0,-340.0,3011.0,1782.0,54.0,447.0,22.0,-453.0,271.0
19:41:56.921000,-813.0,-340.0,3070.0,1844.0,-13.0,452.0,22.0,-453.0,271.0
19:41:56.925000,-813.0,-340.0,3070.0,1824.0,-57.0,445.0,22.0,-453.0,271.0
19:41:56.930000,-730.0,-347.0,3006.0,1773.0,-82.0,432.0,13.0,-444.0,276.0
19:41:56.935000,-673.0,-347.0,3075.0,1816.0,-127.0,425.0,13.0,-444.0,276.0
19:41:56.939000,-673.0,-347.0,3075.0,1880.0,-164.0,417.0,21.0,-436.0,267.0
19:41:56.944000,-627.0,-347.0,3192.0,1835.0,-125.0,406.0,21.0,-436.0,267.0
19:41:56.948000,-605.0,-345.0,3266.0,1763.0,-53.0,394.0,21.0,-436.0,267.0
19:41:56.953000,-601.0,-336.0,3259.0,1703.0,6.0,387.0,24.0,-414.0,277.0
19:41:56.958000,-616.0,-326.0,3224.0,1664.0,50.0,371.0,24.0,-414.0,277.0
19:41:56.963000,-596.0,-316.0,3173.0,1696.0,41.0,356.0,9.0,-412.0,291.0
19:41:56.968000,-587.0,-301.0,3181.0,1750.0,10.0,345.0,9.0,-412.0,291.0
19:41:56.972000,-588.0,-282.0,3248.0,1726.0,29.0,325.0,31.0,-400.0,292.0
19:41:56.977000,-578.0,-259.0,3255.0,1644.0,82.0,308.0,31.0,-400.0,292.0
19:41:56.981000,-574.0,-221.0,3213.0,1596.0,125.0,295.0,31.0,-400.0,292.0
19:41:56.986000,-569.0,-188.0,3151.0,1610.0,141.0,291.0,30.0,-390.0,283.0
19:41:56.991000,-576.0,-158.0,3155.0,1633.0,128.0,290.0,30.0,-390.0,283.0
19:41:56.996000,-573.0,-136.0,3168.0,1633.0,128.0,290.0,16.0,-388.0,283.0
19:41:57.000000,-569.0,-116.0,3159.0,1646.0,98.0,281.0,16.0,-388.0,283.0
19:41:57.005000,-537.0,-96.0,3084.0,1717.0,95.0,230.0,16.0,-388.0,283.0
19:41:57.010000,-497.0,-84.0,3004.0,1717.0,95.0,230.0,24.0,-364.0,289.0
19:41:57.015000,-479.0,-71.0,2947.0,1712.0,187.0,223.0,24.0,-364.0,289.0
19:41:57.019000,-501.0,-77.0,2925.0,1622.0,308.0,228.0,27.0,-357.0,279.0
19:41:57.024000,-513.0,-79.0,2900.0,1538.0,294.0,210.0,27.0,-357.0,279.0
19:41:57.028000,-499.0,-78.0,2828.0,1518.0,235.0,170.0,27.0,-357.0,279.0
19:41:57.033000,-470.0,-88.0,2776.0,1542.0,219.0,148.0,22.0,-343.0,286.0
19:41:57.038000,-435.0,-97.0,2821.0,1581.0,200.0,133.0,22.0,-343.0,286.0
19:41:57.043000,-399.0,-112.0,2889.0,1606.0,228.0,116.0,28.0,-322.0,291.0
19:41:57.047000,-399.0,-112.0,2889.0,1545.0,318.0,101.0,28.0,-322.0,291.0
19:41:57.052000,-368.0,-126.0,2916.0,1413.0,411.0,88.0,28.0,-322.0,291.0
19:41:57.057000,-350.0,-131.0,2889.0,1305.0,458.0,79.0,21.0,-315.0,301.0
19:41:57.062000,-332.0,-144.0,2886.0,1256.0,452.0,69.0,21.0,-315.0,301.0
19:41:57.066000,-311.0,-156.0,2926.0,1233.0,449.0,52.0,34.0,-303.0,298.0
19:41:57.071000,-286.0,-163.0,2959.0,1183.0,466.0,44.0,34.0,-303.0,298.0
19:41:57.075000,-264.0,-165.0,2952.0,1137.0,504.0,37.0,34.0,-303.0,298.0
19:41:57.080000,-254.0,-163.0,2923.0,1139.0,537.0,30.0,46.0,-298.0,292.0
19:41:57.085000,-247.0,-161.0,2939.0,1141.0,535.0,33.0,46.0,-298.0,292.0
19:41:57.090000,-240.0,-163.0,2999.0,1122.0,554.0,30.0,42.0,-292.0,288.0
19:41:57.094000,-230.0,-163.0,3006.0,1101.0,614.0,22.0,42.0,-292.0,288.0
19:41:57.098000,-219.0,-160.0,2968.0,1104.0,664.0,22.0,42.0,-292.0,288.0
19:41:57.104000,-211.0,-161.0,2933.0,1121.0,710.0,34.0,60.0,-262.0,298.0
19:41:57.109000,-230.0,-164.0,2889.0,1121.0,757.0,34.0,60.0,-262.0,298.0
19:41:57.113000,-242.0,-174.0,2849.0,1133.0,757.0,41.0,69.0,-259.0,298.0
19:41:57.118000,-255.0,-177.0,2800.0,1148.0,786.0,42.0,69.0,-259.0,298.0
19:41:57.122000,-266.0,-181.0,2748.0,1152.0,799.0,48.0,69.0,-259.0,298.0
19:41:57.127000,-293.0,-184.0,2716.0,1148.0,796.0,55.0,66.0,-250.0,303.0
19:41:57.132000,-336.0,-185.0,2724.0,1152.0,780.0,64.0,66.0,-250.0,303.0
19:41:57.137000,-354.0,-192.0,2724.0,1110.0,737.0,65.0,72.0,-241.0,303.0
19:41:57.141000,-365.0,-192.0,2702.0,1071.0,714.0,54.0,72.0,-241.0,303.0
19:41:57.145000,-365.0,-192.0,2702.0,1083.0,713.0,58.0,72.0,-241.0,303.0
19:41:57.151000,-403.0,-196.0,2760.0,1105.0,720.0,72.0,84.0,-217.0,312.0
19:41:57.156000,-403.0,-196.0,2760.0,1104.0,772.0,78.0,84.0,-217.0,312.0
19:41:57.160000,-424.0,-193.0,2745.0,1060.0,833.0,78.0,85.0,-220.0,312.0
19:41:57.165000,-441.0,-190.0,2690.0,1018.0,861.0,82.0,85.0,-220.0,312.0
19:41:57.169000,-462.0,-189.0,2642.0,995.0,849.0,86.0,85.0,-220.0,312.0
19:41:57.174000,-478.0,-191.0,2617.0,966.0,836.0,87.0,112.0,-204.0,316.0
19:41:57.179000,-501.0,-193.0,2592.0,940.0,831.0,90.0,112.0,-204.0,316.0
19:41:57.183000,-519.0,-203.0,2581.0,911.0,814.0,91.0,115.0,-189.0,313.0
19:41:57.188000,-529.0,-210.0,2589.0,856.0,804.0,94.0,115.0,-189.0,313.0
19:41:57.192000,-546.0,-217.0,2578.0,834.0,806.0,94.0,115.0,-189.0,313.0
19:41:57.198000,-556.0,-222.0,2567.0,841.0,811.0,90.0,124.0,-189.0,312.0
19:41:57.203000,-559.0,-225.0,2543.0,792.0,830.0,92.0,124.0,-189.0,312.0
19:41:57.207000,-565.0,-231.0,2499.0,792.0,830.0,92.0,136.0,-186.0,318.0
19:41:57.212000,-570.0,-235.0,2474.0,722.0,816.0,89.0,136.0,-186.0,318.0
19:41:57.216000,-571.0,-235.0,2468.0,695.0,809.0,91.0,136.0,-186.0,318.0
19:41:57.221000,-576.0,-235.0,2473.0,695.0,809.0,91.0,141.0,-177.0,324.0
19:41:57.226000,-580.0,-235.0,2480.0,662.0,804.0,89.0,141.0,-177.0,324.0
19:41:57.230000,-583.0,-236.0,2467.0,605.0,848.0,78.0,151.0,-165.0,352.0
19:41:57.235000,-590.0,-237.0,2437.0,605.0,848.0,78.0,151.0,-165.0,352.0
19:41:57.240000,-592.0,-231.0,2394.0,571.0,867.0,72.0,151.0,-165.0,352.0
19:41:57.245000,-594.0,-228.0,2364.0,536.0,851.0,69.0,151.0,-165.0,352.0
19:41:57.249000,-590.0,-223.0,2345.0,507.0,810.0,70.0,151.0,-165.0,352.0
19:41:57.254000,-583.0,-219.0,2333.0,481.0,792.0,63.0,187.0,-157.0,337.0
19:41:57.259000,-580.0,-218.0,2312.0,448.0,796.0,61.0,187.0,-157.0,337.0
19:41:57.264000,-574.0,-212.0,2261.0,407.0,830.0,53.0,187.0,-159.0,340.0
19:41:57.268000,-574.0,-212.0,2261.0,381.0,877.0,57.0,187.0,-159.0,340.0
19:41:57.272000,-576.0,-207.0,2206.0,349.0,886.0,52.0,187.0,-159.0,340.0
19:41:57.278000,-569.0,-202.0,2150.0,342.0,889.0,43.0,196.0,-154.0,339.0
19:41:57.282000,-574.0,-205.0,2114.0,335.0,854.0,52.0,196.0,-154.0,339.0
19:41:57.287000,-572.0,-199.0,2073.0,290.0,839.0,35.0,213.0,-145.0,346.0
19:41:57.292000,-564.0,-192.0,2017.0,255.0,862.0,41.0,213.0,-145.0,346.0
19:41:57.296000,-568.0,-186.0,1967.0,206.0,821.0,47.0,213.0,-145.0,346.0
19:41:57.301000,-557.0,-179.0,1921.0,166.0,833.0,20.0,220.0,-145.0,345.0
19:41:57.306000,-557.0,-170.0,1874.0,157.0,852.0,23.0,220.0,-145.0,345.0
19:41:57.311000,-555.0,-156.0,1834.0,108.0,852.0,9.0,228.0,-159.0,355.0
19:41:57.315000,-555.0,-140.0,1793.0,44.0,966.0,-8.0,228.0,-159.0,355.0
19:41:57.319000,-581.0,-121.0,1759.0,-15.0,1016.0,1.0,228.0,-159.0,355.0
19:41:57.325000,-601.0,-109.0,1711.0,-76.0,1038.0,-13.0,234.0,-139.0,348.0
19:41:57.329000,-631.0,-97.0,1659.0,-76.0,1038.0,-13.0,234.0,-139.0,348.0
19:41:57.334000,-659.0,-91.0,1624.0,-84.0,1081.0,-16.0,250.0,-156.0,358.0
19:41:57.339000,-679.0,-90.0,1574.0,-84.0,1037.0,-16.0,250.0,-156.0,358.0
19:41:57.343000,-704.0,-92.0,1507.0,-93.0,1033.0,-28.0,250.0,-156.0,358.0
19:41:57.348000,-708.0,-100.0,1444.0,-79.0,980.0,-27.0,253.0,-151.0,366.0
19:41:57.353000,-711.0,-104.0,1379.0,-69.0,928.0,-44.0,253.0,-151.0,366.0
19:41:57.358000,-725.0,-104.0,1335.0,-65.0,951.0,-43.0,267.0,-153.0,367.0
19:41:57.362000,-728.0,-105.0,1301.0,-88.0,908.0,-44.0,267.0,-153.0,367.0
19:41:57.370000,-744.0,-102.0,1274.0,-117.0,999.0,-68.0,276.0,-145.0,373.0
19:41:57.372000,-755.0,-102.0,1253.0,-117.0,999.0,-68.0,276.0,-145.0,373.0
19:41:57.376000,-755.0,-102.0,1253.0,-157.0,979.0,-82.0,276.0,-145.0,373.0
19:41:57.381000,-774.0,-100.0,1222.0,-162.0,1033.0,-94.0,276.0,-154.0,366.0
19:41:57.386000,-796.0,-99.0,1215.0,-173.0,981.0,-89.0,276.0,-154.0,366.0
19:41:57.390000,-812.0,-96.0,1187.0,-194.0,1006.0,-114.0,286.0,-151.0,378.0
19:41:57.395000,-833.0,-90.0,1162.0,-185.0,995.0,-119.0,286.0,-151.0,378.0
19:41:57.399000,-844.0,-89.0,1136.0,-208.0,943.0,-132.0,286.0,-151.0,378.0
19:41:57.404000,-858.0,-86.0,1098.0,-219.0,968.0,-143.0,285.0,-156.0,375.0
19:41:57.409000,-872.0,-81.0,1074.0,-230.0,923.0,-146.0,285.0,-156.0,375.0
19:41:57.414000,-879.0,-79.0,1040.0,-257.0,957.0,-158.0,297.0,-159.0,394.0
19:41:57.419000,-898.0,-70.0,1006.0,-270.0,936.0,-165.0,297.0,-159.0,394.0
19:41:57.423000,-900.0,-65.0,979.0,-264.0,929.0,-179.0,297.0,-159.0,394.0
19:41:57.428000,-914.0,-56.0,954.0,-260.0,893.0,-177.0,312.0,-166.0,405.0
19:41:57.433000,-912.0,-48.0,926.0,-271.0,850.0,-193.0,312.0,-166.0,405.0
19:41:57.437000,-916.0,-37.0,888.0,-271.0,850.0,-193.0,298.0,-162.0,394.0
19:41:57.442000,-913.0,-25.0,861.0,-275.0,866.0,-209.0,298.0,-162.0,394.0
19:41:57.446000,-913.0,-14.0,826.0,-286.0,839.0,-213.0,298.0,-162.0,394.0
19:41:57.452000,-916.0,2.0,793.0,-293.0,873.0,-227.0,318.0,-177.0,400.0
19:41:57.456000,-910.0,16.0,750.0,-326.0,875.0,-252.0,318.0,-177.0,400.0
19:41:57.461000,-916.0,35.0,702.0,-315.0,875.0,-252.0,319.0,-178.0,406.0
19:41:57.466000,-912.0,50.0,669.0,-329.0,866.0,-257.0,319.0,-178.0,406.0
19:41:57.470000,-912.0,50.0,669.0,-341.0,834.0,-269.0,319.0,-178.0,406.0
19:41:57.475000,-911.0,82.0,616.0,-346.0,850.0,-282.0,315.0,-178.0,409.0
19:41:57.480000,-910.0,94.0,595.0,-351.0,810.0,-290.0,315.0,-178.0,409.0
19:41:57.484000,-910.0,94.0,595.0,-355.0,827.0,-304.0,319.0,-181.0,421.0
19:41:57.489000,-908.0,106.0,573.0,-363.0,791.0,-307.0,319.0,-181.0,421.0
19:41:57.493000,-902.0,114.0,548.0,-382.0,754.0,-310.0,319.0,-181.0,421.0
19:41:57.499000,-898.0,119.0,518.0,-374.0,718.0,-316.0,319.0,-187.0,412.0
19:41:57.503000,-884.0,124.0,499.0,-340.0,663.0,-325.0,319.0,-187.0,412.0
19:41:57.508000,-867.0,126.0,486.0,-298.0,658.0,-330.0,316.0,-187.0,423.0
19:41:57.513000,-854.0,129.0,487.0,-269.0,628.0,-331.0,316.0,-187.0,423.0
19:41:57.517000,-840.0,133.0,483.0,-261.0,667.0,-345.0,316.0,-187.0,423.0
19:41:57.522000,-830.0,136.0,469.0,-257.0,695.0,-346.0,316.0,-198.0,427.0
19:41:57.527000,-820.0,137.0,448.0,-265.0,675.0,-350.0,316.0,-198.0,427.0
19:41:57.531000,-809.0,139.0,420.0,-262.0,696.0,-361.0,327.0,-187.0,423.0
19:41:57.536000,-798.0,140.0,404.0,-256.0,639.0,-362.0,327.0,-187.0,423.0
19:41:57.540000,-779.0,140.0,387.0,-256.0,606.0,-376.0,327.0,-187.0,423.0
19:41:57.546000,-758.0,141.0,371.0,-253.0,610.0,-386.0,325.0,-195.0,445.0
19:41:57.550000,-737.0,141.0,354.0,-253.0,610.0,-386.0,325.0,-195.0,445.0
19:41:57.555000,-716.0,139.0,327.0,-267.0,562.0,-388.0,333.0,-202.0,433.0
19:41:57.560000,-693.0,135.0,291.0,-273.0,575.0,-397.0,333.0,-202.0,433.0
19:41:57.564000,-663.0,129.0,275.0,-247.0,549.0,-395.0,333.0,-202.0,433.0
19:41:57.569000,-627.0,114.0,270.0,-219.0,495.0,-402.0,327.0,-202.0,435.0
19:41:57.574000,-600.0,100.0,251.0,-203.0,517.0,-408.0,327.0,-202.0,435.0
19:41:57.578000,-569.0,88.0,211.0,-218.0,502.0,-404.0,322.0,-211.0,438.0
19:41:57.583000,-543.0,78.0,162.0,-256.0,517.0,-416.0,322.0,-211.0,438.0
19:41:57.587000,-543.0,78.0,162.0,-257.0,566.0,-415.0,322.0,-211.0,438.0
19:41:57.593000,-516.0,70.0,149.0,-252.0,534.0,-407.0,330.0,-214.0,435.0
19:41:57.597000,-516.0,58.0,144.0,-262.0,556.0,-413.0,330.0,-214.0,435.0
19:41:57.602000,-511.0,53.0,108.0,-246.0,556.0,-405.0,331.0,-217.0,441.0
19:41:57.607000,-504.0,46.0,70.0,-212.0,502.0,-400.0,331.0,-217.0,441.0
19:41:57.611000,-498.0,35.0,52.0,-168.0,499.0,-406.0,331.0,-217.0,441.0
19:41:57.616000,-494.0,28.0,47.0,-146.0,456.0,-397.0,333.0,-214.0,439.0
19:41:57.621000,-487.0,18.0,34.0,-140.0,446.0,-407.0,333.0,-214.0,439.0
19:41:57.625000,-473.0,11.0,4.0,-126.0,461.0,-412.0,328.0,-220.0,442.0
19:41:57.630000,-459.0,5.0,-36.0,-126.0,426.0,-399.0,328.0,-220.0,442.0
19:41:57.637000,-436.0,0.0,-95.0,-125.0,446.0,-408.0,324.0,-216.0,463.0
19:41:57.640000,-436.0,0.0,-95.0,-125.0,446.0,-408.0,324.0,-216.0,463.0
19:41:57.644000,-438.0,0.0,-127.0,-140.0,462.0,-407.0,324.0,-216.0,463.0
19:41:57.649000,-438.0,3.0,-165.0,-155.0,502.0,-418.0,322.0,-226.0,448.0
19:41:57.654000,-445.0,9.0,-201.0,-175.0,517.0,-415.0,322.0,-226.0,448.0
19:41:57.658000,-452.0,23.0,-257.0,-175.0,517.0,-415.0,313.0,-225.0,453.0
19:41:57.663000,-465.0,37.0,-324.0,-201.0,516.0,-412.0,313.0,-225.0,453.0
19:41:57.667000,-480.0,49.0,-353.0,-190.0,496.0,-410.0,313.0,-225.0,453.0
19:41:57.672000,-485.0,59.0,-380.0,-158.0,422.0,-405.0,315.0,-225.0,450.0
19:41:57.677000,-488.0,71.0,-418.0,-129.0,393.0,-410.0,315.0,-225.0,450.0
19:41:57.682000,-480.0,77.0,-432.0,-87.0,373.0,-416.0,310.0,-228.0,451.0
19:41:57.687000,-481.0,81.0,-453.0,-60.0,353.0,-414.0,310.0,-228.0,451.0
19:41:57.691000,-481.0,81.0,-453.0,-48.0,380.0,-415.0,310.0,-228.0,451.0
19:41:57.696000,-445.0,83.0,-563.0,-40.0,382.0,-423.0,306.0,-226.0,454.0
19:41:57.701000,-417.0,81.0,-627.0,-40.0,420.0,-436.0,306.0,-226.0,454.0
19:41:57.705000,-417.0,81.0,-627.0,-44.0,425.0,-438.0,312.0,-222.0,454.0
19:41:57.710000,-375.0,82.0,-683.0,-55.0,361.0,-442.0,312.0,-222.0,454.0
19:41:57.714000,-333.0,85.0,-722.0,-72.0,329.0,-452.0,312.0,-222.0,454.0
19:41:57.719000,-291.0,93.0,-745.0,-95.0,336.0,-458.0,304.0,-237.0,462.0
19:41:57.724000,-256.0,105.0,-772.0,-126.0,406.0,-471.0,304.0,-237.0,462.0
19:41:57.729000,-238.0,120.0,-798.0,-177.0,491.0,-480.0,289.0,-234.0,474.0
19:41:57.734000,-240.0,142.0,-826.0,-241.0,564.0,-485.0,289.0,-234.0,474.0
19:41:57.738000,-261.0,163.0,-844.0,-303.0,672.0,-503.0,289.0,-234.0,474.0
19:41:57.743000,-294.0,177.0,-872.0,-359.0,746.0,-508.0,295.0,-232.0,462.0
19:41:57.748000,-347.0,188.0,-908.0,-405.0,806.0,-523.0,295.0,-232.0,462.0
19:41:57.752000,-394.0,195.0,-940.0,-405.0,806.0,-523.0,298.0,-228.0,462.0
19:41:57.757000,-447.0,192.0,-950.0,-412.0,806.0,-539.0,298.0,-228.0,462.0
19:41:57.761000,-517.0,186.0,-958.0,-383.0,823.0,-542.0,298.0,-228.0,462.0
19:41:57.766000,-584.0,177.0,-982.0,-383.0,823.0,-542.0,283.0,-244.0,457.0
19:41:57.771000,-639.0,164.0,-1012.0,-236.0,798.0,-561.0,283.0,-244.0,457.0
19:41:57.776000,-688.0,145.0,-1052.0,-236.0,798.0,-561.0,286.0,-241.0,471.0
19:41:57.781000,-733.0,121.0,-1082.0,-159.0,792.0,-562.0,286.0,-241.0,471.0
19:41:57.785000,-768.0,95.0,-1104.0,-94.0,788.0,-565.0,286.0,-241.0,471.0
19:41:57.790000,-801.0,71.0,-1137.0,-73.0,813.0,-567.0,279.0,-249.0,466.0
19:41:57.795000,-827.0,50.0,-1164.0,-76.0,808.0,-565.0,279.0,-249.0,466.0
19:41:57.799000,-844.0,30.0,-1187.0,-84.0,792.0,-572.0,276.0,-256.0,465.0
19:41:57.804000,-869.0,13.0,-1204.0,-107.0,805.0,-582.0,276.0,-256.0,465.0
19:41:57.808000,-869.0,13.0,-1204.0,-142.0,825.0,-590.0,276.0,-256.0,465.0
19:41:57.813000,-903.0,3.0,-1199.0,-198.0,868.0,-600.0,267.0,-255.0,469.0
19:41:57.818000,-936.0,-2.0,-1194.0,-257.0,917.0,-609.0,267.0,-255.0,469.0
19:41:57.823000,-977.0,-11.0,-1201.0,-297.0,947.0,-618.0,255.0,-264.0,460.0
19:41:57.828000,-1022.0,-16.0,-1206.0,-322.0,940.0,-629.0,255.0,-264.0,460.0
19:41:57.832000,-1066.0,-21.0,-1204.0,-329.0,922.0,-639.0,255.0,-264.0,460.0
19:41:57.837000,-1116.0,-29.0,-1197.0,-319.0,921.0,-645.0,261.0,-259.0,469.0
19:41:57.842000,-1166.0,-33.0,-1190.0,-293.0,941.0,-658.0,261.0,-259.0,469.0
19:41:57.846000,-1212.0,-36.0,-1197.0,-271.0,992.0,-678.0,261.0,-279.0,477.0
19:41:57.851000,-1257.0,-37.0,-1219.0,-261.0,1013.0,-690.0,261.0,-279.0,477.0
19:41:57.855000,-1297.0,-43.0,-1262.0,-271.0,1024.0,-706.0,261.0,-279.0,477.0
19:41:57.860000,-1339.0,-46.0,-1308.0,-286.0,1006.0,-712.0,243.0,-288.0,487.0
19:41:57.865000,-1375.0,-55.0,-1351.0,-296.0,973.0,-723.0,243.0,-288.0,487.0
19:41:57.870000,-1410.0,-63.0,-1398.0,-296.0,973.0,-723.0,255.0,-288.0,475.0
19:41:57.875000,-1445.0,-74.0,-1447.0,-315.0,977.0,-734.0,255.0,-288.0,475.0
19:41:57.879000,-1474.0,-89.0,-1489.0,-311.0,952.0,-737.0,255.0,-288.0,475.0
19:41:57.884000,-1502.0,-106.0,-1519.0,-289.0,948.0,-753.0,250.0,-292.0,472.0
19:41:57.889000,-1533.0,-126.0,-1535.0,-271.0,959.0,-754.0,250.0,-292.0,472.0
19:41:57.893000,-1557.0,-147.0,-1549.0,-234.0,931.0,-753.0,238.0,-298.0,480.0
19:41:57.898000,-1584.0,-165.0,-1566.0,-207.0,940.0,-771.0,238.0,-298.0,480.0
19:41:57.902000,-1615.0,-184.0,-1571.0,-186.0,939.0,-769.0,238.0,-298.0,480.0
19:41:57.907000,-1649.0,-200.0,-1565.0,-156.0,909.0,-772.0,246.0,-310.0,489.0
19:41:57.912000,-1691.0,-216.0,-1547.0,-155.0,928.0,-792.0,246.0,-310.0,489.0
19:41:57.917000,-1737.0,-228.0,-1520.0,-158.0,920.0,-792.0,234.0,-319.0,487.0
19:41:57.922000,-1737.0,-228.0,-1520.0,-145.0,884.0,-798.0,234.0,-319.0,487.0
19:41:57.926000,-1787.0,-237.0,-1492.0,-137.0,889.0,-820.0,234.0,-319.0,487.0
19:41:57.931000,-1841.0,-243.0,-1456.0,-124.0,876.0,-828.0,238.0,-337.0,484.0
19:41:57.936000,-1895.0,-249.0,-1421.0,-98.0,845.0,-841.0,238.0,-337.0,484.0
19:41:57.940000,-1948.0,-255.0,-1399.0,-100.0,866.0,-865.0,235.0,-352.0,487.0
19:41:57.945000,-2006.0,-263.0,-1386.0,-119.0,889.0,-874.0,235.0,-352.0,487.0
19:41:57.949000,-2064.0,-270.0,-1375.0,-120.0,865.0,-882.0,235.0,-352.0,487.0
19:41:57.954000,-2117.0,-281.0,-1358.0,-138.0,866.0,-903.0,238.0,-370.0,484.0
19:41:57.959000,-2175.0,-290.0,-1331.0,-160.0,859.0,-912.0,238.0,-370.0,484.0
19:41:57.964000,-2231.0,-298.0,-1300.0,-168.0,812.0,-924.0,247.0,-378.0,483.0
19:41:57.969000,-2281.0,-304.0,-1278.0,-196.0,789.0,-946.0,247.0,-378.0,483.0
19:41:57.973000,-2326.0,-310.0,-1263.0,-211.0,759.0,-962.0,247.0,-378.0,483.0
19:41:57.978000,-2363.0,-317.0,-1243.0,-201.0,738.0,-981.0,240.0,-382.0,493.0
19:41:57.982000,-2407.0,-326.0,-1210.0,-194.0,732.0,-992.0,240.0,-382.0,493.0
19:41:57.987000,-2454.0,-339.0,-1166.0,-194.0,732.0,-992.0,232.0,-405.0,483.0
19:41:57.992000,-2499.0,-353.0,-1131.0,-184.0,728.0,-1000.0,232.0,-405.0,483.0
19:41:57.997000,-2538.0,-372.0,-1108.0,-172.0,725.0,-1009.0,234.0,-420.0,490.0
19:41:58.001000,-2567.0,-401.0,-1095.0,-150.0,696.0,-1010.0,234.0,-420.0,490.0
19:41:58.006000,-2587.0,-430.0,-1092.0,-123.0,657.0,-1011.0,234.0,-420.0,490.0
19:41:58.011000,-2595.0,-465.0,-1099.0,-108.0,606.0,-1007.0,243.0,-451.0,480.0
19:41:58.016000,-2591.0,-503.0,-1094.0,-90.0,545.0,-1005.0,243.0,-451.0,480.0
19:41:58.020000,-2581.0,-543.0,-1089.0,-82.0,501.0,-1009.0,246.0,-463.0,489.0
19:41:58.025000,-2557.0,-590.0,-1080.0,-107.0,474.0,-1002.0,246.0,-463.0,489.0
19:41:58.029000,-2557.0,-590.0,-1080.0,-152.0,443.0,-996.0,246.0,-463.0,489.0
19:41:58.034000,-2517.0,-634.0,-1062.0,-199.0,415.0,-981.0,243.0,-460.0,474.0
19:41:58.039000,-2490.0,-671.0,-1026.0,-254.0,387.0,-952.0,243.0,-460.0,474.0
19:41:58.044000,-2449.0,-714.0,-1003.0,-333.0,366.0,-939.0,255.0,-484.0,465.0
19:41:58.048000,-2371.0,-768.0,-1004.0,-394.0,296.0,-926.0,255.0,-484.0,465.0
19:41:58.053000,-2247.0,-831.0,-849.0,-442.0,-6.0,-931.0,255.0,-484.0,465.0
19:41:58.058000,-2083.0,-876.0,-279.0,-711.0,-190.0,-926.0,268.0,-493.0,474.0
19:41:58.063000,-1908.0,-957.0,-9.0,-1097.0,8.0,-903.0,268.0,-493.0,474.0
19:41:58.067000,-1771.0,-998.0,-214.0,-1157.0,180.0,-912.0,270.0,-507.0,474.0
19:41:58.072000,-1659.0,-984.0,-431.0,-911.0,169.0,-926.0,270.0,-507.0,474.0
19:41:58.076000,-1549.0,-931.0,-465.0,-692.0,105.0,-904.0,270.0,-507.0,474.0
19:41:58.081000,-1471.0,-875.0,-429.0,-670.0,75.0,-843.0,283.0,-532.0,471.0
19:41:58.086000,-1449.0,-793.0,-470.0,-752.0,50.0,-795.0,283.0,-532.0,471.0
19:41:58.091000,-1458.0,-705.0,-519.0,-752.0,50.0,-795.0,277.0,-538.0,450.0
19:41:58.095000,-1462.0,-628.0,-572.0,-820.0,38.0,-768.0,277.0,-538.0,450.0
19:41:58.100000,-1459.0,-563.0,-682.0,-877.0,84.0,-742.0,277.0,-538.0,450.0
19:41:58.104000,-1461.0,-505.0,-781.0,-913.0,129.0,-725.0,286.0,-541.0,453.0
19:41:58.110000,-1479.0,-455.0,-847.0,-907.0,120.0,-712.0,286.0,-541.0,453.0
19:41:58.114000,-1500.0,-409.0,-912.0,-914.0,103.0,-697.0,289.0,-549.0,450.0
19:41:58.119000,-1520.0,-371.0,-959.0,-922.0,105.0,-693.0,289.0,-549.0,450.0
19:41:58.123000,-1540.0,-340.0,-1016.0,-909.0,121.0,-691.0,289.0,-549.0,450.0
19:41:58.128000,-1546.0,-310.0,-1064.0,-922.0,125.0,-705.0,292.0,-550.0,450.0
19:41:58.133000,-1548.0,-275.0,-1060.0,-923.0,69.0,-731.0,292.0,-550.0,450.0
19:41:58.138000,-1539.0,-249.0,-1044.0,-889.0,-20.0,-759.0,294.0,-565.0,444.0
19:41:58.142000,-1539.0,-249.0,-1044.0,-859.0,-62.0,-787.0,294.0,-565.0,444.0
19:41:58.150000,-1526.0,-231.0,-1144.0,-798.0,-12.0,-823.0,297.0,-567.0,435.0
19:41:58.152000,-1526.0,-231.0,-1144.0,-798.0,-12.0,-823.0,297.0,-567.0,435.0
19:41:58.156000,-1526.0,-221.0,-1208.0,-707.0,-2.0,-847.0,297.0,-567.0,435.0
19:41:58.161000,-1523.0,-217.0,-1227.0,-642.0,-23.0,-865.0,312.0,-579.0,429.0
19:41:58.166000,-1528.0,-219.0,-1230.0,-627.0,-45.0,-886.0,312.0,-579.0,429.0
19:41:58.171000,-1547.0,-212.0,-1243.0,-664.0,-35.0,-882.0,309.0,-579.0,424.0
19:41:58.175000,-1600.0,-220.0,-1287.0,-714.0,1.0,-861.0,309.0,-579.0,424.0
19:41:58.179000,-1656.0,-221.0,-1354.0,-742.0,25.0,-878.0,309.0,-579.0,424.0
19:41:58.185000,-1712.0,-158.0,-1414.0,-792.0,57.0,-970.0,327.0,-594.0,412.0
19:41:58.189000,-2205.0,410.0,-951.0,-1071.0,227.0,-736.0,327.0,-594.0,412.0
19:41:58.194000,-2271.0,103.0,-408.0,-1071.0,227.0,-736.0,316.0,-601.0,429.0
19:41:58.199000,-1997.0,-120.0,-844.0,-750.0,-254.0,-953.0,316.0,-601.0,429.0
19:41:58.203000,-1792.0,-189.0,-1546.0,-750.0,-254.0,-953.0,316.0,-601.0,429.0
19:41:58.208000,-1658.0,-31.0,-1689.0,-401.0,-425.0,-968.0,318.0,-598.0,402.0
19:41:58.213000,-1561.0,-52.0,-1229.0,-240.0,-577.0,-962.0,318.0,-598.0,402.0
19:41:58.218000,-1525.0,-23.0,-1044.0,-394.0,-497.0,-921.0,324.0,-619.0,399.0
19:41:58.222000,-1496.0,-52.0,-1040.0,-703.0,-267.0,-887.0,324.0,-619.0,399.0
19:41:58.226000,-1412.0,-63.0,-1116.0,-831.0,-201.0,-862.0,324.0,-619.0,399.0
19:41:58.232000,-1299.0,-100.0,-1213.0,-701.0,-192.0,-904.0,328.0,-630.0,400.0
19:41:58.236000,-1212.0,-137.0,-1273.0,-561.0,-129.0,-892.0,328.0,-630.0,400.0
19:41:58.241000,-1148.0,-163.0,-1299.0,-551.0,-94.0,-877.0,331.0,-627.0,388.0
19:41:58.246000,-1110.0,-221.0,-1364.0,-627.0,-21.0,-843.0,331.0,-627.0,388.0
19:41:58.250000,-1110.0,-221.0,-1364.0,-679.0,10.0,-824.0,331.0,-627.0,388.0
19:41:58.255000,-1114.0,-219.0,-1351.0,-677.0,-40.0,-808.0,352.0,-631.0,378.0
19:41:58.260000,-1127.0,-221.0,-1239.0,-709.0,-25.0,-801.0,352.0,-631.0,378.0
19:41:58.265000,-1136.0,-216.0,-1186.0,-806.0,66.0,-802.0,354.0,-630.0,373.0
19:41:58.269000,-1143.0,-205.0,-1292.0,-860.0,89.0,-777.0,354.0,-630.0,373.0
19:41:58.273000,-1167.0,-186.0,-1382.0,-774.0,-15.0,-763.0,354.0,-630.0,373.0
19:41:58.279000,-1171.0,-185.0,-1289.0,-681.0,-105.0,-764.0,358.0,-634.0,372.0
19:41:58.283000,-1148.0,-180.0,-1206.0,-723.0,-94.0,-770.0,358.0,-634.0,372.0
19:41:58.288000,-1104.0,-207.0,-1312.0,-747.0,0.0,-776.0,364.0,-630.0,369.0
19:41:58.293000,-1029.0,-240.0,-1493.0,-719.0,-84.0,-772.0,364.0,-630.0,369.0
19:41:58.297000,-928.0,-277.0,-1501.0,-688.0,-201.0,-797.0,364.0,-630.0,369.0
19:41:58.302000,-811.0,-328.0,-1465.0,-668.0,-134.0,-827.0,364.0,-625.0,357.0
19:41:58.307000,-716.0,-352.0,-1494.0,-601.0,-65.0,-794.0,364.0,-625.0,357.0
19:41:58.312000,-658.0,-390.0,-1470.0,-601.0,-65.0,-794.0,385.0,-636.0,355.0
19:41:58.316000,-589.0,-418.0,-1463.0,-713.0,-59.0,-821.0,385.0,-636.0,355.0
19:41:58.320000,-530.0,-430.0,-1464.0,-713.0,-59.0,-821.0,385.0,-636.0,355.0
19:41:58.326000,-499.0,-443.0,-1496.0,-784.0,31.0,-803.0,393.0,-622.0,364.0
19:41:58.330000,-510.0,-487.0,-1545.0,-757.0,177.0,-774.0,393.0,-622.0,364.0
19:41:58.335000,-529.0,-514.0,-1480.0,-674.0,250.0,-765.0,393.0,-634.0,342.0
19:41:58.340000,-492.0,-561.0,-1332.0,-720.0,144.0,-769.0,393.0,-634.0,342.0
19:41:58.344000,-492.0,-561.0,-1332.0,-771.0,94.0,-771.0,393.0,-634.0,342.0
19:41:58.349000,-417.0,-647.0,-1302.0,-789.0,100.0,-823.0,406.0,-624.0,351.0
19:41:58.354000,-352.0,-672.0,-1383.0,-783.0,114.0,-868.0,406.0,-624.0,351.0
19:41:58.359000,-352.0,-672.0,-1383.0,-729.0,63.0,-884.0,418.0,-622.0,337.0
19:41:58.363000,-280.0,-690.0,-1310.0,-696.0,-24.0,-881.0,418.0,-622.0,337.0
19:41:58.367000,-231.0,-730.0,-1230.0,-745.0,11.0,-887.0,418.0,-622.0,337.0
19:41:58.373000,-146.0,-789.0,-1338.0,-674.0,-68.0,-930.0,415.0,-622.0,346.0
19:41:58.377000,-54.0,-843.0,-1290.0,-597.0,-255.0,-973.0,415.0,-622.0,346.0
19:41:58.382000,-42.0,-835.0,-1157.0,-657.0,-258.0,-1011.0,433.0,-624.0,337.0
19:41:58.387000,14.0,-847.0,-1074.0,-750.0,-157.0,-1024.0,433.0,-624.0,337.0
19:41:58.391000,63.0,-863.0,-1160.0,-755.0,-195.0,-1025.0,433.0,-624.0,337.0
19:41:58.396000,101.0,-870.0,-1207.0,-684.0,-379.0,-1031.0,442.0,-613.0,333.0
19:41:58.400000,128.0,-899.0,-1026.0,-642.0,-454.0,-999.0,442.0,-613.0,333.0
19:41:58.406000,51.0,-952.0,-811.0,-575.0,-391.0,-961.0,450.0,-616.0,345.0
19:41:58.410000,-8.0,-1024.0,-774.0,-424.0,-380.0,-1000.0,450.0,-616.0,345.0
19:41:58.415000,5.0,-1029.0,-819.0,-424.0,-380.0,-1000.0,463.0,-607.0,336.0
19:41:58.420000,21.0,-1085.0,-836.0,-139.0,-563.0,-986.0,463.0,-607.0,336.0
19:41:58.424000,5.0,-1157.0,-834.0,-139.0,-563.0,-986.0,463.0,-607.0,336.0
19:41:58.429000,-27.0,-1234.0,-779.0,-64.0,-829.0,-924.0,462.0,-604.0,330.0
19:41:58.434000,-39.0,-1251.0,-648.0,9.0,-1011.0,-893.0,462.0,-604.0,330.0
19:41:58.439000,-42.0,-1274.0,-557.0,52.0,-991.0,-900.0,474.0,-603.0,316.0
19:41:58.443000,-112.0,-1270.0,-492.0,51.0,-919.0,-855.0,474.0,-603.0,316.0
19:41:58.447000,-186.0,-1236.0,-445.0,-7.0,-1062.0,-849.0,474.0,-603.0,316.0
19:41:58.453000,-233.0,-1190.0,-473.0,-127.0,-1187.0,-872.0,471.0,-600.0,316.0
19:41:58.457000,-210.0,-1138.0,-589.0,-220.0,-1024.0,-910.0,471.0,-600.0,316.0
19:41:58.462000,-151.0,-1134.0,-828.0,-373.0,-716.0,-933.0,480.0,-606.0,309.0
19:41:58.467000,-137.0,-1110.0,-811.0,-396.0,-532.0,-931.0,480.0,-606.0,309.0
19:41:58.471000,-137.0,-1110.0,-811.0,-435.0,-454.0,-879.0,480.0,-606.0,309.0
19:41:58.476000,-288.0,-1106.0,-780.0,-682.0,-446.0,-852.0,487.0,-601.0,300.0
19:41:58.481000,-355.0,-1128.0,-1001.0,-668.0,-525.0,-971.0,487.0,-601.0,300.0
19:41:58.486000,-268.0,-1141.0,-1242.0,-542.0,-484.0,-1003.0,487.0,-589.0,295.0
19:41:58.490000,-310.0,-1137.0,-1231.0,-622.0,-505.0,-982.0,487.0,-589.0,295.0
19:41:58.494000,-216.0,-1176.0,-1229.0,-763.0,-350.0,-989.0,487.0,-589.0,295.0
19:41:58.500000,-214.0,-1194.0,-1408.0,-748.0,-161.0,-959.0,499.0,-594.0,285.0
19:41:58.504000,-271.0,-1193.0,-1415.0,-628.0,-333.0,-930.0,499.0,-594.0,285.0
19:41:58.509000,-329.0,-1226.0,-1147.0,-612.0,-568.0,-941.0,510.0,-576.0,291.0
19:41:58.514000,-431.0,-1198.0,-895.0,-720.0,-622.0,-988.0,510.0,-576.0,291.0
19:41:58.518000,-441.0,-1185.0,-769.0,-779.0,-600.0,-999.0,510.0,-576.0,291.0
19:41:58.523000,-403.0,-1175.0,-763.0,-700.0,-670.0,-983.0,511.0,-574.0,285.0
19:41:58.528000,-329.0,-1178.0,-651.0,-690.0,-769.0,-979.0,511.0,-574.0,285.0
19:41:58.533000,-263.0,-1153.0,-620.0,-690.0,-769.0,-979.0,519.0,-580.0,265.0
19:41:58.537000,-259.0,-1127.0,-641.0,-775.0,-765.0,-971.0,519.0,-580.0,265.0
19:41:58.541000,-219.0,-1100.0,-886.0,-768.0,-588.0,-924.0,519.0,-580.0,265.0
19:41:58.547000,-181.0,-1083.0,-1090.0,-645.0,-543.0,-899.0,522.0,-573.0,262.0
19:41:58.551000,-142.0,-1087.0,-1077.0,-537.0,-524.0,-893.0,522.0,-573.0,262.0
19:41:58.556000,-88.0,-1089.0,-1024.0,-556.0,-522.0,-865.0,525.0,-564.0,264.0
19:41:58.561000,-74.0,-1110.0,-1061.0,-646.0,-581.0,-827.0,525.0,-564.0,264.0
19:41:58.565000,-74.0,-1110.0,-1061.0,-671.0,-502.0,-814.0,525.0,-564.0,264.0
19:41:58.570000,-37.0,-1099.0,-1099.0,-623.0,-446.0,-798.0,525.0,-559.0,258.0
19:41:58.575000,-12.0,-1093.0,-1007.0,-579.0,-414.0,-754.0,525.0,-559.0,258.0
19:41:58.580000,-12.0,-1093.0,-1007.0,-577.0,-402.0,-720.0,528.0,-561.0,244.0
19:41:58.584000,9.0,-1103.0,-935.0,-618.0,-395.0,-698.0,528.0,-561.0,244.0
19:41:58.588000,39.0,-1105.0,-929.0,-697.0,-360.0,-668.0,528.0,-561.0,244.0
19:41:58.594000,24.0,-1103.0,-940.0,-747.0,-315.0,-650.0,546.0,-546.0,244.0
19:41:58.598000,14.0,-1085.0,-890.0,-775.0,-296.0,-644.0,546.0,-546.0,244.0
19:41:58.603000,-4.0,-1072.0,-751.0,-841.0,-309.0,-636.0,538.0,-549.0,237.0
19:41:58.607000,4.0,-1048.0,-721.0,-912.0,-233.0,-627.0,538.0,-549.0,237.0
19:41:58.612000,-9.0,-1024.0,-782.0,-926.0,-208.0,-617.0,538.0,-549.0,237.0
19:41:58.617000,-9.0,-989.0,-706.0,-914.0,-260.0,-604.0,547.0,-538.0,222.0
19:41:58.622000,-20.0,-962.0,-628.0,-929.0,-235.0,-594.0,547.0,-538.0,222.0
19:41:58.627000,-36.0,-910.0,-664.0,-929.0,-213.0,-583.0,553.0,-534.0,231.0
19:41:58.631000,-31.0,-883.0,-614.0,-867.0,-245.0,-567.0,553.0,-534.0,231.0
19:41:58.635000,-15.0,-858.0,-469.0,-923.0,-251.0,-556.0,553.0,-534.0,231.0
19:41:58.641000,-21.0,-828.0,-466.0,-923.0,-251.0,-556.0,564.0,-543.0,213.0
19:41:58.645000,-1.0,-789.0,-600.0,-999.0,-235.0,-558.0,564.0,-543.0,213.0
19:41:58.649000,50.0,-781.0,-632.0,-927.0,-372.0,-568.0,553.0,-531.0,205.0
19:41:58.655000,71.0,-747.0,-501.0,-927.0,-372.0,-568.0,553.0,-531.0,205.0
19:41:58.659000,106.0,-756.0,-335.0,-906.0,-441.0,-559.0,553.0,-531.0,205.0
19:41:58.664000,73.0,-746.0,-343.0,-928.0,-373.0,-536.0,538.0,-531.0,207.0
19:41:58.669000,79.0,-749.0,-407.0,-934.0,-206.0,-536.0,538.0,-531.0,207.0
19:41:58.674000,58.0,-725.0,-296.0,-854.0,-144.0,-533.0,561.0,-529.0,205.0
19:41:58.678000,42.0,-704.0,-274.0,-824.0,-136.0,-526.0,561.0,-529.0,205.0
19:41:58.682000,42.0,-704.0,-274.0,-874.0,-155.0,-516.0,561.0,-529.0,205.0
19:41:58.688000,51.0,-708.0,-259.0,-851.0,-215.0,-501.0,556.0,-535.0,198.0
19:41:58.692000,23.0,-696.0,-191.0,-790.0,-192.0,-489.0,556.0,-535.0,198.0
19:41:58.696000,20.0,-688.0,-139.0,-823.0,-151.0,-474.0,562.0,-538.0,199.0
19:41:58.702000,-10.0,-669.0,-157.0,-906.0,-153.0,-454.0,562.0,-538.0,199.0
19:41:58.706000,-28.0,-674.0,-215.0,-916.0,-184.0,-441.0,562.0,-538.0,199.0
19:41:58.711000,-46.0,-675.0,-235.0,-894.0,-241.0,-440.0,565.0,-528.0,183.0
19:41:58.716000,-70.0,-661.0,-196.0,-914.0,-235.0,-428.0,565.0,-528.0,183.0
19:41:58.721000,-108.0,-649.0,-191.0,-908.0,-215.0,-407.0,559.0,-526.0,184.0
19:41:58.725000,-129.0,-647.0,-161.0,-867.0,-252.0,-413.0,559.0,-526.0,184.0
19:41:58.729000,-112.0,-641.0,-121.0,-890.0,-292.0,-408.0,559.0,-526.0,184.0
19:41:58.735000,-111.0,-633.0,-126.0,-950.0,-312.0,-394.0,564.0,-523.0,183.0
19:41:58.739000,-112.0,-620.0,-148.0,-955.0,-315.0,-388.0,564.0,-523.0,183.0
19:41:58.744000,-102.0,-625.0,-170.0,-901.0,-264.0,-386.0,550.0,-525.0,186.0
19:41:58.749000,-63.0,-610.0,-254.0,-901.0,-231.0,-386.0,550.0,-525.0,186.0
19:41:58.753000,-20.0,-581.0,-284.0,-851.0,-231.0,-395.0,565.0,-520.0,178.0
19:41:58.758000,21.0,-574.0,-228.0,-840.0,-262.0,-390.0,565.0,-520.0,178.0
19:41:58.762000,3.0,-570.0,-140.0,-868.0,-295.0,-365.0,565.0,-520.0,178.0
19:41:58.768000,-30.0,-576.0,-58.0,-907.0,-313.0,-345.0,564.0,-520.0,171.0
19:41:58.772000,-17.0,-577.0,-125.0,-951.0,-252.0,-357.0,564.0,-520.0,171.0
19:41:58.777000,-4.0,-564.0,-227.0,-955.0,-180.0,-366.0,555.0,-523.0,159.0
19:41:58.782000,2.0,-555.0,-130.0,-894.0,-221.0,-357.0,555.0,-523.0,159.0
19:41:58.786000,2.0,-555.0,-130.0,-874.0,-297.0,-350.0,555.0,-523.0,159.0
19:41:58.791000,-51.0,-532.0,-67.0,-964.0,-240.0,-337.0,562.0,-532.0,163.0
19:41:58.796000,-51.0,-532.0,-67.0,-1012.0,-120.0,-321.0,562.0,-532.0,163.0
19:41:58.800000,-79.0,-523.0,-168.0,-930.0,-110.0,-318.0,550.0,-522.0,151.0
19:41:58.805000,-95.0,-511.0,-133.0,-862.0,-188.0,-316.0,550.0,-522.0,151.0
19:41:58.809000,-101.0,-518.0,-29.0,-914.0,-218.0,-298.0,550.0,-522.0,151.0
19:41:58.815000,-146.0,-501.0,-25.0,-1021.0,-130.0,-298.0,571.0,-517.0,157.0
19:41:58.819000,-156.0,-487.0,-109.0,-1007.0,-111.0,-298.0,571.0,-517.0,157.0
19:41:58.823000,-175.0,-487.0,-86.0,-932.0,-160.0,-279.0,559.0,-525.0,171.0
19:41:58.829000,-204.0,-475.0,-84.0,-924.0,-183.0,-275.0,559.0,-525.0,171.0
19:41:58.833000,-190.0,-475.0,-121.0,-929.0,-229.0,-277.0,559.0,-525.0,171.0
19:41:58.838000,-168.0,-474.0,-128.0,-935.0,-257.0,-272.0,568.0,-531.0,142.0
19:41:58.843000,-171.0,-469.0,-89.0,-965.0,-212.0,-269.0,568.0,-531.0,142.0
19:41:58.847000,-165.0,-462.0,-101.0,-965.0,-212.0,-269.0,579.0,-520.0,144.0
19:41:58.852000,-155.0,-452.0,-114.0,-965.0,-188.0,-276.0,579.0,-520.0,144.0
19:41:58.856000,-147.0,-441.0,-129.0,-958.0,-200.0,-274.0,579.0,-520.0,144.0
19:41:58.861000,-136.0,-429.0,-146.0,-958.0,-200.0,-274.0,571.0,-523.0,145.0
19:41:58.866000,-104.0,-425.0,-107.0,-963.0,-224.0,-274.0,571.0,-523.0,145.0
19:41:58.871000,-94.0,-410.0,-55.0,-963.0,-224.0,-274.0,564.0,-523.0,144.0
19:41:58.876000,-102.0,-397.0,-30.0,-953.0,-180.0,-265.0,564.0,-523.0,144.0
19:41:58.880000,-106.0,-382.0,-41.0,-962.0,-125.0,-263.0,568.0,-525.0,142.0
19:41:58.885000,-112.0,-361.0,-9.0,-993.0,-140.0,-269.0,568.0,-525.0,142.0
19:41:58.889000,-114.0,-354.0,-1.0,-1021.0,-180.0,-274.0,568.0,-525.0,142.0
19:41:58.894000,-119.0,-345.0,11.0,-1006.0,-186.0,-274.0,562.0,-526.0,133.0
19:41:58.899000,-133.0,-319.0,70.0,-964.0,-188.0,-281.0,562.0,-526.0,133.0
19:41:58.904000,-143.0,-310.0,93.0,-974.0,-187.0,-289.0,561.0,-529.0,135.0
19:41:58.908000,-143.0,-310.0,93.0,-1020.0,-195.0,-289.0,561.0,-529.0,135.0
19:41:58.913000,-141.0,-314.0,74.0,-1014.0,-215.0,-295.0,561.0,-529.0,135.0
19:41:58.918000,-151.0,-302.0,91.0,-955.0,-223.0,-303.0,568.0,-520.0,136.0
19:41:58.923000,-155.0,-290.0,154.0,-916.0,-205.0,-303.0,568.0,-520.0,136.0
19:41:58.927000,-163.0,-287.0,206.0,-915.0,-159.0,-296.0,561.0,-522.0,136.0
19:41:58.932000,-171.0,-301.0,182.0,-910.0,-126.0,-297.0,561.0,-522.0,136.0
19:41:58.936000,-182.0,-301.0,146.0,-906.0,-127.0,-305.0,561.0,-522.0,136.0
19:41:58.941000,-188.0,-299.0,102.0,-905.0,-182.0,-303.0,568.0,-525.0,126.0
19:41:58.946000,-182.0,-310.0,114.0,-880.0,-269.0,-301.0,568.0,-525.0,126.0
19:41:58.951000,-168.0,-318.0,195.0,-871.0,-300.0,-300.0,568.0,-526.0,120.0
19:41:58.955000,-158.0,-324.0,245.0,-909.0,-270.0,-301.0,568.0,-526.0,120.0
19:41:58.960000,-151.0,-317.0,230.0,-973.0,-245.0,-304.0,568.0,-526.0,120.0
19:41:58.965000,-158.0,-313.0,213.0,-993.0,-240.0,-290.0,555.0,-522.0,144.0
19:41:58.970000,-180.0,-317.0,232.0,-993.0,-240.0,-290.0,555.0,-522.0,144.0
19:41:58.974000,-200.0,-312.0,277.0,-957.0,-237.0,-276.0,570.0,-526.0,121.0
19:41:58.979000,-197.0,-302.0,253.0,-949.0,-223.0,-277.0,570.0,-526.0,121.0
19:41:58.983000,-194.0,-303.0,205.0,-954.0,-206.0,-266.0,570.0,-526.0,121.0
19:41:58.988000,-200.0,-300.0,250.0,-916.0,-228.0,-248.0,576.0,-540.0,124.0
19:41:58.993000,-218.0,-291.0,329.0,-905.0,-268.0,-238.0,576.0,-540.0,124.0
19:41:58.997000,-226.0,-283.0,336.0,-973.0,-269.0,-231.0,564.0,-531.0,120.0
19:41:59.002000,-226.0,-278.0,307.0,-1020.0,-255.0,-225.0,564.0,-531.0,120.0
19:41:59.007000,-226.0,-278.0,307.0,-987.0,-260.0,-217.0,564.0,-531.0,120.0
19:41:59.012000,-236.0,-261.0,303.0,-943.0,-253.0,-207.0,565.0,-534.0,108.0
19:41:59.017000,-236.0,-261.0,303.0,-933.0,-216.0,-194.0,565.0,-534.0,108.0
19:41:59.021000,-241.0,-260.0,258.0,-928.0,-188.0,-185.0,565.0,-538.0,109.0
19:41:59.026000,-250.0,-254.0,207.0,-900.0,-198.0,-175.0,565.0,-538.0,109.0
19:41:59.030000,-261.0,-254.0,195.0,-888.0,-226.0,-167.0,565.0,-538.0,109.0
19:41:59.035000,-265.0,-256.0,214.0,-910.0,-268.0,-166.0,559.0,-534.0,103.0
19:41:59.040000,-263.0,-261.0,241.0,-960.0,-293.0,-166.0,559.0,-534.0,103.0
19:41:59.045000,-260.0,-263.0,221.0,-999.0,-291.0,-169.0,561.0,-538.0,108.0
19:41:59.049000,-254.0,-257.0,221.0,-1001.0,-298.0,-171.0,561.0,-538.0,108.0
19:41:59.054000,-266.0,-247.0,270.0,-1000.0,-268.0,-166.0,561.0,-538.0,108.0
19:41:59.059000,-282.0,-242.0,280.0,-1000.0,-202.0,-163.0,562.0,-531.0,103.0
19:41:59.064000,-297.0,-231.0,252.0,-984.0,-171.0,-162.0,562.0,-531.0,103.0
19:41:59.068000,-323.0,-211.0,226.0,-984.0,-171.0,-162.0,555.0,-538.0,91.0
19:41:59.073000,-357.0,-200.0,271.0,-942.0,-252.0,-156.0,555.0,-538.0,91.0
19:41:59.077000,-390.0,-186.0,310.0,-942.0,-252.0,-156.0,555.0,-538.0,91.0
19:41:59.082000,-420.0,-172.0,294.0,-973.0,-204.0,-161.0,559.0,-549.0,99.0
19:41:59.087000,-443.0,-156.0,275.0,-973.0,-204.0,-161.0,559.0,-549.0,99.0
19:41:59.092000,-457.0,-137.0,261.0,-970.0,-210.0,-169.0,565.0,-538.0,102.0
19:41:59.096000,-457.0,-128.0,261.0,-977.0,-249.0,-175.0,565.0,-538.0,102.0
19:41:59.101000,-450.0,-121.0,265.0,-986.0,-297.0,-180.0,565.0,-538.0,102.0
19:41:59.106000,-439.0,-113.0,256.0,-986.0,-326.0,-188.0,552.0,-538.0,90.0
19:41:59.111000,-422.0,-98.0,232.0,-987.0,-337.0,-201.0,552.0,-538.0,90.0
19:41:59.115000,-406.0,-92.0,227.0,-989.0,-340.0,-211.0,553.0,-546.0,88.0
19:41:59.120000,-391.0,-89.0,238.0,-987.0,-339.0,-214.0,553.0,-546.0,88.0
19:41:59.124000,-391.0,-89.0,238.0,-980.0,-334.0,-218.0,553.0,-546.0,88.0
19:41:59.129000,-370.0,-91.0,252.0,-977.0,-327.0,-223.0,549.0,-538.0,88.0
19:41:59.134000,-349.0,-91.0,237.0,-980.0,-325.0,-225.0,549.0,-538.0,88.0
19:41:59.139000,-339.0,-91.0,231.0,-984.0,-322.0,-224.0,553.0,-544.0,84.0
19:41:59.143000,-327.0,-98.0,230.0,-994.0,-298.0,-227.0,553.0,-544.0,84.0
19:41:59.148000,-316.0,-100.0,197.0,-988.0,-288.0,-227.0,553.0,-544.0,84.0
19:41:59.153000,-307.0,-102.0,200.0,-951.0,-314.0,-218.0,559.0,-553.0,70.0
19:41:59.158000,-305.0,-117.0,260.0,-937.0,-305.0,-211.0,559.0,-553.0,70.0
19:41:59.162000,-312.0,-123.0,265.0,-962.0,-255.0,-208.0,561.0,-556.0,84.0
19:41:59.167000,-315.0,-127.0,224.0,-976.0,-240.0,-200.0,561.0,-556.0,84.0
19:41:59.174000,-323.0,-154.0,207.0,-969.0,-254.0,-172.0,552.0,-550.0,84.0
19:41:59.176000,-323.0,-154.0,207.0,-969.0,-254.0,-172.0,552.0,-550.0,84.0
19:41:59.180000,-321.0,-172.0,166.0,-945.0,-256.0,-159.0,552.0,-550.0,84.0
19:41:59.186000,-319.0,-189.0,156.0,-945.0,-279.0,-149.0,559.0,-552.0,70.0
19:41:59.190000,-323.0,-202.0,163.0,-910.0,-279.0,-149.0,559.0,-552.0,70.0
19:41:59.195000,-317.0,-225.0,134.0,-905.0,-277.0,-135.0,562.0,-549.0,73.0
19:41:59.200000,-310.0,-247.0,107.0,-903.0,-266.0,-120.0,562.0,-549.0,73.0
19:41:59.204000,-305.0,-266.0,93.0,-889.0,-270.0,-108.0,562.0,-549.0,73.0
19:41:59.209000,-294.0,-287.0,92.0,-899.0,-283.0,-96.0,552.0,-549.0,67.0
19:41:59.214000,-279.0,-307.0,81.0,-925.0,-288.0,-84.0,552.0,-549.0,67.0
19:41:59.219000,-265.0,-320.0,65.0,-941.0,-287.0,-72.0,555.0,-556.0,67.0
19:41:59.223000,-245.0,-325.0,36.0,-957.0,-282.0,-65.0,555.0,-556.0,67.0
19:41:59.227000,-245.0,-325.0,36.0,-981.0,-268.0,-59.0,555.0,-556.0,67.0
19:41:59.233000,-230.0,-326.0,0.0,-996.0,-251.0,-46.0,552.0,-558.0,64.0
19:41:59.237000,-225.0,-326.0,-18.0,-1005.0,-229.0,-31.0,552.0,-558.0,64.0
19:41:59.242000,-212.0,-329.0,-32.0,-1019.0,-209.0,-18.0,549.0,-550.0,55.0
19:41:59.247000,-204.0,-326.0,-47.0,-1042.0,-199.0,-7.0,549.0,-550.0,55.0
19:41:59.251000,-200.0,-322.0,-62.0,-1058.0,-184.0,5.0,549.0,-550.0,55.0
19:41:59.256000,-194.0,-322.0,-94.0,-1058.0,-159.0,23.0,559.0,-553.0,54.0
19:41:59.261000,-198.0,-326.0,-133.0,-1030.0,-141.0,47.0,559.0,-553.0,54.0
19:41:59.266000,-209.0,-339.0,-124.0,-988.0,-154.0,55.0,558.0,-544.0,52.0
19:41:59.270000,-219.0,-346.0,-110.0,-994.0,-119.0,59.0,558.0,-544.0,52.0
19:41:59.274000,-245.0,-343.0,-141.0,-1035.0,-60.0,80.0,558.0,-544.0,52.0
19:41:59.280000,-251.0,-357.0,-154.0,-1054.0,-40.0,101.0,552.0,-544.0,54.0
19:41:59.284000,-282.0,-361.0,-172.0,-1034.0,-39.0,120.0,552.0,-544.0,54.0
19:41:59.289000,-317.0,-371.0,-177.0,-1034.0,-39.0,120.0,553.0,-549.0,40.0
19:41:59.294000,-347.0,-365.0,-203.0,-1047.0,-27.0,131.0,553.0,-549.0,40.0
19:41:59.298000,-389.0,-366.0,-220.0,-1047.0,-27.0,131.0,553.0,-549.0,40.0
19:41:59.303000,-436.0,-376.0,-184.0,-1056.0,-12.0,154.0,553.0,-535.0,49.0
19:41:59.308000,-493.0,-373.0,-192.0,-1056.0,-12.0,154.0,553.0,-535.0,49.0
19:41:59.313000,-553.0,-357.0,-177.0,-1063.0,-6.0,151.0,547.0,-555.0,42.0
19:41:59.317000,-624.0,-350.0,-147.0,-1054.0,-39.0,153.0,547.0,-555.0,42.0
19:41:59.321000,-683.0,-348.0,-167.0,-1056.0,-22.0,162.0,547.0,-555.0,42.0
19:41:59.327000,-741.0,-333.0,-231.0,-1065.0,28.0,160.0,553.0,-540.0,42.0
19:41:59.331000,-805.0,-333.0,-221.0,-1041.0,1.0,165.0,553.0,-540.0,42.0
19:41:59.336000,-872.0,-333.0,-192.0,-986.0,-55.0,171.0,553.0,-538.0,25.0
19:41:59.341000,-927.0,-324.0,-209.0,-975.0,-40.0,158.0,553.0,-538.0,25.0
19:41:59.345000,-927.0,-324.0,-209.0,-999.0,-4.0,152.0,553.0,-538.0,25.0
19:41:59.350000,-994.0,-320.0,-219.0,-1005.0,24.0,153.0,550.0,-537.0,34.0
19:41:59.355000,-1053.0,-324.0,-233.0,-1001.0,46.0,149.0,550.0,-537.0,34.0
19:41:59.360000,-1133.0,-317.0,-249.0,-974.0,26.0,157.0,537.0,-528.0,24.0
19:41:59.364000,-1204.0,-339.0,-195.0,-961.0,16.0,157.0,537.0,-528.0,24.0
19:41:59.368000,-1278.0,-340.0,-192.0,-982.0,24.0,155.0,537.0,-528.0,24.0
19:41:59.374000,-1336.0,-361.0,-209.0,-968.0,18.0,157.0,550.0,-516.0,21.0
19:41:59.378000,-1387.0,-383.0,-224.0,-933.0,1.0,155.0,550.0,-516.0,21.0
19:41:59.383000,-1458.0,-401.0,-210.0,-909.0,-15.0,170.0,553.0,-514.0,6.0
19:41:59.388000,-1526.0,-437.0,-156.0,-904.0,6.0,171.0,553.0,-514.0,6.0
19:41:59.395000,-1678.0,-473.0,-165.0,-930.0,19.0,190.0,556.0,-511.0,3.0
19:41:59.397000,-1678.0,-473.0,-165.0,-930.0,19.0,190.0,556.0,-511.0,3.0
19:41:59.401000,-1745.0,-506.0,-196.0,-914.0,-11.0,194.0,556.0,-511.0,3.0
19:41:59.407000,-1801.0,-528.0,-186.0,-914.0,-11.0,194.0,552.0,-502.0,3.0
19:41:59.411000,-1866.0,-539.0,-130.0,-900.0,-66.0,197.0,552.0,-502.0,3.0
19:41:59.416000,-1928.0,-555.0,-128.0,-927.0,-97.0,212.0,546.0,-496.0,7.0
19:41:59.421000,-1964.0,-583.0,-230.0,-970.0,-63.0,227.0,546.0,-496.0,7.0
19:41:59.425000,-2021.0,-593.0,-282.0,-949.0,-43.0,241.0,546.0,-496.0,7.0
19:41:59.430000,-2090.0,-612.0,-247.0,-869.0,-103.0,266.0,550.0,-481.0,-12.0
19:41:59.435000,-2144.0,-629.0,-241.0,-832.0,-141.0,288.0,550.0,-481.0,-12.0
19:41:59.440000,-2186.0,-660.0,-273.0,-865.0,-148.0,310.0,552.0,-457.0,-19.0
19:41:59.444000,-2226.0,-681.0,-355.0,-901.0,-142.0,329.0,552.0,-457.0,-19.0
19:41:59.448000,-2226.0,-681.0,-355.0,-911.0,-133.0,341.0,552.0,-457.0,-19.0
19:41:59.454000,-2279.0,-693.0,-432.0,-910.0,-130.0,367.0,547.0,-451.0,-39.0
19:41:59.458000,-2310.0,-726.0,-525.0,-876.0,-139.0,388.0,547.0,-451.0,-39.0
19:41:59.463000,-2352.0,-749.0,-559.0,-827.0,-163.0,405.0,556.0,-442.0,-33.0
19:41:59.468000,-2383.0,-782.0,-529.0,-848.0,-155.0,421.0,556.0,-442.0,-33.0
19:41:59.472000,-2429.0,-799.0,-550.0,-942.0,-96.0,437.0,556.0,-442.0,-33.0
19:41:59.477000,-2466.0,-827.0,-641.0,-984.0,-81.0,453.0,538.0,-424.0,-39.0
19:41:59.482000,-2505.0,-855.0,-652.0,-956.0,-93.0,467.0,538.0,-424.0,-39.0
19:41:59.487000,-2551.0,-881.0,-652.0,-936.0,-62.0,481.0,537.0,-409.0,-45.0
19:41:59.491000,-2597.0,-900.0,-681.0,-935.0,-28.0,497.0,537.0,-409.0,-45.0
19:41:59.495000,-2632.0,-933.0,-741.0,-940.0,12.0,519.0,537.0,-409.0,-45.0
19:41:59.500000,-2683.0,-952.0,-799.0,-917.0,-2.0,551.0,537.0,-400.0,-51.0
19:41:59.505000,-2740.0,-992.0,-779.0,-880.0,-49.0,575.0,537.0,-400.0,-51.0
19:41:59.510000,-2777.0,-1034.0,-725.0,-880.0,-49.0,575.0,526.0,-385.0,-49.0
19:41:59.515000,-2807.0,-1059.0,-729.0,-873.0,-47.0,575.0,526.0,-385.0,-49.0
19:41:59.519000,-2820.0,-1108.0,-785.0,-881.0,-10.0,588.0,526.0,-385.0,-49.0
19:41:59.524000,-2848.0,-1148.0,-789.0,-846.0,-13.0,604.0,522.0,-343.0,-58.0
19:41:59.529000,-2863.0,-1204.0,-739.0,-793.0,-43.0,624.0,522.0,-343.0,-58.0
19:41:59.534000,-2881.0,-1249.0,-728.0,-778.0,-20.0,636.0,531.0,-336.0,-70.0
19:41:59.538000,-2913.0,-1305.0,-747.0,-782.0,24.0,655.0,531.0,-336.0,-70.0
19:41:59.542000,-2933.0,-1358.0,-718.0,-768.0,34.0,681.0,531.0,-336.0,-70.0
19:41:59.548000,-2968.0,-1397.0,-649.0,-770.0,17.0,688.0,511.0,-306.0,-58.0
19:41:59.552000,-2981.0,-1454.0,-632.0,-817.0,47.0,703.0,511.0,-306.0,-58.0
19:41:59.557000,-2998.0,-1489.0,-637.0,-848.0,108.0,713.0,513.0,-286.0,-54.0
19:41:59.562000,-2998.0,-1489.0,-637.0,-834.0,134.0,725.0,513.0,-286.0,-54.0
19:41:59.566000,-3038.0,-1514.0,-627.0,-814.0,133.0,748.0,513.0,-286.0,-54.0
19:41:59.571000,-3047.0,-1565.0,-603.0,-823.0,151.0,755.0,502.0,-283.0,-69.0
19:41:59.576000,-3056.0,-1593.0,-616.0,-852.0,169.0,773.0,502.0,-283.0,-69.0
