hh:mm:ss.ms,gyroX[mdps],gyroY[mdps],gyroZ[mdps],accX[mg],accY[mg],accZ[mg],magX[mG],magY[mG],magZ[mG]
19:40:47.586000,-499.0,-404.0,1797.0,-504.0,-511.0,79.0,480.0,-618.0,328.0
19:40:47.590000,-501.0,-410.0,1813.0,-492.0,-519.0,86.0,480.0,-618.0,328.0
19:40:47.595000,-506.0,-412.0,1838.0,-472.0,-527.0,92.0,471.0,-618.0,316.0
19:40:47.600000,-518.0,-413.0,1880.0,-450.0,-533.0,100.0,471.0,-618.0,316.0
19:40:47.604000,-518.0,-413.0,1880.0,-435.0,-538.0,108.0,471.0,-618.0,316.0
19:40:47.609000,-535.0,-427.0,1959.0,-425.0,-536.0,114.0,465.0,-633.0,310.0
19:40:47.614000,-535.0,-427.0,1959.0,-412.0,-535.0,120.0,465.0,-633.0,310.0
19:40:47.619000,-549.0,-434.0,1984.0,-393.0,-542.0,126.0,454.0,-640.0,307.0
19:40:47.623000,-565.0,-438.0,2017.0,-367.0,-551.0,134.0,454.0,-640.0,307.0
19:40:47.627000,-581.0,-441.0,2068.0,-341.0,-566.0,144.0,454.0,-640.0,307.0
19:40:47.633000,-598.0,-447.0,2120.0,-308.0,-566.0,153.0,438.0,-642.0,309.0
19:40:47.637000,-617.0,-451.0,2177.0,-274.0,-581.0,160.0,438.0,-642.0,309.0
19:40:47.642000,-638.0,-458.0,2235.0,-240.0,-578.0,163.0,421.0,-679.0,288.0
19:40:47.647000,-658.0,-459.0,2292.0,-206.0,-576.0,167.0,421.0,-679.0,288.0
19:40:47.651000,-678.0,-461.0,2343.0,-179.0,-570.0,175.0,421.0,-679.0,288.0
19:40:47.656000,-700.0,-465.0,2390.0,-151.0,-552.0,185.0,408.0,-676.0,289.0
19:40:47.661000,-723.0,-473.0,2431.0,-123.0,-558.0,195.0,408.0,-676.0,289.0
19:40:47.665000,-749.0,-480.0,2480.0,-90.0,-563.0,206.0,393.0,-682.0,274.0
19:40:47.670000,-777.0,-491.0,2535.0,-44.0,-583.0,218.0,393.0,-682.0,274.0
19:40:47.674000,-805.0,-500.0,2603.0,-44.0,-583.0,218.0,393.0,-682.0,274.0
19:40:47.680000,-835.0,-511.0,2676.0,14.0,-600.0,232.0,390.0,-687.0,274.0
19:40:47.684000,-864.0,-525.0,2751.0,76.0,-617.0,244.0,390.0,-687.0,274.0
19:40:47.689000,-893.0,-545.0,2809.0,139.0,-635.0,257.0,378.0,-690.0,267.0
19:40:47.694000,-918.0,-567.0,2825.0,203.0,-646.0,267.0,378.0,-690.0,267.0
19:40:47.698000,-931.0,-590.0,2803.0,274.0,-640.0,267.0,378.0,-690.0,267.0
19:40:47.703000,-941.0,-610.0,2760.0,353.0,-643.0,268.0,345.0,-699.0,262.0
19:40:47.708000,-949.0,-620.0,2697.0,436.0,-645.0,273.0,345.0,-699.0,262.0
19:40:47.712000,-949.0,-620.0,2697.0,515.0,-626.0,280.0,319.0,-705.0,250.0
19:40:47.717000,-970.0,-624.0,2573.0,583.0,-598.0,286.0,319.0,-705.0,250.0
19:40:47.722000,-970.0,-624.0,2573.0,616.0,-548.0,292.0,304.0,-714.0,247.0
19:40:47.727000,-991.0,-634.0,2529.0,586.0,-494.0,309.0,304.0,-714.0,247.0
19:40:47.731000,-1017.0,-655.0,2503.0,527.0,-472.0,318.0,304.0,-714.0,247.0
19:40:47.736000,-1043.0,-672.0,2531.0,469.0,-515.0,319.0,292.0,-717.0,238.0
19:40:47.741000,-1072.0,-688.0,2617.0,394.0,-600.0,327.0,292.0,-717.0,238.0
19:40:47.746000,-1093.0,-706.0,2741.0,326.0,-669.0,337.0,276.0,-714.0,229.0
19:40:47.750000,-1105.0,-722.0,2879.0,289.0,-746.0,341.0,276.0,-714.0,229.0
19:40:47.754000,-1113.0,-738.0,3038.0,270.0,-811.0,343.0,276.0,-714.0,229.0
19:40:47.760000,-1115.0,-749.0,3211.0,267.0,-850.0,341.0,267.0,-717.0,223.0
19:40:47.764000,-1111.0,-753.0,3373.0,274.0,-877.0,343.0,267.0,-717.0,223.0
19:40:47.769000,-1118.0,-760.0,3508.0,274.0,-864.0,348.0,246.0,-706.0,223.0
19:40:47.774000,-1113.0,-767.0,3616.0,345.0,-846.0,349.0,246.0,-706.0,223.0
19:40:47.778000,-1106.0,-771.0,3690.0,416.0,-850.0,348.0,246.0,-706.0,223.0
19:40:47.783000,-1096.0,-776.0,3739.0,416.0,-850.0,348.0,222.0,-709.0,217.0
19:40:47.788000,-1075.0,-787.0,3754.0,478.0,-851.0,353.0,222.0,-709.0,217.0
19:40:47.793000,-1054.0,-794.0,3721.0,501.0,-837.0,361.0,211.0,-703.0,220.0
19:40:47.797000,-1034.0,-802.0,3651.0,462.0,-766.0,387.0,211.0,-703.0,220.0
19:40:47.801000,-1020.0,-816.0,3577.0,462.0,-766.0,387.0,211.0,-703.0,220.0
19:40:47.807000,-998.0,-830.0,3517.0,464.0,-798.0,392.0,178.0,-700.0,204.0
19:40:47.811000,-962.0,-839.0,3448.0,474.0,-835.0,393.0,178.0,-700.0,204.0
19:40:47.816000,-927.0,-843.0,3359.0,485.0,-863.0,401.0,159.0,-684.0,204.0
19:40:47.821000,-895.0,-844.0,3262.0,504.0,-870.0,410.0,159.0,-684.0,204.0
19:40:47.825000,-895.0,-844.0,3262.0,519.0,-860.0,410.0,159.0,-684.0,204.0
19:40:47.830000,-859.0,-840.0,3166.0,513.0,-846.0,412.0,150.0,-690.0,199.0
19:40:47.835000,-814.0,-836.0,3058.0,488.0,-841.0,427.0,150.0,-690.0,199.0
19:40:47.839000,-775.0,-828.0,2935.0,461.0,-807.0,430.0,133.0,-676.0,207.0
19:40:47.844000,-748.0,-807.0,2809.0,434.0,-758.0,437.0,133.0,-676.0,207.0
19:40:47.848000,-715.0,-785.0,2713.0,425.0,-746.0,443.0,133.0,-676.0,207.0
19:40:47.854000,-690.0,-771.0,2651.0,437.0,-723.0,458.0,103.0,-675.0,198.0
19:40:47.858000,-674.0,-758.0,2600.0,462.0,-709.0,459.0,103.0,-675.0,198.0
19:40:47.863000,-651.0,-732.0,2563.0,485.0,-676.0,429.0,112.0,-673.0,198.0
19:40:47.868000,-624.0,-707.0,2542.0,512.0,-634.0,421.0,112.0,-673.0,198.0
19:40:47.872000,-613.0,-684.0,2544.0,539.0,-617.0,422.0,112.0,-673.0,198.0
19:40:47.877000,-589.0,-663.0,2545.0,544.0,-581.0,420.0,87.0,-651.0,201.0
19:40:47.882000,-581.0,-643.0,2542.0,549.0,-534.0,420.0,87.0,-651.0,201.0
19:40:47.886000,-590.0,-624.0,2562.0,568.0,-483.0,432.0,79.0,-643.0,196.0
19:40:47.891000,-618.0,-609.0,2620.0,568.0,-483.0,432.0,79.0,-643.0,196.0
19:40:47.896000,-650.0,-600.0,2679.0,591.0,-437.0,452.0,79.0,-636.0,201.0
19:40:47.901000,-688.0,-592.0,2732.0,631.0,-400.0,476.0,79.0,-636.0,201.0
19:40:47.905000,-721.0,-584.0,2771.0,696.0,-403.0,484.0,79.0,-636.0,201.0
19:40:47.910000,-750.0,-581.0,2811.0,789.0,-409.0,499.0,63.0,-628.0,199.0
19:40:47.915000,-767.0,-582.0,2851.0,895.0,-452.0,525.0,63.0,-628.0,199.0
19:40:47.919000,-779.0,-588.0,2860.0,991.0,-480.0,544.0,61.0,-624.0,201.0
19:40:47.924000,-784.0,-586.0,2836.0,1078.0,-462.0,571.0,61.0,-624.0,201.0
19:40:47.928000,-784.0,-586.0,2836.0,1146.0,-445.0,586.0,61.0,-624.0,201.0
19:40:47.934000,-770.0,-557.0,2716.0,1171.0,-442.0,584.0,61.0,-609.0,199.0
19:40:47.938000,-770.0,-557.0,2716.0,1178.0,-446.0,572.0,61.0,-609.0,199.0
19:40:47.943000,-738.0,-543.0,2663.0,1199.0,-479.0,560.0,37.0,-606.0,195.0
19:40:47.948000,-707.0,-525.0,2649.0,1230.0,-540.0,551.0,37.0,-606.0,195.0
19:40:47.952000,-660.0,-504.0,2636.0,1263.0,-535.0,555.0,37.0,-606.0,195.0
19:40:47.957000,-614.0,-494.0,2599.0,1288.0,-497.0,559.0,28.0,-576.0,198.0
19:40:47.962000,-574.0,-480.0,2568.0,1307.0,-435.0,549.0,28.0,-576.0,198.0
19:40:47.966000,-550.0,-462.0,2549.0,1318.0,-351.0,552.0,30.0,-573.0,195.0
19:40:47.971000,-536.0,-447.0,2512.0,1329.0,-270.0,563.0,30.0,-573.0,195.0
19:40:47.975000,-531.0,-436.0,2450.0,1339.0,-192.0,545.0,30.0,-573.0,195.0
19:40:47.981000,-537.0,-413.0,2403.0,1336.0,-109.0,522.0,12.0,-564.0,214.0
19:40:47.985000,-551.0,-387.0,2371.0,1340.0,-53.0,512.0,12.0,-564.0,214.0
19:40:47.990000,-561.0,-371.0,2354.0,1340.0,-53.0,512.0,19.0,-555.0,205.0
19:40:47.995000,-573.0,-373.0,2347.0,1421.0,3.0,501.0,19.0,-555.0,205.0
19:40:47.999000,-583.0,-381.0,2340.0,1475.0,-3.0,494.0,19.0,-555.0,205.0
19:40:48.004000,-585.0,-392.0,2317.0,1475.0,-3.0,494.0,15.0,-547.0,198.0
19:40:48.009000,-574.0,-402.0,2280.0,1527.0,-21.0,494.0,15.0,-547.0,198.0
19:40:48.013000,-558.0,-406.0,2294.0,1594.0,-56.0,494.0,3.0,-538.0,193.0
19:40:48.018000,-552.0,-410.0,2359.0,1701.0,-82.0,515.0,3.0,-538.0,193.0
19:40:48.022000,-555.0,-415.0,2445.0,1701.0,-82.0,515.0,3.0,-538.0,193.0
19:40:48.028000,-564.0,-423.0,2548.0,1773.0,-66.0,525.0,4.0,-522.0,196.0
19:40:48.032000,-590.0,-431.0,2603.0,1857.0,-43.0,541.0,4.0,-522.0,196.0
19:40:48.037000,-624.0,-436.0,2599.0,1928.0,12.0,552.0,0.0,-516.0,207.0
19:40:48.042000,-658.0,-440.0,2592.0,1980.0,84.0,565.0,0.0,-516.0,207.0
19:40:48.046000,-658.0,-440.0,2592.0,2011.0,120.0,573.0,0.0,-516.0,207.0
19:40:48.051000,-691.0,-440.0,2643.0,1971.0,126.0,566.0,0.0,-510.0,208.0
19:40:48.056000,-730.0,-430.0,2715.0,1866.0,134.0,569.0,0.0,-510.0,208.0
19:40:48.060000,-776.0,-432.0,2760.0,1794.0,102.0,568.0,-10.0,-492.0,201.0
19:40:48.065000,-806.0,-429.0,2789.0,1777.0,53.0,553.0,-10.0,-492.0,201.0
19:40:48.069000,-831.0,-427.0,2801.0,1781.0,41.0,544.0,-10.0,-492.0,201.0
19:40:48.075000,-851.0,-429.0,2828.0,1756.0,70.0,537.0,-16.0,-489.0,217.0
19:40:48.079000,-878.0,-424.0,2842.0,1684.0,128.0,537.0,-16.0,-489.0,217.0
19:40:48.084000,-905.0,-427.0,2837.0,1643.0,160.0,541.0,-15.0,-474.0,204.0
19:40:48.089000,-921.0,-445.0,2879.0,1657.0,137.0,540.0,-15.0,-474.0,204.0
19:40:48.093000,-942.0,-466.0,2944.0,1659.0,131.0,537.0,-15.0,-474.0,204.0
19:40:48.098000,-959.0,-484.0,2959.0,1644.0,168.0,539.0,-28.0,-453.0,196.0
19:40:48.103000,-975.0,-499.0,2933.0,1620.0,176.0,523.0,-28.0,-453.0,196.0
19:40:48.107000,-981.0,-506.0,2914.0,1572.0,161.0,507.0,-24.0,-447.0,204.0
19:40:48.112000,-977.0,-521.0,2915.0,1572.0,161.0,507.0,-24.0,-447.0,204.0
19:40:48.116000,-974.0,-533.0,2933.0,1516.0,144.0,509.0,-24.0,-447.0,204.0
19:40:48.122000,-967.0,-538.0,2967.0,1491.0,124.0,499.0,-31.0,-423.0,204.0
19:40:48.126000,-954.0,-542.0,3000.0,1485.0,125.0,482.0,-31.0,-423.0,204.0
19:40:48.131000,-946.0,-533.0,2998.0,1453.0,147.0,467.0,-25.0,-417.0,214.0
19:40:48.136000,-927.0,-519.0,2958.0,1399.0,165.0,456.0,-25.0,-417.0,214.0
19:40:48.140000,-918.0,-496.0,2953.0,1358.0,158.0,441.0,-25.0,-417.0,214.0
19:40:48.145000,-903.0,-476.0,2997.0,1345.0,110.0,418.0,-27.0,-402.0,210.0
19:40:48.149000,-903.0,-476.0,2997.0,1330.0,59.0,381.0,-27.0,-402.0,210.0
19:40:48.154000,-849.0,-441.0,3007.0,1301.0,26.0,343.0,-31.0,-400.0,220.0
19:40:48.159000,-849.0,-441.0,3007.0,1281.0,3.0,319.0,-31.0,-400.0,220.0
19:40:48.164000,-812.0,-440.0,3032.0,1270.0,3.0,305.0,-33.0,-378.0,220.0
19:40:48.169000,-781.0,-441.0,3067.0,1254.0,74.0,288.0,-33.0,-378.0,220.0
19:40:48.173000,-762.0,-438.0,3031.0,1250.0,219.0,275.0,-33.0,-378.0,220.0
19:40:48.177000,-747.0,-443.0,2945.0,1288.0,345.0,284.0,-27.0,-349.0,234.0
19:40:48.183000,-749.0,-463.0,2924.0,1325.0,438.0,280.0,-27.0,-349.0,234.0
19:40:48.187000,-782.0,-475.0,2928.0,1291.0,549.0,265.0,-22.0,-327.0,229.0
19:40:48.192000,-829.0,-487.0,2877.0,1224.0,643.0,265.0,-22.0,-327.0,229.0
19:40:48.196000,-879.0,-506.0,2826.0,1191.0,638.0,265.0,-22.0,-327.0,229.0
19:40:48.201000,-926.0,-532.0,2842.0,1177.0,610.0,267.0,-24.0,-319.0,232.0
19:40:48.206000,-980.0,-555.0,2874.0,1132.0,644.0,265.0,-24.0,-319.0,232.0
19:40:48.211000,-1030.0,-571.0,2863.0,1132.0,644.0,265.0,-18.0,-310.0,229.0
19:40:48.216000,-1071.0,-569.0,2846.0,1032.0,695.0,241.0,-18.0,-310.0,229.0
19:40:48.220000,-1103.0,-561.0,2843.0,1032.0,695.0,241.0,-18.0,-310.0,229.0
19:40:48.225000,-1119.0,-543.0,2861.0,999.0,666.0,236.0,-15.0,-297.0,243.0
19:40:48.230000,-1111.0,-529.0,2899.0,982.0,607.0,227.0,-15.0,-297.0,243.0
19:40:48.234000,-1089.0,-512.0,2913.0,971.0,563.0,219.0,-6.0,-288.0,247.0
19:40:48.238000,-1044.0,-501.0,2892.0,933.0,531.0,194.0,-6.0,-288.0,247.0
19:40:48.243000,-992.0,-495.0,2858.0,933.0,531.0,194.0,-6.0,-288.0,247.0
19:40:48.248000,-938.0,-491.0,2828.0,921.0,544.0,179.0,6.0,-265.0,256.0
19:40:48.253000,-876.0,-492.0,2767.0,910.0,589.0,171.0,6.0,-265.0,256.0
19:40:48.258000,-807.0,-489.0,2678.0,908.0,626.0,159.0,6.0,-250.0,258.0
19:40:48.263000,-742.0,-485.0,2615.0,927.0,645.0,146.0,6.0,-250.0,258.0
19:40:48.267000,-742.0,-485.0,2615.0,926.0,656.0,137.0,6.0,-250.0,258.0
19:40:48.272000,-686.0,-476.0,2571.0,878.0,696.0,122.0,18.0,-243.0,268.0
19:40:48.277000,-632.0,-464.0,2495.0,828.0,746.0,107.0,18.0,-243.0,268.0
19:40:48.281000,-569.0,-455.0,2402.0,847.0,767.0,97.0,27.0,-228.0,271.0
19:40:48.286000,-513.0,-448.0,2375.0,882.0,815.0,92.0,27.0,-228.0,271.0
19:40:48.290000,-476.0,-443.0,2390.0,834.0,948.0,99.0,27.0,-228.0,271.0
19:40:48.295000,-485.0,-429.0,2361.0,754.0,1066.0,113.0,33.0,-217.0,291.0
19:40:48.300000,-522.0,-414.0,2307.0,747.0,1087.0,115.0,33.0,-217.0,291.0
19:40:48.305000,-538.0,-403.0,2265.0,817.0,1044.0,111.0,37.0,-205.0,276.0
19:40:48.309000,-541.0,-393.0,2262.0,904.0,998.0,122.0,37.0,-205.0,276.0
19:40:48.314000,-541.0,-394.0,2331.0,944.0,1001.0,135.0,37.0,-205.0,276.0
19:40:48.319000,-545.0,-397.0,2373.0,955.0,1027.0,137.0,60.0,-189.0,288.0
19:40:48.324000,-548.0,-398.0,2396.0,969.0,1038.0,149.0,60.0,-189.0,288.0
19:40:48.328000,-542.0,-405.0,2412.0,949.0,1032.0,156.0,57.0,-184.0,286.0
19:40:48.333000,-545.0,-406.0,2413.0,949.0,1032.0,156.0,57.0,-184.0,286.0
19:40:48.337000,-535.0,-410.0,2452.0,939.0,991.0,156.0,57.0,-184.0,286.0
19:40:48.342000,-524.0,-419.0,2506.0,935.0,933.0,165.0,66.0,-172.0,295.0
19:40:48.347000,-520.0,-421.0,2555.0,908.0,913.0,167.0,66.0,-172.0,295.0
19:40:48.352000,-513.0,-420.0,2581.0,873.0,919.0,170.0,75.0,-169.0,289.0
19:40:48.356000,-515.0,-410.0,2583.0,818.0,948.0,176.0,75.0,-169.0,289.0
19:40:48.361000,-527.0,-394.0,2581.0,759.0,981.0,175.0,75.0,-169.0,289.0
19:40:48.366000,-541.0,-376.0,2594.0,711.0,990.0,177.0,94.0,-162.0,298.0
19:40:48.371000,-569.0,-355.0,2597.0,659.0,996.0,184.0,94.0,-162.0,298.0
19:40:48.375000,-569.0,-355.0,2597.0,596.0,1011.0,182.0,108.0,-139.0,321.0
19:40:48.380000,-603.0,-326.0,2583.0,543.0,1007.0,174.0,108.0,-139.0,321.0
19:40:48.384000,-631.0,-297.0,2565.0,502.0,979.0,162.0,108.0,-139.0,321.0
19:40:48.389000,-653.0,-265.0,2548.0,471.0,960.0,149.0,136.0,-135.0,312.0
19:40:48.394000,-673.0,-233.0,2538.0,443.0,962.0,147.0,136.0,-135.0,312.0
19:40:48.399000,-700.0,-203.0,2522.0,399.0,988.0,142.0,135.0,-127.0,327.0
19:40:48.403000,-732.0,-175.0,2487.0,360.0,1063.0,143.0,135.0,-127.0,327.0
19:40:48.408000,-772.0,-151.0,2437.0,338.0,1073.0,144.0,135.0,-127.0,327.0
19:40:48.412000,-798.0,-129.0,2381.0,332.0,1063.0,142.0,156.0,-129.0,319.0
19:40:48.418000,-828.0,-114.0,2322.0,342.0,1036.0,145.0,156.0,-129.0,319.0
19:40:48.422000,-841.0,-100.0,2263.0,349.0,992.0,131.0,166.0,-127.0,337.0
19:40:48.427000,-850.0,-94.0,2202.0,345.0,1000.0,132.0,166.0,-127.0,337.0
19:40:48.431000,-859.0,-91.0,2135.0,325.0,993.0,126.0,166.0,-127.0,337.0
19:40:48.436000,-864.0,-91.0,2070.0,306.0,982.0,123.0,180.0,-118.0,327.0
19:40:48.441000,-871.0,-100.0,2034.0,306.0,982.0,123.0,180.0,-118.0,327.0
19:40:48.446000,-872.0,-105.0,2000.0,272.0,931.0,119.0,184.0,-114.0,331.0
19:40:48.450000,-875.0,-107.0,1948.0,223.0,935.0,103.0,184.0,-114.0,331.0
19:40:48.455000,-841.0,-114.0,1906.0,201.0,837.0,88.0,184.0,-114.0,331.0
19:40:48.460000,-809.0,-121.0,1869.0,204.0,760.0,50.0,213.0,-111.0,345.0
19:40:48.464000,-779.0,-123.0,1829.0,212.0,796.0,42.0,213.0,-111.0,345.0
19:40:48.469000,-756.0,-128.0,1764.0,186.0,802.0,39.0,207.0,-114.0,355.0
19:40:48.474000,-745.0,-134.0,1702.0,147.0,911.0,32.0,207.0,-114.0,355.0
19:40:48.479000,-737.0,-140.0,1637.0,101.0,981.0,22.0,228.0,-112.0,351.0
19:40:48.483000,-747.0,-151.0,1586.0,70.0,1033.0,19.0,228.0,-112.0,351.0
19:40:48.487000,-747.0,-151.0,1586.0,57.0,1003.0,22.0,228.0,-112.0,351.0
19:40:48.493000,-744.0,-157.0,1541.0,44.0,976.0,14.0,234.0,-112.0,355.0
19:40:48.497000,-759.0,-163.0,1491.0,40.0,952.0,3.0,234.0,-112.0,355.0
19:40:48.502000,-755.0,-165.0,1442.0,21.0,949.0,-16.0,250.0,-111.0,361.0
19:40:48.507000,-771.0,-171.0,1388.0,13.0,974.0,-19.0,250.0,-111.0,361.0
19:40:48.511000,-774.0,-171.0,1353.0,-10.0,956.0,-35.0,250.0,-111.0,361.0
19:40:48.516000,-788.0,-175.0,1315.0,-30.0,971.0,-42.0,261.0,-111.0,366.0
19:40:48.521000,-802.0,-176.0,1302.0,-50.0,928.0,-50.0,261.0,-111.0,366.0
19:40:48.526000,-809.0,-177.0,1278.0,-56.0,977.0,-56.0,264.0,-105.0,367.0
19:40:48.530000,-819.0,-179.0,1264.0,-74.0,905.0,-65.0,264.0,-105.0,367.0
19:40:48.534000,-808.0,-175.0,1241.0,-136.0,903.0,-110.0,264.0,-105.0,367.0
19:40:48.540000,-812.0,-172.0,1208.0,-189.0,931.0,-137.0,261.0,-115.0,381.0
19:40:48.544000,-797.0,-157.0,1182.0,-305.0,972.0,-128.0,261.0,-115.0,381.0
19:40:48.549000,-824.0,-155.0,1132.0,-305.0,972.0,-128.0,273.0,-123.0,385.0
19:40:48.554000,-827.0,-155.0,1125.0,-308.0,885.0,-128.0,273.0,-123.0,385.0
19:40:48.558000,-814.0,-158.0,1115.0,-308.0,885.0,-128.0,273.0,-123.0,385.0
19:40:48.563000,-801.0,-154.0,1112.0,-241.0,826.0,-156.0,279.0,-115.0,390.0
19:40:48.568000,-790.0,-149.0,1076.0,-240.0,800.0,-165.0,279.0,-115.0,390.0
19:40:48.573000,-786.0,-155.0,1053.0,-265.0,907.0,-156.0,289.0,-124.0,382.0
19:40:48.577000,-770.0,-161.0,1040.0,-268.0,845.0,-145.0,289.0,-124.0,382.0
19:40:48.581000,-770.0,-161.0,1040.0,-259.0,854.0,-158.0,289.0,-124.0,382.0
19:40:48.587000,-760.0,-179.0,993.0,-233.0,817.0,-159.0,291.0,-124.0,387.0
19:40:48.591000,-758.0,-186.0,970.0,-217.0,715.0,-159.0,291.0,-124.0,387.0
19:40:48.629000,-773.0,-160.0,858.0,-303.0,735.0,-184.0,291.0,-124.0,387.0
19:40:48.633000,-778.0,-158.0,849.0,-288.0,646.0,-188.0,312.0,-142.0,430.0
19:40:48.638000,-781.0,-157.0,833.0,-278.0,659.0,-197.0,312.0,-142.0,430.0
19:40:48.643000,-786.0,-158.0,809.0,-264.0,627.0,-201.0,312.0,-142.0,430.0
19:40:48.648000,-784.0,-159.0,784.0,-264.0,627.0,-201.0,327.0,-144.0,414.0
19:40:48.653000,-782.0,-161.0,766.0,-218.0,589.0,-220.0,327.0,-144.0,414.0
19:40:48.657000,-772.0,-160.0,761.0,-218.0,589.0,-220.0,327.0,-144.0,414.0
19:40:48.662000,-764.0,-159.0,749.0,-225.0,543.0,-231.0,328.0,-142.0,420.0
19:40:48.667000,-757.0,-165.0,730.0,-238.0,589.0,-228.0,328.0,-142.0,420.0
19:40:48.671000,-741.0,-170.0,709.0,-232.0,506.0,-243.0,339.0,-157.0,424.0
19:40:48.676000,-723.0,-171.0,691.0,-232.0,506.0,-243.0,339.0,-157.0,424.0
19:40:48.681000,-707.0,-172.0,681.0,-238.0,479.0,-254.0,346.0,-150.0,441.0
19:40:48.685000,-699.0,-171.0,674.0,-272.0,492.0,-263.0,346.0,-150.0,441.0
19:40:48.690000,-699.0,-171.0,674.0,-297.0,549.0,-260.0,346.0,-150.0,441.0
19:40:48.695000,-697.0,-171.0,658.0,-329.0,509.0,-259.0,339.0,-159.0,430.0
19:40:48.700000,-697.0,-177.0,643.0,-356.0,531.0,-274.0,339.0,-159.0,430.0
19:40:48.704000,-697.0,-177.0,643.0,-347.0,495.0,-271.0,340.0,-163.0,432.0
19:40:48.709000,-697.0,-177.0,637.0,-352.0,424.0,-283.0,340.0,-163.0,432.0
19:40:48.713000,-698.0,-177.0,630.0,-345.0,486.0,-295.0,340.0,-163.0,432.0
19:40:48.718000,-702.0,-177.0,637.0,-335.0,424.0,-286.0,354.0,-166.0,435.0
19:40:48.723000,-690.0,-181.0,639.0,-354.0,426.0,-303.0,354.0,-166.0,435.0
19:40:48.728000,-692.0,-181.0,630.0,-373.0,462.0,-314.0,340.0,-175.0,454.0
19:40:48.732000,-693.0,-177.0,615.0,-408.0,428.0,-317.0,340.0,-175.0,454.0
19:40:48.737000,-700.0,-176.0,595.0,-421.0,451.0,-312.0,340.0,-175.0,454.0
19:40:48.742000,-700.0,-183.0,590.0,-426.0,339.0,-304.0,369.0,-180.0,439.0
19:40:48.747000,-689.0,-189.0,577.0,-424.0,314.0,-320.0,369.0,-180.0,439.0
19:40:48.751000,-677.0,-197.0,571.0,-415.0,300.0,-318.0,364.0,-174.0,447.0
19:40:48.756000,-662.0,-200.0,570.0,-442.0,292.0,-327.0,364.0,-174.0,447.0
19:40:48.760000,-645.0,-203.0,557.0,-487.0,398.0,-341.0,364.0,-174.0,447.0
19:40:48.765000,-638.0,-205.0,532.0,-487.0,414.0,-343.0,358.0,-180.0,447.0
19:40:48.770000,-630.0,-203.0,480.0,-546.0,414.0,-343.0,358.0,-180.0,447.0
19:40:48.775000,-625.0,-207.0,424.0,-604.0,389.0,-354.0,375.0,-192.0,444.0
19:40:48.779000,-611.0,-210.0,371.0,-611.0,398.0,-348.0,375.0,-192.0,444.0
19:40:48.784000,-582.0,-209.0,317.0,-599.0,310.0,-347.0,375.0,-192.0,444.0
19:40:48.789000,-558.0,-205.0,268.0,-591.0,312.0,-374.0,366.0,-190.0,456.0
19:40:48.794000,-528.0,-196.0,217.0,-597.0,323.0,-380.0,366.0,-190.0,456.0
19:40:48.798000,-497.0,-184.0,157.0,-633.0,284.0,-388.0,381.0,-201.0,457.0
19:40:48.803000,-466.0,-175.0,91.0,-655.0,361.0,-397.0,381.0,-201.0,457.0
19:40:48.807000,-466.0,-175.0,91.0,-668.0,337.0,-387.0,381.0,-201.0,457.0
19:40:48.812000,-408.0,-163.0,-70.0,-683.0,339.0,-398.0,364.0,-196.0,450.0
19:40:48.817000,-408.0,-151.0,-70.0,-672.0,379.0,-403.0,364.0,-196.0,450.0
19:40:48.822000,-378.0,-134.0,-147.0,-691.0,342.0,-409.0,376.0,-196.0,457.0
19:40:48.826000,-355.0,-114.0,-220.0,-704.0,418.0,-412.0,376.0,-196.0,457.0
19:40:48.831000,-340.0,-98.0,-275.0,-702.0,412.0,-399.0,376.0,-196.0,457.0
19:40:48.836000,-314.0,-77.0,-345.0,-724.0,428.0,-414.0,369.0,-195.0,459.0
19:40:48.841000,-308.0,-58.0,-422.0,-723.0,500.0,-421.0,369.0,-195.0,459.0
19:40:48.845000,-294.0,-38.0,-487.0,-728.0,480.0,-421.0,381.0,-202.0,454.0
19:40:48.850000,-284.0,-27.0,-551.0,-712.0,546.0,-419.0,381.0,-202.0,454.0
19:40:48.854000,-294.0,-9.0,-592.0,-683.0,521.0,-416.0,381.0,-202.0,454.0
19:40:48.859000,-291.0,4.0,-634.0,-665.0,544.0,-430.0,364.0,-193.0,477.0
19:40:48.864000,-291.0,16.0,-667.0,-644.0,545.0,-431.0,364.0,-193.0,477.0
19:40:48.869000,-289.0,32.0,-681.0,-644.0,545.0,-431.0,369.0,-207.0,453.0
19:40:48.874000,-292.0,41.0,-695.0,-650.0,610.0,-439.0,369.0,-207.0,453.0
19:40:48.878000,-291.0,52.0,-697.0,-650.0,610.0,-439.0,369.0,-207.0,453.0
19:40:48.883000,-296.0,60.0,-717.0,-657.0,571.0,-447.0,355.0,-199.0,457.0
19:40:48.888000,-301.0,64.0,-730.0,-656.0,653.0,-455.0,355.0,-199.0,457.0
19:40:48.892000,-301.0,73.0,-748.0,-652.0,663.0,-444.0,364.0,-207.0,468.0
19:40:48.897000,-319.0,80.0,-769.0,-652.0,663.0,-444.0,364.0,-207.0,468.0
19:40:48.901000,-312.0,92.0,-793.0,-621.0,677.0,-438.0,364.0,-207.0,468.0
19:40:48.906000,-312.0,101.0,-832.0,-605.0,644.0,-456.0,357.0,-198.0,457.0
19:40:48.911000,-305.0,114.0,-871.0,-579.0,743.0,-468.0,357.0,-198.0,457.0
19:40:48.916000,-306.0,128.0,-922.0,-587.0,677.0,-457.0,345.0,-201.0,460.0
19:40:48.920000,-294.0,137.0,-959.0,-600.0,716.0,-464.0,345.0,-201.0,460.0
19:40:48.925000,-294.0,137.0,-959.0,-608.0,701.0,-457.0,345.0,-201.0,460.0
19:40:48.930000,-290.0,152.0,-998.0,-618.0,670.0,-450.0,339.0,-196.0,459.0
19:40:48.934000,-284.0,162.0,-1030.0,-608.0,663.0,-452.0,339.0,-196.0,459.0
19:40:48.939000,-266.0,173.0,-1057.0,-606.0,631.0,-452.0,345.0,-207.0,459.0
19:40:48.944000,-258.0,175.0,-1086.0,-580.0,657.0,-445.0,345.0,-207.0,459.0
19:40:48.949000,-242.0,175.0,-1095.0,-553.0,615.0,-444.0,336.0,-211.0,468.0
19:40:48.953000,-225.0,172.0,-1108.0,-526.0,680.0,-454.0,336.0,-211.0,468.0
19:40:48.957000,-211.0,170.0,-1118.0,-518.0,676.0,-447.0,336.0,-211.0,468.0
19:40:48.963000,-199.0,177.0,-1144.0,-563.0,709.0,-465.0,327.0,-187.0,462.0
19:40:48.967000,-198.0,187.0,-1183.0,-607.0,801.0,-468.0,327.0,-187.0,462.0
19:40:48.972000,-203.0,205.0,-1217.0,-607.0,801.0,-468.0,324.0,-202.0,466.0
19:40:48.977000,-214.0,224.0,-1258.0,-731.0,859.0,-475.0,324.0,-202.0,466.0
19:40:48.981000,-231.0,240.0,-1285.0,-743.0,843.0,-471.0,324.0,-202.0,466.0
19:40:48.986000,-247.0,257.0,-1313.0,-743.0,843.0,-471.0,315.0,-210.0,477.0
19:40:48.991000,-263.0,265.0,-1333.0,-757.0,789.0,-478.0,315.0,-210.0,477.0
19:40:48.996000,-272.0,266.0,-1341.0,-727.0,823.0,-488.0,312.0,-201.0,463.0
19:40:49.000000,-280.0,271.0,-1354.0,-705.0,722.0,-478.0,312.0,-201.0,463.0
19:40:49.004000,-287.0,271.0,-1350.0,-684.0,737.0,-493.0,312.0,-201.0,463.0
19:40:49.010000,-291.0,265.0,-1334.0,-647.0,742.0,-487.0,304.0,-198.0,469.0
19:40:49.014000,-293.0,258.0,-1309.0,-636.0,654.0,-479.0,304.0,-198.0,469.0
19:40:49.019000,-293.0,247.0,-1273.0,-618.0,693.0,-496.0,297.0,-204.0,468.0
19:40:49.024000,-300.0,235.0,-1257.0,-617.0,648.0,-483.0,297.0,-204.0,468.0
19:40:49.028000,-300.0,235.0,-1257.0,-635.0,657.0,-490.0,297.0,-204.0,468.0
19:40:49.033000,-315.0,223.0,-1257.0,-628.0,740.0,-494.0,289.0,-202.0,471.0
19:40:49.038000,-335.0,209.0,-1252.0,-632.0,720.0,-489.0,289.0,-202.0,471.0
19:40:49.043000,-361.0,200.0,-1253.0,-647.0,787.0,-509.0,265.0,-204.0,477.0
19:40:49.047000,-398.0,196.0,-1254.0,-660.0,847.0,-503.0,265.0,-204.0,477.0
19:40:49.051000,-446.0,198.0,-1257.0,-698.0,831.0,-504.0,265.0,-204.0,477.0
19:40:49.057000,-494.0,202.0,-1282.0,-730.0,911.0,-522.0,271.0,-214.0,475.0
19:40:49.061000,-550.0,203.0,-1326.0,-740.0,951.0,-514.0,271.0,-214.0,475.0
19:40:49.066000,-612.0,212.0,-1383.0,-761.0,948.0,-523.0,258.0,-210.0,475.0
19:40:49.071000,-676.0,228.0,-1455.0,-777.0,998.0,-524.0,258.0,-210.0,475.0
19:40:49.075000,-738.0,232.0,-1533.0,-761.0,930.0,-502.0,258.0,-210.0,475.0
19:40:49.080000,-789.0,224.0,-1603.0,-691.0,858.0,-512.0,246.0,-210.0,475.0
19:40:49.085000,-827.0,206.0,-1642.0,-589.0,834.0,-514.0,246.0,-210.0,475.0
19:40:49.090000,-868.0,186.0,-1659.0,-589.0,834.0,-514.0,261.0,-210.0,480.0
19:40:49.094000,-896.0,184.0,-1681.0,-534.0,757.0,-515.0,261.0,-210.0,480.0
19:40:49.098000,-923.0,165.0,-1729.0,-530.0,788.0,-528.0,261.0,-210.0,480.0
19:40:49.103000,-945.0,141.0,-1778.0,-521.0,824.0,-509.0,240.0,-229.0,481.0
19:40:49.108000,-971.0,122.0,-1811.0,-507.0,784.0,-509.0,240.0,-229.0,481.0
19:40:49.113000,-1010.0,93.0,-1817.0,-492.0,825.0,-506.0,232.0,-238.0,490.0
19:40:49.118000,-1035.0,81.0,-1799.0,-482.0,810.0,-497.0,232.0,-238.0,490.0
19:40:49.122000,-1081.0,44.0,-1779.0,-502.0,767.0,-498.0,232.0,-238.0,490.0
19:40:49.127000,-1141.0,14.0,-1774.0,-512.0,848.0,-486.0,220.0,-234.0,492.0
19:40:49.132000,-1187.0,2.0,-1771.0,-526.0,862.0,-496.0,220.0,-234.0,492.0
19:40:49.137000,-1237.0,0.0,-1777.0,-575.0,866.0,-528.0,220.0,-249.0,496.0
19:40:49.141000,-1237.0,0.0,-1777.0,-621.0,925.0,-530.0,220.0,-249.0,496.0
19:40:49.145000,-1294.0,-6.0,-1781.0,-648.0,850.0,-534.0,220.0,-249.0,496.0
19:40:49.151000,-1342.0,-8.0,-1778.0,-657.0,794.0,-553.0,213.0,-252.0,499.0
19:40:49.155000,-1390.0,-25.0,-1778.0,-651.0,832.0,-548.0,213.0,-252.0,499.0
19:40:49.160000,-1435.0,-42.0,-1789.0,-670.0,780.0,-559.0,186.0,-267.0,510.0
19:40:49.165000,-1463.0,-49.0,-1832.0,-686.0,759.0,-568.0,186.0,-267.0,510.0
19:40:49.169000,-1503.0,-70.0,-1899.0,-647.0,806.0,-559.0,186.0,-267.0,510.0
19:40:49.174000,-1528.0,-96.0,-1936.0,-587.0,732.0,-580.0,193.0,-277.0,508.0
19:40:49.179000,-1542.0,-129.0,-1933.0,-541.0,703.0,-608.0,193.0,-277.0,508.0
19:40:49.184000,-1562.0,-153.0,-1932.0,-552.0,755.0,-604.0,205.0,-292.0,505.0
19:40:49.188000,-1586.0,-179.0,-1983.0,-575.0,684.0,-608.0,205.0,-292.0,505.0
19:40:49.196000,-1628.0,-243.0,-2039.0,-551.0,760.0,-658.0,193.0,-310.0,526.0
19:40:49.198000,-1628.0,-243.0,-2039.0,-551.0,760.0,-658.0,193.0,-310.0,526.0
19:40:49.202000,-1654.0,-252.0,-2094.0,-614.0,824.0,-680.0,193.0,-310.0,526.0
19:40:49.207000,-1677.0,-263.0,-2165.0,-599.0,824.0,-680.0,195.0,-309.0,519.0
19:40:49.212000,-1693.0,-268.0,-2243.0,-668.0,776.0,-696.0,195.0,-309.0,519.0
19:40:49.217000,-1678.0,-284.0,-2359.0,-775.0,813.0,-730.0,184.0,-334.0,525.0
19:40:49.221000,-1680.0,-311.0,-2342.0,-805.0,845.0,-749.0,184.0,-334.0,525.0
19:40:49.225000,-1722.0,-308.0,-2177.0,-692.0,660.0,-749.0,184.0,-334.0,525.0
19:40:49.231000,-1717.0,-326.0,-2041.0,-581.0,598.0,-779.0,187.0,-348.0,513.0
19:40:49.235000,-1676.0,-343.0,-2123.0,-614.0,793.0,-823.0,187.0,-348.0,513.0
19:40:49.240000,-1645.0,-383.0,-2273.0,-706.0,923.0,-836.0,190.0,-355.0,519.0
19:40:49.245000,-1614.0,-396.0,-2263.0,-698.0,805.0,-847.0,190.0,-355.0,519.0
19:40:49.249000,-1614.0,-396.0,-2263.0,-660.0,701.0,-867.0,190.0,-355.0,519.0
19:40:49.254000,-1591.0,-431.0,-2192.0,-719.0,764.0,-868.0,181.0,-379.0,523.0
19:40:49.259000,-1601.0,-475.0,-2195.0,-822.0,812.0,-867.0,181.0,-379.0,523.0
19:40:49.264000,-1626.0,-516.0,-2274.0,-827.0,870.0,-857.0,193.0,-397.0,528.0
19:40:49.268000,-1649.0,-611.0,-2223.0,-719.0,849.0,-851.0,193.0,-397.0,528.0
19:40:49.272000,-1703.0,-676.0,-2016.0,-707.0,815.0,-882.0,193.0,-397.0,528.0
19:40:49.278000,-1757.0,-696.0,-1878.0,-758.0,924.0,-871.0,193.0,-402.0,526.0
19:40:49.282000,-1852.0,-771.0,-1797.0,-653.0,976.0,-861.0,193.0,-402.0,526.0
19:40:49.287000,-1943.0,-833.0,-1648.0,-498.0,955.0,-917.0,198.0,-427.0,519.0
19:40:49.292000,-1991.0,-863.0,-1488.0,-442.0,1049.0,-944.0,198.0,-427.0,519.0
19:40:49.296000,-2057.0,-879.0,-1439.0,-516.0,1192.0,-933.0,198.0,-427.0,519.0
19:40:49.301000,-2146.0,-925.0,-1556.0,-594.0,1238.0,-915.0,214.0,-441.0,519.0
19:40:49.306000,-2239.0,-996.0,-1659.0,-573.0,1125.0,-921.0,214.0,-441.0,519.0
19:40:49.311000,-2253.0,-1084.0,-1658.0,-573.0,1125.0,-921.0,204.0,-450.0,517.0
19:40:49.315000,-2268.0,-1136.0,-1592.0,-574.0,921.0,-976.0,204.0,-450.0,517.0
19:40:49.319000,-2265.0,-1144.0,-1485.0,-662.0,779.0,-1048.0,204.0,-450.0,517.0
19:40:49.325000,-2321.0,-1170.0,-1422.0,-662.0,779.0,-1048.0,216.0,-462.0,519.0
19:40:49.329000,-2431.0,-1222.0,-1369.0,-688.0,716.0,-1002.0,216.0,-462.0,519.0
19:40:49.334000,-2417.0,-1195.0,-1444.0,-714.0,753.0,-1067.0,219.0,-492.0,516.0
19:40:49.339000,-2417.0,-1191.0,-1451.0,-627.0,694.0,-1143.0,219.0,-492.0,516.0
19:40:49.343000,-2386.0,-1186.0,-1350.0,-365.0,460.0,-1145.0,219.0,-492.0,516.0
19:40:49.348000,-2305.0,-1227.0,-1402.0,-329.0,334.0,-1137.0,235.0,-511.0,507.0
19:40:49.353000,-2262.0,-1187.0,-1435.0,-341.0,281.0,-1161.0,235.0,-511.0,507.0
19:40:49.357000,-2262.0,-1187.0,-1435.0,-200.0,191.0,-1147.0,253.0,-531.0,502.0
19:40:49.362000,-2180.0,-1196.0,-1493.0,-151.0,-36.0,-1132.0,253.0,-531.0,502.0
19:40:49.366000,-2083.0,-1166.0,-1606.0,-108.0,-238.0,-1138.0,253.0,-531.0,502.0
19:40:49.372000,-1953.0,-1192.0,-1578.0,112.0,-376.0,-1098.0,264.0,-541.0,495.0
19:40:49.376000,-1730.0,-1210.0,-1344.0,284.0,-540.0,-1093.0,264.0,-541.0,495.0
19:40:49.381000,-1522.0,-1205.0,-1250.0,313.0,-500.0,-1121.0,283.0,-555.0,489.0
19:40:49.386000,-1369.0,-1204.0,-1347.0,449.0,-396.0,-1048.0,283.0,-555.0,489.0
19:40:49.390000,-1188.0,-1300.0,-1437.0,446.0,-453.0,-1007.0,283.0,-555.0,489.0
19:40:49.395000,-912.0,-1343.0,-1652.0,370.0,-492.0,-1089.0,285.0,-561.0,492.0
19:40:49.399000,-604.0,-1449.0,-1656.0,610.0,-668.0,-1068.0,285.0,-561.0,492.0
19:40:49.405000,-561.0,-1460.0,-1414.0,706.0,-883.0,-968.0,301.0,-570.0,486.0
19:40:49.409000,-774.0,-1439.0,-1236.0,634.0,-800.0,-925.0,301.0,-570.0,486.0
19:40:49.414000,-1013.0,-1398.0,-998.0,634.0,-800.0,-925.0,306.0,-573.0,480.0
19:40:49.419000,-1045.0,-1416.0,-994.0,125.0,-179.0,-1052.0,306.0,-573.0,480.0
19:40:49.423000,-1071.0,-1416.0,-1260.0,125.0,-179.0,-1052.0,306.0,-573.0,480.0
19:40:49.428000,-1116.0,-1402.0,-1422.0,-96.0,-46.0,-1101.0,337.0,-579.0,475.0
19:40:49.433000,-1156.0,-1372.0,-1366.0,55.0,-100.0,-1083.0,337.0,-579.0,475.0
19:40:49.437000,-1176.0,-1376.0,-1355.0,-55.0,-88.0,-1094.0,354.0,-577.0,459.0
19:40:49.442000,-1181.0,-1465.0,-1463.0,-55.0,-88.0,-1094.0,354.0,-577.0,459.0
19:40:49.446000,-1206.0,-1530.0,-1470.0,-63.0,54.0,-1034.0,354.0,-577.0,459.0
19:40:49.452000,-1257.0,-1596.0,-1306.0,20.0,-125.0,-1017.0,363.0,-583.0,456.0
19:40:49.456000,-1267.0,-1556.0,-1288.0,71.0,-98.0,-1046.0,363.0,-583.0,456.0
19:40:49.461000,-1222.0,-1565.0,-1421.0,50.0,-67.0,-1080.0,372.0,-592.0,451.0
19:40:49.466000,-1338.0,-1642.0,-1497.0,42.0,-206.0,-990.0,372.0,-592.0,451.0
19:40:49.470000,-1338.0,-1642.0,-1497.0,90.0,-242.0,-857.0,372.0,-592.0,451.0
19:40:49.475000,-1484.0,-1675.0,-1495.0,135.0,-348.0,-930.0,381.0,-601.0,450.0
19:40:49.480000,-1450.0,-1678.0,-1373.0,159.0,-365.0,-920.0,381.0,-601.0,450.0
19:40:49.484000,-1435.0,-1722.0,-1169.0,97.0,-433.0,-884.0,394.0,-601.0,442.0
19:40:49.489000,-1361.0,-1738.0,-1022.0,-43.0,-373.0,-890.0,394.0,-601.0,442.0
19:40:49.493000,-1419.0,-1731.0,-956.0,-152.0,-333.0,-822.0,394.0,-601.0,442.0
19:40:49.499000,-1441.0,-1703.0,-855.0,-222.0,-390.0,-873.0,423.0,-603.0,417.0
19:40:49.503000,-1465.0,-1661.0,-849.0,-317.0,-345.0,-847.0,423.0,-603.0,417.0
19:40:49.508000,-1450.0,-1638.0,-898.0,-359.0,-472.0,-865.0,441.0,-610.0,406.0
19:40:49.513000,-1376.0,-1584.0,-936.0,-274.0,-524.0,-874.0,441.0,-610.0,406.0
19:40:49.517000,-1311.0,-1533.0,-891.0,-407.0,-578.0,-853.0,441.0,-610.0,406.0
19:40:49.522000,-1291.0,-1411.0,-1026.0,-586.0,-544.0,-857.0,436.0,-609.0,387.0
19:40:49.527000,-1167.0,-1494.0,-1023.0,-642.0,-510.0,-829.0,436.0,-609.0,387.0
19:40:49.531000,-1073.0,-1502.0,-982.0,-642.0,-510.0,-829.0,435.0,-613.0,379.0
19:40:49.536000,-1045.0,-1439.0,-1087.0,-672.0,-453.0,-872.0,435.0,-613.0,379.0
19:40:49.540000,-1000.0,-1404.0,-1222.0,-617.0,-397.0,-828.0,435.0,-613.0,379.0
19:40:49.546000,-968.0,-1413.0,-1117.0,-536.0,-552.0,-799.0,469.0,-613.0,376.0
19:40:49.550000,-936.0,-1402.0,-933.0,-343.0,-531.0,-803.0,469.0,-613.0,376.0
19:40:49.555000,-925.0,-1360.0,-980.0,-294.0,-562.0,-791.0,471.0,-613.0,373.0
19:40:49.560000,-877.0,-1337.0,-1077.0,-340.0,-380.0,-807.0,471.0,-613.0,373.0
19:40:49.564000,-707.0,-1412.0,-1194.0,-369.0,-155.0,-841.0,471.0,-613.0,373.0
19:40:49.568000,-707.0,-1412.0,-1194.0,-260.0,-363.0,-660.0,489.0,-613.0,360.0
19:40:49.574000,-1283.0,-1276.0,-1033.0,-85.0,-680.0,-532.0,489.0,-613.0,360.0
19:40:49.578000,-1283.0,-1276.0,-1033.0,-240.0,-639.0,-710.0,508.0,-604.0,334.0
19:40:49.583000,-1235.0,-1295.0,-993.0,-528.0,-283.0,-744.0,508.0,-604.0,334.0
19:40:49.587000,-1230.0,-1318.0,-900.0,-619.0,-238.0,-709.0,508.0,-604.0,334.0
19:40:49.593000,-1197.0,-1405.0,-872.0,-649.0,-187.0,-674.0,508.0,-610.0,339.0
19:40:49.597000,-1260.0,-1494.0,-1104.0,-765.0,-216.0,-664.0,508.0,-610.0,339.0
19:40:49.601000,-1267.0,-1496.0,-1376.0,-546.0,-437.0,-729.0,501.0,-610.0,328.0
19:40:49.607000,-1181.0,-1544.0,-1255.0,-264.0,-617.0,-741.0,501.0,-610.0,328.0
19:40:49.611000,-1096.0,-1547.0,-1106.0,-324.0,-522.0,-712.0,501.0,-610.0,328.0
19:40:49.616000,-1095.0,-1567.0,-1156.0,-435.0,-389.0,-660.0,514.0,-609.0,310.0
19:40:49.621000,-1089.0,-1585.0,-1117.0,-519.0,-487.0,-672.0,514.0,-609.0,310.0
19:40:49.625000,-1078.0,-1579.0,-1045.0,-589.0,-560.0,-664.0,532.0,-604.0,301.0
19:40:49.630000,-1077.0,-1605.0,-991.0,-631.0,-613.0,-644.0,532.0,-604.0,301.0
19:40:49.634000,-1053.0,-1627.0,-1030.0,-682.0,-490.0,-665.0,532.0,-604.0,301.0
19:40:49.640000,-1005.0,-1639.0,-1155.0,-686.0,-403.0,-677.0,546.0,-598.0,274.0
19:40:49.644000,-943.0,-1628.0,-1203.0,-653.0,-439.0,-678.0,546.0,-598.0,274.0
19:40:49.649000,-910.0,-1624.0,-1141.0,-653.0,-439.0,-678.0,537.0,-586.0,274.0
19:40:49.654000,-896.0,-1619.0,-1121.0,-689.0,-469.0,-638.0,537.0,-586.0,274.0
19:40:49.658000,-878.0,-1605.0,-1101.0,-733.0,-443.0,-629.0,537.0,-586.0,274.0
19:40:49.663000,-883.0,-1603.0,-1069.0,-745.0,-463.0,-615.0,556.0,-591.0,262.0
19:40:49.668000,-863.0,-1586.0,-1128.0,-747.0,-447.0,-597.0,556.0,-591.0,262.0
19:40:49.672000,-801.0,-1573.0,-1158.0,-732.0,-427.0,-606.0,555.0,-586.0,237.0
19:40:49.677000,-789.0,-1552.0,-1078.0,-671.0,-457.0,-591.0,555.0,-586.0,237.0
19:40:49.681000,-789.0,-1552.0,-1078.0,-651.0,-454.0,-556.0,555.0,-586.0,237.0
19:40:49.687000,-779.0,-1545.0,-1094.0,-711.0,-336.0,-540.0,586.0,-577.0,231.0
19:40:49.691000,-779.0,-1545.0,-1094.0,-767.0,-243.0,-544.0,586.0,-577.0,231.0
19:40:49.696000,-754.0,-1516.0,-1094.0,-776.0,-324.0,-531.0,570.0,-573.0,220.0
19:40:49.701000,-758.0,-1491.0,-976.0,-818.0,-339.0,-514.0,570.0,-573.0,220.0
19:40:49.705000,-757.0,-1465.0,-1014.0,-854.0,-342.0,-517.0,570.0,-573.0,220.0
19:40:49.710000,-710.0,-1464.0,-1031.0,-826.0,-448.0,-504.0,580.0,-568.0,201.0
19:40:49.715000,-749.0,-1443.0,-1045.0,-863.0,-468.0,-473.0,580.0,-568.0,201.0
19:40:49.719000,-784.0,-1427.0,-1146.0,-888.0,-349.0,-466.0,589.0,-550.0,199.0
19:40:49.724000,-786.0,-1407.0,-1103.0,-853.0,-276.0,-459.0,589.0,-550.0,199.0
19:40:49.728000,-795.0,-1394.0,-962.0,-894.0,-226.0,-442.0,589.0,-550.0,199.0
19:40:49.734000,-774.0,-1376.0,-914.0,-1021.0,-229.0,-446.0,570.0,-546.0,181.0
19:40:49.738000,-725.0,-1367.0,-1001.0,-1098.0,-290.0,-428.0,570.0,-546.0,181.0
19:40:49.743000,-726.0,-1376.0,-1050.0,-1098.0,-290.0,-428.0,591.0,-540.0,180.0
19:40:49.748000,-724.0,-1376.0,-975.0,-928.0,-444.0,-383.0,591.0,-540.0,180.0
19:40:49.752000,-728.0,-1355.0,-891.0,-928.0,-444.0,-383.0,591.0,-540.0,180.0
19:40:49.757000,-718.0,-1324.0,-910.0,-920.0,-363.0,-377.0,595.0,-540.0,171.0
19:40:49.762000,-688.0,-1290.0,-998.0,-959.0,-218.0,-375.0,595.0,-540.0,171.0
19:40:49.766000,-672.0,-1250.0,-1066.0,-962.0,-205.0,-355.0,591.0,-531.0,160.0
19:40:49.771000,-637.0,-1230.0,-949.0,-922.0,-205.0,-355.0,591.0,-531.0,160.0
19:40:49.775000,-616.0,-1211.0,-783.0,-873.0,-360.0,-345.0,591.0,-531.0,160.0
19:40:49.781000,-615.0,-1181.0,-766.0,-908.0,-405.0,-326.0,598.0,-511.0,145.0
19:40:49.785000,-586.0,-1137.0,-898.0,-1052.0,-278.0,-332.0,598.0,-511.0,145.0
19:40:49.790000,-550.0,-1117.0,-879.0,-1122.0,-213.0,-331.0,607.0,-517.0,141.0
19:40:49.795000,-505.0,-1093.0,-804.0,-1076.0,-273.0,-317.0,607.0,-517.0,141.0
19:40:49.799000,-505.0,-1093.0,-804.0,-1071.0,-258.0,-324.0,607.0,-517.0,141.0
19:40:49.804000,-455.0,-1060.0,-804.0,-1063.0,-243.0,-318.0,606.0,-507.0,136.0
19:40:49.809000,-402.0,-1048.0,-739.0,-1011.0,-310.0,-295.0,606.0,-507.0,136.0
19:40:49.813000,-390.0,-1024.0,-669.0,-966.0,-335.0,-280.0,585.0,-507.0,118.0
19:40:49.818000,-356.0,-991.0,-630.0,-939.0,-328.0,-278.0,585.0,-507.0,118.0
19:40:49.822000,-310.0,-966.0,-506.0,-933.0,-335.0,-251.0,585.0,-507.0,118.0
19:40:49.828000,-331.0,-935.0,-346.0,-971.0,-271.0,-234.0,606.0,-495.0,115.0
19:40:49.832000,-357.0,-888.0,-291.0,-1072.0,-169.0,-228.0,606.0,-495.0,115.0
19:40:49.837000,-399.0,-844.0,-380.0,-1165.0,-122.0,-211.0,595.0,-495.0,105.0
19:40:49.842000,-434.0,-801.0,-495.0,-1157.0,-136.0,-209.0,595.0,-495.0,105.0
19:40:49.849000,-442.0,-693.0,-472.0,-1208.0,-221.0,-233.0,583.0,-496.0,111.0
19:40:49.851000,-442.0,-693.0,-472.0,-1208.0,-221.0,-233.0,583.0,-496.0,111.0
19:40:49.855000,-399.0,-633.0,-521.0,-1242.0,-276.0,-213.0,583.0,-496.0,111.0
19:40:49.860000,-359.0,-607.0,-511.0,-1242.0,-276.0,-213.0,594.0,-483.0,94.0
19:40:49.865000,-315.0,-580.0,-438.0,-1186.0,-216.0,-192.0,594.0,-483.0,94.0
19:40:49.870000,-325.0,-540.0,-361.0,-1095.0,-109.0,-182.0,589.0,-486.0,85.0
19:40:49.875000,-416.0,-522.0,-327.0,-1037.0,-74.0,-128.0,589.0,-486.0,85.0
19:40:49.879000,-499.0,-488.0,-374.0,-1031.0,-27.0,-94.0,589.0,-486.0,85.0
19:40:49.884000,-543.0,-436.0,-481.0,-1060.0,11.0,-114.0,604.0,-478.0,90.0
19:40:49.889000,-542.0,-378.0,-548.0,-1063.0,-21.0,-138.0,604.0,-478.0,90.0
19:40:49.893000,-527.0,-356.0,-511.0,-1041.0,-109.0,-138.0,606.0,-480.0,93.0
19:40:49.898000,-532.0,-356.0,-435.0,-1045.0,-202.0,-116.0,606.0,-480.0,93.0
19:40:49.902000,-532.0,-356.0,-435.0,-1112.0,-236.0,-105.0,606.0,-480.0,93.0
19:40:49.907000,-527.0,-359.0,-415.0,-1133.0,-222.0,-109.0,607.0,-471.0,78.0
19:40:49.912000,-512.0,-352.0,-387.0,-1066.0,-176.0,-112.0,607.0,-471.0,78.0
19:40:49.917000,-525.0,-329.0,-393.0,-1034.0,-116.0,-105.0,601.0,-475.0,73.0
19:40:49.921000,-531.0,-324.0,-454.0,-1051.0,-68.0,-99.0,601.0,-475.0,73.0
19:40:49.926000,-522.0,-326.0,-566.0,-1003.0,-71.0,-94.0,601.0,-475.0,73.0
19:40:49.931000,-532.0,-334.0,-546.0,-885.0,-136.0,-79.0,603.0,-469.0,76.0
19:40:49.936000,-552.0,-351.0,-371.0,-883.0,-139.0,-70.0,603.0,-469.0,76.0
19:40:49.940000,-583.0,-354.0,-313.0,-983.0,-46.0,-65.0,604.0,-465.0,66.0
19:40:49.945000,-618.0,-354.0,-388.0,-1012.0,53.0,-51.0,604.0,-465.0,66.0
19:40:49.949000,-670.0,-366.0,-410.0,-970.0,54.0,-39.0,604.0,-465.0,66.0
19:40:49.954000,-709.0,-383.0,-342.0,-942.0,12.0,-44.0,597.0,-456.0,61.0
19:40:49.959000,-729.0,-389.0,-303.0,-949.0,11.0,-49.0,597.0,-456.0,61.0
19:40:49.964000,-744.0,-398.0,-310.0,-949.0,11.0,-49.0,606.0,-454.0,57.0
19:40:49.968000,-793.0,-406.0,-271.0,-967.0,42.0,-18.0,606.0,-454.0,57.0
19:40:49.973000,-858.0,-418.0,-177.0,-978.0,42.0,-18.0,606.0,-454.0,57.0
19:40:49.978000,-939.0,-410.0,-170.0,-1030.0,129.0,-23.0,589.0,-442.0,73.0
19:40:49.983000,-970.0,-424.0,-189.0,-1030.0,129.0,-23.0,589.0,-442.0,73.0
19:40:49.987000,-1036.0,-422.0,-159.0,-1026.0,68.0,-24.0,589.0,-442.0,73.0
19:40:49.992000,-1089.0,-432.0,-114.0,-1020.0,41.0,-18.0,589.0,-442.0,73.0
19:40:49.996000,-1147.0,-457.0,-85.0,-1010.0,91.0,-9.0,589.0,-442.0,73.0
19:40:50.001000,-1246.0,-460.0,-79.0,-987.0,167.0,4.0,604.0,-426.0,57.0
19:40:50.006000,-1340.0,-473.0,-77.0,-954.0,210.0,20.0,604.0,-426.0,57.0
19:40:50.011000,-1416.0,-480.0,-125.0,-928.0,199.0,22.0,598.0,-429.0,49.0
19:40:50.015000,-1416.0,-480.0,-125.0,-932.0,163.0,21.0,598.0,-429.0,49.0
19:40:50.020000,-1472.0,-509.0,-158.0,-925.0,102.0,28.0,598.0,-429.0,49.0
19:40:50.025000,-1533.0,-546.0,-107.0,-903.0,52.0,29.0,594.0,-436.0,57.0
19:40:50.030000,-1608.0,-576.0,-15.0,-930.0,113.0,29.0,594.0,-436.0,57.0
19:40:50.034000,-1697.0,-599.0,-65.0,-948.0,209.0,34.0,598.0,-424.0,33.0
19:40:50.039000,-1755.0,-644.0,-154.0,-887.0,167.0,34.0,598.0,-424.0,33.0
19:40:50.043000,-1810.0,-679.0,-147.0,-847.0,73.0,35.0,598.0,-424.0,33.0
19:40:50.048000,-1865.0,-725.0,-116.0,-860.0,54.0,45.0,603.0,-423.0,39.0
19:40:50.053000,-1931.0,-785.0,-109.0,-861.0,78.0,57.0,603.0,-423.0,39.0
19:40:50.058000,-2007.0,-846.0,-103.0,-826.0,98.0,73.0,585.0,-418.0,18.0
19:40:50.062000,-2089.0,-914.0,-69.0,-777.0,104.0,89.0,585.0,-418.0,18.0
19:40:50.070000,-2256.0,-1068.0,-32.0,-792.0,183.0,117.0,595.0,-403.0,24.0
19:40:50.072000,-2256.0,-1068.0,-32.0,-792.0,183.0,117.0,595.0,-403.0,24.0
19:40:50.076000,-2334.0,-1136.0,-93.0,-798.0,214.0,132.0,595.0,-403.0,24.0
19:40:50.081000,-2405.0,-1211.0,-137.0,-798.0,214.0,132.0,586.0,-387.0,13.0
19:40:50.086000,-2494.0,-1289.0,-151.0,-804.0,213.0,161.0,586.0,-387.0,13.0
19:40:50.091000,-2569.0,-1365.0,-139.0,-804.0,195.0,193.0,582.0,-379.0,9.0
19:40:50.095000,-2676.0,-1433.0,-135.0,-808.0,164.0,231.0,582.0,-379.0,9.0
19:40:50.099000,-2755.0,-1509.0,-133.0,-838.0,166.0,273.0,582.0,-379.0,9.0
19:40:50.105000,-2841.0,-1581.0,-160.0,-880.0,197.0,310.0,586.0,-367.0,-3.0
19:40:50.109000,-2916.0,-1662.0,-174.0,-883.0,204.0,352.0,586.0,-367.0,-3.0
19:40:50.114000,-3005.0,-1732.0,-198.0,-845.0,178.0,392.0,571.0,-363.0,4.0
19:40:50.119000,-3066.0,-1805.0,-273.0,-822.0,163.0,430.0,571.0,-363.0,4.0
19:40:50.123000,-3066.0,-1805.0,-273.0,-832.0,154.0,462.0,571.0,-363.0,4.0
19:40:50.128000,-3119.0,-1861.0,-373.0,-868.0,150.0,494.0,570.0,-352.0,-19.0
19:40:50.133000,-3172.0,-1911.0,-419.0,-894.0,139.0,540.0,570.0,-352.0,-19.0
19:40:50.138000,-3257.0,-1954.0,-406.0,-913.0,144.0,586.0,565.0,-331.0,-24.0
19:40:50.142000,-3316.0,-2001.0,-447.0,-910.0,155.0,623.0,565.0,-331.0,-24.0
19:40:50.146000,-3369.0,-2035.0,-519.0,-870.0,103.0,652.0,565.0,-331.0,-24.0
19:40:50.152000,-3412.0,-2060.0,-527.0,-875.0,97.0,680.0,541.0,-298.0,-28.0
19:40:50.156000,-3446.0,-2083.0,-605.0,-917.0,135.0,711.0,541.0,-298.0,-28.0
19:40:50.161000,-3472.0,-2107.0,-691.0,-919.0,127.0,735.0,541.0,-286.0,-40.0
19:40:50.166000,-3493.0,-2123.0,-701.0,-939.0,123.0,752.0,541.0,-286.0,-40.0
19:40:50.170000,-3520.0,-2116.0,-722.0,-1012.0,144.0,771.0,541.0,-286.0,-40.0
19:40:50.175000,-3534.0,-2118.0,-776.0,-1012.0,144.0,771.0,532.0,-270.0,-39.0
19:40:50.180000,-3549.0,-2109.0,-828.0,-1017.0,115.0,804.0,532.0,-270.0,-39.0
19:40:50.185000,-3573.0,-2113.0,-868.0,-1017.0,115.0,804.0,513.0,-244.0,-46.0
19:40:50.189000,-3581.0,-2125.0,-912.0,-991.0,156.0,835.0,513.0,-244.0,-46.0
19:40:50.193000,-3590.0,-2124.0,-980.0,-958.0,215.0,864.0,513.0,-244.0,-46.0
19:40:50.199000,-3581.0,-2107.0,-1053.0,-958.0,215.0,864.0,502.0,-225.0,-39.0
19:40:50.203000,-3560.0,-2110.0,-1113.0,-981.0,226.0,879.0,502.0,-225.0,-39.0
19:40:50.208000,-3549.0,-2117.0,-1157.0,-992.0,236.0,905.0,490.0,-202.0,-40.0
19:40:50.213000,-3530.0,-2120.0,-1119.0,-971.0,232.0,911.0,490.0,-202.0,-40.0
19:40:50.217000,-3500.0,-2114.0,-1073.0,-949.0,205.0,906.0,490.0,-202.0,-40.0
19:40:50.222000,-3479.0,-2088.0,-1146.0,-995.0,266.0,900.0,474.0,-180.0,-34.0
19:40:50.227000,-3465.0,-2072.0,-1194.0,-1037.0,353.0,908.0,474.0,-180.0,-34.0
19:40:50.232000,-3455.0,-2059.0,-1139.0,-1002.0,307.0,923.0,457.0,-150.0,-15.0
19:40:50.236000,-3455.0,-2059.0,-1139.0,-974.0,253.0,915.0,457.0,-150.0,-15.0
19:40:50.240000,-3427.0,-2034.0,-1103.0,-944.0,249.0,895.0,457.0,-150.0,-15.0
19:40:50.246000,-3405.0,-1999.0,-1034.0,-903.0,253.0,896.0,435.0,-142.0,-6.0
19:40:50.250000,-3346.0,-2002.0,-975.0,-920.0,289.0,883.0,435.0,-142.0,-6.0
19:40:50.255000,-3292.0,-1964.0,-1022.0,-945.0,319.0,849.0,420.0,-115.0,1.0
19:40:50.260000,-3231.0,-1920.0,-1075.0,-915.0,276.0,835.0,420.0,-115.0,1.0
19:40:50.264000,-3163.0,-1885.0,-996.0,-883.0,221.0,818.0,420.0,-115.0,1.0
19:40:50.269000,-3104.0,-1845.0,-877.0,-907.0,248.0,797.0,409.0,-108.0,13.0
19:40:50.274000,-3063.0,-1803.0,-812.0,-945.0,328.0,779.0,409.0,-108.0,13.0
19:40:50.279000,-3022.0,-1764.0,-789.0,-948.0,381.0,748.0,414.0,-84.0,27.0
19:40:50.283000,-2974.0,-1710.0,-759.0,-936.0,393.0,724.0,414.0,-84.0,27.0
19:40:50.287000,-2909.0,-1681.0,-746.0,-906.0,401.0,707.0,414.0,-84.0,27.0
19:40:50.293000,-2848.0,-1638.0,-739.0,-854.0,388.0,683.0,376.0,-78.0,45.0
19:40:50.297000,-2774.0,-1598.0,-702.0,-854.0,388.0,683.0,376.0,-78.0,45.0
19:40:50.302000,-2695.0,-1560.0,-671.0,-826.0,357.0,660.0,373.0,-52.0,64.0
19:40:50.307000,-2609.0,-1530.0,-620.0,-809.0,315.0,633.0,373.0,-52.0,64.0
19:40:50.311000,-2517.0,-1509.0,-554.0,-775.0,276.0,610.0,373.0,-52.0,64.0
19:40:50.316000,-2429.0,-1478.0,-535.0,-761.0,292.0,578.0,360.0,-48.0,73.0
19:40:50.321000,-2351.0,-1453.0,-535.0,-764.0,356.0,550.0,360.0,-48.0,73.0
19:40:50.325000,-2289.0,-1432.0,-515.0,-745.0,417.0,543.0,357.0,-36.0,76.0
19:40:50.330000,-2229.0,-1412.0,-496.0,-728.0,455.0,531.0,357.0,-36.0,76.0
19:40:50.335000,-2164.0,-1388.0,-474.0,-721.0,463.0,513.0,357.0,-33.0,99.0
19:40:50.340000,-2101.0,-1367.0,-448.0,-699.0,443.0,497.0,357.0,-33.0,99.0
19:40:50.344000,-2101.0,-1367.0,-448.0,-669.0,431.0,478.0,357.0,-33.0,99.0
19:40:50.349000,-2040.0,-1334.0,-420.0,-657.0,457.0,454.0,342.0,-24.0,99.0
19:40:50.354000,-1974.0,-1297.0,-416.0,-665.0,498.0,437.0,342.0,-24.0,99.0
19:40:50.359000,-1910.0,-1261.0,-431.0,-675.0,515.0,426.0,343.0,-16.0,109.0
19:40:50.363000,-1854.0,-1221.0,-443.0,-688.0,515.0,416.0,343.0,-16.0,109.0
19:40:50.367000,-1801.0,-1182.0,-439.0,-690.0,513.0,406.0,343.0,-16.0,109.0
19:40:50.373000,-1752.0,-1145.0,-429.0,-666.0,510.0,398.0,334.0,-15.0,129.0
19:40:50.377000,-1701.0,-1110.0,-417.0,-633.0,499.0,381.0,334.0,-15.0,129.0
19:40:50.382000,-1645.0,-1068.0,-421.0,-626.0,499.0,359.0,312.0,-15.0,135.0
19:40:50.387000,-1589.0,-1024.0,-457.0,-640.0,509.0,342.0,312.0,-15.0,135.0
19:40:50.391000,-1538.0,-980.0,-504.0,-653.0,515.0,327.0,312.0,-15.0,135.0
19:40:50.396000,-1493.0,-936.0,-529.0,-665.0,522.0,312.0,322.0,0.0,154.0
19:40:50.401000,-1456.0,-891.0,-529.0,-673.0,536.0,294.0,322.0,0.0,154.0
19:40:50.406000,-1421.0,-844.0,-520.0,-673.0,536.0,294.0,321.0,3.0,163.0
19:40:50.410000,-1393.0,-795.0,-525.0,-687.0,583.0,255.0,321.0,3.0,163.0
19:40:50.414000,-1357.0,-753.0,-529.0,-687.0,583.0,255.0,321.0,3.0,163.0
19:40:50.420000,-1321.0,-720.0,-519.0,-670.0,604.0,238.0,303.0,3.0,184.0
19:40:50.424000,-1291.0,-693.0,-510.0,-639.0,624.0,228.0,303.0,3.0,184.0
19:40:50.429000,-1262.0,-674.0,-503.0,-595.0,631.0,223.0,313.0,0.0,186.0
19:40:50.434000,-1235.0,-665.0,-480.0,-539.0,608.0,224.0,313.0,0.0,186.0
19:40:50.438000,-1201.0,-657.0,-475.0,-503.0,590.0,222.0,313.0,0.0,186.0
19:40:50.443000,-1155.0,-660.0,-518.0,-498.0,613.0,216.0,306.0,4.0,184.0
19:40:50.448000,-1119.0,-655.0,-563.0,-493.0,647.0,213.0,306.0,4.0,184.0
19:40:50.453000,-1087.0,-655.0,-562.0,-466.0,658.0,215.0,301.0,7.0,195.0
19:40:50.457000,-1087.0,-655.0,-562.0,-437.0,645.0,217.0,301.0,7.0,195.0
19:40:50.461000,-1057.0,-655.0,-525.0,-432.0,640.0,211.0,301.0,7.0,195.0
19:40:50.467000,-1035.0,-648.0,-514.0,-445.0,670.0,203.0,294.0,9.0,211.0
19:40:50.471000,-1020.0,-638.0,-541.0,-451.0,706.0,191.0,294.0,9.0,211.0
19:40:50.476000,-1007.0,-625.0,-560.0,-458.0,725.0,177.0,285.0,9.0,220.0
19:40:50.481000,-990.0,-609.0,-568.0,-471.0,740.0,160.0,285.0,9.0,220.0
19:40:50.485000,-980.0,-581.0,-579.0,-485.0,757.0,147.0,285.0,9.0,220.0
19:40:50.490000,-984.0,-545.0,-582.0,-502.0,757.0,140.0,292.0,13.0,220.0
19:40:50.495000,-988.0,-515.0,-564.0,-502.0,740.0,133.0,292.0,13.0,220.0
19:40:50.500000,-997.0,-485.0,-527.0,-489.0,730.0,129.0,283.0,12.0,222.0
19:40:50.504000,-1011.0,-459.0,-499.0,-476.0,746.0,124.0,283.0,12.0,222.0
19:40:50.508000,-1016.0,-437.0,-516.0,-456.0,771.0,116.0,283.0,12.0,222.0
19:40:50.514000,-1017.0,-413.0,-569.0,-413.0,761.0,108.0,279.0,9.0,240.0
19:40:50.518000,-1024.0,-389.0,-587.0,-413.0,761.0,108.0,279.0,9.0,240.0
19:40:50.523000,-1025.0,-371.0,-564.0,-376.0,723.0,96.0,273.0,10.0,243.0
19:40:50.528000,-1022.0,-354.0,-569.0,-375.0,706.0,78.0,273.0,10.0,243.0
19:40:50.532000,-1015.0,-338.0,-609.0,-388.0,722.0,58.0,273.0,10.0,243.0
19:40:50.537000,-1007.0,-328.0,-616.0,-390.0,732.0,44.0,273.0,16.0,258.0
19:40:50.542000,-990.0,-327.0,-605.0,-387.0,710.0,35.0,273.0,16.0,258.0
19:40:50.547000,-961.0,-324.0,-646.0,-389.0,695.0,21.0,265.0,7.0,259.0
19:40:50.551000,-917.0,-326.0,-722.0,-376.0,693.0,6.0,265.0,7.0,259.0
19:40:50.555000,-917.0,-326.0,-722.0,-327.0,677.0,-1.0,265.0,7.0,259.0
19:40:50.561000,-806.0,-338.0,-746.0,-263.0,639.0,-2.0,256.0,7.0,273.0
19:40:50.565000,-806.0,-338.0,-746.0,-220.0,599.0,3.0,256.0,7.0,273.0
19:40:50.570000,-754.0,-345.0,-688.0,-210.0,582.0,15.0,258.0,10.0,274.0
19:40:50.575000,-704.0,-357.0,-646.0,-213.0,607.0,27.0,258.0,10.0,274.0
19:40:50.579000,-652.0,-364.0,-667.0,-208.0,659.0,38.0,258.0,10.0,274.0
19:40:50.584000,-599.0,-371.0,-710.0,-181.0,699.0,55.0,264.0,10.0,274.0
19:40:50.589000,-558.0,-376.0,-707.0,-157.0,719.0,73.0,264.0,10.0,274.0
19:40:50.594000,-530.0,-377.0,-651.0,-178.0,754.0,86.0,241.0,13.0,297.0
19:40:50.598000,-512.0,-374.0,-613.0,-229.0,818.0,102.0,241.0,13.0,297.0
19:40:50.602000,-506.0,-369.0,-618.0,-260.0,866.0,118.0,241.0,13.0,297.0
19:40:50.608000,-510.0,-364.0,-620.0,-250.0,870.0,134.0,237.0,6.0,285.0
19:40:50.612000,-520.0,-362.0,-590.0,-220.0,847.0,142.0,237.0,6.0,285.0
19:40:50.617000,-529.0,-357.0,-539.0,-220.0,847.0,142.0,231.0,4.0,300.0
19:40:50.622000,-534.0,-347.0,-497.0,-206.0,829.0,138.0,231.0,4.0,300.0
19:40:50.626000,-534.0,-337.0,-471.0,-206.0,829.0,138.0,231.0,4.0,300.0
19:40:50.631000,-534.0,-327.0,-442.0,-217.0,846.0,140.0,232.0,12.0,295.0
19:40:50.636000,-536.0,-322.0,-385.0,-229.0,857.0,149.0,232.0,12.0,295.0
19:40:50.641000,-538.0,-323.0,-380.0,-165.0,882.0,174.0,237.0,12.0,300.0
19:40:50.645000,-541.0,-321.0,-382.0,-165.0,882.0,174.0,237.0,12.0,300.0
19:40:50.649000,-525.0,-321.0,-334.0,-154.0,874.0,184.0,237.0,12.0,300.0
19:40:50.655000,-511.0,-315.0,-270.0,-144.0,838.0,191.0,214.0,6.0,313.0
19:40:50.659000,-501.0,-304.0,-230.0,-124.0,805.0,200.0,214.0,6.0,313.0
19:40:50.664000,-494.0,-294.0,-199.0,-118.0,795.0,210.0,217.0,3.0,312.0
19:40:50.669000,-475.0,-284.0,-163.0,-123.0,788.0,215.0,217.0,3.0,312.0
19:40:50.673000,-475.0,-284.0,-163.0,-140.0,792.0,211.0,217.0,3.0,312.0
19:40:50.678000,-451.0,-268.0,-125.0,-160.0,788.0,209.0,217.0,-1.0,324.0
19:40:50.683000,-444.0,-247.0,-92.0,-186.0,763.0,203.0,217.0,-1.0,324.0
19:40:50.687000,-424.0,-222.0,-60.0,-225.0,755.0,184.0,208.0,7.0,321.0
19:40:50.692000,-399.0,-190.0,-39.0,-249.0,775.0,176.0,208.0,7.0,321.0
19:40:50.697000,-380.0,-157.0,-34.0,-248.0,801.0,169.0,226.0,0.0,318.0
