hh:mm:ss.ms,gyroX[mdps],gyroY[mdps],gyroZ[mdps],accX[mg],accY[mg],accZ[mg],magX[mG],magY[mG],magZ[mG]
19:39:16.181000,-305.0,-518.0,2298.0,-375.0,-399.0,166.0,526.0,-597.0,274.0
19:39:16.186000,-310.0,-543.0,2384.0,-329.0,-430.0,183.0,526.0,-597.0,274.0
19:39:16.190000,-313.0,-565.0,2485.0,-313.0,-464.0,200.0,526.0,-597.0,274.0
19:39:16.195000,-312.0,-583.0,2589.0,-305.0,-503.0,212.0,511.0,-619.0,262.0
19:39:16.200000,-311.0,-603.0,2687.0,-282.0,-530.0,227.0,511.0,-619.0,262.0
19:39:16.205000,-308.0,-620.0,2769.0,-241.0,-554.0,240.0,498.0,-633.0,258.0
19:39:16.209000,-296.0,-627.0,2846.0,-192.0,-583.0,253.0,498.0,-633.0,258.0
19:39:16.213000,-284.0,-630.0,2916.0,-149.0,-604.0,269.0,498.0,-633.0,258.0
19:39:16.219000,-271.0,-631.0,2977.0,-107.0,-627.0,284.0,480.0,-646.0,249.0
19:39:16.223000,-258.0,-631.0,3047.0,-63.0,-662.0,301.0,480.0,-646.0,249.0
19:39:16.228000,-248.0,-630.0,3129.0,-63.0,-662.0,301.0,462.0,-661.0,255.0
19:39:16.233000,-242.0,-621.0,3217.0,-35.0,-696.0,312.0,462.0,-661.0,255.0
19:39:16.237000,-233.0,-618.0,3278.0,-24.0,-713.0,317.0,462.0,-661.0,255.0
19:39:16.242000,-233.0,-613.0,3306.0,-13.0,-711.0,323.0,454.0,-667.0,246.0
19:39:16.247000,-239.0,-609.0,3330.0,16.0,-705.0,328.0,454.0,-667.0,246.0
19:39:16.252000,-242.0,-606.0,3363.0,75.0,-715.0,327.0,427.0,-685.0,249.0
19:39:16.256000,-252.0,-602.0,3387.0,132.0,-720.0,324.0,427.0,-685.0,249.0
19:39:16.260000,-252.0,-602.0,3387.0,172.0,-702.0,322.0,427.0,-685.0,249.0
19:39:16.266000,-289.0,-612.0,3394.0,203.0,-679.0,321.0,381.0,-706.0,250.0
19:39:16.270000,-308.0,-620.0,3385.0,231.0,-654.0,316.0,381.0,-706.0,250.0
19:39:16.275000,-308.0,-620.0,3385.0,262.0,-634.0,304.0,370.0,-706.0,237.0
19:39:16.280000,-331.0,-620.0,3381.0,275.0,-640.0,295.0,370.0,-706.0,237.0
19:39:16.284000,-357.0,-630.0,3389.0,270.0,-666.0,290.0,370.0,-706.0,237.0
19:39:16.289000,-375.0,-643.0,3411.0,270.0,-701.0,284.0,354.0,-708.0,231.0
19:39:16.294000,-390.0,-653.0,3448.0,258.0,-728.0,283.0,354.0,-708.0,231.0
19:39:16.299000,-411.0,-664.0,3489.0,236.0,-727.0,285.0,331.0,-720.0,223.0
19:39:16.303000,-431.0,-676.0,3525.0,221.0,-715.0,281.0,331.0,-720.0,223.0
19:39:16.311000,-460.0,-709.0,3562.0,208.0,-676.0,280.0,307.0,-717.0,223.0
19:39:16.313000,-460.0,-709.0,3562.0,208.0,-676.0,280.0,307.0,-717.0,223.0
19:39:16.317000,-479.0,-718.0,3570.0,200.0,-675.0,280.0,307.0,-717.0,223.0
19:39:16.322000,-499.0,-718.0,3589.0,188.0,-685.0,276.0,292.0,-720.0,219.0
19:39:16.327000,-512.0,-714.0,3606.0,164.0,-696.0,263.0,292.0,-720.0,219.0
19:39:16.332000,-520.0,-702.0,3602.0,164.0,-696.0,263.0,268.0,-721.0,210.0
19:39:16.336000,-522.0,-690.0,3576.0,119.0,-723.0,247.0,268.0,-721.0,210.0
19:39:16.340000,-514.0,-671.0,3543.0,70.0,-741.0,230.0,268.0,-721.0,210.0
19:39:16.345000,-493.0,-655.0,3516.0,31.0,-771.0,221.0,231.0,-720.0,213.0
19:39:16.350000,-470.0,-639.0,3496.0,3.0,-820.0,214.0,231.0,-720.0,213.0
19:39:16.355000,-450.0,-625.0,3464.0,-15.0,-839.0,211.0,201.0,-721.0,211.0
19:39:16.360000,-424.0,-608.0,3402.0,-22.0,-843.0,213.0,201.0,-721.0,211.0
19:39:16.364000,-396.0,-590.0,3300.0,0.0,-818.0,209.0,201.0,-721.0,211.0
19:39:16.369000,-368.0,-579.0,3180.0,48.0,-794.0,217.0,187.0,-721.0,214.0
19:39:16.374000,-346.0,-574.0,3075.0,123.0,-782.0,230.0,187.0,-721.0,214.0
19:39:16.379000,-340.0,-571.0,2980.0,204.0,-742.0,248.0,186.0,-714.0,205.0
19:39:16.383000,-340.0,-571.0,2980.0,259.0,-669.0,262.0,186.0,-714.0,205.0
19:39:16.387000,-349.0,-553.0,2876.0,272.0,-571.0,265.0,186.0,-714.0,205.0
19:39:16.393000,-366.0,-540.0,2762.0,254.0,-474.0,270.0,166.0,-700.0,202.0
19:39:16.397000,-388.0,-534.0,2662.0,243.0,-438.0,275.0,166.0,-700.0,202.0
19:39:16.402000,-413.0,-533.0,2606.0,261.0,-466.0,277.0,135.0,-696.0,214.0
19:39:16.407000,-429.0,-533.0,2601.0,305.0,-493.0,281.0,135.0,-696.0,214.0
19:39:16.411000,-438.0,-536.0,2628.0,364.0,-523.0,292.0,135.0,-696.0,214.0
19:39:16.416000,-442.0,-534.0,2664.0,426.0,-545.0,295.0,132.0,-684.0,202.0
19:39:16.421000,-449.0,-530.0,2710.0,479.0,-509.0,304.0,132.0,-684.0,202.0
19:39:16.426000,-459.0,-533.0,2781.0,511.0,-475.0,313.0,114.0,-684.0,202.0
19:39:16.430000,-473.0,-526.0,2876.0,527.0,-440.0,331.0,114.0,-684.0,202.0
19:39:16.434000,-505.0,-522.0,2990.0,550.0,-389.0,353.0,114.0,-684.0,202.0
19:39:16.440000,-564.0,-513.0,3123.0,575.0,-359.0,367.0,88.0,-678.0,205.0
19:39:16.444000,-630.0,-501.0,3233.0,606.0,-325.0,375.0,88.0,-678.0,205.0
19:39:16.449000,-686.0,-488.0,3285.0,603.0,-325.0,375.0,88.0,-657.0,210.0
19:39:16.454000,-722.0,-476.0,3285.0,653.0,-295.0,370.0,88.0,-657.0,210.0
19:39:16.458000,-732.0,-459.0,3286.0,716.0,-318.0,370.0,88.0,-657.0,210.0
19:39:16.463000,-737.0,-452.0,3329.0,788.0,-400.0,375.0,82.0,-649.0,199.0
19:39:16.468000,-757.0,-459.0,3376.0,887.0,-437.0,391.0,82.0,-649.0,199.0
19:39:16.473000,-773.0,-466.0,3405.0,1009.0,-417.0,417.0,63.0,-639.0,195.0
19:39:16.477000,-774.0,-479.0,3414.0,1125.0,-411.0,435.0,63.0,-639.0,195.0
19:39:16.481000,-774.0,-479.0,3414.0,1212.0,-423.0,442.0,63.0,-639.0,195.0
19:39:16.487000,-781.0,-501.0,3333.0,1249.0,-447.0,460.0,39.0,-621.0,217.0
19:39:16.491000,-760.0,-516.0,3226.0,1303.0,-457.0,467.0,39.0,-621.0,217.0
19:39:16.496000,-760.0,-516.0,3226.0,1410.0,-452.0,477.0,37.0,-606.0,199.0
19:39:16.501000,-754.0,-528.0,3151.0,1494.0,-459.0,491.0,37.0,-606.0,199.0
19:39:16.505000,-732.0,-518.0,3117.0,1541.0,-457.0,492.0,37.0,-606.0,199.0
19:39:16.510000,-700.0,-520.0,3085.0,1549.0,-432.0,506.0,31.0,-588.0,198.0
19:39:16.515000,-684.0,-532.0,2984.0,1560.0,-449.0,519.0,31.0,-588.0,198.0
19:39:16.520000,-677.0,-536.0,2940.0,1558.0,-466.0,517.0,36.0,-583.0,204.0
19:39:16.524000,-677.0,-536.0,2904.0,1519.0,-400.0,517.0,36.0,-583.0,204.0
19:39:16.528000,-679.0,-541.0,2851.0,1505.0,-332.0,515.0,36.0,-583.0,204.0
19:39:16.534000,-669.0,-539.0,2800.0,1517.0,-294.0,509.0,19.0,-576.0,223.0
19:39:16.538000,-669.0,-546.0,2759.0,1542.0,-247.0,511.0,19.0,-576.0,223.0
19:39:16.543000,-689.0,-550.0,2753.0,1542.0,-247.0,511.0,18.0,-564.0,198.0
19:39:16.548000,-714.0,-548.0,2772.0,1589.0,-141.0,488.0,18.0,-564.0,198.0
19:39:16.552000,-746.0,-545.0,2755.0,1550.0,-49.0,478.0,18.0,-564.0,198.0
19:39:16.557000,-767.0,-531.0,2673.0,1550.0,-49.0,478.0,4.0,-552.0,202.0
19:39:16.562000,-772.0,-510.0,2548.0,1471.0,24.0,474.0,4.0,-552.0,202.0
19:39:16.567000,-774.0,-488.0,2464.0,1408.0,41.0,478.0,3.0,-532.0,202.0
19:39:16.571000,-776.0,-469.0,2436.0,1426.0,-95.0,488.0,3.0,-532.0,202.0
19:39:16.575000,-749.0,-456.0,2443.0,1426.0,-95.0,488.0,3.0,-532.0,202.0
19:39:16.580000,-711.0,-440.0,2483.0,1482.0,-159.0,481.0,-1.0,-531.0,211.0
19:39:16.585000,-675.0,-422.0,2551.0,1531.0,-185.0,483.0,-1.0,-531.0,211.0
19:39:16.590000,-658.0,-400.0,2589.0,1546.0,-170.0,487.0,-12.0,-520.0,208.0
19:39:16.595000,-647.0,-380.0,2550.0,1525.0,-100.0,486.0,-12.0,-520.0,208.0
19:39:16.599000,-647.0,-380.0,2550.0,1517.0,0.0,490.0,-12.0,-520.0,208.0
19:39:16.604000,-646.0,-365.0,2480.0,1571.0,54.0,493.0,-3.0,-517.0,202.0
19:39:16.609000,-656.0,-350.0,2479.0,1652.0,70.0,498.0,-3.0,-517.0,202.0
19:39:16.613000,-687.0,-347.0,2528.0,1688.0,130.0,498.0,-10.0,-495.0,204.0
19:39:16.618000,-723.0,-338.0,2548.0,1678.0,197.0,496.0,-10.0,-495.0,204.0
19:39:16.623000,-758.0,-331.0,2554.0,1671.0,197.0,496.0,-28.0,-493.0,226.0
19:39:16.628000,-784.0,-336.0,2554.0,1683.0,189.0,482.0,-28.0,-493.0,226.0
19:39:16.632000,-806.0,-335.0,2550.0,1664.0,219.0,471.0,-28.0,-493.0,226.0
19:39:16.637000,-821.0,-332.0,2518.0,1617.0,254.0,470.0,-15.0,-481.0,207.0
19:39:16.642000,-833.0,-331.0,2494.0,1589.0,245.0,466.0,-15.0,-481.0,207.0
19:39:16.646000,-843.0,-329.0,2524.0,1561.0,219.0,460.0,-18.0,-460.0,211.0
19:39:16.651000,-841.0,-331.0,2564.0,1516.0,228.0,448.0,-18.0,-460.0,211.0
19:39:16.655000,-831.0,-333.0,2553.0,1477.0,262.0,439.0,-18.0,-460.0,211.0
19:39:16.661000,-815.0,-333.0,2522.0,1473.0,272.0,434.0,-19.0,-453.0,205.0
19:39:16.665000,-801.0,-330.0,2523.0,1473.0,272.0,434.0,-19.0,-453.0,205.0
19:39:16.670000,-792.0,-331.0,2562.0,1493.0,265.0,426.0,-27.0,-438.0,211.0
19:39:16.675000,-776.0,-337.0,2622.0,1510.0,258.0,418.0,-27.0,-438.0,211.0
19:39:16.679000,-760.0,-334.0,2669.0,1518.0,262.0,406.0,-27.0,-438.0,211.0
19:39:16.684000,-749.0,-343.0,2715.0,1516.0,274.0,396.0,-22.0,-429.0,220.0
19:39:16.689000,-749.0,-354.0,2778.0,1519.0,277.0,391.0,-22.0,-429.0,220.0
19:39:16.693000,-745.0,-368.0,2844.0,1518.0,282.0,385.0,-19.0,-427.0,214.0
19:39:16.698000,-749.0,-380.0,2919.0,1487.0,275.0,375.0,-19.0,-427.0,214.0
19:39:16.702000,-749.0,-380.0,2919.0,1430.0,284.0,361.0,-19.0,-427.0,214.0
19:39:16.708000,-767.0,-368.0,2888.0,1386.0,362.0,358.0,-28.0,-406.0,213.0
19:39:16.712000,-767.0,-368.0,2888.0,1383.0,411.0,370.0,-28.0,-406.0,213.0
19:39:16.717000,-784.0,-351.0,2883.0,1397.0,383.0,378.0,-31.0,-387.0,210.0
19:39:16.722000,-811.0,-337.0,2907.0,1401.0,347.0,373.0,-31.0,-387.0,210.0
19:39:16.726000,-821.0,-338.0,2949.0,1404.0,272.0,366.0,-31.0,-387.0,210.0
19:39:16.731000,-824.0,-351.0,3010.0,1405.0,218.0,364.0,-19.0,-366.0,219.0
19:39:16.736000,-820.0,-375.0,3024.0,1413.0,270.0,353.0,-19.0,-366.0,219.0
19:39:16.740000,-793.0,-404.0,2967.0,1444.0,336.0,338.0,-13.0,-360.0,226.0
19:39:16.745000,-765.0,-431.0,2907.0,1468.0,375.0,343.0,-13.0,-360.0,226.0
19:39:16.749000,-763.0,-456.0,2872.0,1461.0,443.0,349.0,-13.0,-360.0,226.0
19:39:16.755000,-765.0,-483.0,2829.0,1433.0,507.0,342.0,-34.0,-349.0,247.0
19:39:16.759000,-758.0,-507.0,2783.0,1407.0,501.0,332.0,-34.0,-349.0,247.0
19:39:16.764000,-741.0,-534.0,2781.0,1407.0,501.0,332.0,-16.0,-334.0,228.0
19:39:16.769000,-709.0,-558.0,2834.0,1331.0,371.0,298.0,-16.0,-334.0,228.0
19:39:16.773000,-663.0,-575.0,2894.0,1331.0,354.0,298.0,-16.0,-334.0,228.0
19:39:16.778000,-623.0,-592.0,2909.0,1244.0,354.0,287.0,-25.0,-318.0,229.0
19:39:16.783000,-595.0,-602.0,2898.0,1158.0,396.0,282.0,-25.0,-318.0,229.0
19:39:16.787000,-571.0,-608.0,2883.0,1090.0,469.0,274.0,-3.0,-297.0,246.0
19:39:16.792000,-548.0,-625.0,2877.0,1072.0,496.0,267.0,-3.0,-297.0,246.0
19:39:16.796000,-520.0,-637.0,2904.0,1072.0,496.0,267.0,-3.0,-297.0,246.0
19:39:16.802000,-508.0,-639.0,2928.0,1074.0,508.0,255.0,-3.0,-286.0,253.0
19:39:16.806000,-501.0,-639.0,2916.0,1027.0,547.0,248.0,-3.0,-286.0,253.0
19:39:16.811000,-495.0,-635.0,2882.0,960.0,612.0,237.0,13.0,-267.0,253.0
19:39:16.816000,-492.0,-638.0,2864.0,896.0,658.0,231.0,13.0,-267.0,253.0
19:39:16.820000,-492.0,-638.0,2864.0,896.0,658.0,231.0,13.0,-267.0,253.0
19:39:16.825000,-491.0,-634.0,2888.0,904.0,639.0,225.0,12.0,-265.0,256.0
19:39:16.830000,-492.0,-621.0,2925.0,889.0,637.0,224.0,12.0,-265.0,256.0
19:39:16.834000,-495.0,-604.0,2923.0,858.0,666.0,221.0,16.0,-250.0,258.0
19:39:16.839000,-495.0,-581.0,2884.0,841.0,714.0,215.0,16.0,-250.0,258.0
19:39:16.843000,-497.0,-557.0,2830.0,841.0,761.0,208.0,16.0,-250.0,258.0
19:39:16.848000,-487.0,-534.0,2777.0,840.0,792.0,203.0,15.0,-234.0,279.0
19:39:16.853000,-483.0,-515.0,2755.0,822.0,783.0,199.0,15.0,-234.0,279.0
19:39:16.858000,-478.0,-496.0,2737.0,782.0,782.0,190.0,45.0,-211.0,277.0
19:39:16.863000,-476.0,-470.0,2689.0,744.0,795.0,184.0,45.0,-211.0,277.0
19:39:16.867000,-469.0,-441.0,2630.0,721.0,791.0,177.0,45.0,-211.0,277.0
19:39:16.872000,-455.0,-413.0,2588.0,714.0,791.0,169.0,63.0,-202.0,279.0
19:39:16.877000,-445.0,-389.0,2577.0,705.0,791.0,161.0,63.0,-202.0,279.0
19:39:16.881000,-443.0,-364.0,2585.0,675.0,821.0,158.0,60.0,-196.0,280.0
19:39:16.886000,-454.0,-340.0,2592.0,675.0,821.0,158.0,60.0,-196.0,280.0
19:39:16.890000,-462.0,-314.0,2591.0,634.0,870.0,153.0,60.0,-196.0,280.0
19:39:16.895000,-477.0,-288.0,2587.0,603.0,929.0,146.0,79.0,-178.0,288.0
19:39:16.900000,-494.0,-263.0,2593.0,589.0,954.0,153.0,79.0,-178.0,288.0
19:39:16.905000,-505.0,-238.0,2585.0,586.0,939.0,142.0,84.0,-177.0,286.0
19:39:16.910000,-520.0,-208.0,2548.0,573.0,957.0,124.0,84.0,-177.0,286.0
19:39:16.914000,-536.0,-178.0,2492.0,532.0,968.0,123.0,84.0,-177.0,286.0
19:39:16.919000,-550.0,-152.0,2447.0,480.0,962.0,118.0,85.0,-169.0,286.0
19:39:16.923000,-550.0,-152.0,2447.0,459.0,984.0,109.0,85.0,-169.0,286.0
19:39:16.928000,-576.0,-112.0,2438.0,472.0,984.0,116.0,96.0,-162.0,297.0
19:39:16.933000,-576.0,-112.0,2438.0,494.0,930.0,115.0,96.0,-162.0,297.0
19:39:16.938000,-578.0,-93.0,2421.0,503.0,961.0,100.0,132.0,-141.0,300.0
19:39:16.942000,-589.0,-78.0,2359.0,518.0,1014.0,97.0,132.0,-141.0,300.0
19:39:16.947000,-595.0,-60.0,2293.0,529.0,1032.0,99.0,132.0,-141.0,300.0
19:39:16.952000,-612.0,-52.0,2224.0,527.0,1082.0,99.0,133.0,-142.0,300.0
19:39:16.957000,-623.0,-46.0,2174.0,490.0,1073.0,87.0,133.0,-142.0,300.0
19:39:16.961000,-620.0,-41.0,2102.0,434.0,1048.0,72.0,148.0,-141.0,298.0
19:39:16.966000,-631.0,-37.0,2034.0,412.0,1070.0,63.0,148.0,-141.0,298.0
19:39:16.970000,-637.0,-32.0,1999.0,386.0,1036.0,56.0,148.0,-141.0,298.0
19:39:16.975000,-631.0,-35.0,1988.0,366.0,1024.0,58.0,162.0,-129.0,318.0
19:39:16.980000,-638.0,-41.0,1982.0,354.0,1050.0,52.0,162.0,-129.0,318.0
19:39:16.985000,-631.0,-45.0,1958.0,354.0,1050.0,52.0,157.0,-136.0,319.0
19:39:16.989000,-628.0,-62.0,1924.0,322.0,1067.0,45.0,157.0,-136.0,319.0
19:39:16.994000,-628.0,-75.0,1912.0,322.0,1067.0,45.0,157.0,-136.0,319.0
19:39:16.999000,-630.0,-93.0,1920.0,319.0,1049.0,41.0,174.0,-132.0,316.0
19:39:17.004000,-648.0,-114.0,1927.0,305.0,1005.0,58.0,174.0,-132.0,316.0
19:39:17.008000,-658.0,-126.0,1929.0,305.0,1035.0,55.0,183.0,-132.0,316.0
19:39:17.013000,-672.0,-139.0,1929.0,301.0,1009.0,35.0,183.0,-132.0,316.0
19:39:17.020000,-694.0,-141.0,1935.0,237.0,995.0,36.0,199.0,-123.0,343.0
19:39:17.022000,-694.0,-137.0,1943.0,237.0,995.0,36.0,199.0,-123.0,343.0
19:39:17.026000,-694.0,-137.0,1943.0,203.0,923.0,33.0,199.0,-123.0,343.0
19:39:17.032000,-721.0,-132.0,1944.0,179.0,932.0,30.0,201.0,-124.0,328.0
19:39:17.036000,-723.0,-121.0,1929.0,145.0,968.0,6.0,201.0,-124.0,328.0
19:39:17.041000,-723.0,-121.0,1929.0,89.0,932.0,13.0,220.0,-127.0,336.0
19:39:17.046000,-730.0,-112.0,1909.0,59.0,914.0,6.0,220.0,-127.0,336.0
19:39:17.050000,-725.0,-105.0,1873.0,35.0,926.0,-18.0,220.0,-127.0,336.0
19:39:17.055000,-716.0,-100.0,1833.0,6.0,888.0,-18.0,228.0,-123.0,336.0
19:39:17.060000,-706.0,-88.0,1787.0,-30.0,881.0,-28.0,228.0,-123.0,336.0
19:39:17.065000,-698.0,-83.0,1723.0,-70.0,907.0,-48.0,232.0,-126.0,345.0
19:39:17.069000,-685.0,-71.0,1659.0,-109.0,890.0,-58.0,232.0,-126.0,345.0
19:39:17.073000,-676.0,-60.0,1596.0,-146.0,912.0,-71.0,232.0,-126.0,345.0
19:39:17.079000,-676.0,-47.0,1540.0,-192.0,922.0,-92.0,247.0,-123.0,349.0
19:39:17.083000,-676.0,-30.0,1487.0,-247.0,917.0,-109.0,247.0,-123.0,349.0
19:39:17.088000,-683.0,-16.0,1437.0,-247.0,979.0,-109.0,249.0,-124.0,351.0
19:39:17.093000,-700.0,2.0,1374.0,-335.0,985.0,-126.0,249.0,-124.0,351.0
19:39:17.097000,-707.0,14.0,1309.0,-316.0,944.0,-139.0,249.0,-124.0,351.0
19:39:17.102000,-709.0,23.0,1245.0,-316.0,944.0,-139.0,274.0,-121.0,355.0
19:39:17.107000,-706.0,39.0,1174.0,-296.0,905.0,-159.0,274.0,-121.0,355.0
19:39:17.112000,-712.0,46.0,1108.0,-296.0,905.0,-159.0,256.0,-127.0,367.0
19:39:17.116000,-714.0,49.0,1058.0,-294.0,932.0,-168.0,256.0,-127.0,367.0
19:39:17.120000,-722.0,52.0,1004.0,-292.0,969.0,-168.0,256.0,-127.0,367.0
19:39:17.126000,-722.0,44.0,951.0,-275.0,935.0,-160.0,279.0,-121.0,363.0
19:39:17.130000,-727.0,35.0,910.0,-230.0,938.0,-170.0,279.0,-121.0,363.0
19:39:17.135000,-716.0,29.0,868.0,-187.0,926.0,-175.0,280.0,-132.0,366.0
19:39:17.140000,-712.0,18.0,820.0,-163.0,851.0,-173.0,280.0,-132.0,366.0
19:39:17.144000,-712.0,18.0,820.0,-155.0,865.0,-181.0,280.0,-132.0,366.0
19:39:17.149000,-704.0,17.0,774.0,-145.0,844.0,-181.0,294.0,-135.0,391.0
19:39:17.154000,-695.0,14.0,737.0,-134.0,795.0,-184.0,294.0,-135.0,391.0
19:39:17.159000,-689.0,5.0,706.0,-141.0,844.0,-190.0,294.0,-135.0,379.0
19:39:17.163000,-693.0,7.0,673.0,-152.0,835.0,-189.0,294.0,-135.0,379.0
19:39:17.167000,-688.0,7.0,641.0,-166.0,827.0,-198.0,294.0,-135.0,379.0
19:39:17.173000,-695.0,4.0,613.0,-181.0,900.0,-202.0,288.0,-132.0,378.0
19:39:17.177000,-703.0,13.0,583.0,-192.0,875.0,-199.0,288.0,-132.0,378.0
19:39:17.182000,-707.0,14.0,547.0,-210.0,870.0,-217.0,307.0,-138.0,382.0
19:39:17.187000,-713.0,18.0,511.0,-228.0,911.0,-220.0,307.0,-138.0,382.0
19:39:17.191000,-718.0,32.0,477.0,-234.0,850.0,-220.0,307.0,-138.0,382.0
19:39:17.196000,-715.0,34.0,453.0,-241.0,835.0,-240.0,306.0,-138.0,390.0
19:39:17.201000,-716.0,39.0,434.0,-246.0,839.0,-234.0,306.0,-138.0,390.0
19:39:17.206000,-709.0,46.0,405.0,-246.0,839.0,-234.0,297.0,-144.0,388.0
19:39:17.210000,-697.0,42.0,371.0,-240.0,795.0,-261.0,297.0,-144.0,388.0
19:39:17.214000,-686.0,40.0,340.0,-225.0,795.0,-261.0,297.0,-144.0,388.0
19:39:17.220000,-670.0,39.0,310.0,-212.0,801.0,-259.0,309.0,-150.0,393.0
19:39:17.224000,-649.0,30.0,286.0,-205.0,747.0,-261.0,309.0,-150.0,393.0
19:39:17.229000,-628.0,20.0,278.0,-194.0,744.0,-284.0,306.0,-144.0,403.0
19:39:17.234000,-604.0,13.0,263.0,-191.0,730.0,-274.0,306.0,-144.0,403.0
19:39:17.238000,-577.0,-7.0,257.0,-177.0,667.0,-267.0,306.0,-144.0,403.0
19:39:17.243000,-553.0,-28.0,266.0,-141.0,668.0,-281.0,307.0,-154.0,399.0
19:39:17.248000,-527.0,-42.0,266.0,-121.0,676.0,-271.0,307.0,-154.0,399.0
19:39:17.253000,-506.0,-61.0,266.0,-106.0,675.0,-274.0,312.0,-150.0,402.0
19:39:17.257000,-490.0,-74.0,274.0,-92.0,744.0,-290.0,312.0,-150.0,402.0
19:39:17.261000,-490.0,-74.0,274.0,-104.0,761.0,-278.0,312.0,-150.0,402.0
19:39:17.267000,-473.0,-81.0,266.0,-121.0,751.0,-277.0,316.0,-148.0,403.0
19:39:17.271000,-460.0,-95.0,245.0,-135.0,778.0,-289.0,316.0,-148.0,403.0
19:39:17.276000,-448.0,-103.0,226.0,-149.0,754.0,-284.0,310.0,-156.0,400.0
19:39:17.281000,-436.0,-103.0,212.0,-156.0,729.0,-292.0,310.0,-156.0,400.0
19:39:17.285000,-422.0,-112.0,207.0,-175.0,767.0,-302.0,310.0,-156.0,400.0
19:39:17.290000,-419.0,-114.0,209.0,-226.0,772.0,-295.0,316.0,-156.0,418.0
19:39:17.295000,-414.0,-109.0,195.0,-284.0,798.0,-300.0,316.0,-156.0,418.0
19:39:17.300000,-417.0,-112.0,175.0,-306.0,843.0,-304.0,310.0,-154.0,412.0
19:39:17.304000,-417.0,-113.0,169.0,-299.0,785.0,-289.0,310.0,-154.0,412.0
19:39:17.308000,-422.0,-114.0,172.0,-283.0,784.0,-293.0,310.0,-154.0,412.0
19:39:17.314000,-429.0,-118.0,172.0,-263.0,817.0,-300.0,313.0,-162.0,415.0
19:39:17.318000,-427.0,-121.0,184.0,-258.0,766.0,-296.0,313.0,-162.0,415.0
19:39:17.323000,-424.0,-121.0,195.0,-258.0,766.0,-296.0,315.0,-165.0,409.0
19:39:17.328000,-432.0,-125.0,195.0,-277.0,790.0,-299.0,315.0,-165.0,409.0
19:39:17.332000,-428.0,-125.0,197.0,-319.0,753.0,-287.0,313.0,-160.0,421.0
19:39:17.337000,-423.0,-123.0,191.0,-319.0,753.0,-287.0,313.0,-160.0,421.0
19:39:17.341000,-408.0,-122.0,177.0,-327.0,729.0,-296.0,313.0,-160.0,421.0
19:39:17.347000,-392.0,-116.0,167.0,-339.0,718.0,-312.0,310.0,-166.0,417.0
19:39:17.351000,-387.0,-103.0,151.0,-382.0,703.0,-309.0,310.0,-166.0,417.0
19:39:17.356000,-382.0,-91.0,126.0,-430.0,775.0,-318.0,319.0,-163.0,423.0
19:39:17.361000,-368.0,-79.0,103.0,-450.0,779.0,-319.0,319.0,-163.0,423.0
19:39:17.365000,-368.0,-79.0,103.0,-451.0,727.0,-320.0,319.0,-163.0,423.0
19:39:17.370000,-353.0,-70.0,74.0,-442.0,746.0,-337.0,321.0,-171.0,426.0
19:39:17.375000,-338.0,-62.0,42.0,-447.0,738.0,-343.0,321.0,-171.0,426.0
19:39:17.380000,-319.0,-51.0,10.0,-468.0,737.0,-350.0,316.0,-175.0,421.0
19:39:17.384000,-301.0,-42.0,-22.0,-488.0,786.0,-352.0,316.0,-175.0,421.0
19:39:17.388000,-289.0,-39.0,-56.0,-484.0,754.0,-345.0,316.0,-175.0,421.0
19:39:17.394000,-267.0,-37.0,-76.0,-450.0,708.0,-354.0,318.0,-175.0,429.0
19:39:17.398000,-247.0,-40.0,-78.0,-431.0,698.0,-356.0,318.0,-175.0,429.0
19:39:17.403000,-221.0,-40.0,-81.0,-447.0,690.0,-356.0,325.0,-174.0,436.0
19:39:17.408000,-204.0,-41.0,-89.0,-474.0,751.0,-356.0,325.0,-174.0,436.0
19:39:17.412000,-198.0,-44.0,-102.0,-490.0,787.0,-341.0,325.0,-174.0,436.0
19:39:17.417000,-196.0,-50.0,-106.0,-475.0,777.0,-341.0,315.0,-174.0,426.0
19:39:17.422000,-193.0,-56.0,-94.0,-447.0,771.0,-339.0,315.0,-174.0,426.0
19:39:17.427000,-192.0,-60.0,-78.0,-447.0,771.0,-339.0,321.0,-180.0,432.0
19:39:17.431000,-191.0,-63.0,-72.0,-433.0,736.0,-327.0,321.0,-180.0,432.0
19:39:17.435000,-198.0,-60.0,-77.0,-431.0,735.0,-333.0,321.0,-180.0,432.0
19:39:17.441000,-210.0,-56.0,-97.0,-458.0,748.0,-322.0,321.0,-180.0,426.0
19:39:17.445000,-217.0,-49.0,-114.0,-474.0,746.0,-327.0,321.0,-180.0,426.0
19:39:17.450000,-226.0,-39.0,-137.0,-476.0,752.0,-347.0,316.0,-171.0,427.0
19:39:17.455000,-233.0,-23.0,-166.0,-500.0,747.0,-348.0,316.0,-171.0,427.0
19:39:17.459000,-241.0,-5.0,-203.0,-530.0,750.0,-356.0,316.0,-171.0,427.0
19:39:17.464000,-257.0,11.0,-249.0,-569.0,769.0,-359.0,322.0,-183.0,429.0
19:39:17.469000,-270.0,26.0,-295.0,-598.0,785.0,-366.0,322.0,-183.0,429.0
19:39:17.474000,-283.0,37.0,-336.0,-601.0,785.0,-380.0,319.0,-186.0,433.0
19:39:17.478000,-283.0,37.0,-336.0,-588.0,779.0,-386.0,319.0,-186.0,433.0
19:39:17.482000,-288.0,44.0,-366.0,-570.0,769.0,-392.0,319.0,-186.0,433.0
19:39:17.488000,-291.0,47.0,-396.0,-565.0,752.0,-398.0,318.0,-187.0,430.0
19:39:17.492000,-292.0,49.0,-428.0,-577.0,755.0,-399.0,318.0,-187.0,430.0
19:39:17.497000,-296.0,54.0,-460.0,-589.0,767.0,-396.0,303.0,-189.0,436.0
19:39:17.502000,-299.0,57.0,-492.0,-595.0,768.0,-396.0,303.0,-189.0,436.0
19:39:17.506000,-305.0,64.0,-520.0,-602.0,758.0,-405.0,303.0,-189.0,436.0
19:39:17.511000,-306.0,74.0,-539.0,-617.0,753.0,-413.0,304.0,-184.0,433.0
19:39:17.516000,-311.0,84.0,-557.0,-640.0,762.0,-418.0,304.0,-184.0,433.0
19:39:17.521000,-316.0,95.0,-574.0,-664.0,780.0,-424.0,298.0,-180.0,426.0
19:39:17.525000,-322.0,109.0,-595.0,-688.0,796.0,-430.0,298.0,-180.0,426.0
19:39:17.529000,-328.0,125.0,-613.0,-707.0,807.0,-438.0,298.0,-180.0,426.0
19:39:17.535000,-335.0,143.0,-631.0,-719.0,810.0,-444.0,292.0,-186.0,439.0
19:39:17.539000,-342.0,161.0,-649.0,-719.0,841.0,-444.0,292.0,-186.0,439.0
19:39:17.544000,-353.0,177.0,-674.0,-728.0,814.0,-452.0,297.0,-192.0,442.0
19:39:17.549000,-370.0,191.0,-707.0,-737.0,828.0,-457.0,297.0,-192.0,442.0
19:39:17.556000,-392.0,200.0,-748.0,-734.0,865.0,-457.0,289.0,-198.0,447.0
19:39:17.558000,-415.0,203.0,-793.0,-734.0,865.0,-457.0,289.0,-198.0,447.0
19:39:17.562000,-440.0,196.0,-839.0,-698.0,871.0,-455.0,289.0,-198.0,447.0
19:39:17.568000,-459.0,185.0,-884.0,-652.0,864.0,-453.0,298.0,-193.0,448.0
19:39:17.572000,-476.0,170.0,-935.0,-609.0,860.0,-457.0,298.0,-193.0,448.0
19:39:17.577000,-491.0,150.0,-990.0,-583.0,867.0,-463.0,286.0,-201.0,444.0
19:39:17.582000,-508.0,131.0,-1050.0,-582.0,889.0,-463.0,286.0,-201.0,444.0
19:39:17.586000,-508.0,131.0,-1050.0,-602.0,910.0,-459.0,286.0,-201.0,444.0
19:39:17.591000,-529.0,115.0,-1101.0,-623.0,922.0,-455.0,277.0,-199.0,451.0
19:39:17.596000,-557.0,99.0,-1141.0,-621.0,902.0,-448.0,277.0,-199.0,451.0
19:39:17.600000,-583.0,82.0,-1161.0,-593.0,862.0,-446.0,267.0,-204.0,445.0
19:39:17.605000,-608.0,69.0,-1162.0,-561.0,823.0,-446.0,267.0,-204.0,445.0
19:39:17.609000,-631.0,60.0,-1148.0,-542.0,804.0,-454.0,267.0,-204.0,445.0
19:39:17.615000,-651.0,59.0,-1133.0,-561.0,833.0,-459.0,264.0,-196.0,445.0
19:39:17.619000,-681.0,64.0,-1121.0,-616.0,885.0,-456.0,264.0,-196.0,445.0
19:39:17.624000,-716.0,71.0,-1115.0,-687.0,947.0,-455.0,259.0,-202.0,451.0
19:39:17.629000,-762.0,82.0,-1115.0,-751.0,973.0,-443.0,259.0,-202.0,451.0
19:39:17.633000,-808.0,88.0,-1123.0,-788.0,958.0,-429.0,259.0,-202.0,451.0
19:39:17.638000,-851.0,90.0,-1141.0,-781.0,908.0,-420.0,258.0,-210.0,466.0
19:39:17.643000,-885.0,88.0,-1162.0,-736.0,845.0,-417.0,258.0,-210.0,466.0
19:39:17.647000,-909.0,88.0,-1192.0,-736.0,845.0,-417.0,259.0,-210.0,457.0
19:39:17.652000,-931.0,86.0,-1240.0,-692.0,812.0,-416.0,259.0,-210.0,457.0
19:39:17.656000,-953.0,83.0,-1295.0,-659.0,808.0,-416.0,259.0,-210.0,457.0
19:39:17.662000,-984.0,77.0,-1352.0,-634.0,835.0,-413.0,241.0,-223.0,457.0
19:39:17.666000,-1020.0,71.0,-1411.0,-621.0,868.0,-413.0,241.0,-223.0,457.0
19:39:17.671000,-1073.0,67.0,-1468.0,-625.0,904.0,-412.0,231.0,-219.0,469.0
19:39:17.676000,-1129.0,64.0,-1522.0,-646.0,940.0,-410.0,231.0,-219.0,469.0
19:39:17.680000,-1201.0,63.0,-1575.0,-684.0,986.0,-411.0,231.0,-219.0,469.0
19:39:17.685000,-1276.0,49.0,-1623.0,-724.0,1017.0,-404.0,234.0,-232.0,481.0
19:39:17.690000,-1348.0,31.0,-1667.0,-745.0,1019.0,-404.0,234.0,-232.0,481.0
19:39:17.694000,-1408.0,-1.0,-1698.0,-738.0,973.0,-406.0,226.0,-244.0,471.0
19:39:17.699000,-1408.0,-1.0,-1698.0,-706.0,893.0,-416.0,226.0,-244.0,471.0
19:39:17.703000,-1464.0,-35.0,-1709.0,-665.0,821.0,-437.0,226.0,-244.0,471.0
19:39:17.709000,-1504.0,-68.0,-1701.0,-643.0,783.0,-461.0,205.0,-243.0,477.0
19:39:17.713000,-1540.0,-103.0,-1691.0,-637.0,783.0,-477.0,205.0,-243.0,477.0
19:39:17.718000,-1577.0,-139.0,-1681.0,-645.0,774.0,-490.0,211.0,-261.0,486.0
19:39:17.723000,-1614.0,-176.0,-1688.0,-664.0,792.0,-498.0,211.0,-261.0,486.0
19:39:17.727000,-1667.0,-213.0,-1694.0,-664.0,790.0,-504.0,211.0,-261.0,486.0
19:39:17.732000,-1715.0,-259.0,-1683.0,-670.0,807.0,-508.0,210.0,-267.0,490.0
19:39:17.737000,-1784.0,-305.0,-1673.0,-675.0,838.0,-498.0,210.0,-267.0,490.0
19:39:17.741000,-1849.0,-358.0,-1664.0,-664.0,836.0,-496.0,208.0,-285.0,490.0
19:39:17.746000,-1924.0,-418.0,-1662.0,-648.0,853.0,-477.0,208.0,-285.0,490.0
19:39:17.750000,-2014.0,-483.0,-1668.0,-603.0,801.0,-477.0,208.0,-285.0,490.0
19:39:17.756000,-2083.0,-541.0,-1667.0,-579.0,780.0,-498.0,204.0,-303.0,498.0
19:39:17.760000,-2167.0,-578.0,-1692.0,-579.0,780.0,-498.0,204.0,-303.0,498.0
19:39:17.764000,-2241.0,-595.0,-1742.0,-625.0,773.0,-509.0,202.0,-316.0,505.0
19:39:17.770000,-2312.0,-606.0,-1788.0,-625.0,773.0,-509.0,202.0,-316.0,505.0
19:39:17.774000,-2396.0,-609.0,-1816.0,-705.0,826.0,-501.0,202.0,-316.0,505.0
19:39:17.779000,-2471.0,-612.0,-1811.0,-767.0,832.0,-480.0,205.0,-343.0,505.0
19:39:17.784000,-2547.0,-621.0,-1792.0,-770.0,770.0,-487.0,205.0,-343.0,505.0
19:39:17.788000,-2599.0,-627.0,-1772.0,-786.0,757.0,-476.0,213.0,-354.0,507.0
19:39:17.793000,-2586.0,-640.0,-1808.0,-813.0,682.0,-521.0,213.0,-354.0,507.0
19:39:17.797000,-2586.0,-640.0,-1808.0,-844.0,622.0,-558.0,213.0,-354.0,507.0
19:39:17.803000,-2631.0,-667.0,-1861.0,-857.0,570.0,-543.0,202.0,-375.0,505.0
19:39:17.807000,-2631.0,-667.0,-1861.0,-793.0,463.0,-566.0,202.0,-375.0,505.0
19:39:17.812000,-2667.0,-697.0,-1831.0,-794.0,476.0,-589.0,216.0,-385.0,513.0
19:39:17.817000,-2691.0,-704.0,-1850.0,-775.0,495.0,-662.0,216.0,-385.0,513.0
19:39:17.821000,-2655.0,-702.0,-1904.0,-712.0,480.0,-722.0,219.0,-408.0,508.0
19:39:17.826000,-2597.0,-731.0,-1936.0,-655.0,491.0,-756.0,219.0,-408.0,508.0
19:39:17.830000,-2554.0,-701.0,-1841.0,-604.0,525.0,-800.0,219.0,-408.0,508.0
19:39:17.835000,-2539.0,-672.0,-1799.0,-607.0,586.0,-794.0,210.0,-421.0,528.0
19:39:17.840000,-2538.0,-671.0,-1798.0,-586.0,620.0,-803.0,210.0,-421.0,528.0
19:39:17.845000,-2514.0,-690.0,-1864.0,-632.0,667.0,-831.0,223.0,-457.0,514.0
19:39:17.850000,-2481.0,-701.0,-2009.0,-698.0,666.0,-840.0,223.0,-457.0,514.0
19:39:17.854000,-2529.0,-719.0,-2048.0,-744.0,604.0,-816.0,223.0,-457.0,514.0
19:39:17.859000,-2584.0,-769.0,-1927.0,-810.0,607.0,-843.0,229.0,-477.0,511.0
19:39:17.864000,-2633.0,-788.0,-1801.0,-839.0,714.0,-881.0,229.0,-477.0,511.0
19:39:17.868000,-2639.0,-847.0,-1756.0,-839.0,714.0,-881.0,240.0,-495.0,504.0
19:39:17.873000,-2594.0,-849.0,-1794.0,-791.0,753.0,-938.0,240.0,-495.0,504.0
19:39:17.877000,-2538.0,-889.0,-1796.0,-724.0,681.0,-982.0,240.0,-495.0,504.0
19:39:17.882000,-2503.0,-935.0,-1749.0,-704.0,614.0,-968.0,253.0,-505.0,507.0
19:39:17.887000,-2449.0,-942.0,-1618.0,-664.0,578.0,-1025.0,253.0,-505.0,507.0
19:39:17.891000,-2399.0,-979.0,-1561.0,-656.0,570.0,-1043.0,259.0,-532.0,498.0
19:39:17.897000,-2381.0,-1019.0,-1612.0,-730.0,597.0,-1027.0,259.0,-532.0,498.0
19:39:17.901000,-2381.0,-1019.0,-1612.0,-735.0,627.0,-1058.0,259.0,-532.0,498.0
19:39:17.906000,-2284.0,-1056.0,-1519.0,-687.0,603.0,-1064.0,252.0,-538.0,493.0
19:39:17.911000,-2283.0,-1074.0,-1466.0,-729.0,553.0,-1040.0,252.0,-538.0,493.0
19:39:17.915000,-2283.0,-1074.0,-1466.0,-880.0,512.0,-1041.0,277.0,-567.0,462.0
19:39:17.920000,-2296.0,-1075.0,-1541.0,-848.0,404.0,-1046.0,277.0,-567.0,462.0
19:39:17.924000,-2281.0,-1121.0,-1576.0,-692.0,338.0,-1052.0,277.0,-567.0,462.0
19:39:17.929000,-2229.0,-1153.0,-1573.0,-677.0,349.0,-1085.0,300.0,-580.0,459.0
19:39:17.934000,-2183.0,-1152.0,-1562.0,-735.0,321.0,-1038.0,300.0,-580.0,459.0
19:39:17.939000,-2152.0,-1232.0,-1496.0,-687.0,324.0,-1010.0,298.0,-594.0,475.0
19:39:17.944000,-2084.0,-1236.0,-1376.0,-604.0,266.0,-1018.0,298.0,-594.0,475.0
19:39:17.948000,-2038.0,-1232.0,-1282.0,-610.0,144.0,-983.0,298.0,-594.0,475.0
19:39:17.953000,-2016.0,-1231.0,-1293.0,-557.0,-15.0,-965.0,316.0,-612.0,450.0
19:39:17.958000,-2002.0,-1229.0,-1337.0,-339.0,-167.0,-935.0,316.0,-612.0,450.0
19:39:17.962000,-1885.0,-1257.0,-1247.0,-216.0,-256.0,-917.0,318.0,-613.0,438.0
19:39:17.967000,-1764.0,-1233.0,-1246.0,-269.0,-343.0,-903.0,318.0,-613.0,438.0
19:39:17.971000,-1710.0,-1254.0,-1327.0,-183.0,-426.0,-839.0,318.0,-613.0,438.0
19:39:17.976000,-1670.0,-1313.0,-1358.0,-183.0,-552.0,-800.0,331.0,-615.0,432.0
19:39:17.981000,-1637.0,-1332.0,-1313.0,-92.0,-552.0,-800.0,331.0,-615.0,432.0
19:39:17.986000,-1561.0,-1358.0,-1300.0,-41.0,-644.0,-794.0,361.0,-637.0,418.0
19:39:17.991000,-1508.0,-1358.0,-1316.0,-63.0,-771.0,-765.0,361.0,-637.0,418.0
19:39:17.995000,-1453.0,-1361.0,-1314.0,-148.0,-893.0,-750.0,361.0,-637.0,418.0
19:39:18.000000,-1400.0,-1409.0,-1323.0,-126.0,-933.0,-724.0,372.0,-631.0,397.0
19:39:18.005000,-1353.0,-1419.0,-1298.0,-96.0,-913.0,-719.0,372.0,-631.0,397.0
19:39:18.009000,-1358.0,-1402.0,-1302.0,-93.0,-839.0,-740.0,382.0,-637.0,393.0
19:39:18.013000,-1358.0,-1402.0,-1302.0,-161.0,-749.0,-729.0,382.0,-637.0,393.0
19:39:18.018000,-1400.0,-1416.0,-1391.0,-161.0,-692.0,-737.0,382.0,-637.0,393.0
19:39:18.023000,-1479.0,-1380.0,-1588.0,-260.0,-651.0,-747.0,378.0,-642.0,396.0
19:39:18.028000,-1479.0,-1360.0,-1534.0,-422.0,-598.0,-756.0,378.0,-642.0,396.0
19:39:18.033000,-1520.0,-1330.0,-1653.0,-374.0,-605.0,-779.0,409.0,-648.0,370.0
19:39:18.038000,-1568.0,-1326.0,-1594.0,-311.0,-520.0,-803.0,409.0,-648.0,370.0
19:39:18.042000,-1552.0,-1337.0,-1575.0,-343.0,-356.0,-819.0,409.0,-648.0,370.0
19:39:18.047000,-1570.0,-1323.0,-1655.0,-366.0,-282.0,-781.0,424.0,-646.0,363.0
19:39:18.051000,-1625.0,-1369.0,-1677.0,-364.0,-315.0,-758.0,424.0,-646.0,363.0
19:39:18.056000,-1664.0,-1425.0,-1624.0,-421.0,-343.0,-816.0,436.0,-642.0,360.0
19:39:18.061000,-1619.0,-1420.0,-1634.0,-480.0,-400.0,-888.0,436.0,-642.0,360.0
19:39:18.066000,-1483.0,-1430.0,-1581.0,-429.0,-595.0,-895.0,475.0,-648.0,331.0
19:39:18.070000,-1356.0,-1484.0,-1379.0,-385.0,-796.0,-871.0,475.0,-648.0,331.0
19:39:18.075000,-1316.0,-1518.0,-1307.0,-375.0,-864.0,-867.0,475.0,-648.0,331.0
19:39:18.080000,-1295.0,-1545.0,-1292.0,-284.0,-718.0,-854.0,468.0,-645.0,322.0
19:39:18.085000,-1282.0,-1572.0,-1236.0,-287.0,-564.0,-839.0,468.0,-645.0,322.0
19:39:18.089000,-1257.0,-1592.0,-1218.0,-287.0,-564.0,-839.0,469.0,-640.0,301.0
19:39:18.094000,-1228.0,-1605.0,-1248.0,-400.0,-733.0,-795.0,469.0,-640.0,301.0
19:39:18.098000,-1188.0,-1612.0,-1222.0,-400.0,-733.0,-795.0,469.0,-640.0,301.0
19:39:18.103000,-1146.0,-1611.0,-1148.0,-223.0,-894.0,-785.0,480.0,-642.0,306.0
19:39:18.108000,-1098.0,-1614.0,-1138.0,-246.0,-921.0,-769.0,480.0,-642.0,306.0
19:39:18.113000,-1038.0,-1598.0,-1038.0,-319.0,-831.0,-773.0,498.0,-639.0,276.0
19:39:18.117000,-1076.0,-1587.0,-936.0,-305.0,-660.0,-747.0,498.0,-639.0,276.0
19:39:18.122000,-1076.0,-1587.0,-936.0,-454.0,-444.0,-714.0,498.0,-639.0,276.0
19:39:18.127000,-1098.0,-1561.0,-1080.0,-607.0,-474.0,-712.0,499.0,-636.0,267.0
19:39:18.132000,-977.0,-1556.0,-1264.0,-600.0,-690.0,-737.0,499.0,-636.0,267.0
19:39:18.136000,-977.0,-1556.0,-1264.0,-543.0,-800.0,-717.0,517.0,-639.0,243.0
19:39:18.141000,-914.0,-1565.0,-1321.0,-468.0,-876.0,-676.0,517.0,-639.0,243.0
19:39:18.145000,-870.0,-1568.0,-1185.0,-499.0,-783.0,-649.0,517.0,-639.0,243.0
19:39:18.150000,-899.0,-1555.0,-1173.0,-539.0,-533.0,-625.0,532.0,-627.0,229.0
19:39:18.155000,-935.0,-1516.0,-1136.0,-588.0,-294.0,-614.0,532.0,-627.0,229.0
19:39:18.160000,-969.0,-1498.0,-1145.0,-672.0,-192.0,-584.0,532.0,-624.0,217.0
19:39:18.164000,-960.0,-1501.0,-1113.0,-708.0,-281.0,-573.0,532.0,-624.0,217.0
19:39:18.169000,-949.0,-1491.0,-1005.0,-780.0,-379.0,-554.0,532.0,-624.0,217.0
19:39:18.174000,-958.0,-1481.0,-986.0,-805.0,-431.0,-541.0,538.0,-616.0,207.0
19:39:18.179000,-910.0,-1479.0,-1064.0,-679.0,-513.0,-536.0,538.0,-616.0,207.0
19:39:18.183000,-837.0,-1457.0,-998.0,-679.0,-513.0,-536.0,531.0,-616.0,207.0
19:39:18.188000,-782.0,-1423.0,-831.0,-593.0,-625.0,-474.0,531.0,-616.0,207.0
19:39:18.192000,-786.0,-1380.0,-750.0,-688.0,-527.0,-434.0,531.0,-616.0,207.0
19:39:18.197000,-819.0,-1330.0,-742.0,-688.0,-527.0,-434.0,546.0,-612.0,196.0
19:39:18.202000,-815.0,-1337.0,-737.0,-769.0,-434.0,-411.0,546.0,-612.0,196.0
19:39:18.207000,-779.0,-1313.0,-794.0,-852.0,-406.0,-410.0,555.0,-601.0,178.0
19:39:18.211000,-716.0,-1278.0,-819.0,-888.0,-429.0,-438.0,555.0,-601.0,178.0
19:39:18.216000,-704.0,-1226.0,-760.0,-837.0,-491.0,-415.0,555.0,-601.0,178.0
19:39:18.221000,-729.0,-1188.0,-672.0,-795.0,-491.0,-415.0,552.0,-601.0,189.0
19:39:18.226000,-750.0,-1187.0,-583.0,-829.0,-507.0,-398.0,552.0,-601.0,189.0
19:39:18.230000,-760.0,-1166.0,-573.0,-887.0,-463.0,-403.0,549.0,-600.0,153.0
19:39:18.235000,-741.0,-1140.0,-632.0,-922.0,-426.0,-416.0,549.0,-600.0,153.0
19:39:18.239000,-741.0,-1140.0,-632.0,-914.0,-483.0,-425.0,549.0,-600.0,153.0
19:39:18.244000,-707.0,-1108.0,-609.0,-915.0,-534.0,-424.0,561.0,-586.0,142.0
19:39:18.249000,-691.0,-1081.0,-594.0,-960.0,-496.0,-420.0,561.0,-586.0,142.0
19:39:18.254000,-683.0,-1045.0,-653.0,-950.0,-462.0,-430.0,559.0,-588.0,141.0
19:39:18.258000,-646.0,-1019.0,-676.0,-853.0,-494.0,-432.0,559.0,-588.0,141.0
19:39:18.263000,-612.0,-996.0,-613.0,-761.0,-490.0,-421.0,559.0,-588.0,141.0
19:39:18.268000,-589.0,-974.0,-566.0,-772.0,-413.0,-406.0,565.0,-582.0,130.0
19:39:18.273000,-560.0,-961.0,-606.0,-866.0,-391.0,-391.0,565.0,-582.0,130.0
19:39:18.277000,-549.0,-955.0,-641.0,-917.0,-454.0,-388.0,561.0,-573.0,130.0
19:39:18.282000,-518.0,-948.0,-595.0,-906.0,-479.0,-388.0,561.0,-573.0,130.0
19:39:18.286000,-494.0,-927.0,-570.0,-907.0,-449.0,-382.0,561.0,-573.0,130.0
19:39:18.291000,-487.0,-900.0,-590.0,-924.0,-439.0,-373.0,559.0,-574.0,106.0
19:39:18.296000,-455.0,-884.0,-616.0,-941.0,-478.0,-366.0,559.0,-574.0,106.0
19:39:18.300000,-410.0,-876.0,-605.0,-927.0,-541.0,-363.0,565.0,-570.0,105.0
19:39:18.305000,-383.0,-850.0,-534.0,-927.0,-541.0,-363.0,565.0,-570.0,105.0
19:39:18.309000,-391.0,-818.0,-523.0,-909.0,-511.0,-349.0,565.0,-570.0,105.0
19:39:18.315000,-410.0,-792.0,-618.0,-945.0,-393.0,-326.0,567.0,-561.0,93.0
19:39:18.320000,-417.0,-783.0,-605.0,-947.0,-354.0,-309.0,567.0,-561.0,93.0
19:39:18.324000,-427.0,-749.0,-560.0,-900.0,-396.0,-303.0,571.0,-568.0,97.0
19:39:18.329000,-406.0,-714.0,-563.0,-907.0,-412.0,-307.0,571.0,-568.0,97.0
19:39:18.333000,-375.0,-678.0,-609.0,-956.0,-422.0,-318.0,571.0,-568.0,97.0
19:39:18.338000,-365.0,-648.0,-651.0,-1002.0,-426.0,-323.0,570.0,-561.0,88.0
19:39:18.342000,-365.0,-648.0,-651.0,-1000.0,-438.0,-319.0,570.0,-561.0,88.0
19:39:18.348000,-323.0,-624.0,-597.0,-966.0,-443.0,-316.0,559.0,-550.0,82.0
19:39:18.352000,-323.0,-624.0,-597.0,-963.0,-421.0,-313.0,559.0,-550.0,82.0
19:39:18.357000,-294.0,-613.0,-646.0,-951.0,-439.0,-319.0,565.0,-544.0,76.0
19:39:18.362000,-266.0,-587.0,-654.0,-926.0,-457.0,-316.0,565.0,-544.0,76.0
19:39:18.366000,-229.0,-578.0,-659.0,-914.0,-424.0,-299.0,565.0,-544.0,76.0
19:39:18.371000,-198.0,-578.0,-680.0,-886.0,-416.0,-295.0,568.0,-543.0,73.0
19:39:18.376000,-170.0,-558.0,-630.0,-877.0,-448.0,-302.0,568.0,-543.0,73.0
19:39:18.381000,-146.0,-531.0,-532.0,-929.0,-410.0,-298.0,573.0,-529.0,75.0
19:39:18.385000,-134.0,-508.0,-541.0,-975.0,-296.0,-281.0,573.0,-529.0,75.0
19:39:18.389000,-111.0,-503.0,-630.0,-942.0,-255.0,-268.0,573.0,-529.0,75.0
19:39:18.395000,-95.0,-487.0,-646.0,-881.0,-303.0,-252.0,564.0,-534.0,75.0
19:39:18.399000,-90.0,-470.0,-576.0,-875.0,-331.0,-235.0,564.0,-534.0,75.0
19:39:18.404000,-98.0,-443.0,-514.0,-875.0,-331.0,-235.0,577.0,-534.0,61.0
19:39:18.409000,-109.0,-413.0,-533.0,-971.0,-270.0,-209.0,577.0,-534.0,61.0
19:39:18.413000,-115.0,-383.0,-599.0,-965.0,-257.0,-190.0,577.0,-534.0,61.0
19:39:18.418000,-124.0,-371.0,-601.0,-965.0,-257.0,-190.0,574.0,-531.0,60.0
19:39:18.423000,-168.0,-348.0,-522.0,-911.0,-263.0,-163.0,574.0,-531.0,60.0
19:39:18.427000,-197.0,-319.0,-478.0,-944.0,-222.0,-149.0,573.0,-525.0,70.0
19:39:18.432000,-191.0,-303.0,-538.0,-944.0,-222.0,-149.0,573.0,-525.0,70.0
19:39:18.436000,-176.0,-288.0,-606.0,-986.0,-229.0,-146.0,573.0,-525.0,70.0
19:39:18.441000,-181.0,-270.0,-557.0,-948.0,-279.0,-147.0,585.0,-513.0,51.0
19:39:18.446000,-172.0,-263.0,-484.0,-909.0,-300.0,-146.0,585.0,-513.0,51.0
19:39:18.451000,-166.0,-240.0,-490.0,-931.0,-244.0,-153.0,580.0,-511.0,49.0
19:39:18.456000,-162.0,-221.0,-522.0,-959.0,-195.0,-157.0,580.0,-511.0,49.0
19:39:18.460000,-162.0,-221.0,-522.0,-953.0,-187.0,-151.0,580.0,-511.0,49.0
19:39:18.465000,-154.0,-216.0,-532.0,-931.0,-196.0,-151.0,573.0,-507.0,60.0
19:39:18.470000,-159.0,-198.0,-530.0,-915.0,-212.0,-155.0,573.0,-507.0,60.0
19:39:18.475000,-154.0,-179.0,-518.0,-906.0,-231.0,-152.0,582.0,-511.0,51.0
19:39:18.479000,-142.0,-181.0,-485.0,-898.0,-228.0,-150.0,582.0,-511.0,51.0
19:39:18.483000,-138.0,-173.0,-488.0,-886.0,-203.0,-152.0,582.0,-511.0,51.0
19:39:18.489000,-124.0,-168.0,-483.0,-870.0,-208.0,-148.0,592.0,-504.0,51.0
19:39:18.493000,-112.0,-166.0,-413.0,-888.0,-216.0,-146.0,592.0,-504.0,51.0
19:39:18.498000,-116.0,-158.0,-408.0,-928.0,-192.0,-151.0,570.0,-493.0,42.0
19:39:18.503000,-119.0,-144.0,-476.0,-925.0,-186.0,-151.0,570.0,-493.0,42.0
19:39:18.507000,-102.0,-147.0,-485.0,-879.0,-206.0,-149.0,570.0,-493.0,42.0
19:39:18.512000,-99.0,-147.0,-416.0,-847.0,-198.0,-142.0,579.0,-496.0,48.0
19:39:18.517000,-103.0,-159.0,-366.0,-843.0,-157.0,-131.0,579.0,-496.0,48.0
19:39:18.522000,-119.0,-163.0,-361.0,-843.0,-157.0,-131.0,586.0,-487.0,46.0
19:39:18.526000,-121.0,-168.0,-357.0,-835.0,-135.0,-129.0,586.0,-487.0,46.0
19:39:18.530000,-112.0,-168.0,-366.0,-836.0,-135.0,-129.0,586.0,-487.0,46.0
19:39:18.536000,-103.0,-170.0,-399.0,-843.0,-128.0,-121.0,577.0,-498.0,43.0
19:39:18.540000,-111.0,-176.0,-401.0,-832.0,-123.0,-106.0,577.0,-498.0,43.0
19:39:18.545000,-133.0,-177.0,-345.0,-805.0,-119.0,-97.0,582.0,-489.0,48.0
19:39:18.550000,-147.0,-181.0,-293.0,-812.0,-80.0,-89.0,582.0,-489.0,48.0
19:39:18.554000,-172.0,-171.0,-259.0,-871.0,-48.0,-87.0,582.0,-489.0,48.0
19:39:18.559000,-191.0,-158.0,-250.0,-930.0,-45.0,-93.0,592.0,-481.0,43.0
19:39:18.564000,-196.0,-160.0,-283.0,-945.0,-32.0,-94.0,592.0,-481.0,43.0
19:39:18.569000,-217.0,-154.0,-278.0,-910.0,-39.0,-92.0,589.0,-487.0,37.0
19:39:18.573000,-217.0,-154.0,-278.0,-861.0,-73.0,-88.0,589.0,-487.0,37.0
19:39:18.577000,-237.0,-158.0,-203.0,-860.0,-68.0,-88.0,589.0,-487.0,37.0
19:39:18.583000,-254.0,-161.0,-186.0,-901.0,-32.0,-92.0,582.0,-478.0,46.0
19:39:18.587000,-252.0,-164.0,-221.0,-915.0,-46.0,-96.0,582.0,-478.0,46.0
19:39:18.592000,-254.0,-162.0,-209.0,-913.0,-98.0,-92.0,586.0,-477.0,40.0
19:39:18.597000,-266.0,-160.0,-167.0,-941.0,-112.0,-88.0,586.0,-477.0,40.0
19:39:18.604000,-240.0,-172.0,-187.0,-951.0,-126.0,-97.0,598.0,-486.0,37.0
19:39:18.606000,-240.0,-172.0,-187.0,-951.0,-126.0,-97.0,598.0,-486.0,37.0
19:39:18.610000,-241.0,-175.0,-191.0,-927.0,-137.0,-87.0,598.0,-486.0,37.0
19:39:18.616000,-254.0,-178.0,-157.0,-920.0,-131.0,-88.0,589.0,-481.0,37.0
19:39:18.620000,-245.0,-182.0,-132.0,-943.0,-139.0,-92.0,589.0,-481.0,37.0
19:39:18.625000,-233.0,-190.0,-147.0,-943.0,-139.0,-92.0,589.0,-463.0,37.0
19:39:18.630000,-222.0,-209.0,-181.0,-897.0,-167.0,-80.0,589.0,-463.0,37.0
19:39:18.634000,-210.0,-220.0,-181.0,-897.0,-167.0,-80.0,589.0,-463.0,37.0
19:39:18.639000,-202.0,-235.0,-160.0,-871.0,-180.0,-79.0,594.0,-478.0,36.0
19:39:18.644000,-193.0,-247.0,-168.0,-908.0,-149.0,-80.0,594.0,-478.0,36.0
19:39:18.648000,-191.0,-254.0,-172.0,-908.0,-149.0,-80.0,589.0,-471.0,37.0
19:39:18.653000,-185.0,-261.0,-135.0,-917.0,-156.0,-78.0,589.0,-471.0,37.0
19:39:18.657000,-179.0,-265.0,-121.0,-932.0,-150.0,-75.0,589.0,-471.0,37.0
19:39:18.663000,-186.0,-260.0,-164.0,-958.0,-112.0,-71.0,589.0,-468.0,27.0
19:39:18.667000,-197.0,-245.0,-197.0,-959.0,-89.0,-70.0,589.0,-468.0,27.0
19:39:18.672000,-196.0,-247.0,-204.0,-948.0,-95.0,-62.0,591.0,-474.0,16.0
19:39:18.677000,-196.0,-246.0,-172.0,-940.0,-119.0,-55.0,591.0,-474.0,16.0
19:39:18.681000,-196.0,-246.0,-172.0,-936.0,-148.0,-54.0,591.0,-474.0,16.0
19:39:18.686000,-212.0,-231.0,-123.0,-967.0,-134.0,-51.0,595.0,-472.0,24.0
19:39:18.690000,-230.0,-217.0,-117.0,-1003.0,-97.0,-51.0,595.0,-472.0,24.0
19:39:18.695000,-245.0,-201.0,-143.0,-1001.0,-83.0,-45.0,592.0,-465.0,31.0
19:39:18.700000,-261.0,-191.0,-152.0,-977.0,-84.0,-42.0,592.0,-465.0,31.0
19:39:18.704000,-268.0,-178.0,-156.0,-960.0,-84.0,-43.0,592.0,-465.0,31.0
19:39:18.710000,-273.0,-168.0,-170.0,-961.0,-79.0,-38.0,589.0,-469.0,22.0
19:39:18.714000,-270.0,-158.0,-184.0,-974.0,-82.0,-35.0,589.0,-469.0,22.0
19:39:18.719000,-274.0,-145.0,-153.0,-1004.0,-99.0,-36.0,582.0,-460.0,25.0
19:39:18.724000,-285.0,-130.0,-119.0,-1032.0,-97.0,-39.0,582.0,-460.0,25.0
19:39:18.728000,-291.0,-116.0,-121.0,-1035.0,-79.0,-42.0,582.0,-460.0,25.0
19:39:18.733000,-285.0,-104.0,-142.0,-1016.0,-71.0,-43.0,589.0,-472.0,21.0
19:39:18.738000,-284.0,-88.0,-158.0,-991.0,-82.0,-41.0,589.0,-472.0,21.0
19:39:18.742000,-289.0,-73.0,-130.0,-991.0,-82.0,-41.0,595.0,-457.0,18.0
19:39:18.747000,-302.0,-56.0,-73.0,-988.0,-95.0,-40.0,595.0,-457.0,18.0
19:39:18.751000,-315.0,-32.0,-55.0,-1019.0,-86.0,-46.0,595.0,-457.0,18.0
19:39:18.757000,-331.0,-16.0,-102.0,-1051.0,-49.0,-54.0,583.0,-465.0,22.0
19:39:18.761000,-344.0,-3.0,-137.0,-1040.0,-16.0,-57.0,583.0,-465.0,22.0
19:39:18.766000,-358.0,4.0,-112.0,-996.0,-29.0,-60.0,598.0,-460.0,15.0
19:39:18.771000,-366.0,15.0,-102.0,-981.0,-47.0,-67.0,598.0,-460.0,15.0
19:39:18.775000,-374.0,29.0,-154.0,-1004.0,-28.0,-79.0,598.0,-460.0,15.0
19:39:18.780000,-382.0,34.0,-154.0,-1001.0,-21.0,-88.0,594.0,-453.0,21.0
19:39:18.785000,-398.0,33.0,-60.0,-968.0,-54.0,-92.0,594.0,-453.0,21.0
19:39:18.789000,-398.0,33.0,-60.0,-969.0,-68.0,-97.0,582.0,-456.0,36.0
19:39:18.794000,-411.0,34.0,1.0,-1007.0,-22.0,-105.0,582.0,-456.0,36.0
19:39:18.798000,-422.0,37.0,-46.0,-1016.0,20.0,-108.0,582.0,-456.0,36.0
19:39:18.804000,-433.0,32.0,-87.0,-984.0,13.0,-107.0,601.0,-460.0,24.0
19:39:18.808000,-450.0,32.0,-51.0,-974.0,5.0,-106.0,601.0,-460.0,24.0
19:39:18.813000,-473.0,30.0,-18.0,-999.0,20.0,-103.0,600.0,-451.0,24.0
19:39:18.818000,-500.0,26.0,-31.0,-1002.0,28.0,-98.0,600.0,-451.0,24.0
19:39:18.822000,-527.0,19.0,-23.0,-972.0,22.0,-94.0,600.0,-451.0,24.0
19:39:18.827000,-562.0,14.0,33.0,-962.0,26.0,-91.0,600.0,-451.0,16.0
19:39:18.832000,-603.0,12.0,66.0,-979.0,47.0,-90.0,600.0,-451.0,16.0
19:39:18.836000,-638.0,8.0,46.0,-990.0,61.0,-91.0,594.0,-438.0,12.0
19:39:18.841000,-678.0,5.0,16.0,-996.0,61.0,-93.0,594.0,-438.0,12.0
19:39:18.845000,-723.0,6.0,-11.0,-1008.0,59.0,-92.0,594.0,-438.0,12.0
19:39:18.851000,-771.0,5.0,-24.0,-1028.0,69.0,-87.0,604.0,-451.0,18.0
19:39:18.855000,-816.0,1.0,-46.0,-1028.0,69.0,-87.0,604.0,-451.0,18.0
19:39:18.860000,-866.0,-7.0,-56.0,-1044.0,83.0,-77.0,595.0,-445.0,21.0
19:39:18.865000,-922.0,-15.0,-56.0,-1045.0,79.0,-68.0,595.0,-445.0,21.0
19:39:18.869000,-975.0,-30.0,-81.0,-1039.0,78.0,-62.0,595.0,-445.0,21.0
19:39:18.874000,-1029.0,-45.0,-108.0,-1017.0,79.0,-59.0,603.0,-433.0,19.0
19:39:18.879000,-1083.0,-62.0,-102.0,-981.0,68.0,-57.0,603.0,-433.0,19.0
19:39:18.883000,-1134.0,-86.0,-99.0,-962.0,66.0,-54.0,597.0,-441.0,13.0
19:39:18.888000,-1187.0,-118.0,-111.0,-970.0,84.0,-50.0,597.0,-441.0,13.0
19:39:18.892000,-1187.0,-118.0,-111.0,-979.0,105.0,-46.0,597.0,-441.0,13.0
19:39:18.898000,-1319.0,-197.0,-131.0,-980.0,126.0,-40.0,597.0,-433.0,15.0
19:39:18.902000,-1319.0,-197.0,-131.0,-976.0,148.0,-35.0,597.0,-433.0,15.0
19:39:18.907000,-1378.0,-250.0,-137.0,-965.0,159.0,-27.0,607.0,-439.0,7.0
19:39:18.912000,-1440.0,-307.0,-137.0,-949.0,155.0,-22.0,607.0,-439.0,7.0
19:39:18.916000,-1500.0,-368.0,-134.0,-944.0,155.0,-17.0,607.0,-439.0,7.0
19:39:18.921000,-1559.0,-435.0,-143.0,-942.0,163.0,-8.0,597.0,-418.0,10.0
19:39:18.926000,-1621.0,-501.0,-153.0,-929.0,172.0,2.0,597.0,-418.0,10.0
19:39:18.930000,-1688.0,-574.0,-159.0,-913.0,188.0,16.0,606.0,-412.0,9.0
19:39:18.935000,-1752.0,-651.0,-158.0,-903.0,210.0,29.0,606.0,-412.0,9.0
19:39:18.939000,-1827.0,-727.0,-153.0,-902.0,240.0,44.0,606.0,-412.0,9.0
19:39:18.945000,-1910.0,-812.0,-158.0,-892.0,265.0,65.0,600.0,-414.0,3.0
19:39:18.949000,-1995.0,-907.0,-147.0,-875.0,282.0,87.0,600.0,-414.0,3.0
19:39:18.954000,-2090.0,-1003.0,-128.0,-875.0,282.0,87.0,588.0,-394.0,-10.0
19:39:18.959000,-2191.0,-1106.0,-134.0,-868.0,309.0,143.0,588.0,-394.0,-10.0
19:39:18.966000,-2282.0,-1213.0,-142.0,-849.0,292.0,168.0,589.0,-387.0,-9.0
19:39:18.968000,-2380.0,-1318.0,-135.0,-849.0,292.0,168.0,589.0,-387.0,-9.0
19:39:18.972000,-2481.0,-1423.0,-129.0,-840.0,283.0,201.0,589.0,-387.0,-9.0
19:39:18.977000,-2585.0,-1528.0,-124.0,-832.0,286.0,238.0,579.0,-366.0,-12.0
19:39:18.982000,-2695.0,-1631.0,-127.0,-820.0,298.0,277.0,579.0,-366.0,-12.0
19:39:18.987000,-2809.0,-1726.0,-131.0,-807.0,314.0,313.0,583.0,-357.0,-36.0
19:39:18.992000,-2922.0,-1818.0,-144.0,-807.0,327.0,355.0,583.0,-357.0,-36.0
19:39:18.996000,-2922.0,-1818.0,-144.0,-821.0,334.0,406.0,583.0,-357.0,-36.0
19:39:19.001000,-3132.0,-1981.0,-194.0,-820.0,321.0,455.0,571.0,-345.0,-33.0
19:39:19.006000,-3227.0,-2042.0,-232.0,-809.0,294.0,497.0,571.0,-345.0,-33.0
19:39:19.010000,-3227.0,-2042.0,-232.0,-812.0,260.0,538.0,564.0,-342.0,-39.0
19:39:19.015000,-3313.0,-2104.0,-277.0,-824.0,243.0,580.0,564.0,-342.0,-39.0
19:39:19.019000,-3390.0,-2161.0,-352.0,-825.0,250.0,620.0,564.0,-342.0,-39.0
19:39:19.024000,-3470.0,-2213.0,-438.0,-813.0,247.0,656.0,547.0,-301.0,-52.0
19:39:19.029000,-3539.0,-2262.0,-478.0,-818.0,242.0,691.0,547.0,-301.0,-52.0
19:39:19.034000,-3612.0,-2300.0,-513.0,-855.0,260.0,727.0,531.0,-279.0,-57.0
19:39:19.039000,-3680.0,-2331.0,-588.0,-887.0,276.0,762.0,531.0,-279.0,-57.0
19:39:19.043000,-3735.0,-2358.0,-673.0,-900.0,274.0,794.0,531.0,-279.0,-57.0
19:39:19.048000,-3782.0,-2381.0,-739.0,-911.0,274.0,822.0,534.0,-253.0,-67.0
19:39:19.053000,-3830.0,-2396.0,-809.0,-917.0,268.0,847.0,534.0,-253.0,-67.0
19:39:19.057000,-3869.0,-2412.0,-863.0,-917.0,250.0,847.0,514.0,-235.0,-61.0
19:39:19.062000,-3885.0,-2432.0,-911.0,-876.0,220.0,874.0,514.0,-235.0,-61.0
19:39:19.066000,-3892.0,-2447.0,-934.0,-854.0,207.0,884.0,514.0,-235.0,-61.0
19:39:19.071000,-3906.0,-2468.0,-955.0,-854.0,207.0,884.0,490.0,-216.0,-66.0
19:39:19.076000,-3913.0,-2488.0,-984.0,-838.0,229.0,893.0,490.0,-216.0,-66.0
19:39:19.081000,-3913.0,-2506.0,-1017.0,-820.0,255.0,896.0,480.0,-195.0,-67.0
19:39:19.086000,-3904.0,-2525.0,-1028.0,-795.0,259.0,903.0,480.0,-195.0,-67.0
19:39:19.090000,-3888.0,-2540.0,-994.0,-771.0,238.0,909.0,480.0,-195.0,-67.0
19:39:19.095000,-3876.0,-2554.0,-989.0,-773.0,238.0,912.0,466.0,-169.0,-52.0
19:39:19.100000,-3868.0,-2563.0,-1013.0,-779.0,263.0,914.0,466.0,-169.0,-52.0
19:39:19.104000,-3846.0,-2562.0,-988.0,-749.0,280.0,908.0,435.0,-124.0,-27.0
19:39:19.109000,-3822.0,-2557.0,-918.0,-719.0,268.0,905.0,435.0,-124.0,-27.0
19:39:19.113000,-3822.0,-2557.0,-918.0,-734.0,245.0,901.0,435.0,-124.0,-27.0
19:39:19.118000,-3784.0,-2543.0,-871.0,-767.0,233.0,893.0,421.0,-118.0,-22.0
19:39:19.123000,-3737.0,-2522.0,-845.0,-778.0,215.0,887.0,421.0,-118.0,-22.0
19:39:19.128000,-3682.0,-2491.0,-819.0,-774.0,208.0,880.0,406.0,-93.0,-9.0
19:39:19.133000,-3626.0,-2447.0,-787.0,-782.0,210.0,879.0,406.0,-93.0,-9.0
19:39:19.137000,-3562.0,-2402.0,-761.0,-806.0,203.0,874.0,406.0,-93.0,-9.0
19:39:19.141000,-3489.0,-2349.0,-756.0,-822.0,187.0,853.0,379.0,-76.0,19.0
19:39:19.147000,-3402.0,-2281.0,-751.0,-832.0,167.0,830.0,379.0,-76.0,19.0
19:39:19.151000,-3315.0,-2204.0,-740.0,-856.0,166.0,808.0,376.0,-64.0,21.0
19:39:19.156000,-3228.0,-2116.0,-740.0,-892.0,198.0,783.0,376.0,-64.0,21.0
19:39:19.160000,-3140.0,-2030.0,-756.0,-927.0,239.0,756.0,376.0,-64.0,21.0
19:39:19.165000,-3058.0,-1941.0,-766.0,-945.0,266.0,722.0,357.0,-52.0,28.0
19:39:19.170000,-2968.0,-1854.0,-764.0,-953.0,279.0,689.0,357.0,-52.0,28.0
19:39:19.174000,-2875.0,-1773.0,-756.0,-962.0,307.0,655.0,339.0,-25.0,70.0
19:39:19.180000,-2784.0,-1696.0,-765.0,-962.0,360.0,621.0,339.0,-25.0,70.0
19:39:19.184000,-2699.0,-1624.0,-782.0,-951.0,360.0,621.0,339.0,-25.0,70.0
19:39:19.189000,-2624.0,-1566.0,-780.0,-920.0,418.0,603.0,340.0,-13.0,76.0
19:39:19.194000,-2550.0,-1519.0,-749.0,-874.0,465.0,591.0,340.0,-13.0,76.0
19:39:19.198000,-2474.0,-1485.0,-695.0,-804.0,481.0,580.0,324.0,-15.0,88.0
19:39:19.203000,-2389.0,-1448.0,-632.0,-733.0,464.0,562.0,324.0,-15.0,88.0
19:39:19.207000,-2296.0,-1411.0,-563.0,-682.0,433.0,534.0,324.0,-15.0,88.0
19:39:19.212000,-2201.0,-1374.0,-504.0,-669.0,415.0,510.0,315.0,-6.0,109.0
19:39:19.217000,-2201.0,-1374.0,-504.0,-690.0,432.0,481.0,315.0,-6.0,109.0
19:39:19.222000,-1999.0,-1283.0,-445.0,-730.0,464.0,447.0,315.0,-1.0,112.0
19:39:19.227000,-1901.0,-1236.0,-432.0,-764.0,493.0,418.0,315.0,-1.0,112.0
19:39:19.231000,-1901.0,-1236.0,-432.0,-778.0,501.0,392.0,309.0,1.0,126.0
19:39:19.236000,-1806.0,-1184.0,-415.0,-771.0,488.0,369.0,309.0,1.0,126.0
19:39:19.240000,-1712.0,-1139.0,-390.0,-750.0,479.0,348.0,309.0,1.0,126.0
19:39:19.245000,-1622.0,-1099.0,-373.0,-720.0,485.0,330.0,303.0,6.0,144.0
19:39:19.250000,-1538.0,-1059.0,-359.0,-686.0,504.0,316.0,303.0,6.0,144.0
19:39:19.255000,-1462.0,-1026.0,-338.0,-657.0,530.0,314.0,294.0,12.0,171.0
19:39:19.259000,-1395.0,-1001.0,-307.0,-634.0,553.0,315.0,294.0,12.0,171.0
