hh:mm:ss.ms,gyroX[mdps],gyroY[mdps],gyroZ[mdps],accX[mg],accY[mg],accZ[mg],magX[mG],magY[mG],magZ[mG]
19:39:06.551000,-879.0,-275.0,2069.0,-25.0,-174.0,-166.0,417.0,-657.0,358.0
19:39:06.556000,-907.0,-282.0,2150.0,-22.0,-193.0,-155.0,417.0,-657.0,358.0
19:39:06.560000,-924.0,-298.0,2258.0,-25.0,-248.0,-145.0,378.0,-673.0,360.0
19:39:06.566000,-944.0,-307.0,2387.0,-37.0,-330.0,-132.0,378.0,-673.0,360.0
19:39:06.570000,-968.0,-316.0,2530.0,-49.0,-424.0,-109.0,378.0,-673.0,360.0
19:39:06.575000,-988.0,-326.0,2680.0,-29.0,-468.0,-86.0,378.0,-673.0,360.0
19:39:06.579000,-993.0,-339.0,2804.0,20.0,-460.0,-63.0,378.0,-673.0,360.0
19:39:06.584000,-1009.0,-359.0,2895.0,70.0,-455.0,-38.0,363.0,-687.0,330.0
19:39:06.589000,-1022.0,-378.0,3005.0,114.0,-454.0,-17.0,363.0,-687.0,330.0
19:39:06.594000,-1056.0,-385.0,3139.0,114.0,-454.0,-17.0,354.0,-696.0,324.0
19:39:06.598000,-1103.0,-398.0,3223.0,143.0,-409.0,18.0,354.0,-696.0,324.0
19:39:06.606000,-1151.0,-417.0,3259.0,203.0,-347.0,81.0,331.0,-693.0,321.0
19:39:06.608000,-1192.0,-429.0,3234.0,203.0,-347.0,81.0,331.0,-693.0,321.0
19:39:06.612000,-1223.0,-440.0,3174.0,256.0,-371.0,105.0,331.0,-693.0,321.0
19:39:06.617000,-1227.0,-461.0,3174.0,314.0,-440.0,134.0,292.0,-697.0,307.0
19:39:06.622000,-1246.0,-478.0,3210.0,346.0,-524.0,170.0,292.0,-697.0,307.0
19:39:06.627000,-1223.0,-497.0,3197.0,361.0,-528.0,197.0,294.0,-702.0,306.0
19:39:06.631000,-1209.0,-491.0,3138.0,348.0,-496.0,213.0,294.0,-702.0,306.0
19:39:06.635000,-1209.0,-491.0,3138.0,318.0,-516.0,227.0,294.0,-702.0,306.0
19:39:06.641000,-1178.0,-466.0,3096.0,294.0,-540.0,237.0,264.0,-705.0,292.0
19:39:06.645000,-1178.0,-466.0,3096.0,277.0,-604.0,255.0,264.0,-705.0,292.0
19:39:06.650000,-1223.0,-432.0,3179.0,215.0,-642.0,261.0,253.0,-708.0,291.0
19:39:06.655000,-1185.0,-427.0,3208.0,149.0,-585.0,263.0,253.0,-708.0,291.0
19:39:06.659000,-1182.0,-419.0,3133.0,145.0,-566.0,269.0,253.0,-708.0,291.0
19:39:06.664000,-1170.0,-404.0,3124.0,183.0,-556.0,274.0,214.0,-697.0,274.0
19:39:06.669000,-1171.0,-382.0,3230.0,193.0,-499.0,286.0,214.0,-697.0,274.0
19:39:06.674000,-1171.0,-358.0,3363.0,179.0,-490.0,303.0,207.0,-691.0,279.0
19:39:06.678000,-1218.0,-320.0,3474.0,202.0,-512.0,304.0,207.0,-691.0,279.0
19:39:06.682000,-1225.0,-304.0,3588.0,302.0,-501.0,297.0,207.0,-691.0,279.0
19:39:06.688000,-1211.0,-289.0,3733.0,459.0,-472.0,306.0,178.0,-681.0,255.0
19:39:06.692000,-1195.0,-277.0,3841.0,570.0,-421.0,320.0,178.0,-681.0,255.0
19:39:06.697000,-1229.0,-252.0,3823.0,570.0,-421.0,320.0,172.0,-673.0,253.0
19:39:06.702000,-1275.0,-227.0,3773.0,752.0,-383.0,355.0,172.0,-673.0,253.0
19:39:06.706000,-1340.0,-201.0,3835.0,854.0,-465.0,357.0,172.0,-673.0,253.0
19:39:06.711000,-1353.0,-205.0,4043.0,854.0,-465.0,357.0,150.0,-678.0,253.0
19:39:06.716000,-1384.0,-217.0,4254.0,893.0,-454.0,374.0,150.0,-678.0,253.0
19:39:06.721000,-1454.0,-213.0,4363.0,866.0,-440.0,414.0,133.0,-661.0,247.0
19:39:06.725000,-1425.0,-241.0,4328.0,918.0,-467.0,448.0,133.0,-661.0,247.0
19:39:06.729000,-1432.0,-277.0,4286.0,1116.0,-530.0,496.0,133.0,-661.0,247.0
19:39:06.735000,-1439.0,-290.0,4391.0,1392.0,-658.0,545.0,106.0,-640.0,247.0
19:39:06.739000,-1505.0,-323.0,4418.0,1551.0,-710.0,589.0,106.0,-640.0,247.0
19:39:06.744000,-1582.0,-341.0,4291.0,1614.0,-665.0,633.0,88.0,-622.0,235.0
19:39:06.749000,-1577.0,-340.0,4144.0,1714.0,-624.0,641.0,88.0,-622.0,235.0
19:39:06.753000,-1577.0,-340.0,4144.0,1804.0,-673.0,656.0,88.0,-622.0,235.0
19:39:06.758000,-1613.0,-327.0,4015.0,1828.0,-718.0,686.0,84.0,-613.0,231.0
19:39:06.763000,-1603.0,-344.0,3889.0,1790.0,-778.0,710.0,84.0,-613.0,231.0
19:39:06.768000,-1652.0,-344.0,3807.0,1750.0,-793.0,727.0,73.0,-595.0,226.0
19:39:06.772000,-1664.0,-333.0,3612.0,1700.0,-735.0,708.0,73.0,-595.0,226.0
19:39:06.776000,-1507.0,-336.0,3430.0,1680.0,-783.0,710.0,73.0,-595.0,226.0
19:39:06.782000,-1497.0,-307.0,3450.0,1686.0,-839.0,726.0,66.0,-595.0,229.0
19:39:06.786000,-1457.0,-285.0,3558.0,1717.0,-808.0,726.0,66.0,-595.0,229.0
19:39:06.791000,-1444.0,-284.0,3655.0,1744.0,-743.0,731.0,54.0,-583.0,226.0
19:39:06.796000,-1423.0,-266.0,3602.0,1694.0,-714.0,718.0,54.0,-583.0,226.0
19:39:06.800000,-1360.0,-253.0,3496.0,1616.0,-721.0,721.0,54.0,-583.0,226.0
19:39:06.805000,-1317.0,-247.0,3504.0,1580.0,-722.0,734.0,54.0,-577.0,226.0
19:39:06.810000,-1345.0,-225.0,3607.0,1617.0,-702.0,732.0,54.0,-577.0,226.0
19:39:06.815000,-1365.0,-213.0,3640.0,1617.0,-702.0,732.0,40.0,-561.0,217.0
19:39:06.819000,-1387.0,-193.0,3594.0,1825.0,-685.0,713.0,40.0,-561.0,217.0
19:39:06.823000,-1365.0,-189.0,3558.0,1825.0,-685.0,713.0,40.0,-561.0,217.0
19:39:06.829000,-1311.0,-204.0,3591.0,1956.0,-589.0,716.0,22.0,-547.0,223.0
19:39:06.833000,-1336.0,-219.0,3662.0,2060.0,-529.0,739.0,22.0,-547.0,223.0
19:39:06.838000,-1356.0,-224.0,3759.0,2058.0,-560.0,739.0,39.0,-534.0,216.0
19:39:06.843000,-1341.0,-259.0,3796.0,1977.0,-554.0,725.0,39.0,-534.0,216.0
19:39:06.847000,-1326.0,-282.0,3633.0,1948.0,-402.0,717.0,39.0,-534.0,216.0
19:39:06.852000,-1334.0,-289.0,3473.0,2063.0,-279.0,712.0,25.0,-531.0,226.0
19:39:06.857000,-1323.0,-308.0,3431.0,2169.0,-282.0,720.0,25.0,-531.0,226.0
19:39:06.861000,-1323.0,-308.0,3431.0,2196.0,-316.0,726.0,16.0,-525.0,210.0
19:39:06.866000,-1336.0,-321.0,3439.0,2206.0,-384.0,729.0,16.0,-525.0,210.0
19:39:06.870000,-1324.0,-360.0,3460.0,2220.0,-431.0,713.0,16.0,-525.0,210.0
19:39:06.876000,-1292.0,-369.0,3430.0,2174.0,-421.0,699.0,-1.0,-504.0,232.0
19:39:06.880000,-1287.0,-375.0,3309.0,2049.0,-401.0,701.0,-1.0,-504.0,232.0
19:39:06.885000,-1246.0,-403.0,3186.0,2017.0,-399.0,683.0,16.0,-481.0,217.0
19:39:06.890000,-1240.0,-407.0,3220.0,2048.0,-445.0,647.0,16.0,-481.0,217.0
19:39:06.894000,-1189.0,-410.0,3399.0,1992.0,-385.0,622.0,16.0,-481.0,217.0
19:39:06.899000,-1138.0,-443.0,3535.0,1903.0,-212.0,625.0,12.0,-466.0,211.0
19:39:06.903000,-1131.0,-496.0,3565.0,1843.0,-106.0,604.0,12.0,-466.0,211.0
19:39:06.909000,-1143.0,-494.0,3581.0,1755.0,-127.0,573.0,-1.0,-472.0,228.0
19:39:06.913000,-1141.0,-500.0,3609.0,1662.0,-205.0,566.0,-1.0,-472.0,228.0
19:39:06.918000,-1132.0,-513.0,3663.0,1662.0,-205.0,566.0,-7.0,-451.0,217.0
19:39:06.923000,-1095.0,-548.0,3761.0,1802.0,-270.0,545.0,-7.0,-451.0,217.0
19:39:06.927000,-1088.0,-555.0,3901.0,1802.0,-270.0,545.0,-7.0,-451.0,217.0
19:39:06.932000,-1128.0,-535.0,4027.0,1885.0,-238.0,525.0,-15.0,-435.0,228.0
19:39:06.937000,-1137.0,-539.0,4029.0,1861.0,-141.0,516.0,-15.0,-435.0,228.0
19:39:06.942000,-1116.0,-517.0,3952.0,1769.0,-87.0,506.0,-4.0,-421.0,220.0
19:39:06.946000,-1087.0,-480.0,3899.0,1673.0,-114.0,486.0,-4.0,-421.0,220.0
19:39:06.950000,-1066.0,-459.0,3913.0,1613.0,-114.0,486.0,-4.0,-421.0,220.0
19:39:06.956000,-1052.0,-431.0,3894.0,1605.0,-98.0,480.0,-3.0,-418.0,238.0
19:39:06.960000,-1082.0,-417.0,3863.0,1625.0,-80.0,473.0,-3.0,-418.0,238.0
19:39:06.965000,-1058.0,-404.0,3781.0,1657.0,-41.0,460.0,-9.0,-378.0,223.0
19:39:06.970000,-1034.0,-405.0,3644.0,1728.0,5.0,440.0,-9.0,-378.0,223.0
19:39:06.974000,-1034.0,-405.0,3644.0,1772.0,-36.0,433.0,-9.0,-378.0,223.0
19:39:06.979000,-1024.0,-406.0,3572.0,1723.0,-130.0,424.0,-7.0,-369.0,235.0
19:39:06.984000,-1010.0,-391.0,3577.0,1632.0,-190.0,420.0,-7.0,-369.0,235.0
19:39:06.989000,-988.0,-392.0,3568.0,1535.0,-175.0,402.0,-7.0,-348.0,240.0
19:39:06.993000,-949.0,-368.0,3570.0,1431.0,-63.0,375.0,-7.0,-348.0,240.0
19:39:06.997000,-897.0,-342.0,3556.0,1321.0,42.0,388.0,-7.0,-348.0,240.0
19:39:07.003000,-910.0,-344.0,3506.0,1247.0,103.0,409.0,-9.0,-340.0,261.0
19:39:07.007000,-951.0,-333.0,3411.0,1227.0,228.0,390.0,-9.0,-340.0,261.0
19:39:07.012000,-934.0,-326.0,3287.0,1246.0,333.0,347.0,3.0,-330.0,238.0
19:39:07.017000,-889.0,-287.0,3189.0,1268.0,314.0,325.0,3.0,-330.0,238.0
19:39:07.021000,-842.0,-282.0,3126.0,1262.0,252.0,331.0,3.0,-330.0,238.0
19:39:07.026000,-814.0,-287.0,3081.0,1219.0,233.0,301.0,1.0,-312.0,246.0
19:39:07.031000,-766.0,-268.0,3031.0,1162.0,260.0,270.0,1.0,-312.0,246.0
19:39:07.035000,-732.0,-268.0,2991.0,1139.0,323.0,262.0,10.0,-285.0,267.0
19:39:07.040000,-715.0,-263.0,2968.0,1139.0,323.0,262.0,10.0,-285.0,267.0
19:39:07.044000,-718.0,-261.0,2971.0,1139.0,399.0,253.0,10.0,-285.0,267.0
19:39:07.050000,-737.0,-254.0,2960.0,1126.0,469.0,251.0,28.0,-265.0,255.0
19:39:07.054000,-753.0,-267.0,2924.0,1084.0,544.0,252.0,28.0,-265.0,255.0
19:39:07.059000,-780.0,-273.0,2901.0,1039.0,590.0,243.0,28.0,-268.0,261.0
19:39:07.064000,-819.0,-296.0,2898.0,1022.0,604.0,239.0,28.0,-268.0,261.0
19:39:07.068000,-836.0,-307.0,2895.0,1033.0,616.0,230.0,28.0,-268.0,261.0
19:39:07.073000,-832.0,-323.0,2897.0,1050.0,611.0,207.0,37.0,-256.0,264.0
19:39:07.078000,-842.0,-351.0,2884.0,1048.0,599.0,207.0,37.0,-256.0,264.0
19:39:07.082000,-842.0,-351.0,2884.0,1026.0,617.0,212.0,36.0,-237.0,265.0
19:39:07.087000,-856.0,-364.0,2837.0,1004.0,643.0,197.0,36.0,-237.0,265.0
19:39:07.091000,-845.0,-371.0,2795.0,1003.0,635.0,189.0,36.0,-237.0,265.0
19:39:07.097000,-823.0,-386.0,2801.0,998.0,598.0,191.0,31.0,-223.0,271.0
19:39:07.101000,-798.0,-383.0,2827.0,973.0,567.0,192.0,31.0,-223.0,271.0
19:39:07.106000,-771.0,-371.0,2839.0,928.0,565.0,202.0,66.0,-208.0,277.0
19:39:07.111000,-748.0,-359.0,2823.0,889.0,594.0,214.0,66.0,-208.0,277.0
19:39:07.115000,-734.0,-342.0,2785.0,886.0,629.0,223.0,66.0,-208.0,277.0
19:39:07.120000,-730.0,-326.0,2759.0,859.0,625.0,222.0,75.0,-202.0,277.0
19:39:07.124000,-725.0,-301.0,2733.0,765.0,585.0,217.0,75.0,-202.0,277.0
19:39:07.130000,-716.0,-270.0,2685.0,732.0,612.0,211.0,85.0,-186.0,304.0
19:39:07.134000,-716.0,-240.0,2640.0,752.0,722.0,204.0,85.0,-186.0,304.0
19:39:07.139000,-709.0,-207.0,2566.0,752.0,722.0,204.0,99.0,-187.0,289.0
19:39:07.144000,-705.0,-179.0,2484.0,696.0,849.0,201.0,99.0,-187.0,289.0
19:39:07.148000,-713.0,-151.0,2443.0,696.0,849.0,201.0,99.0,-187.0,289.0
19:39:07.153000,-729.0,-130.0,2445.0,689.0,842.0,203.0,97.0,-180.0,297.0
19:39:07.158000,-737.0,-115.0,2429.0,661.0,836.0,200.0,97.0,-180.0,297.0
19:39:07.162000,-737.0,-98.0,2374.0,588.0,835.0,191.0,115.0,-183.0,297.0
19:39:07.167000,-739.0,-84.0,2321.0,527.0,832.0,190.0,115.0,-183.0,297.0
19:39:07.171000,-737.0,-68.0,2291.0,522.0,834.0,189.0,115.0,-183.0,297.0
19:39:07.177000,-746.0,-65.0,2282.0,539.0,848.0,188.0,114.0,-163.0,300.0
19:39:07.181000,-767.0,-60.0,2279.0,534.0,865.0,196.0,114.0,-163.0,300.0
19:39:07.186000,-777.0,-46.0,2263.0,500.0,871.0,192.0,118.0,-166.0,300.0
19:39:07.191000,-776.0,-37.0,2239.0,466.0,874.0,180.0,118.0,-166.0,300.0
19:39:07.195000,-776.0,-37.0,2239.0,458.0,882.0,182.0,118.0,-166.0,300.0
19:39:07.200000,-781.0,-24.0,2205.0,461.0,886.0,184.0,144.0,-154.0,312.0
19:39:07.205000,-786.0,-11.0,2189.0,456.0,885.0,184.0,144.0,-154.0,312.0
19:39:07.209000,-791.0,-2.0,2182.0,438.0,890.0,188.0,154.0,-151.0,315.0
19:39:07.214000,-804.0,7.0,2163.0,409.0,896.0,183.0,154.0,-151.0,315.0
19:39:07.221000,-830.0,37.0,2079.0,361.0,895.0,164.0,165.0,-142.0,316.0
19:39:07.223000,-830.0,37.0,2079.0,361.0,895.0,164.0,165.0,-142.0,316.0
19:39:07.228000,-840.0,51.0,2008.0,332.0,900.0,153.0,165.0,-142.0,316.0
19:39:07.233000,-849.0,63.0,1943.0,288.0,911.0,143.0,177.0,-133.0,327.0
19:39:07.238000,-859.0,78.0,1871.0,233.0,930.0,126.0,177.0,-133.0,327.0
19:39:07.242000,-865.0,97.0,1788.0,233.0,930.0,126.0,192.0,-141.0,327.0
19:39:07.247000,-871.0,109.0,1698.0,180.0,935.0,97.0,192.0,-141.0,327.0
19:39:07.251000,-875.0,120.0,1617.0,175.0,924.0,81.0,192.0,-141.0,327.0
19:39:07.256000,-875.0,128.0,1551.0,175.0,924.0,81.0,192.0,-138.0,328.0
19:39:07.261000,-876.0,131.0,1496.0,161.0,908.0,54.0,192.0,-138.0,328.0
19:39:07.266000,-875.0,135.0,1445.0,138.0,908.0,54.0,201.0,-135.0,339.0
19:39:07.270000,-872.0,138.0,1396.0,113.0,910.0,39.0,201.0,-135.0,339.0
19:39:07.275000,-868.0,140.0,1341.0,84.0,925.0,25.0,201.0,-135.0,339.0
19:39:07.280000,-868.0,140.0,1285.0,55.0,945.0,11.0,211.0,-135.0,342.0
19:39:07.285000,-872.0,142.0,1245.0,28.0,959.0,0.0,211.0,-135.0,342.0
19:39:07.289000,-875.0,145.0,1201.0,1.0,965.0,-11.0,213.0,-141.0,352.0
19:39:07.294000,-875.0,147.0,1146.0,-25.0,967.0,-30.0,213.0,-141.0,352.0
19:39:07.298000,-875.0,147.0,1146.0,-47.0,964.0,-63.0,213.0,-141.0,352.0
19:39:07.303000,-872.0,146.0,1093.0,-87.0,967.0,-90.0,225.0,-148.0,360.0
19:39:07.308000,-877.0,148.0,1045.0,-173.0,1024.0,-88.0,225.0,-148.0,360.0
19:39:07.313000,-900.0,160.0,995.0,-214.0,1079.0,-84.0,222.0,-139.0,354.0
19:39:07.317000,-923.0,156.0,972.0,-138.0,1049.0,-97.0,222.0,-139.0,354.0
19:39:07.322000,-927.0,140.0,959.0,-34.0,986.0,-116.0,222.0,-139.0,354.0
19:39:07.327000,-926.0,124.0,933.0,12.0,957.0,-128.0,228.0,-145.0,366.0
19:39:07.332000,-933.0,109.0,899.0,7.0,974.0,-134.0,228.0,-145.0,366.0
19:39:07.336000,-938.0,94.0,860.0,-15.0,999.0,-139.0,235.0,-147.0,361.0
19:39:07.341000,-949.0,79.0,814.0,-17.0,1000.0,-142.0,235.0,-147.0,361.0
19:39:07.345000,-961.0,67.0,763.0,15.0,976.0,-149.0,235.0,-147.0,361.0
19:39:07.350000,-967.0,53.0,729.0,56.0,950.0,-161.0,232.0,-151.0,376.0
19:39:07.355000,-975.0,39.0,704.0,82.0,929.0,-173.0,232.0,-151.0,376.0
19:39:07.360000,-974.0,20.0,673.0,82.0,929.0,-173.0,225.0,-156.0,393.0
19:39:07.364000,-968.0,3.0,646.0,95.0,915.0,-186.0,225.0,-156.0,393.0
19:39:07.369000,-963.0,-9.0,622.0,99.0,906.0,-199.0,225.0,-156.0,393.0
19:39:07.374000,-958.0,-20.0,597.0,85.0,902.0,-208.0,249.0,-147.0,387.0
19:39:07.379000,-951.0,-28.0,572.0,63.0,902.0,-218.0,249.0,-147.0,387.0
19:39:07.383000,-949.0,-32.0,549.0,51.0,898.0,-225.0,238.0,-151.0,388.0
19:39:07.387000,-950.0,-35.0,536.0,41.0,896.0,-233.0,238.0,-151.0,388.0
19:39:07.392000,-952.0,-37.0,533.0,26.0,892.0,-243.0,238.0,-151.0,388.0
19:39:07.397000,-956.0,-34.0,527.0,0.0,892.0,-254.0,253.0,-159.0,388.0
19:39:07.401000,-956.0,-34.0,527.0,-34.0,897.0,-259.0,253.0,-159.0,388.0
19:39:07.407000,-969.0,-32.0,497.0,-65.0,897.0,-263.0,256.0,-162.0,399.0
19:39:07.411000,-969.0,-32.0,497.0,-76.0,887.0,-272.0,256.0,-162.0,399.0
19:39:07.416000,-974.0,-30.0,469.0,-66.0,864.0,-281.0,256.0,-162.0,399.0
19:39:07.421000,-973.0,-30.0,438.0,-50.0,840.0,-294.0,244.0,-166.0,396.0
19:39:07.426000,-967.0,-28.0,398.0,-41.0,827.0,-307.0,244.0,-166.0,396.0
19:39:07.430000,-957.0,-27.0,352.0,-38.0,823.0,-320.0,259.0,-163.0,412.0
19:39:07.435000,-942.0,-25.0,303.0,-44.0,829.0,-331.0,259.0,-163.0,412.0
19:39:07.439000,-926.0,-23.0,249.0,-52.0,830.0,-340.0,259.0,-163.0,412.0
19:39:07.444000,-910.0,-24.0,198.0,-59.0,818.0,-352.0,252.0,-171.0,403.0
19:39:07.449000,-891.0,-24.0,152.0,-66.0,808.0,-363.0,252.0,-171.0,403.0
19:39:07.454000,-870.0,-24.0,106.0,-72.0,809.0,-373.0,250.0,-180.0,417.0
19:39:07.458000,-852.0,-26.0,58.0,-69.0,814.0,-383.0,250.0,-180.0,417.0
19:39:07.463000,-835.0,-27.0,11.0,-56.0,816.0,-390.0,250.0,-180.0,417.0
19:39:07.468000,-818.0,-31.0,-23.0,-52.0,825.0,-398.0,261.0,-177.0,418.0
19:39:07.473000,-801.0,-39.0,-53.0,-52.0,841.0,-405.0,261.0,-177.0,418.0
19:39:07.477000,-784.0,-50.0,-77.0,-59.0,841.0,-405.0,264.0,-187.0,424.0
19:39:07.482000,-770.0,-63.0,-88.0,-62.0,846.0,-409.0,264.0,-187.0,424.0
19:39:07.486000,-757.0,-74.0,-90.0,-54.0,836.0,-413.0,264.0,-187.0,424.0
19:39:07.491000,-745.0,-84.0,-86.0,-43.0,824.0,-418.0,256.0,-187.0,420.0
19:39:07.496000,-739.0,-90.0,-75.0,-37.0,818.0,-420.0,256.0,-187.0,420.0
19:39:07.501000,-742.0,-92.0,-65.0,-38.0,826.0,-421.0,258.0,-193.0,420.0
19:39:07.505000,-749.0,-93.0,-57.0,-46.0,846.0,-424.0,258.0,-193.0,420.0
19:39:07.510000,-749.0,-93.0,-57.0,-52.0,863.0,-428.0,258.0,-193.0,420.0
19:39:07.515000,-774.0,-81.0,-37.0,-54.0,867.0,-433.0,262.0,-189.0,426.0
19:39:07.520000,-786.0,-71.0,-32.0,-57.0,865.0,-439.0,262.0,-189.0,426.0
19:39:07.524000,-786.0,-71.0,-32.0,-70.0,870.0,-447.0,244.0,-202.0,430.0
19:39:07.529000,-799.0,-56.0,-35.0,-91.0,880.0,-455.0,244.0,-202.0,430.0
19:39:07.533000,-814.0,-39.0,-46.0,-114.0,887.0,-465.0,244.0,-202.0,430.0
19:39:07.538000,-834.0,-19.0,-59.0,-134.0,896.0,-478.0,256.0,-199.0,457.0
19:39:07.543000,-852.0,2.0,-77.0,-147.0,907.0,-489.0,256.0,-199.0,457.0
19:39:07.548000,-870.0,17.0,-101.0,-144.0,903.0,-503.0,256.0,-199.0,457.0
19:39:07.552000,-883.0,26.0,-123.0,-136.0,880.0,-528.0,256.0,-199.0,457.0
19:39:07.557000,-886.0,33.0,-135.0,-156.0,869.0,-549.0,256.0,-199.0,457.0
19:39:07.562000,-893.0,42.0,-151.0,-209.0,883.0,-560.0,250.0,-211.0,438.0
19:39:07.567000,-901.0,48.0,-185.0,-248.0,893.0,-573.0,250.0,-211.0,438.0
19:39:07.571000,-902.0,44.0,-226.0,-248.0,893.0,-573.0,255.0,-211.0,447.0
19:39:07.576000,-896.0,35.0,-267.0,-240.0,856.0,-599.0,255.0,-211.0,447.0
19:39:07.580000,-886.0,19.0,-303.0,-230.0,836.0,-603.0,255.0,-211.0,447.0
19:39:07.585000,-874.0,-1.0,-342.0,-227.0,827.0,-604.0,250.0,-225.0,447.0
19:39:07.590000,-861.0,-21.0,-394.0,-227.0,827.0,-604.0,250.0,-225.0,447.0
19:39:07.595000,-849.0,-45.0,-451.0,-220.0,823.0,-602.0,237.0,-219.0,447.0
19:39:07.599000,-841.0,-71.0,-506.0,-202.0,820.0,-592.0,237.0,-219.0,447.0
19:39:07.604000,-837.0,-95.0,-557.0,-181.0,829.0,-577.0,237.0,-219.0,447.0
19:39:07.609000,-837.0,-116.0,-594.0,-150.0,842.0,-557.0,247.0,-226.0,448.0
19:39:07.614000,-837.0,-130.0,-615.0,-109.0,840.0,-541.0,247.0,-226.0,448.0
19:39:07.618000,-833.0,-138.0,-625.0,-78.0,824.0,-532.0,249.0,-235.0,456.0
19:39:07.623000,-823.0,-139.0,-627.0,-78.0,801.0,-527.0,249.0,-235.0,456.0
19:39:07.630000,-816.0,-135.0,-622.0,-178.0,780.0,-507.0,234.0,-232.0,483.0
19:39:07.632000,-816.0,-135.0,-622.0,-178.0,780.0,-507.0,234.0,-232.0,483.0
19:39:07.636000,-807.0,-128.0,-614.0,-246.0,781.0,-502.0,234.0,-232.0,483.0
19:39:07.642000,-795.0,-121.0,-613.0,-302.0,781.0,-497.0,246.0,-246.0,460.0
19:39:07.646000,-780.0,-114.0,-616.0,-351.0,780.0,-491.0,246.0,-246.0,460.0
19:39:07.651000,-763.0,-107.0,-626.0,-401.0,784.0,-481.0,243.0,-253.0,450.0
19:39:07.656000,-745.0,-101.0,-642.0,-447.0,791.0,-468.0,243.0,-253.0,450.0
19:39:07.660000,-728.0,-97.0,-653.0,-485.0,798.0,-454.0,243.0,-253.0,450.0
19:39:07.665000,-714.0,-94.0,-661.0,-521.0,813.0,-441.0,237.0,-252.0,469.0
19:39:07.670000,-705.0,-93.0,-679.0,-556.0,841.0,-426.0,237.0,-252.0,469.0
19:39:07.675000,-702.0,-95.0,-716.0,-583.0,872.0,-413.0,235.0,-253.0,474.0
19:39:07.679000,-701.0,-96.0,-775.0,-597.0,899.0,-402.0,235.0,-253.0,474.0
19:39:07.683000,-705.0,-96.0,-844.0,-600.0,922.0,-395.0,235.0,-253.0,474.0
19:39:07.689000,-714.0,-93.0,-912.0,-600.0,936.0,-397.0,235.0,-267.0,471.0
19:39:07.693000,-728.0,-84.0,-973.0,-600.0,936.0,-397.0,235.0,-267.0,471.0
19:39:07.698000,-744.0,-71.0,-1030.0,-610.0,940.0,-408.0,229.0,-267.0,468.0
19:39:07.703000,-760.0,-54.0,-1077.0,-630.0,939.0,-425.0,229.0,-267.0,468.0
19:39:07.707000,-779.0,-35.0,-1096.0,-649.0,927.0,-443.0,229.0,-267.0,468.0
19:39:07.712000,-796.0,-15.0,-1089.0,-659.0,902.0,-465.0,229.0,-273.0,469.0
19:39:07.717000,-812.0,2.0,-1066.0,-667.0,879.0,-487.0,229.0,-273.0,469.0
19:39:07.722000,-828.0,19.0,-1038.0,-677.0,865.0,-507.0,228.0,-279.0,477.0
19:39:07.726000,-850.0,27.0,-1012.0,-688.0,859.0,-521.0,228.0,-279.0,477.0
19:39:07.730000,-850.0,27.0,-1012.0,-700.0,863.0,-529.0,228.0,-279.0,477.0
19:39:07.736000,-918.0,32.0,-996.0,-710.0,880.0,-542.0,219.0,-286.0,478.0
19:39:07.740000,-918.0,32.0,-996.0,-718.0,900.0,-553.0,219.0,-286.0,478.0
19:39:07.745000,-963.0,35.0,-1003.0,-728.0,916.0,-554.0,219.0,-292.0,477.0
19:39:07.750000,-1016.0,31.0,-1025.0,-740.0,930.0,-556.0,219.0,-292.0,477.0
19:39:07.754000,-1073.0,23.0,-1060.0,-742.0,939.0,-559.0,219.0,-292.0,477.0
19:39:07.759000,-1133.0,9.0,-1095.0,-733.0,939.0,-556.0,195.0,-297.0,501.0
19:39:07.764000,-1196.0,-7.0,-1132.0,-721.0,940.0,-555.0,195.0,-297.0,501.0
19:39:07.769000,-1264.0,-24.0,-1170.0,-714.0,938.0,-558.0,195.0,-297.0,501.0
19:39:07.773000,-1336.0,-37.0,-1210.0,-715.0,928.0,-559.0,195.0,-297.0,501.0
19:39:07.777000,-1406.0,-47.0,-1253.0,-724.0,907.0,-563.0,195.0,-297.0,501.0
19:39:07.783000,-1479.0,-54.0,-1290.0,-730.0,869.0,-563.0,219.0,-318.0,490.0
19:39:07.787000,-1553.0,-66.0,-1304.0,-737.0,824.0,-572.0,219.0,-318.0,490.0
19:39:07.792000,-1618.0,-76.0,-1316.0,-737.0,824.0,-572.0,208.0,-322.0,484.0
19:39:07.797000,-1686.0,-98.0,-1355.0,-791.0,738.0,-580.0,208.0,-322.0,484.0
19:39:07.801000,-1746.0,-134.0,-1410.0,-818.0,691.0,-594.0,208.0,-322.0,484.0
19:39:07.806000,-1800.0,-172.0,-1463.0,-818.0,691.0,-594.0,201.0,-334.0,496.0
19:39:07.811000,-1834.0,-207.0,-1522.0,-837.0,644.0,-621.0,201.0,-334.0,496.0
19:39:07.816000,-1879.0,-243.0,-1556.0,-831.0,583.0,-644.0,210.0,-348.0,484.0
19:39:07.820000,-1915.0,-292.0,-1586.0,-807.0,530.0,-657.0,210.0,-348.0,484.0
19:39:07.824000,-1934.0,-345.0,-1616.0,-779.0,500.0,-676.0,210.0,-348.0,484.0
19:39:07.830000,-1932.0,-398.0,-1622.0,-708.0,474.0,-714.0,210.0,-361.0,484.0
19:39:07.834000,-1939.0,-462.0,-1670.0,-668.0,470.0,-739.0,210.0,-361.0,484.0
19:39:07.839000,-1959.0,-543.0,-1754.0,-691.0,464.0,-733.0,199.0,-366.0,508.0
19:39:07.844000,-1969.0,-585.0,-1816.0,-694.0,435.0,-758.0,199.0,-366.0,508.0
19:39:07.848000,-1969.0,-585.0,-1816.0,-615.0,398.0,-798.0,199.0,-366.0,508.0
19:39:07.853000,-1948.0,-627.0,-1786.0,-527.0,358.0,-790.0,211.0,-405.0,495.0
19:39:07.858000,-1958.0,-701.0,-1750.0,-561.0,366.0,-783.0,211.0,-405.0,495.0
19:39:07.863000,-1969.0,-760.0,-1787.0,-574.0,417.0,-821.0,213.0,-409.0,504.0
19:39:07.867000,-1959.0,-777.0,-1794.0,-527.0,460.0,-836.0,213.0,-409.0,504.0
19:39:07.871000,-1961.0,-816.0,-1801.0,-540.0,486.0,-809.0,213.0,-409.0,504.0
19:39:07.877000,-1994.0,-877.0,-1836.0,-579.0,493.0,-784.0,217.0,-423.0,498.0
19:39:07.881000,-2053.0,-921.0,-1864.0,-604.0,516.0,-786.0,217.0,-423.0,498.0
19:39:07.886000,-2078.0,-964.0,-1919.0,-621.0,539.0,-805.0,219.0,-442.0,504.0
19:39:07.891000,-2105.0,-977.0,-1950.0,-638.0,517.0,-795.0,219.0,-442.0,504.0
19:39:07.896000,-2154.0,-989.0,-1972.0,-653.0,513.0,-801.0,223.0,-453.0,492.0
19:39:07.900000,-2168.0,-966.0,-1992.0,-695.0,541.0,-816.0,223.0,-453.0,492.0
19:39:07.904000,-2178.0,-954.0,-2031.0,-683.0,535.0,-821.0,223.0,-453.0,492.0
19:39:07.910000,-2146.0,-968.0,-2025.0,-622.0,472.0,-838.0,232.0,-466.0,492.0
19:39:07.914000,-2093.0,-975.0,-1992.0,-622.0,472.0,-838.0,232.0,-466.0,492.0
19:39:07.919000,-2039.0,-994.0,-1998.0,-695.0,387.0,-836.0,231.0,-487.0,481.0
19:39:07.924000,-1950.0,-989.0,-2049.0,-713.0,238.0,-895.0,231.0,-487.0,481.0
19:39:07.928000,-1877.0,-970.0,-2033.0,-713.0,238.0,-895.0,231.0,-487.0,481.0
19:39:07.933000,-1773.0,-1011.0,-1880.0,-640.0,188.0,-914.0,255.0,-505.0,481.0
19:39:07.938000,-1648.0,-999.0,-1775.0,-582.0,219.0,-958.0,255.0,-505.0,481.0
19:39:07.943000,-1533.0,-1001.0,-1776.0,-570.0,302.0,-1010.0,268.0,-505.0,478.0
19:39:07.947000,-1484.0,-1093.0,-1835.0,-619.0,353.0,-960.0,268.0,-505.0,478.0
19:39:07.951000,-1484.0,-1093.0,-1835.0,-583.0,362.0,-952.0,268.0,-505.0,478.0
19:39:07.956000,-1492.0,-1106.0,-1801.0,-500.0,377.0,-959.0,268.0,-531.0,475.0
19:39:07.961000,-1523.0,-1166.0,-1699.0,-694.0,467.0,-844.0,268.0,-531.0,475.0
19:39:07.965000,-1629.0,-1308.0,-1736.0,-897.0,543.0,-836.0,277.0,-523.0,475.0
19:39:07.971000,-1742.0,-1337.0,-1822.0,-700.0,498.0,-908.0,277.0,-523.0,475.0
19:39:07.975000,-1838.0,-1285.0,-1778.0,-485.0,459.0,-875.0,277.0,-523.0,475.0
19:39:07.980000,-1914.0,-1276.0,-1667.0,-435.0,525.0,-806.0,291.0,-535.0,474.0
19:39:07.985000,-1988.0,-1336.0,-1696.0,-394.0,597.0,-833.0,291.0,-535.0,474.0
19:39:07.990000,-2018.0,-1326.0,-1754.0,-449.0,585.0,-905.0,300.0,-549.0,471.0
19:39:07.994000,-1925.0,-1319.0,-1769.0,-571.0,483.0,-859.0,300.0,-549.0,471.0
19:39:07.998000,-1946.0,-1373.0,-1747.0,-647.0,383.0,-855.0,300.0,-549.0,471.0
19:39:08.004000,-1947.0,-1383.0,-1694.0,-721.0,330.0,-876.0,328.0,-562.0,453.0
19:39:08.008000,-1791.0,-1446.0,-1529.0,-703.0,370.0,-913.0,328.0,-562.0,453.0
19:39:08.013000,-1782.0,-1375.0,-1391.0,-703.0,370.0,-913.0,324.0,-568.0,439.0
19:39:08.018000,-1759.0,-1288.0,-1407.0,-697.0,241.0,-1036.0,324.0,-568.0,439.0
19:39:08.022000,-1631.0,-1329.0,-1409.0,-697.0,241.0,-1036.0,324.0,-568.0,439.0
19:39:08.027000,-1680.0,-1446.0,-1404.0,-752.0,182.0,-958.0,355.0,-580.0,429.0
19:39:08.032000,-1571.0,-1365.0,-1340.0,-759.0,258.0,-1033.0,355.0,-580.0,429.0
19:39:08.037000,-1304.0,-1420.0,-1381.0,-879.0,356.0,-1139.0,357.0,-595.0,429.0
19:39:08.041000,-1387.0,-1479.0,-1411.0,-957.0,334.0,-1041.0,357.0,-595.0,429.0
19:39:08.045000,-1163.0,-1510.0,-1555.0,-967.0,229.0,-1022.0,357.0,-595.0,429.0
19:39:08.051000,-953.0,-1479.0,-1570.0,-946.0,209.0,-1113.0,369.0,-603.0,417.0
19:39:08.055000,-946.0,-1474.0,-1456.0,-790.0,243.0,-1087.0,369.0,-603.0,417.0
19:39:08.060000,-880.0,-1442.0,-1449.0,-716.0,276.0,-1069.0,381.0,-597.0,406.0
19:39:08.065000,-932.0,-1478.0,-1363.0,-725.0,184.0,-1068.0,381.0,-597.0,406.0
19:39:08.069000,-932.0,-1478.0,-1363.0,-717.0,76.0,-1061.0,381.0,-597.0,406.0
19:39:08.074000,-878.0,-1512.0,-1311.0,-920.0,166.0,-1116.0,397.0,-594.0,402.0
19:39:08.079000,-777.0,-1529.0,-1523.0,-1075.0,70.0,-1032.0,397.0,-594.0,402.0
19:39:08.084000,-898.0,-1568.0,-1333.0,-678.0,-246.0,-1063.0,415.0,-603.0,388.0
19:39:08.088000,-859.0,-1513.0,-1027.0,-733.0,-431.0,-1046.0,415.0,-603.0,388.0
19:39:08.092000,-877.0,-1554.0,-950.0,-1027.0,-408.0,-997.0,415.0,-603.0,388.0
19:39:08.098000,-919.0,-1486.0,-674.0,-653.0,-330.0,-972.0,412.0,-606.0,379.0
19:39:08.102000,-895.0,-1538.0,-450.0,-430.0,-458.0,-901.0,412.0,-606.0,379.0
19:39:08.107000,-801.0,-1510.0,-634.0,-306.0,-613.0,-891.0,436.0,-606.0,376.0
19:39:08.112000,-947.0,-1402.0,-726.0,-94.0,-578.0,-802.0,436.0,-606.0,376.0
19:39:08.116000,-756.0,-1537.0,-815.0,-154.0,-599.0,-773.0,436.0,-606.0,376.0
19:39:08.121000,-661.0,-1531.0,-847.0,-332.0,-678.0,-828.0,439.0,-606.0,355.0
19:39:08.126000,-701.0,-1355.0,-977.0,-457.0,-711.0,-821.0,439.0,-606.0,355.0
19:39:08.131000,-605.0,-1344.0,-1082.0,-416.0,-917.0,-802.0,448.0,-616.0,367.0
19:39:08.135000,-574.0,-1358.0,-886.0,-416.0,-917.0,-802.0,448.0,-616.0,367.0
19:39:08.139000,-693.0,-1391.0,-717.0,-277.0,-1019.0,-814.0,448.0,-616.0,367.0
19:39:08.145000,-639.0,-1379.0,-1024.0,-333.0,-846.0,-840.0,442.0,-613.0,360.0
19:39:08.149000,-539.0,-1322.0,-1447.0,-464.0,-647.0,-975.0,442.0,-613.0,360.0
19:39:08.154000,-652.0,-1268.0,-1344.0,-348.0,-724.0,-1031.0,477.0,-604.0,336.0
19:39:08.159000,-765.0,-1388.0,-1193.0,-347.0,-639.0,-958.0,477.0,-604.0,336.0
19:39:08.163000,-765.0,-1388.0,-1193.0,-647.0,-150.0,-1023.0,477.0,-604.0,336.0
19:39:08.168000,-725.0,-1341.0,-1317.0,-763.0,-136.0,-1120.0,487.0,-603.0,330.0
19:39:08.173000,-716.0,-1467.0,-1278.0,-702.0,-481.0,-1077.0,487.0,-603.0,330.0
19:39:08.178000,-716.0,-1467.0,-1278.0,-566.0,-440.0,-1031.0,499.0,-595.0,319.0
19:39:08.182000,-937.0,-1469.0,-1145.0,-379.0,-387.0,-975.0,499.0,-595.0,319.0
19:39:08.186000,-1110.0,-1483.0,-1009.0,-321.0,-329.0,-1055.0,499.0,-595.0,319.0
19:39:08.191000,-1052.0,-1390.0,-882.0,-368.0,-308.0,-1143.0,507.0,-603.0,312.0
19:39:08.196000,-987.0,-1330.0,-751.0,-439.0,-415.0,-1045.0,507.0,-603.0,312.0
19:39:08.201000,-992.0,-1415.0,-682.0,-382.0,-428.0,-980.0,513.0,-588.0,298.0
19:39:08.206000,-1170.0,-1498.0,-629.0,-193.0,-316.0,-1059.0,513.0,-588.0,298.0
19:39:08.213000,-918.0,-1564.0,-879.0,-264.0,-325.0,-1005.0,519.0,-586.0,280.0
19:39:08.215000,-918.0,-1564.0,-879.0,-264.0,-325.0,-1005.0,519.0,-586.0,280.0
19:39:08.219000,-854.0,-1619.0,-1038.0,-227.0,-606.0,-966.0,519.0,-586.0,280.0
19:39:08.225000,-792.0,-1698.0,-1028.0,-193.0,-635.0,-885.0,508.0,-589.0,286.0
19:39:08.229000,-795.0,-1803.0,-1089.0,-297.0,-357.0,-833.0,508.0,-589.0,286.0
19:39:08.234000,-858.0,-1805.0,-1216.0,-297.0,-357.0,-833.0,537.0,-586.0,249.0
19:39:08.239000,-985.0,-1871.0,-1273.0,-447.0,74.0,-664.0,537.0,-586.0,249.0
19:39:08.243000,-1172.0,-1911.0,-1153.0,-466.0,74.0,-664.0,537.0,-586.0,249.0
19:39:08.248000,-1199.0,-1987.0,-678.0,-336.0,70.0,-648.0,549.0,-585.0,244.0
19:39:08.253000,-1182.0,-1918.0,-625.0,-756.0,-80.0,-615.0,549.0,-585.0,244.0
19:39:08.257000,-1084.0,-1905.0,-996.0,-756.0,-80.0,-615.0,552.0,-585.0,244.0
19:39:08.262000,-938.0,-1908.0,-1180.0,-947.0,-369.0,-560.0,552.0,-585.0,244.0
19:39:08.266000,-898.0,-1927.0,-1038.0,-806.0,-522.0,-520.0,552.0,-585.0,244.0
19:39:08.272000,-922.0,-1908.0,-991.0,-704.0,-463.0,-460.0,546.0,-577.0,210.0
19:39:08.276000,-1064.0,-1846.0,-1004.0,-786.0,-281.0,-417.0,546.0,-577.0,210.0
19:39:08.281000,-1113.0,-1876.0,-948.0,-883.0,-258.0,-358.0,553.0,-568.0,201.0
19:39:08.286000,-1079.0,-1778.0,-875.0,-966.0,-382.0,-378.0,553.0,-568.0,201.0
19:39:08.290000,-1079.0,-1778.0,-875.0,-1072.0,-584.0,-398.0,553.0,-568.0,201.0
19:39:08.295000,-1059.0,-1710.0,-798.0,-1163.0,-584.0,-368.0,567.0,-564.0,187.0
19:39:08.300000,-1012.0,-1683.0,-739.0,-1163.0,-373.0,-359.0,567.0,-564.0,187.0
19:39:08.304000,-982.0,-1679.0,-714.0,-1039.0,-244.0,-358.0,567.0,-565.0,159.0
19:39:08.309000,-910.0,-1621.0,-745.0,-1047.0,-232.0,-387.0,567.0,-565.0,159.0
19:39:08.313000,-832.0,-1505.0,-851.0,-1142.0,-332.0,-379.0,567.0,-565.0,159.0
19:39:08.319000,-703.0,-1421.0,-779.0,-1137.0,-424.0,-357.0,571.0,-547.0,154.0
19:39:08.323000,-651.0,-1365.0,-642.0,-1165.0,-353.0,-331.0,571.0,-547.0,154.0
19:39:08.328000,-629.0,-1330.0,-634.0,-1178.0,-273.0,-327.0,574.0,-549.0,144.0
19:39:08.333000,-536.0,-1288.0,-672.0,-1174.0,-330.0,-344.0,574.0,-549.0,144.0
19:39:08.337000,-485.0,-1208.0,-705.0,-1161.0,-362.0,-359.0,574.0,-549.0,144.0
19:39:08.342000,-462.0,-1096.0,-717.0,-1120.0,-391.0,-359.0,555.0,-549.0,142.0
19:39:08.347000,-406.0,-1029.0,-646.0,-1086.0,-428.0,-332.0,555.0,-549.0,142.0
19:39:08.351000,-379.0,-987.0,-590.0,-1086.0,-428.0,-332.0,565.0,-535.0,126.0
19:39:08.356000,-312.0,-899.0,-565.0,-1124.0,-399.0,-343.0,565.0,-535.0,126.0
19:39:08.360000,-300.0,-842.0,-563.0,-1191.0,-415.0,-366.0,565.0,-535.0,126.0
19:39:08.366000,-308.0,-814.0,-445.0,-1125.0,-477.0,-348.0,571.0,-537.0,117.0
19:39:08.370000,-319.0,-781.0,-295.0,-992.0,-497.0,-337.0,571.0,-537.0,117.0
19:39:08.375000,-380.0,-728.0,-397.0,-1036.0,-405.0,-354.0,561.0,-535.0,121.0
19:39:08.380000,-360.0,-687.0,-609.0,-1153.0,-150.0,-359.0,561.0,-535.0,121.0
19:39:08.384000,-360.0,-687.0,-609.0,-1070.0,-175.0,-338.0,561.0,-535.0,121.0
19:39:08.389000,-302.0,-625.0,-423.0,-908.0,-342.0,-335.0,574.0,-528.0,97.0
19:39:08.394000,-321.0,-625.0,-438.0,-849.0,-313.0,-320.0,574.0,-528.0,97.0
19:39:08.398000,-321.0,-625.0,-438.0,-860.0,-266.0,-288.0,568.0,-519.0,100.0
19:39:08.403000,-302.0,-640.0,-490.0,-878.0,-263.0,-295.0,568.0,-519.0,100.0
19:39:08.407000,-264.0,-632.0,-499.0,-899.0,-245.0,-296.0,568.0,-519.0,100.0
19:39:08.413000,-265.0,-589.0,-557.0,-920.0,-220.0,-271.0,583.0,-532.0,102.0
19:39:08.417000,-245.0,-574.0,-583.0,-932.0,-239.0,-245.0,583.0,-532.0,102.0
19:39:08.421000,-245.0,-569.0,-484.0,-938.0,-227.0,-229.0,573.0,-523.0,87.0
19:39:08.427000,-254.0,-553.0,-403.0,-975.0,-174.0,-230.0,573.0,-523.0,87.0
19:39:08.431000,-215.0,-534.0,-472.0,-970.0,-136.0,-236.0,579.0,-517.0,87.0
19:39:08.436000,-179.0,-501.0,-565.0,-958.0,-165.0,-228.0,579.0,-517.0,87.0
19:39:08.440000,-191.0,-472.0,-503.0,-942.0,-181.0,-206.0,579.0,-517.0,87.0
19:39:08.445000,-259.0,-412.0,-417.0,-977.0,-167.0,-192.0,580.0,-505.0,88.0
19:39:08.450000,-273.0,-386.0,-382.0,-1055.0,-155.0,-202.0,580.0,-505.0,88.0
19:39:08.455000,-247.0,-357.0,-390.0,-1055.0,-155.0,-202.0,577.0,-513.0,85.0
19:39:08.460000,-226.0,-341.0,-339.0,-954.0,-144.0,-214.0,577.0,-513.0,85.0
19:39:08.464000,-202.0,-338.0,-281.0,-954.0,-144.0,-214.0,577.0,-513.0,85.0
19:39:08.469000,-190.0,-326.0,-290.0,-925.0,-89.0,-217.0,577.0,-502.0,75.0
19:39:08.474000,-222.0,-318.0,-289.0,-925.0,-73.0,-207.0,577.0,-502.0,75.0
19:39:08.478000,-234.0,-301.0,-247.0,-900.0,-96.0,-208.0,580.0,-501.0,70.0
19:39:08.483000,-263.0,-275.0,-294.0,-913.0,-80.0,-208.0,580.0,-501.0,70.0
19:39:08.487000,-259.0,-264.0,-314.0,-951.0,-66.0,-201.0,580.0,-501.0,70.0
19:39:08.492000,-250.0,-259.0,-224.0,-924.0,-131.0,-209.0,582.0,-502.0,61.0
19:39:08.497000,-279.0,-275.0,-185.0,-864.0,-127.0,-205.0,582.0,-502.0,61.0
19:39:08.502000,-306.0,-253.0,-243.0,-843.0,-18.0,-207.0,580.0,-498.0,73.0
19:39:08.507000,-306.0,-253.0,-243.0,-872.0,15.0,-224.0,580.0,-498.0,73.0
19:39:08.511000,-312.0,-216.0,-264.0,-902.0,-67.0,-219.0,580.0,-498.0,73.0
19:39:08.516000,-326.0,-205.0,-223.0,-916.0,-139.0,-196.0,570.0,-495.0,73.0
19:39:08.521000,-354.0,-186.0,-219.0,-943.0,-164.0,-202.0,570.0,-495.0,73.0
19:39:08.525000,-336.0,-134.0,-214.0,-969.0,-162.0,-198.0,585.0,-487.0,66.0
19:39:08.530000,-296.0,-126.0,-205.0,-989.0,-142.0,-179.0,585.0,-487.0,66.0
19:39:08.534000,-295.0,-133.0,-232.0,-948.0,-108.0,-182.0,585.0,-487.0,66.0
19:39:08.539000,-322.0,-106.0,-168.0,-845.0,-121.0,-185.0,585.0,-495.0,54.0
19:39:08.544000,-330.0,-84.0,-19.0,-861.0,-116.0,-180.0,585.0,-495.0,54.0
19:39:08.549000,-332.0,-90.0,-61.0,-924.0,-79.0,-178.0,571.0,-487.0,72.0
19:39:08.554000,-301.0,-98.0,-175.0,-866.0,-102.0,-181.0,571.0,-487.0,72.0
19:39:08.558000,-248.0,-116.0,-218.0,-779.0,-125.0,-167.0,571.0,-487.0,72.0
19:39:08.563000,-238.0,-118.0,-214.0,-782.0,-159.0,-172.0,589.0,-483.0,66.0
19:39:08.568000,-239.0,-91.0,-177.0,-782.0,-191.0,-172.0,589.0,-483.0,66.0
19:39:08.572000,-252.0,-86.0,-133.0,-864.0,-212.0,-181.0,592.0,-480.0,69.0
19:39:08.577000,-239.0,-93.0,-166.0,-948.0,-201.0,-177.0,592.0,-480.0,69.0
19:39:08.581000,-217.0,-113.0,-154.0,-969.0,-167.0,-183.0,592.0,-480.0,69.0
19:39:08.586000,-195.0,-134.0,-81.0,-930.0,-146.0,-195.0,583.0,-483.0,66.0
19:39:08.591000,-233.0,-133.0,-23.0,-916.0,-100.0,-197.0,583.0,-483.0,66.0
19:39:08.596000,-242.0,-123.0,-5.0,-943.0,-32.0,-200.0,589.0,-486.0,55.0
19:39:08.601000,-233.0,-135.0,30.0,-944.0,-27.0,-203.0,589.0,-486.0,55.0
19:39:08.605000,-233.0,-135.0,30.0,-913.0,-104.0,-202.0,589.0,-486.0,55.0
19:39:08.610000,-257.0,-140.0,46.0,-960.0,-122.0,-197.0,595.0,-487.0,49.0
19:39:08.615000,-257.0,-140.0,46.0,-1009.0,-86.0,-185.0,595.0,-487.0,49.0
19:39:08.619000,-264.0,-156.0,-46.0,-979.0,-99.0,-191.0,594.0,-486.0,54.0
19:39:08.624000,-244.0,-172.0,-53.0,-942.0,-145.0,-200.0,594.0,-486.0,54.0
19:39:08.628000,-263.0,-179.0,-12.0,-934.0,-162.0,-210.0,594.0,-486.0,54.0
19:39:08.633000,-298.0,-175.0,40.0,-970.0,-133.0,-225.0,589.0,-487.0,51.0
19:39:08.638000,-314.0,-174.0,70.0,-995.0,-96.0,-228.0,589.0,-487.0,51.0
19:39:08.643000,-329.0,-182.0,98.0,-987.0,-101.0,-224.0,573.0,-480.0,48.0
19:39:08.648000,-343.0,-173.0,115.0,-1010.0,-109.0,-230.0,573.0,-480.0,48.0
19:39:08.652000,-347.0,-165.0,42.0,-1036.0,-90.0,-237.0,573.0,-480.0,48.0
19:39:08.656000,-322.0,-179.0,-46.0,-997.0,-102.0,-243.0,589.0,-486.0,46.0
19:39:08.662000,-284.0,-193.0,-51.0,-938.0,-141.0,-242.0,589.0,-486.0,46.0
19:39:08.666000,-297.0,-184.0,16.0,-938.0,-141.0,-242.0,601.0,-478.0,40.0
19:39:08.671000,-312.0,-175.0,27.0,-1051.0,-102.0,-228.0,601.0,-478.0,40.0
19:39:08.675000,-326.0,-165.0,10.0,-1055.0,-162.0,-225.0,601.0,-478.0,40.0
19:39:08.680000,-321.0,-165.0,66.0,-1055.0,-162.0,-225.0,588.0,-475.0,67.0
19:39:08.685000,-330.0,-172.0,121.0,-1031.0,-244.0,-222.0,588.0,-475.0,67.0
19:39:08.690000,-326.0,-188.0,93.0,-1016.0,-226.0,-216.0,588.0,-489.0,43.0
19:39:08.695000,-329.0,-203.0,10.0,-972.0,-132.0,-209.0,588.0,-489.0,43.0
19:39:08.699000,-331.0,-207.0,-10.0,-887.0,-93.0,-204.0,588.0,-489.0,43.0
19:39:08.704000,-326.0,-219.0,39.0,-818.0,-130.0,-199.0,592.0,-474.0,40.0
19:39:08.709000,-338.0,-226.0,35.0,-855.0,-148.0,-188.0,592.0,-474.0,40.0
19:39:08.713000,-371.0,-219.0,-19.0,-928.0,-123.0,-186.0,597.0,-478.0,40.0
19:39:08.718000,-389.0,-221.0,-49.0,-933.0,-111.0,-184.0,597.0,-478.0,40.0
19:39:08.725000,-405.0,-230.0,-58.0,-974.0,-80.0,-149.0,588.0,-481.0,34.0
19:39:08.727000,-405.0,-230.0,-58.0,-974.0,-80.0,-149.0,588.0,-481.0,34.0
19:39:08.731000,-441.0,-246.0,-79.0,-986.0,-106.0,-137.0,588.0,-481.0,34.0
19:39:08.737000,-477.0,-256.0,-96.0,-953.0,-135.0,-136.0,591.0,-474.0,37.0
19:39:08.742000,-499.0,-268.0,-95.0,-933.0,-168.0,-134.0,591.0,-474.0,37.0
19:39:08.746000,-506.0,-272.0,-88.0,-946.0,-169.0,-125.0,588.0,-475.0,28.0
19:39:08.751000,-499.0,-295.0,-88.0,-953.0,-157.0,-115.0,588.0,-475.0,28.0
19:39:08.755000,-511.0,-312.0,-92.0,-930.0,-143.0,-109.0,588.0,-475.0,28.0
19:39:08.760000,-512.0,-332.0,-98.0,-895.0,-142.0,-106.0,592.0,-477.0,30.0
19:39:08.764000,-484.0,-357.0,-110.0,-884.0,-150.0,-107.0,592.0,-477.0,30.0
19:39:08.770000,-458.0,-378.0,-119.0,-911.0,-141.0,-108.0,586.0,-474.0,39.0
19:39:08.774000,-440.0,-378.0,-125.0,-937.0,-147.0,-98.0,586.0,-474.0,39.0
19:39:08.778000,-435.0,-391.0,-54.0,-975.0,-162.0,-84.0,586.0,-474.0,39.0
19:39:08.784000,-447.0,-396.0,32.0,-1043.0,-121.0,-83.0,591.0,-468.0,28.0
19:39:08.789000,-459.0,-397.0,23.0,-1043.0,-121.0,-83.0,591.0,-468.0,28.0
19:39:08.793000,-471.0,-401.0,-57.0,-1085.0,-40.0,-81.0,589.0,-457.0,24.0
19:39:08.798000,-500.0,-393.0,-118.0,-1073.0,22.0,-78.0,589.0,-457.0,24.0
19:39:08.802000,-538.0,-385.0,-114.0,-1040.0,57.0,-79.0,589.0,-457.0,24.0
19:39:08.807000,-587.0,-381.0,-96.0,-1036.0,88.0,-78.0,585.0,-462.0,34.0
19:39:08.812000,-649.0,-373.0,-79.0,-1055.0,131.0,-73.0,585.0,-462.0,34.0
19:39:08.817000,-731.0,-362.0,-23.0,-1061.0,150.0,-66.0,585.0,-462.0,34.0
19:39:08.821000,-806.0,-345.0,37.0,-1081.0,140.0,-64.0,585.0,-462.0,34.0
19:39:08.825000,-806.0,-345.0,37.0,-1148.0,142.0,-61.0,585.0,-462.0,34.0
19:39:08.831000,-935.0,-341.0,-53.0,-1199.0,151.0,-51.0,588.0,-465.0,4.0
19:39:08.835000,-935.0,-341.0,-53.0,-1151.0,116.0,-38.0,588.0,-465.0,4.0
19:39:08.840000,-1008.0,-344.0,-77.0,-1053.0,67.0,-33.0,595.0,-450.0,4.0
19:39:08.845000,-1060.0,-349.0,-25.0,-1015.0,81.0,-24.0,595.0,-450.0,4.0
19:39:08.849000,-1108.0,-366.0,14.0,-1033.0,135.0,0.0,595.0,-450.0,4.0
19:39:08.854000,-1173.0,-386.0,-2.0,-1035.0,151.0,19.0,594.0,-445.0,10.0
19:39:08.859000,-1235.0,-406.0,-25.0,-1005.0,130.0,33.0,594.0,-445.0,10.0
19:39:08.864000,-1281.0,-437.0,-46.0,-965.0,116.0,52.0,580.0,-453.0,-6.0
19:39:08.868000,-1328.0,-473.0,-67.0,-937.0,113.0,65.0,580.0,-453.0,-6.0
19:39:08.872000,-1362.0,-511.0,-79.0,-917.0,120.0,73.0,580.0,-453.0,-6.0
19:39:08.878000,-1400.0,-555.0,-78.0,-912.0,136.0,87.0,583.0,-441.0,-4.0
19:39:08.882000,-1434.0,-611.0,-76.0,-912.0,154.0,100.0,583.0,-441.0,-4.0
19:39:08.887000,-1486.0,-660.0,-79.0,-912.0,154.0,100.0,594.0,-439.0,-9.0
19:39:08.892000,-1544.0,-709.0,-112.0,-915.0,190.0,112.0,594.0,-439.0,-9.0
19:39:08.896000,-1601.0,-762.0,-154.0,-921.0,243.0,128.0,594.0,-439.0,-9.0
19:39:08.901000,-1667.0,-812.0,-175.0,-920.0,297.0,171.0,591.0,-433.0,-19.0
19:39:08.906000,-1746.0,-858.0,-171.0,-922.0,297.0,171.0,591.0,-433.0,-19.0
19:39:08.911000,-1820.0,-914.0,-143.0,-940.0,298.0,205.0,585.0,-415.0,-27.0
19:39:08.915000,-1905.0,-958.0,-126.0,-970.0,290.0,232.0,585.0,-415.0,-27.0
19:39:08.919000,-1970.0,-1017.0,-135.0,-994.0,285.0,261.0,585.0,-415.0,-27.0
19:39:08.925000,-2062.0,-1065.0,-166.0,-974.0,286.0,293.0,580.0,-414.0,-24.0
19:39:08.929000,-2143.0,-1118.0,-205.0,-931.0,300.0,325.0,580.0,-414.0,-24.0
19:39:08.934000,-2231.0,-1161.0,-226.0,-883.0,316.0,355.0,570.0,-403.0,-39.0
19:39:08.939000,-2308.0,-1215.0,-232.0,-833.0,312.0,385.0,570.0,-403.0,-39.0
19:39:08.943000,-2308.0,-1215.0,-232.0,-808.0,305.0,411.0,570.0,-403.0,-39.0
19:39:08.948000,-2375.0,-1260.0,-242.0,-795.0,310.0,432.0,573.0,-385.0,-45.0
19:39:08.953000,-2470.0,-1295.0,-231.0,-803.0,356.0,462.0,573.0,-385.0,-45.0
19:39:08.958000,-2574.0,-1339.0,-263.0,-813.0,432.0,492.0,561.0,-372.0,-55.0
19:39:08.962000,-2691.0,-1374.0,-331.0,-798.0,450.0,522.0,561.0,-372.0,-55.0
19:39:08.966000,-2793.0,-1421.0,-351.0,-779.0,416.0,550.0,561.0,-372.0,-55.0
19:39:08.972000,-2893.0,-1464.0,-304.0,-797.0,397.0,574.0,552.0,-354.0,-61.0
19:39:08.976000,-2989.0,-1509.0,-260.0,-844.0,430.0,595.0,552.0,-354.0,-61.0
19:39:08.981000,-3098.0,-1543.0,-284.0,-855.0,450.0,619.0,543.0,-345.0,-60.0
19:39:08.986000,-3182.0,-1592.0,-295.0,-817.0,419.0,649.0,543.0,-345.0,-60.0
19:39:08.990000,-3293.0,-1637.0,-289.0,-768.0,385.0,679.0,543.0,-345.0,-60.0
19:39:08.995000,-3383.0,-1689.0,-266.0,-726.0,355.0,706.0,528.0,-316.0,-60.0
19:39:09.000000,-3467.0,-1737.0,-265.0,-711.0,348.0,726.0,528.0,-316.0,-60.0
19:39:09.005000,-3532.0,-1782.0,-286.0,-711.0,348.0,726.0,526.0,-306.0,-75.0
19:39:09.009000,-3579.0,-1821.0,-241.0,-674.0,326.0,741.0,526.0,-306.0,-75.0
19:39:09.013000,-3649.0,-1841.0,-186.0,-630.0,279.0,754.0,526.0,-306.0,-75.0
19:39:09.019000,-3687.0,-1876.0,-185.0,-634.0,259.0,773.0,520.0,-283.0,-63.0
19:39:09.023000,-3735.0,-1891.0,-204.0,-653.0,259.0,789.0,520.0,-283.0,-63.0
19:39:09.028000,-3747.0,-1908.0,-188.0,-660.0,244.0,793.0,501.0,-243.0,-54.0
19:39:09.033000,-3756.0,-1933.0,-156.0,-657.0,206.0,797.0,501.0,-243.0,-54.0
19:39:09.037000,-3750.0,-1959.0,-176.0,-655.0,185.0,803.0,501.0,-243.0,-54.0
19:39:09.042000,-3720.0,-1978.0,-248.0,-649.0,195.0,799.0,498.0,-228.0,-73.0
19:39:09.047000,-3675.0,-2013.0,-228.0,-607.0,148.0,797.0,498.0,-228.0,-73.0
19:39:09.052000,-3631.0,-2013.0,-185.0,-562.0,79.0,804.0,499.0,-204.0,-61.0
19:39:09.056000,-3631.0,-2044.0,-185.0,-570.0,62.0,800.0,499.0,-204.0,-61.0
19:39:09.060000,-3583.0,-2059.0,-201.0,-613.0,66.0,790.0,499.0,-204.0,-61.0
19:39:09.066000,-3510.0,-2074.0,-280.0,-633.0,54.0,785.0,486.0,-186.0,-61.0
19:39:09.070000,-3448.0,-2076.0,-340.0,-606.0,15.0,773.0,486.0,-186.0,-61.0
19:39:09.075000,-3360.0,-2079.0,-312.0,-604.0,1.0,763.0,460.0,-168.0,-51.0
19:39:09.080000,-3273.0,-2077.0,-320.0,-642.0,37.0,752.0,460.0,-168.0,-51.0
19:39:09.085000,-3191.0,-2064.0,-388.0,-663.0,73.0,739.0,460.0,-154.0,-49.0
19:39:09.089000,-3114.0,-2052.0,-434.0,-668.0,91.0,728.0,460.0,-154.0,-49.0
19:39:09.093000,-3040.0,-2032.0,-436.0,-687.0,103.0,716.0,460.0,-154.0,-49.0
19:39:09.099000,-2984.0,-2020.0,-415.0,-721.0,146.0,718.0,448.0,-139.0,-31.0
19:39:09.103000,-2937.0,-2016.0,-408.0,-744.0,215.0,720.0,448.0,-139.0,-31.0
19:39:09.108000,-2894.0,-2011.0,-409.0,-744.0,215.0,720.0,430.0,-121.0,-40.0
19:39:09.112000,-2863.0,-1997.0,-368.0,-721.0,284.0,727.0,430.0,-121.0,-40.0
19:39:09.117000,-2837.0,-1972.0,-318.0,-721.0,284.0,727.0,430.0,-121.0,-40.0
19:39:09.122000,-2809.0,-1934.0,-300.0,-732.0,316.0,730.0,408.0,-97.0,-19.0
19:39:09.127000,-2767.0,-1894.0,-289.0,-745.0,325.0,728.0,408.0,-97.0,-19.0
19:39:09.132000,-2732.0,-1845.0,-275.0,-749.0,318.0,724.0,409.0,-87.0,-6.0
19:39:09.136000,-2695.0,-1790.0,-231.0,-758.0,308.0,718.0,409.0,-87.0,-6.0
19:39:09.140000,-2646.0,-1727.0,-186.0,-782.0,292.0,706.0,409.0,-87.0,-6.0
19:39:09.146000,-2588.0,-1664.0,-154.0,-825.0,268.0,696.0,396.0,-67.0,-9.0
19:39:09.150000,-2517.0,-1594.0,-125.0,-858.0,232.0,685.0,396.0,-67.0,-9.0
19:39:09.154000,-2517.0,-1594.0,-125.0,-882.0,187.0,672.0,390.0,-66.0,10.0
19:39:09.160000,-2341.0,-1451.0,-77.0,-897.0,143.0,657.0,390.0,-66.0,10.0
19:39:09.164000,-2341.0,-1451.0,-77.0,-898.0,99.0,635.0,390.0,-66.0,10.0
19:39:09.169000,-2244.0,-1375.0,-58.0,-889.0,50.0,615.0,373.0,-52.0,15.0
19:39:09.174000,-2139.0,-1311.0,-49.0,-865.0,24.0,590.0,373.0,-52.0,15.0
19:39:09.179000,-2037.0,-1241.0,-45.0,-846.0,20.0,558.0,376.0,-52.0,27.0
19:39:09.183000,-1934.0,-1170.0,-37.0,-843.0,30.0,535.0,376.0,-52.0,27.0
19:39:09.187000,-1840.0,-1105.0,-16.0,-838.0,56.0,518.0,376.0,-52.0,27.0
19:39:09.193000,-1752.0,-1042.0,9.0,-825.0,96.0,502.0,375.0,-30.0,48.0
19:39:09.197000,-1675.0,-977.0,33.0,-806.0,143.0,492.0,375.0,-30.0,48.0
19:39:09.201000,-1603.0,-917.0,48.0,-781.0,189.0,481.0,363.0,-31.0,49.0
19:39:09.207000,-1537.0,-854.0,49.0,-744.0,212.0,467.0,363.0,-31.0,49.0
19:39:09.211000,-1471.0,-800.0,40.0,-716.0,221.0,458.0,363.0,-31.0,49.0
19:39:09.216000,-1414.0,-746.0,22.0,-700.0,228.0,453.0,367.0,-19.0,64.0
19:39:09.221000,-1363.0,-688.0,9.0,-680.0,223.0,445.0,367.0,-19.0,64.0
19:39:09.226000,-1313.0,-639.0,14.0,-680.0,223.0,445.0,367.0,-27.0,66.0
19:39:09.230000,-1267.0,-606.0,10.0,-668.0,221.0,449.0,367.0,-27.0,66.0
19:39:09.234000,-1225.0,-572.0,-11.0,-661.0,244.0,457.0,367.0,-27.0,66.0
19:39:09.240000,-1183.0,-539.0,-36.0,-650.0,274.0,450.0,373.0,-15.0,78.0
19:39:09.244000,-1143.0,-513.0,-62.0,-639.0,342.0,442.0,373.0,-15.0,78.0
19:39:09.249000,-1110.0,-492.0,-110.0,-631.0,342.0,442.0,370.0,-6.0,84.0
19:39:09.254000,-1077.0,-469.0,-157.0,-625.0,364.0,440.0,370.0,-6.0,84.0
19:39:09.258000,-1077.0,-469.0,-157.0,-617.0,355.0,433.0,370.0,-6.0,84.0
19:39:09.263000,-1006.0,-431.0,-177.0,-619.0,335.0,433.0,363.0,-7.0,99.0
19:39:09.268000,-976.0,-413.0,-175.0,-640.0,329.0,436.0,363.0,-7.0,99.0
19:39:09.273000,-976.0,-413.0,-175.0,-657.0,333.0,436.0,360.0,0.0,100.0
19:39:09.277000,-949.0,-394.0,-165.0,-657.0,337.0,437.0,360.0,0.0,100.0
19:39:09.281000,-923.0,-375.0,-145.0,-640.0,338.0,438.0,360.0,0.0,100.0
19:39:09.287000,-893.0,-353.0,-108.0,-622.0,340.0,433.0,360.0,3.0,109.0
19:39:09.291000,-858.0,-326.0,-72.0,-624.0,355.0,426.0,360.0,3.0,109.0
19:39:09.296000,-813.0,-298.0,-59.0,-641.0,371.0,426.0,355.0,3.0,121.0
19:39:09.301000,-765.0,-265.0,-70.0,-662.0,374.0,415.0,355.0,3.0,121.0
19:39:09.305000,-713.0,-228.0,-95.0,-681.0,358.0,402.0,355.0,3.0,121.0
19:39:09.310000,-656.0,-195.0,-124.0,-699.0,339.0,397.0,364.0,7.0,114.0
19:39:09.315000,-598.0,-161.0,-163.0,-707.0,329.0,388.0,364.0,7.0,114.0
19:39:09.320000,-536.0,-128.0,-206.0,-707.0,339.0,382.0,348.0,-4.0,115.0
19:39:09.324000,-476.0,-100.0,-263.0,-718.0,368.0,390.0,348.0,-4.0,115.0
19:39:09.328000,-422.0,-77.0,-321.0,-700.0,395.0,392.0,348.0,-4.0,115.0
19:39:09.334000,-375.0,-56.0,-350.0,-700.0,395.0,392.0,348.0,7.0,121.0
19:39:09.338000,-344.0,-45.0,-359.0,-647.0,443.0,411.0,348.0,7.0,121.0
19:39:09.343000,-317.0,-39.0,-380.0,-647.0,443.0,411.0,334.0,13.0,135.0
19:39:09.348000,-290.0,-37.0,-387.0,-624.0,451.0,421.0,334.0,13.0,135.0
19:39:09.352000,-268.0,-40.0,-378.0,-567.0,423.0,429.0,334.0,13.0,135.0
19:39:09.357000,-233.0,-46.0,-382.0,-524.0,397.0,434.0,343.0,12.0,132.0
19:39:09.362000,-182.0,-53.0,-399.0,-505.0,394.0,427.0,343.0,12.0,132.0
19:39:09.367000,-140.0,-66.0,-416.0,-482.0,408.0,430.0,342.0,12.0,135.0
19:39:09.371000,-98.0,-67.0,-439.0,-465.0,400.0,433.0,342.0,12.0,135.0
19:39:09.375000,-98.0,-67.0,-439.0,-480.0,378.0,423.0,342.0,12.0,135.0
19:39:09.381000,-41.0,-73.0,-455.0,-514.0,371.0,421.0,345.0,15.0,136.0
19:39:09.385000,4.0,-73.0,-467.0,-534.0,391.0,414.0,345.0,15.0,136.0
19:39:09.390000,61.0,-74.0,-483.0,-541.0,429.0,398.0,336.0,16.0,129.0
19:39:09.395000,109.0,-55.0,-500.0,-561.0,456.0,397.0,336.0,16.0,129.0
19:39:09.399000,144.0,-34.0,-536.0,-597.0,462.0,392.0,336.0,16.0,129.0
19:39:09.404000,175.0,-7.0,-578.0,-628.0,427.0,381.0,334.0,16.0,133.0
19:39:09.409000,204.0,21.0,-595.0,-638.0,425.0,372.0,334.0,16.0,133.0
19:39:09.414000,250.0,45.0,-584.0,-636.0,495.0,368.0,327.0,18.0,133.0
19:39:09.418000,287.0,68.0,-581.0,-631.0,552.0,376.0,327.0,18.0,133.0
19:39:09.422000,327.0,86.0,-597.0,-614.0,547.0,381.0,327.0,18.0,133.0
19:39:09.428000,371.0,105.0,-626.0,-590.0,530.0,385.0,325.0,16.0,127.0
19:39:09.432000,426.0,116.0,-665.0,-573.0,510.0,394.0,325.0,16.0,127.0
19:39:09.437000,490.0,124.0,-700.0,-573.0,510.0,394.0,318.0,19.0,133.0
19:39:09.442000,557.0,131.0,-719.0,-538.0,477.0,402.0,318.0,19.0,133.0
19:39:09.446000,619.0,136.0,-736.0,-538.0,477.0,402.0,318.0,19.0,133.0
19:39:09.451000,686.0,132.0,-739.0,-513.0,464.0,403.0,309.0,24.0,120.0
19:39:09.456000,733.0,139.0,-733.0,-496.0,462.0,400.0,309.0,24.0,120.0
19:39:09.461000,782.0,133.0,-718.0,-480.0,483.0,400.0,303.0,21.0,115.0
19:39:09.465000,818.0,126.0,-686.0,-469.0,525.0,395.0,303.0,21.0,115.0
19:39:09.469000,849.0,111.0,-644.0,-477.0,580.0,391.0,303.0,21.0,115.0
19:39:09.475000,870.0,96.0,-608.0,-498.0,676.0,400.0,303.0,12.0,100.0
19:39:09.479000,870.0,96.0,-608.0,-501.0,833.0,417.0,303.0,12.0,100.0
19:39:09.484000,848.0,71.0,-553.0,-466.0,701.0,435.0,289.0,9.0,103.0
19:39:09.489000,908.0,51.0,-498.0,-438.0,482.0,411.0,289.0,9.0,103.0
19:39:09.493000,908.0,51.0,-498.0,-466.0,560.0,406.0,289.0,9.0,103.0
19:39:09.498000,912.0,50.0,-471.0,-502.0,681.0,416.0,286.0,12.0,94.0
19:39:09.503000,928.0,47.0,-471.0,-523.0,780.0,422.0,286.0,12.0,94.0
19:39:09.508000,934.0,41.0,-469.0,-537.0,882.0,456.0,285.0,12.0,88.0
19:39:09.512000,953.0,28.0,-459.0,-538.0,857.0,497.0,285.0,12.0,88.0
19:39:09.516000,926.0,28.0,-453.0,-528.0,569.0,528.0,285.0,12.0,88.0
19:39:09.522000,892.0,35.0,-438.0,-541.0,477.0,493.0,274.0,9.0,78.0
19:39:09.526000,994.0,55.0,-413.0,-587.0,676.0,500.0,274.0,9.0,78.0
19:39:09.530000,1020.0,72.0,-425.0,-605.0,813.0,560.0,283.0,7.0,70.0
19:39:09.536000,1057.0,70.0,-464.0,-591.0,859.0,576.0,283.0,7.0,70.0
19:39:09.540000,1120.0,84.0,-501.0,-474.0,1058.0,544.0,283.0,7.0,70.0
19:39:09.545000,1325.0,109.0,-618.0,-357.0,754.0,611.0,277.0,1.0,58.0
19:39:09.550000,1260.0,104.0,-596.0,-419.0,179.0,647.0,277.0,1.0,58.0
19:39:09.555000,1292.0,119.0,-500.0,-419.0,179.0,647.0,268.0,-4.0,55.0
19:39:09.559000,1493.0,140.0,-500.0,-569.0,219.0,552.0,268.0,-4.0,55.0
19:39:09.563000,1551.0,164.0,-448.0,-657.0,404.0,559.0,268.0,-4.0,55.0
19:39:09.569000,1592.0,161.0,-352.0,-642.0,546.0,604.0,259.0,-9.0,46.0
19:39:09.573000,1692.0,145.0,-189.0,-579.0,624.0,598.0,259.0,-9.0,46.0
19:39:09.577000,1731.0,142.0,-41.0,-529.0,588.0,593.0,265.0,-12.0,34.0
19:39:09.583000,1800.0,151.0,43.0,-552.0,512.0,591.0,265.0,-12.0,34.0
19:39:09.587000,1800.0,151.0,43.0,-613.0,485.0,598.0,265.0,-12.0,34.0
19:39:09.592000,1862.0,166.0,77.0,-654.0,498.0,632.0,256.0,-18.0,13.0
19:39:09.597000,1922.0,217.0,33.0,-662.0,543.0,637.0,256.0,-18.0,13.0
19:39:09.602000,1922.0,217.0,33.0,-655.0,568.0,626.0,265.0,-30.0,6.0
19:39:09.606000,1939.0,273.0,42.0,-669.0,567.0,659.0,265.0,-30.0,6.0
19:39:09.610000,1932.0,299.0,23.0,-705.0,564.0,665.0,265.0,-30.0,6.0
19:39:09.616000,1963.0,343.0,-25.0,-710.0,510.0,633.0,270.0,-43.0,-10.0
19:39:09.620000,2022.0,397.0,-63.0,-697.0,412.0,640.0,270.0,-43.0,-10.0
19:39:09.624000,2079.0,430.0,-100.0,-689.0,337.0,624.0,271.0,-52.0,-30.0
19:39:09.630000,2163.0,490.0,-107.0,-685.0,307.0,584.0,271.0,-52.0,-30.0
