hh:mm:ss.ms,gyroX[mdps],gyroY[mdps],gyroZ[mdps],accX[mg],accY[mg],accZ[mg],magX[mG],magY[mG],magZ[mG]
19:40:35.878000,-730.0,-498.0,1178.0,-473.0,-431.0,-324.0,436.0,-604.0,381.0
19:40:35.883000,-748.0,-504.0,1220.0,-461.0,-422.0,-318.0,421.0,-624.0,378.0
19:40:35.888000,-773.0,-512.0,1268.0,-449.0,-404.0,-306.0,421.0,-624.0,378.0
19:40:35.893000,-800.0,-520.0,1329.0,-432.0,-396.0,-289.0,420.0,-628.0,375.0
19:40:35.898000,-831.0,-529.0,1400.0,-406.0,-403.0,-272.0,420.0,-628.0,375.0
19:40:35.902000,-831.0,-529.0,1400.0,-377.0,-421.0,-255.0,420.0,-628.0,375.0
19:40:35.907000,-880.0,-551.0,1521.0,-345.0,-439.0,-240.0,417.0,-628.0,363.0
19:40:35.912000,-880.0,-551.0,1521.0,-305.0,-465.0,-221.0,417.0,-628.0,363.0
19:40:35.916000,-900.0,-568.0,1579.0,-257.0,-492.0,-199.0,402.0,-642.0,363.0
19:40:35.921000,-919.0,-585.0,1649.0,-206.0,-512.0,-181.0,402.0,-642.0,363.0
19:40:35.925000,-936.0,-605.0,1724.0,-159.0,-544.0,-168.0,402.0,-642.0,363.0
19:40:35.930000,-949.0,-623.0,1806.0,-115.0,-581.0,-156.0,394.0,-651.0,346.0
19:40:35.935000,-959.0,-641.0,1880.0,-69.0,-611.0,-139.0,394.0,-651.0,346.0
19:40:35.939000,-958.0,-661.0,1936.0,-23.0,-642.0,-121.0,399.0,-652.0,334.0
19:40:35.945000,-952.0,-679.0,1988.0,18.0,-681.0,-100.0,399.0,-652.0,334.0
19:40:35.949000,-949.0,-693.0,2055.0,49.0,-708.0,-80.0,399.0,-652.0,334.0
19:40:35.954000,-940.0,-711.0,2114.0,82.0,-721.0,-60.0,375.0,-672.0,325.0
19:40:35.959000,-939.0,-732.0,2154.0,128.0,-736.0,-41.0,375.0,-672.0,325.0
19:40:35.963000,-935.0,-754.0,2191.0,128.0,-736.0,-41.0,361.0,-664.0,322.0
19:40:35.968000,-925.0,-775.0,2240.0,226.0,-747.0,-10.0,361.0,-664.0,322.0
19:40:35.972000,-915.0,-795.0,2294.0,226.0,-747.0,-10.0,361.0,-664.0,322.0
19:40:35.977000,-910.0,-814.0,2337.0,252.0,-717.0,6.0,355.0,-685.0,315.0
19:40:35.992000,-911.0,-868.0,2451.0,281.0,-639.0,66.0,337.0,-681.0,324.0
19:40:35.996000,-912.0,-883.0,2504.0,301.0,-663.0,88.0,322.0,-673.0,306.0
19:40:36.001000,-914.0,-895.0,2554.0,303.0,-690.0,108.0,322.0,-673.0,306.0
19:40:36.005000,-914.0,-895.0,2554.0,292.0,-715.0,125.0,322.0,-673.0,306.0
19:40:36.010000,-919.0,-921.0,2678.0,281.0,-740.0,143.0,312.0,-688.0,297.0
19:40:36.015000,-913.0,-935.0,2750.0,277.0,-758.0,157.0,312.0,-688.0,297.0
19:40:36.020000,-913.0,-935.0,2750.0,282.0,-786.0,173.0,303.0,-691.0,294.0
19:40:36.024000,-917.0,-947.0,2844.0,285.0,-814.0,188.0,303.0,-691.0,294.0
19:40:36.029000,-915.0,-959.0,2939.0,287.0,-834.0,204.0,303.0,-691.0,294.0
19:40:36.034000,-919.0,-970.0,3026.0,293.0,-832.0,219.0,282.0,-688.0,276.0
19:40:36.038000,-916.0,-978.0,3103.0,305.0,-821.0,237.0,282.0,-688.0,276.0
19:40:36.043000,-927.0,-979.0,3180.0,326.0,-803.0,259.0,258.0,-699.0,276.0
19:40:36.048000,-934.0,-970.0,3252.0,348.0,-781.0,277.0,258.0,-699.0,276.0
19:40:36.052000,-955.0,-960.0,3297.0,382.0,-777.0,293.0,258.0,-699.0,276.0
19:40:36.057000,-982.0,-946.0,3333.0,425.0,-779.0,304.0,238.0,-691.0,267.0
19:40:36.062000,-997.0,-930.0,3348.0,468.0,-781.0,316.0,238.0,-691.0,267.0
19:40:36.067000,-1001.0,-921.0,3352.0,468.0,-781.0,316.0,223.0,-684.0,255.0
19:40:36.071000,-1009.0,-907.0,3362.0,513.0,-791.0,320.0,223.0,-684.0,255.0
19:40:36.076000,-1025.0,-897.0,3355.0,569.0,-830.0,337.0,223.0,-684.0,255.0
19:40:36.081000,-1022.0,-901.0,3337.0,636.0,-862.0,351.0,211.0,-681.0,258.0
19:40:36.086000,-1011.0,-910.0,3344.0,636.0,-862.0,351.0,211.0,-681.0,258.0
19:40:36.090000,-1007.0,-931.0,3336.0,705.0,-863.0,394.0,181.0,-678.0,262.0
19:40:36.095000,-1038.0,-931.0,3313.0,726.0,-815.0,470.0,181.0,-678.0,262.0
19:40:36.099000,-1065.0,-896.0,3295.0,727.0,-770.0,479.0,181.0,-678.0,262.0
19:40:36.104000,-1077.0,-900.0,3299.0,741.0,-664.0,452.0,177.0,-685.0,247.0
19:40:36.109000,-1063.0,-890.0,3308.0,749.0,-664.0,446.0,177.0,-685.0,247.0
19:40:36.114000,-1064.0,-886.0,3341.0,718.0,-793.0,436.0,160.0,-669.0,250.0
19:40:36.118000,-1043.0,-875.0,3373.0,727.0,-847.0,446.0,160.0,-669.0,250.0
19:40:36.123000,-1043.0,-875.0,3373.0,760.0,-883.0,435.0,160.0,-669.0,250.0
19:40:36.128000,-1012.0,-873.0,3385.0,791.0,-893.0,434.0,150.0,-664.0,262.0
19:40:36.133000,-977.0,-874.0,3415.0,828.0,-894.0,461.0,150.0,-664.0,262.0
19:40:36.137000,-965.0,-860.0,3435.0,869.0,-828.0,479.0,129.0,-661.0,235.0
19:40:36.142000,-957.0,-849.0,3485.0,936.0,-771.0,493.0,129.0,-661.0,235.0
19:40:36.146000,-978.0,-835.0,3563.0,985.0,-737.0,517.0,129.0,-661.0,235.0
19:40:36.151000,-998.0,-829.0,3579.0,1014.0,-647.0,552.0,126.0,-658.0,243.0
19:40:36.156000,-1022.0,-815.0,3514.0,1051.0,-646.0,555.0,126.0,-658.0,243.0
19:40:36.161000,-1054.0,-796.0,3488.0,1115.0,-616.0,563.0,108.0,-651.0,240.0
19:40:36.165000,-1085.0,-796.0,3530.0,1136.0,-587.0,598.0,108.0,-651.0,240.0
19:40:36.170000,-1129.0,-779.0,3560.0,1083.0,-540.0,619.0,108.0,-651.0,240.0
19:40:36.175000,-1162.0,-759.0,3516.0,1105.0,-434.0,610.0,96.0,-640.0,240.0
19:40:36.180000,-1167.0,-749.0,3457.0,1208.0,-489.0,564.0,96.0,-640.0,240.0
19:40:36.184000,-1152.0,-735.0,3395.0,1208.0,-489.0,564.0,93.0,-630.0,235.0
19:40:36.189000,-1163.0,-729.0,3353.0,1292.0,-600.0,559.0,93.0,-630.0,235.0
19:40:36.193000,-1148.0,-736.0,3297.0,1355.0,-621.0,608.0,93.0,-630.0,235.0
19:40:36.198000,-1148.0,-740.0,3219.0,1424.0,-641.0,641.0,73.0,-615.0,229.0
19:40:36.203000,-1132.0,-728.0,3244.0,1428.0,-675.0,640.0,73.0,-615.0,229.0
19:40:36.207000,-1145.0,-720.0,3310.0,1268.0,-675.0,722.0,58.0,-607.0,225.0
19:40:36.212000,-1132.0,-695.0,3361.0,1268.0,-675.0,722.0,58.0,-607.0,225.0
19:40:36.217000,-1111.0,-667.0,3356.0,1261.0,-686.0,707.0,58.0,-607.0,225.0
19:40:36.222000,-1115.0,-623.0,3320.0,1312.0,-699.0,706.0,60.0,-598.0,226.0
19:40:36.227000,-1087.0,-585.0,3292.0,1373.0,-676.0,693.0,60.0,-598.0,226.0
19:40:36.231000,-1087.0,-540.0,3246.0,1390.0,-620.0,670.0,51.0,-589.0,226.0
19:40:36.236000,-1087.0,-540.0,3246.0,1384.0,-580.0,649.0,51.0,-589.0,226.0
19:40:36.240000,-1085.0,-506.0,3193.0,1401.0,-507.0,651.0,51.0,-589.0,226.0
19:40:36.245000,-1089.0,-478.0,3173.0,1438.0,-486.0,643.0,36.0,-585.0,223.0
19:40:36.249000,-1103.0,-450.0,3189.0,1459.0,-441.0,632.0,36.0,-585.0,223.0
19:40:36.255000,-1102.0,-437.0,3157.0,1467.0,-375.0,626.0,34.0,-576.0,228.0
19:40:36.259000,-1103.0,-420.0,3068.0,1532.0,-373.0,635.0,34.0,-576.0,228.0
19:40:36.264000,-1088.0,-424.0,3057.0,1651.0,-395.0,648.0,24.0,-564.0,226.0
19:40:36.269000,-1079.0,-426.0,3108.0,1753.0,-382.0,632.0,24.0,-564.0,226.0
19:40:36.273000,-1080.0,-418.0,3149.0,1775.0,-313.0,628.0,24.0,-564.0,226.0
19:40:36.278000,-1064.0,-409.0,3122.0,1735.0,-258.0,633.0,7.0,-550.0,217.0
19:40:36.283000,-1045.0,-399.0,3134.0,1689.0,-263.0,639.0,7.0,-550.0,217.0
19:40:36.288000,-1028.0,-392.0,3168.0,1689.0,-263.0,639.0,16.0,-531.0,223.0
19:40:36.292000,-1008.0,-388.0,3187.0,1636.0,-385.0,653.0,16.0,-531.0,223.0
19:40:36.296000,-996.0,-371.0,3201.0,1643.0,-376.0,661.0,16.0,-531.0,223.0
19:40:36.301000,-989.0,-358.0,3224.0,1643.0,-376.0,661.0,4.0,-528.0,223.0
19:40:36.306000,-991.0,-321.0,3252.0,1656.0,-306.0,656.0,4.0,-528.0,223.0
19:40:36.311000,-994.0,-293.0,3233.0,1618.0,-208.0,646.0,-9.0,-511.0,229.0
19:40:36.316000,-1023.0,-268.0,3207.0,1556.0,-107.0,658.0,-9.0,-511.0,229.0
19:40:36.320000,-1056.0,-241.0,3212.0,1557.0,-57.0,656.0,-9.0,-511.0,229.0
19:40:36.325000,-1074.0,-218.0,3281.0,1605.0,-88.0,654.0,-3.0,-510.0,228.0
19:40:36.330000,-1088.0,-185.0,3325.0,1624.0,-127.0,655.0,-3.0,-510.0,228.0
19:40:36.335000,-1103.0,-167.0,3308.0,1581.0,-109.0,658.0,-18.0,-492.0,219.0
19:40:36.339000,-1117.0,-165.0,3241.0,1522.0,-103.0,660.0,-18.0,-492.0,219.0
19:40:36.343000,-1117.0,-165.0,3241.0,1498.0,-118.0,645.0,-18.0,-492.0,219.0
19:40:36.349000,-1107.0,-155.0,3159.0,1524.0,-169.0,609.0,-21.0,-475.0,210.0
19:40:36.353000,-1073.0,-134.0,3154.0,1568.0,-253.0,569.0,-21.0,-475.0,210.0
19:40:36.358000,-1037.0,-119.0,3221.0,1551.0,-263.0,530.0,-19.0,-454.0,219.0
19:40:36.363000,-1010.0,-102.0,3257.0,1462.0,-187.0,500.0,-19.0,-454.0,219.0
19:40:36.367000,-982.0,-98.0,3239.0,1392.0,-116.0,473.0,-19.0,-454.0,219.0
19:40:36.372000,-945.0,-112.0,3217.0,1405.0,-114.0,448.0,-30.0,-441.0,222.0
19:40:36.377000,-895.0,-139.0,3224.0,1498.0,-157.0,435.0,-30.0,-441.0,222.0
19:40:36.381000,-846.0,-170.0,3279.0,1586.0,-223.0,427.0,-31.0,-423.0,217.0
19:40:36.386000,-790.0,-202.0,3348.0,1612.0,-236.0,406.0,-31.0,-423.0,217.0
19:40:36.390000,-708.0,-235.0,3306.0,1614.0,-144.0,405.0,-31.0,-423.0,217.0
19:40:36.396000,-660.0,-265.0,3154.0,1623.0,-23.0,409.0,-37.0,-418.0,211.0
19:40:36.400000,-606.0,-289.0,3049.0,1636.0,28.0,404.0,-37.0,-418.0,211.0
19:40:36.405000,-571.0,-321.0,3051.0,1636.0,28.0,404.0,-39.0,-396.0,217.0
19:40:36.410000,-562.0,-350.0,3043.0,1605.0,36.0,406.0,-39.0,-396.0,217.0
19:40:36.414000,-539.0,-356.0,2972.0,1541.0,81.0,376.0,-39.0,-396.0,217.0
19:40:36.419000,-511.0,-368.0,2922.0,1481.0,162.0,337.0,-28.0,-369.0,216.0
19:40:36.423000,-498.0,-385.0,2923.0,1393.0,239.0,298.0,-28.0,-369.0,216.0
19:40:36.429000,-492.0,-406.0,2937.0,1393.0,239.0,298.0,-33.0,-355.0,243.0
19:40:36.433000,-484.0,-418.0,2969.0,1346.0,208.0,280.0,-33.0,-355.0,243.0
19:40:36.438000,-462.0,-434.0,3004.0,1290.0,174.0,256.0,-18.0,-340.0,228.0
19:40:36.443000,-448.0,-439.0,3005.0,1221.0,194.0,233.0,-18.0,-340.0,228.0
19:40:36.447000,-448.0,-439.0,3005.0,1161.0,266.0,208.0,-18.0,-340.0,228.0
19:40:36.452000,-418.0,-437.0,2888.0,1091.0,357.0,198.0,-22.0,-327.0,234.0
19:40:36.457000,-418.0,-437.0,2888.0,1014.0,459.0,195.0,-22.0,-327.0,234.0
19:40:36.462000,-406.0,-437.0,2804.0,975.0,571.0,182.0,-25.0,-313.0,231.0
19:40:36.466000,-416.0,-429.0,2716.0,968.0,631.0,173.0,-25.0,-313.0,231.0
19:40:36.470000,-430.0,-428.0,2664.0,948.0,643.0,171.0,-25.0,-313.0,231.0
19:40:36.476000,-448.0,-434.0,2620.0,920.0,670.0,158.0,-16.0,-298.0,232.0
19:40:36.480000,-464.0,-435.0,2566.0,917.0,686.0,154.0,-16.0,-298.0,232.0
19:40:36.485000,-476.0,-444.0,2544.0,939.0,677.0,155.0,-9.0,-288.0,238.0
19:40:36.490000,-486.0,-453.0,2555.0,979.0,672.0,148.0,-9.0,-288.0,238.0
19:40:36.494000,-499.0,-464.0,2571.0,1008.0,688.0,144.0,-9.0,-288.0,238.0
19:40:36.499000,-507.0,-475.0,2553.0,1034.0,721.0,141.0,7.0,-270.0,256.0
19:40:36.504000,-527.0,-489.0,2533.0,1063.0,736.0,140.0,7.0,-270.0,256.0
19:40:36.509000,-530.0,-506.0,2508.0,1063.0,736.0,140.0,7.0,-258.0,262.0
19:40:36.513000,-536.0,-521.0,2457.0,1101.0,663.0,134.0,7.0,-258.0,262.0
19:40:36.517000,-522.0,-539.0,2459.0,1101.0,663.0,134.0,7.0,-258.0,262.0
19:40:36.523000,-501.0,-555.0,2494.0,1128.0,639.0,122.0,4.0,-243.0,255.0
19:40:36.527000,-485.0,-564.0,2510.0,1113.0,649.0,122.0,4.0,-243.0,255.0
19:40:36.532000,-466.0,-571.0,2520.0,1091.0,668.0,122.0,19.0,-238.0,255.0
19:40:36.537000,-448.0,-574.0,2525.0,1081.0,683.0,123.0,19.0,-238.0,255.0
19:40:36.541000,-438.0,-575.0,2532.0,1055.0,699.0,127.0,19.0,-238.0,255.0
19:40:36.546000,-431.0,-568.0,2543.0,1021.0,722.0,133.0,31.0,-226.0,265.0
19:40:36.551000,-424.0,-557.0,2538.0,989.0,755.0,128.0,31.0,-226.0,265.0
19:40:36.556000,-418.0,-543.0,2521.0,954.0,775.0,130.0,33.0,-219.0,265.0
19:40:36.560000,-417.0,-529.0,2499.0,924.0,786.0,137.0,33.0,-219.0,265.0
19:40:36.564000,-417.0,-529.0,2499.0,889.0,806.0,140.0,33.0,-219.0,265.0
19:40:36.570000,-420.0,-508.0,2477.0,849.0,836.0,137.0,54.0,-193.0,277.0
19:40:36.574000,-424.0,-487.0,2468.0,815.0,852.0,138.0,54.0,-193.0,277.0
19:40:36.579000,-435.0,-471.0,2479.0,783.0,848.0,144.0,60.0,-177.0,279.0
19:40:36.584000,-450.0,-460.0,2503.0,746.0,843.0,149.0,60.0,-177.0,279.0
19:40:36.588000,-471.0,-453.0,2514.0,709.0,844.0,145.0,60.0,-177.0,279.0
19:40:36.593000,-483.0,-445.0,2506.0,686.0,840.0,134.0,72.0,-180.0,282.0
19:40:36.598000,-487.0,-437.0,2495.0,674.0,840.0,134.0,72.0,-180.0,282.0
19:40:36.612000,-509.0,-422.0,2513.0,649.0,902.0,130.0,75.0,-166.0,309.0
19:40:36.617000,-513.0,-415.0,2488.0,652.0,921.0,122.0,75.0,-166.0,309.0
19:40:36.621000,-523.0,-406.0,2461.0,645.0,920.0,124.0,75.0,-166.0,309.0
19:40:36.626000,-530.0,-401.0,2441.0,645.0,912.0,124.0,105.0,-154.0,289.0
19:40:36.631000,-533.0,-394.0,2415.0,629.0,912.0,120.0,105.0,-154.0,289.0
19:40:36.635000,-541.0,-385.0,2387.0,601.0,901.0,114.0,109.0,-150.0,294.0
19:40:36.640000,-548.0,-376.0,2361.0,567.0,892.0,113.0,109.0,-150.0,294.0
19:40:36.644000,-559.0,-368.0,2341.0,524.0,889.0,116.0,109.0,-150.0,294.0
19:40:36.650000,-568.0,-361.0,2317.0,487.0,894.0,113.0,132.0,-132.0,318.0
19:40:36.654000,-578.0,-352.0,2286.0,451.0,901.0,110.0,132.0,-132.0,318.0
19:40:36.658000,-586.0,-343.0,2252.0,412.0,886.0,118.0,151.0,-127.0,309.0
19:40:36.664000,-590.0,-330.0,2205.0,374.0,878.0,112.0,151.0,-127.0,309.0
19:40:36.668000,-590.0,-330.0,2205.0,348.0,884.0,103.0,151.0,-127.0,309.0
19:40:36.673000,-596.0,-318.0,2160.0,326.0,861.0,98.0,153.0,-124.0,312.0
19:40:36.678000,-595.0,-307.0,2127.0,320.0,868.0,97.0,153.0,-124.0,312.0
19:40:36.682000,-596.0,-301.0,2099.0,293.0,871.0,95.0,169.0,-117.0,318.0
19:40:36.687000,-591.0,-294.0,2048.0,268.0,885.0,84.0,169.0,-117.0,318.0
19:40:36.691000,-593.0,-287.0,1994.0,263.0,884.0,79.0,169.0,-117.0,318.0
19:40:36.697000,-587.0,-278.0,1944.0,224.0,899.0,68.0,183.0,-117.0,324.0
19:40:36.701000,-592.0,-266.0,1892.0,184.0,915.0,72.0,183.0,-117.0,324.0
19:40:36.706000,-593.0,-250.0,1862.0,124.0,871.0,63.0,190.0,-112.0,322.0
19:40:36.711000,-588.0,-238.0,1822.0,95.0,928.0,60.0,190.0,-112.0,322.0
19:40:36.715000,-599.0,-225.0,1786.0,59.0,869.0,70.0,202.0,-111.0,324.0
19:40:36.720000,-590.0,-210.0,1739.0,7.0,852.0,32.0,202.0,-111.0,324.0
19:40:36.724000,-592.0,-194.0,1698.0,12.0,922.0,45.0,202.0,-111.0,324.0
19:40:36.729000,-588.0,-183.0,1667.0,-21.0,844.0,57.0,210.0,-111.0,339.0
19:40:36.734000,-580.0,-170.0,1617.0,-32.0,895.0,20.0,210.0,-111.0,339.0
19:40:36.739000,-580.0,-161.0,1584.0,-32.0,895.0,20.0,234.0,-115.0,339.0
19:40:36.744000,-574.0,-154.0,1546.0,-13.0,947.0,31.0,234.0,-115.0,339.0
19:40:36.748000,-575.0,-144.0,1498.0,-77.0,937.0,22.0,234.0,-115.0,339.0
19:40:36.753000,-576.0,-143.0,1460.0,-77.0,937.0,22.0,241.0,-117.0,363.0
19:40:36.758000,-578.0,-140.0,1415.0,-82.0,958.0,37.0,241.0,-117.0,363.0
19:40:36.762000,-579.0,-133.0,1374.0,-103.0,897.0,41.0,240.0,-115.0,348.0
19:40:36.767000,-572.0,-132.0,1353.0,-92.0,873.0,21.0,240.0,-115.0,348.0
19:40:36.771000,-572.0,-132.0,1353.0,-57.0,856.0,27.0,240.0,-115.0,348.0
19:40:36.776000,-548.0,-115.0,1299.0,-74.0,775.0,25.0,246.0,-108.0,348.0
19:40:36.781000,-550.0,-106.0,1267.0,-112.0,858.0,-15.0,246.0,-108.0,348.0
19:40:36.786000,-550.0,-106.0,1267.0,-127.0,945.0,-17.0,262.0,-109.0,349.0
19:40:36.791000,-543.0,-97.0,1254.0,-177.0,885.0,0.0,262.0,-109.0,349.0
19:40:36.798000,-564.0,-80.0,1195.0,-241.0,1012.0,-23.0,267.0,-106.0,351.0
19:40:36.800000,-564.0,-80.0,1195.0,-241.0,1012.0,-23.0,267.0,-106.0,351.0
19:40:36.804000,-569.0,-70.0,1174.0,-241.0,868.0,-18.0,267.0,-106.0,351.0
19:40:36.809000,-571.0,-58.0,1151.0,-246.0,914.0,-48.0,252.0,-118.0,364.0
19:40:36.814000,-590.0,-42.0,1137.0,-286.0,962.0,-58.0,252.0,-118.0,364.0
19:40:36.819000,-599.0,-24.0,1101.0,-362.0,931.0,-48.0,274.0,-109.0,375.0
19:40:36.823000,-631.0,-11.0,1071.0,-366.0,949.0,-50.0,274.0,-109.0,375.0
19:40:36.828000,-635.0,6.0,1050.0,-350.0,818.0,-58.0,274.0,-109.0,375.0
19:40:36.833000,-641.0,15.0,1040.0,-318.0,829.0,-71.0,289.0,-120.0,372.0
19:40:36.838000,-654.0,32.0,1040.0,-288.0,837.0,-78.0,289.0,-120.0,372.0
19:40:36.842000,-646.0,48.0,1038.0,-288.0,837.0,-78.0,289.0,-117.0,381.0
19:40:36.847000,-661.0,60.0,1023.0,-310.0,807.0,-83.0,289.0,-117.0,381.0
19:40:36.851000,-665.0,74.0,1005.0,-312.0,942.0,-94.0,289.0,-117.0,381.0
19:40:36.856000,-665.0,82.0,974.0,-330.0,887.0,-90.0,300.0,-117.0,372.0
19:40:36.861000,-678.0,92.0,950.0,-340.0,878.0,-99.0,300.0,-117.0,372.0
19:40:36.866000,-663.0,103.0,926.0,-319.0,865.0,-110.0,304.0,-118.0,375.0
19:40:36.870000,-665.0,109.0,900.0,-325.0,765.0,-111.0,304.0,-118.0,375.0
19:40:36.875000,-650.0,121.0,873.0,-312.0,798.0,-125.0,304.0,-118.0,375.0
19:40:36.880000,-641.0,123.0,830.0,-313.0,777.0,-134.0,309.0,-133.0,384.0
19:40:36.884000,-641.0,123.0,830.0,-321.0,771.0,-132.0,309.0,-133.0,384.0
19:40:36.889000,-633.0,128.0,747.0,-323.0,773.0,-140.0,307.0,-127.0,390.0
19:40:36.894000,-633.0,128.0,747.0,-322.0,740.0,-141.0,307.0,-127.0,390.0
19:40:36.898000,-634.0,130.0,720.0,-310.0,708.0,-150.0,307.0,-127.0,390.0
19:40:36.903000,-623.0,131.0,695.0,-305.0,709.0,-164.0,313.0,-133.0,384.0
19:40:36.908000,-627.0,130.0,685.0,-314.0,706.0,-166.0,313.0,-133.0,384.0
19:40:36.913000,-626.0,132.0,671.0,-331.0,746.0,-181.0,319.0,-135.0,394.0
19:40:36.917000,-636.0,130.0,651.0,-335.0,782.0,-188.0,319.0,-135.0,394.0
19:40:36.921000,-638.0,131.0,630.0,-336.0,763.0,-189.0,319.0,-135.0,394.0
19:40:36.927000,-646.0,126.0,599.0,-316.0,752.0,-192.0,328.0,-142.0,393.0
19:40:36.932000,-646.0,128.0,577.0,-295.0,669.0,-197.0,328.0,-142.0,393.0
19:40:36.936000,-639.0,124.0,561.0,-289.0,671.0,-218.0,309.0,-135.0,391.0
19:40:36.941000,-631.0,123.0,542.0,-295.0,663.0,-225.0,309.0,-135.0,391.0
19:40:36.945000,-618.0,123.0,518.0,-328.0,625.0,-225.0,309.0,-135.0,391.0
19:40:36.950000,-609.0,116.0,485.0,-339.0,690.0,-241.0,325.0,-132.0,399.0
19:40:36.955000,-602.0,116.0,458.0,-339.0,690.0,-241.0,325.0,-132.0,399.0
19:40:36.960000,-590.0,116.0,433.0,-344.0,618.0,-239.0,327.0,-145.0,408.0
19:40:36.964000,-588.0,120.0,409.0,-365.0,600.0,-257.0,327.0,-145.0,408.0
19:40:36.968000,-583.0,126.0,397.0,-356.0,647.0,-271.0,327.0,-145.0,408.0
19:40:36.974000,-580.0,130.0,376.0,-364.0,564.0,-262.0,327.0,-141.0,409.0
19:40:36.979000,-587.0,144.0,358.0,-383.0,630.0,-290.0,327.0,-141.0,409.0
19:40:36.983000,-594.0,153.0,342.0,-398.0,663.0,-300.0,324.0,-153.0,414.0
19:40:36.988000,-611.0,159.0,319.0,-437.0,660.0,-301.0,324.0,-153.0,414.0
19:40:36.992000,-611.0,159.0,319.0,-439.0,737.0,-314.0,324.0,-153.0,414.0
19:40:36.997000,-626.0,166.0,303.0,-433.0,670.0,-314.0,337.0,-145.0,406.0
19:40:37.002000,-630.0,165.0,277.0,-424.0,666.0,-333.0,337.0,-145.0,406.0
19:40:37.007000,-634.0,161.0,252.0,-401.0,622.0,-336.0,322.0,-148.0,417.0
19:40:37.011000,-623.0,149.0,226.0,-394.0,532.0,-341.0,322.0,-148.0,417.0
19:40:37.015000,-603.0,133.0,193.0,-369.0,543.0,-358.0,322.0,-148.0,417.0
19:40:37.021000,-573.0,119.0,172.0,-365.0,484.0,-352.0,336.0,-159.0,426.0
19:40:37.026000,-542.0,104.0,147.0,-371.0,510.0,-359.0,336.0,-159.0,426.0
19:40:37.030000,-511.0,92.0,119.0,-371.0,519.0,-357.0,330.0,-162.0,418.0
19:40:37.035000,-476.0,81.0,89.0,-390.0,517.0,-357.0,330.0,-162.0,418.0
19:40:37.039000,-448.0,73.0,57.0,-399.0,581.0,-365.0,330.0,-162.0,418.0
19:40:37.044000,-423.0,70.0,33.0,-430.0,556.0,-355.0,328.0,-165.0,427.0
19:40:37.049000,-404.0,71.0,5.0,-460.0,610.0,-365.0,328.0,-165.0,427.0
19:40:37.054000,-389.0,81.0,-20.0,-460.0,610.0,-365.0,333.0,-168.0,427.0
19:40:37.058000,-380.0,93.0,-42.0,-495.0,579.0,-354.0,333.0,-168.0,427.0
19:40:37.066000,-375.0,107.0,-70.0,-489.0,626.0,-364.0,336.0,-166.0,426.0
19:40:37.068000,-372.0,126.0,-95.0,-489.0,626.0,-364.0,336.0,-166.0,426.0
19:40:37.072000,-373.0,140.0,-130.0,-492.0,595.0,-353.0,336.0,-166.0,426.0
19:40:37.077000,-378.0,154.0,-159.0,-492.0,659.0,-368.0,331.0,-162.0,432.0
19:40:37.082000,-380.0,169.0,-190.0,-485.0,678.0,-376.0,331.0,-162.0,432.0
19:40:37.087000,-390.0,182.0,-228.0,-516.0,688.0,-388.0,327.0,-177.0,423.0
19:40:37.091000,-394.0,194.0,-254.0,-534.0,726.0,-394.0,327.0,-177.0,423.0
19:40:37.095000,-385.0,203.0,-282.0,-531.0,639.0,-394.0,327.0,-177.0,423.0
19:40:37.101000,-378.0,216.0,-310.0,-511.0,636.0,-419.0,330.0,-162.0,433.0
19:40:37.105000,-369.0,226.0,-333.0,-495.0,621.0,-429.0,330.0,-162.0,433.0
19:40:37.110000,-373.0,234.0,-354.0,-510.0,639.0,-438.0,322.0,-166.0,436.0
19:40:37.115000,-373.0,234.0,-354.0,-519.0,718.0,-445.0,322.0,-166.0,436.0
19:40:37.119000,-371.0,238.0,-378.0,-526.0,706.0,-446.0,322.0,-166.0,436.0
19:40:37.124000,-371.0,237.0,-413.0,-516.0,737.0,-458.0,324.0,-169.0,436.0
19:40:37.129000,-373.0,235.0,-441.0,-494.0,711.0,-464.0,324.0,-169.0,436.0
19:40:37.134000,-371.0,232.0,-460.0,-473.0,691.0,-479.0,315.0,-183.0,435.0
19:40:37.138000,-371.0,228.0,-475.0,-467.0,720.0,-491.0,315.0,-183.0,435.0
19:40:37.142000,-367.0,228.0,-496.0,-489.0,723.0,-491.0,315.0,-183.0,435.0
19:40:37.148000,-373.0,222.0,-530.0,-500.0,766.0,-490.0,309.0,-178.0,438.0
19:40:37.152000,-378.0,214.0,-564.0,-494.0,766.0,-489.0,309.0,-178.0,438.0
19:40:37.157000,-385.0,207.0,-597.0,-465.0,773.0,-497.0,310.0,-177.0,450.0
19:40:37.162000,-390.0,198.0,-621.0,-441.0,754.0,-497.0,310.0,-177.0,450.0
19:40:37.166000,-393.0,190.0,-641.0,-438.0,764.0,-503.0,310.0,-177.0,450.0
19:40:37.171000,-395.0,180.0,-672.0,-442.0,803.0,-503.0,301.0,-183.0,442.0
19:40:37.176000,-396.0,172.0,-707.0,-442.0,803.0,-503.0,301.0,-183.0,442.0
19:40:37.181000,-405.0,164.0,-744.0,-465.0,785.0,-495.0,294.0,-175.0,435.0
19:40:37.185000,-413.0,158.0,-767.0,-464.0,825.0,-500.0,294.0,-175.0,435.0
19:40:37.189000,-417.0,156.0,-782.0,-441.0,806.0,-494.0,294.0,-175.0,435.0
19:40:37.195000,-424.0,158.0,-808.0,-429.0,794.0,-495.0,298.0,-186.0,448.0
19:40:37.199000,-428.0,161.0,-842.0,-417.0,822.0,-494.0,298.0,-186.0,448.0
19:40:37.204000,-430.0,166.0,-879.0,-409.0,802.0,-488.0,292.0,-180.0,448.0
19:40:37.209000,-433.0,172.0,-908.0,-399.0,834.0,-497.0,292.0,-180.0,448.0
19:40:37.213000,-433.0,172.0,-908.0,-406.0,836.0,-496.0,292.0,-180.0,448.0
19:40:37.218000,-453.0,191.0,-954.0,-429.0,864.0,-495.0,289.0,-186.0,447.0
19:40:37.223000,-453.0,191.0,-954.0,-440.0,897.0,-487.0,289.0,-186.0,447.0
19:40:37.228000,-463.0,194.0,-975.0,-431.0,858.0,-484.0,277.0,-192.0,447.0
19:40:37.232000,-468.0,197.0,-997.0,-392.0,858.0,-496.0,277.0,-192.0,447.0
19:40:37.275000,-505.0,184.0,-1229.0,-350.0,817.0,-507.0,235.0,-192.0,471.0
19:40:37.279000,-515.0,179.0,-1265.0,-412.0,838.0,-515.0,235.0,-192.0,471.0
19:40:37.284000,-528.0,175.0,-1309.0,-412.0,838.0,-515.0,235.0,-192.0,471.0
19:40:37.289000,-546.0,167.0,-1355.0,-447.0,863.0,-512.0,235.0,-192.0,471.0
19:40:37.293000,-569.0,153.0,-1404.0,-465.0,856.0,-507.0,238.0,-208.0,466.0
19:40:37.298000,-593.0,133.0,-1456.0,-441.0,877.0,-510.0,238.0,-208.0,466.0
19:40:37.302000,-611.0,114.0,-1508.0,-381.0,840.0,-510.0,238.0,-208.0,466.0
19:40:37.307000,-630.0,98.0,-1569.0,-321.0,825.0,-522.0,246.0,-201.0,453.0
19:40:37.312000,-648.0,86.0,-1641.0,-292.0,865.0,-534.0,246.0,-201.0,453.0
19:40:37.317000,-674.0,78.0,-1723.0,-311.0,914.0,-544.0,225.0,-214.0,457.0
19:40:37.321000,-674.0,78.0,-1723.0,-363.0,1017.0,-550.0,225.0,-214.0,457.0
19:40:37.326000,-710.0,73.0,-1807.0,-424.0,1087.0,-551.0,225.0,-214.0,457.0
19:40:37.331000,-752.0,67.0,-1887.0,-483.0,1116.0,-548.0,202.0,-217.0,483.0
19:40:37.336000,-802.0,57.0,-1955.0,-520.0,1101.0,-546.0,202.0,-217.0,483.0
19:40:37.340000,-844.0,47.0,-2006.0,-532.0,1044.0,-550.0,217.0,-226.0,462.0
19:40:37.345000,-892.0,38.0,-2029.0,-526.0,1004.0,-551.0,217.0,-226.0,462.0
19:40:37.349000,-929.0,30.0,-2031.0,-522.0,949.0,-551.0,217.0,-226.0,462.0
19:40:37.354000,-965.0,18.0,-2027.0,-511.0,931.0,-555.0,204.0,-235.0,477.0
19:40:37.359000,-997.0,5.0,-2018.0,-499.0,904.0,-558.0,204.0,-235.0,477.0
19:40:37.363000,-1025.0,-6.0,-2015.0,-487.0,890.0,-560.0,195.0,-244.0,495.0
19:40:37.369000,-1060.0,-16.0,-2018.0,-464.0,889.0,-564.0,195.0,-244.0,495.0
19:40:37.373000,-1089.0,-23.0,-2027.0,-437.0,876.0,-569.0,195.0,-244.0,495.0
19:40:37.378000,-1124.0,-32.0,-2042.0,-401.0,901.0,-572.0,190.0,-246.0,481.0
19:40:37.383000,-1155.0,-43.0,-2067.0,-370.0,900.0,-579.0,190.0,-246.0,481.0
19:40:37.387000,-1191.0,-60.0,-2100.0,-370.0,900.0,-579.0,184.0,-262.0,483.0
19:40:37.392000,-1232.0,-75.0,-2132.0,-342.0,932.0,-592.0,184.0,-262.0,483.0
19:40:37.396000,-1276.0,-93.0,-2155.0,-339.0,952.0,-600.0,184.0,-262.0,483.0
19:40:37.401000,-1336.0,-114.0,-2171.0,-365.0,971.0,-601.0,177.0,-273.0,483.0
19:40:37.406000,-1393.0,-136.0,-2169.0,-408.0,971.0,-598.0,177.0,-273.0,483.0
19:40:37.411000,-1461.0,-163.0,-2149.0,-408.0,971.0,-598.0,166.0,-280.0,478.0
19:40:37.416000,-1533.0,-196.0,-2114.0,-403.0,979.0,-601.0,166.0,-280.0,478.0
19:40:37.420000,-1601.0,-237.0,-2070.0,-386.0,945.0,-603.0,165.0,-285.0,493.0
19:40:37.425000,-1676.0,-284.0,-2020.0,-372.0,911.0,-610.0,165.0,-285.0,493.0
19:40:37.429000,-1676.0,-284.0,-2020.0,-352.0,940.0,-622.0,165.0,-285.0,493.0
19:40:37.434000,-1808.0,-397.0,-1918.0,-349.0,887.0,-630.0,166.0,-300.0,489.0
19:40:37.439000,-1808.0,-397.0,-1918.0,-363.0,888.0,-644.0,166.0,-300.0,489.0
19:40:37.444000,-1876.0,-465.0,-1854.0,-382.0,899.0,-653.0,169.0,-331.0,504.0
19:40:37.448000,-1939.0,-539.0,-1782.0,-413.0,802.0,-654.0,169.0,-331.0,504.0
19:40:37.453000,-2006.0,-618.0,-1711.0,-414.0,793.0,-666.0,169.0,-331.0,504.0
19:40:37.457000,-2069.0,-702.0,-1649.0,-383.0,757.0,-676.0,166.0,-340.0,501.0
19:40:37.463000,-2128.0,-785.0,-1605.0,-353.0,675.0,-685.0,166.0,-340.0,501.0
19:40:37.467000,-2193.0,-867.0,-1576.0,-309.0,716.0,-696.0,165.0,-358.0,499.0
19:40:37.472000,-2243.0,-950.0,-1561.0,-254.0,690.0,-704.0,165.0,-358.0,499.0
19:40:37.476000,-2285.0,-1022.0,-1556.0,-217.0,656.0,-719.0,165.0,-358.0,499.0
19:40:37.481000,-2333.0,-1084.0,-1575.0,-213.0,728.0,-729.0,165.0,-376.0,508.0
19:40:37.486000,-2366.0,-1133.0,-1598.0,-262.0,733.0,-736.0,165.0,-376.0,508.0
19:40:37.491000,-2384.0,-1171.0,-1610.0,-262.0,733.0,-736.0,175.0,-391.0,504.0
19:40:37.495000,-2408.0,-1202.0,-1627.0,-469.0,815.0,-732.0,175.0,-391.0,504.0
19:40:37.500000,-2426.0,-1225.0,-1642.0,-573.0,793.0,-736.0,175.0,-391.0,504.0
19:40:37.505000,-2458.0,-1242.0,-1632.0,-573.0,793.0,-736.0,168.0,-403.0,513.0
19:40:37.510000,-2468.0,-1252.0,-1607.0,-646.0,793.0,-733.0,168.0,-403.0,513.0
19:40:37.514000,-2452.0,-1254.0,-1561.0,-681.0,734.0,-752.0,189.0,-433.0,513.0
19:40:37.519000,-2443.0,-1264.0,-1528.0,-686.0,650.0,-757.0,189.0,-433.0,513.0
19:40:37.523000,-2429.0,-1258.0,-1545.0,-714.0,592.0,-761.0,189.0,-433.0,513.0
19:40:37.528000,-2420.0,-1257.0,-1588.0,-753.0,591.0,-783.0,202.0,-463.0,510.0
19:40:37.533000,-2433.0,-1248.0,-1635.0,-777.0,649.0,-783.0,202.0,-463.0,510.0
19:40:37.538000,-2445.0,-1225.0,-1689.0,-804.0,704.0,-796.0,210.0,-469.0,498.0
19:40:37.542000,-2437.0,-1180.0,-1705.0,-807.0,798.0,-825.0,210.0,-469.0,498.0
19:40:37.547000,-2437.0,-1180.0,-1705.0,-817.0,812.0,-837.0,210.0,-469.0,498.0
19:40:37.552000,-2431.0,-1136.0,-1694.0,-863.0,785.0,-838.0,216.0,-493.0,507.0
19:40:37.557000,-2433.0,-1101.0,-1696.0,-933.0,748.0,-853.0,216.0,-493.0,507.0
19:40:37.561000,-2402.0,-1057.0,-1714.0,-977.0,623.0,-908.0,226.0,-505.0,499.0
19:40:37.566000,-2319.0,-1033.0,-1666.0,-926.0,534.0,-914.0,226.0,-505.0,499.0
19:40:37.570000,-2287.0,-1029.0,-1558.0,-881.0,521.0,-923.0,226.0,-505.0,499.0
19:40:37.575000,-2244.0,-1016.0,-1488.0,-886.0,610.0,-956.0,241.0,-516.0,499.0
19:40:37.580000,-2212.0,-1023.0,-1468.0,-890.0,689.0,-955.0,241.0,-516.0,499.0
19:40:37.585000,-2149.0,-1013.0,-1472.0,-920.0,596.0,-989.0,231.0,-535.0,480.0
19:40:37.589000,-2079.0,-1030.0,-1486.0,-895.0,525.0,-995.0,231.0,-535.0,480.0
19:40:37.594000,-2019.0,-1040.0,-1442.0,-861.0,492.0,-1002.0,231.0,-535.0,480.0
19:40:37.599000,-1969.0,-1012.0,-1390.0,-883.0,436.0,-1045.0,256.0,-556.0,475.0
19:40:37.604000,-1919.0,-1017.0,-1332.0,-928.0,464.0,-1024.0,256.0,-556.0,475.0
19:40:37.608000,-1855.0,-1072.0,-1332.0,-890.0,428.0,-1027.0,273.0,-564.0,466.0
19:40:37.613000,-1787.0,-1085.0,-1307.0,-890.0,428.0,-1027.0,273.0,-564.0,466.0
19:40:37.618000,-1705.0,-1078.0,-1367.0,-796.0,398.0,-1073.0,283.0,-571.0,465.0
19:40:37.622000,-1646.0,-1092.0,-1521.0,-726.0,467.0,-1038.0,283.0,-571.0,465.0
19:40:37.626000,-1557.0,-1122.0,-1673.0,-650.0,430.0,-1019.0,283.0,-571.0,465.0
19:40:37.632000,-1475.0,-1181.0,-1759.0,-604.0,360.0,-1017.0,300.0,-582.0,459.0
19:40:37.636000,-1390.0,-1262.0,-1827.0,-573.0,317.0,-972.0,300.0,-582.0,459.0
19:40:37.641000,-1358.0,-1268.0,-1759.0,-526.0,176.0,-960.0,297.0,-595.0,448.0
19:40:37.646000,-1374.0,-1313.0,-1537.0,-417.0,23.0,-909.0,297.0,-595.0,448.0
19:40:37.650000,-1374.0,-1313.0,-1537.0,-376.0,-107.0,-862.0,297.0,-595.0,448.0
19:40:37.655000,-1278.0,-1249.0,-1260.0,-417.0,-256.0,-903.0,322.0,-603.0,441.0
19:40:37.660000,-1278.0,-1249.0,-1260.0,-325.0,-460.0,-885.0,322.0,-603.0,441.0
19:40:37.665000,-1231.0,-1225.0,-989.0,-212.0,-622.0,-806.0,331.0,-609.0,439.0
19:40:37.669000,-1139.0,-1272.0,-800.0,-174.0,-564.0,-780.0,331.0,-609.0,439.0
19:40:37.673000,-1115.0,-1213.0,-903.0,-38.0,-574.0,-760.0,331.0,-609.0,439.0
19:40:37.679000,-1046.0,-1190.0,-944.0,131.0,-844.0,-804.0,346.0,-612.0,430.0
19:40:37.683000,-992.0,-1121.0,-763.0,163.0,-992.0,-797.0,346.0,-612.0,430.0
19:40:37.688000,-998.0,-1104.0,-698.0,55.0,-948.0,-783.0,351.0,-613.0,421.0
19:40:37.693000,-1017.0,-1050.0,-818.0,30.0,-755.0,-789.0,351.0,-613.0,421.0
19:40:37.697000,-994.0,-1156.0,-1032.0,74.0,-518.0,-829.0,351.0,-613.0,421.0
19:40:37.702000,-992.0,-1089.0,-1267.0,-2.0,-415.0,-949.0,355.0,-621.0,424.0
19:40:37.707000,-1017.0,-1023.0,-1365.0,-163.0,-419.0,-900.0,355.0,-621.0,424.0
19:40:37.712000,-1128.0,-1062.0,-1235.0,-163.0,-419.0,-900.0,375.0,-624.0,409.0
19:40:37.716000,-1228.0,-1012.0,-1190.0,-454.0,-336.0,-996.0,375.0,-624.0,409.0
19:40:37.720000,-1333.0,-952.0,-1327.0,-454.0,-336.0,-996.0,375.0,-624.0,409.0
19:40:37.726000,-1366.0,-955.0,-1373.0,-370.0,-294.0,-984.0,385.0,-624.0,399.0
19:40:37.730000,-1428.0,-914.0,-1354.0,-219.0,-565.0,-1024.0,385.0,-624.0,399.0
19:40:37.735000,-1442.0,-922.0,-1201.0,-219.0,-565.0,-1024.0,393.0,-628.0,391.0
19:40:37.740000,-1444.0,-886.0,-1100.0,-312.0,-735.0,-1057.0,393.0,-628.0,391.0
19:40:37.745000,-1461.0,-896.0,-1122.0,-450.0,-755.0,-1093.0,406.0,-627.0,385.0
19:40:37.749000,-1474.0,-960.0,-1179.0,-479.0,-659.0,-1022.0,406.0,-627.0,385.0
19:40:37.753000,-1474.0,-960.0,-1179.0,-415.0,-678.0,-1047.0,406.0,-627.0,385.0
19:40:37.759000,-1395.0,-1034.0,-1246.0,-283.0,-714.0,-1081.0,421.0,-640.0,367.0
19:40:37.763000,-1348.0,-1062.0,-1202.0,-156.0,-778.0,-1056.0,421.0,-640.0,367.0
19:40:37.768000,-1348.0,-1062.0,-1202.0,-115.0,-787.0,-1086.0,426.0,-633.0,367.0
19:40:37.773000,-1228.0,-1127.0,-1199.0,-177.0,-760.0,-1084.0,426.0,-633.0,367.0
19:40:37.777000,-1124.0,-1179.0,-1223.0,-277.0,-817.0,-1095.0,426.0,-633.0,367.0
19:40:37.782000,-1008.0,-1241.0,-1211.0,-297.0,-838.0,-1083.0,430.0,-639.0,358.0
19:40:37.787000,-960.0,-1283.0,-1205.0,-242.0,-751.0,-1045.0,430.0,-639.0,358.0
19:40:37.792000,-977.0,-1294.0,-1185.0,-191.0,-610.0,-1020.0,447.0,-639.0,343.0
19:40:37.796000,-1013.0,-1290.0,-1139.0,-198.0,-528.0,-1014.0,447.0,-639.0,343.0
19:40:37.800000,-978.0,-1277.0,-1050.0,-179.0,-547.0,-1085.0,447.0,-639.0,343.0
19:40:37.806000,-775.0,-1292.0,-887.0,-65.0,-878.0,-997.0,460.0,-633.0,331.0
19:40:37.810000,-946.0,-1230.0,-740.0,-25.0,-1272.0,-683.0,460.0,-633.0,331.0
19:40:37.815000,-1436.0,-1250.0,-830.0,-25.0,-1142.0,-699.0,459.0,-630.0,324.0
19:40:37.820000,-1450.0,-1234.0,-1406.0,-545.0,-632.0,-1021.0,459.0,-630.0,324.0
19:40:37.824000,-979.0,-1303.0,-1853.0,-563.0,-331.0,-1071.0,459.0,-630.0,324.0
19:40:37.829000,-836.0,-1279.0,-1780.0,-563.0,-349.0,-1071.0,486.0,-618.0,309.0
19:40:37.834000,-840.0,-1285.0,-1423.0,-436.0,-349.0,-900.0,486.0,-618.0,309.0
19:40:37.839000,-744.0,-1339.0,-1194.0,-398.0,-504.0,-838.0,495.0,-618.0,301.0
19:40:37.843000,-728.0,-1278.0,-1351.0,-579.0,-620.0,-870.0,495.0,-618.0,301.0
19:40:37.847000,-700.0,-1225.0,-1388.0,-697.0,-663.0,-886.0,495.0,-618.0,301.0
19:40:37.853000,-686.0,-1195.0,-1155.0,-643.0,-729.0,-868.0,501.0,-618.0,295.0
19:40:37.857000,-686.0,-1160.0,-1047.0,-593.0,-677.0,-846.0,501.0,-618.0,295.0
19:40:37.862000,-681.0,-1158.0,-1175.0,-560.0,-484.0,-829.0,502.0,-627.0,280.0
19:40:37.867000,-678.0,-1166.0,-1197.0,-499.0,-411.0,-793.0,502.0,-627.0,280.0
19:40:37.871000,-678.0,-1166.0,-1197.0,-449.0,-459.0,-762.0,502.0,-627.0,280.0
19:40:37.876000,-679.0,-1191.0,-1221.0,-451.0,-478.0,-750.0,520.0,-615.0,274.0
19:40:37.881000,-668.0,-1196.0,-1254.0,-455.0,-560.0,-771.0,520.0,-615.0,274.0
19:40:37.886000,-640.0,-1162.0,-1193.0,-528.0,-604.0,-779.0,519.0,-612.0,265.0
19:40:37.890000,-602.0,-1162.0,-1163.0,-571.0,-544.0,-762.0,519.0,-612.0,265.0
19:40:37.894000,-571.0,-1176.0,-1151.0,-552.0,-467.0,-752.0,519.0,-612.0,265.0
19:40:37.900000,-519.0,-1208.0,-1110.0,-525.0,-420.0,-745.0,520.0,-603.0,267.0
19:40:37.904000,-498.0,-1225.0,-1012.0,-553.0,-431.0,-733.0,520.0,-603.0,267.0
19:40:37.909000,-508.0,-1231.0,-933.0,-669.0,-435.0,-722.0,538.0,-603.0,255.0
19:40:37.914000,-515.0,-1232.0,-1023.0,-707.0,-487.0,-733.0,538.0,-603.0,255.0
19:40:37.918000,-453.0,-1241.0,-1037.0,-566.0,-546.0,-741.0,538.0,-603.0,255.0
19:40:37.923000,-409.0,-1240.0,-864.0,-486.0,-486.0,-711.0,534.0,-591.0,237.0
19:40:37.928000,-419.0,-1232.0,-763.0,-537.0,-394.0,-681.0,534.0,-591.0,237.0
19:40:37.933000,-413.0,-1234.0,-738.0,-537.0,-394.0,-681.0,546.0,-591.0,229.0
19:40:37.937000,-398.0,-1229.0,-737.0,-661.0,-413.0,-667.0,546.0,-591.0,229.0
19:40:37.941000,-384.0,-1252.0,-779.0,-661.0,-413.0,-667.0,546.0,-591.0,229.0
19:40:37.947000,-352.0,-1250.0,-933.0,-728.0,-371.0,-660.0,558.0,-585.0,237.0
19:40:37.951000,-301.0,-1239.0,-949.0,-751.0,-372.0,-673.0,558.0,-585.0,237.0
19:40:37.956000,-273.0,-1225.0,-825.0,-712.0,-507.0,-667.0,541.0,-591.0,220.0
19:40:37.961000,-259.0,-1208.0,-779.0,-725.0,-558.0,-653.0,541.0,-591.0,220.0
19:40:37.965000,-247.0,-1225.0,-762.0,-732.0,-504.0,-622.0,541.0,-591.0,220.0
19:40:37.970000,-261.0,-1225.0,-753.0,-685.0,-448.0,-596.0,546.0,-582.0,208.0
19:40:37.974000,-261.0,-1225.0,-753.0,-681.0,-413.0,-591.0,546.0,-582.0,208.0
19:40:37.980000,-229.0,-1233.0,-830.0,-721.0,-390.0,-573.0,558.0,-574.0,199.0
19:40:37.984000,-209.0,-1219.0,-841.0,-759.0,-416.0,-569.0,558.0,-574.0,199.0
19:40:37.989000,-209.0,-1219.0,-841.0,-828.0,-414.0,-571.0,561.0,-561.0,189.0
19:40:37.994000,-183.0,-1221.0,-893.0,-880.0,-358.0,-554.0,561.0,-561.0,189.0
19:40:37.998000,-178.0,-1207.0,-949.0,-840.0,-361.0,-554.0,561.0,-561.0,189.0
19:40:38.003000,-161.0,-1179.0,-862.0,-807.0,-372.0,-550.0,574.0,-558.0,181.0
19:40:38.008000,-149.0,-1157.0,-802.0,-824.0,-311.0,-518.0,574.0,-558.0,181.0
19:40:38.012000,-142.0,-1158.0,-814.0,-803.0,-274.0,-498.0,571.0,-556.0,175.0
19:40:38.017000,-144.0,-1135.0,-753.0,-812.0,-330.0,-495.0,571.0,-556.0,175.0
19:40:38.021000,-127.0,-1115.0,-751.0,-878.0,-396.0,-452.0,571.0,-556.0,175.0
19:40:38.027000,-123.0,-1120.0,-809.0,-878.0,-357.0,-422.0,565.0,-547.0,183.0
19:40:38.031000,-140.0,-1122.0,-764.0,-859.0,-194.0,-393.0,565.0,-547.0,183.0
19:40:38.036000,-194.0,-1137.0,-802.0,-859.0,-194.0,-393.0,576.0,-552.0,162.0
19:40:38.041000,-193.0,-1103.0,-759.0,-894.0,-232.0,-402.0,576.0,-552.0,162.0
19:40:38.045000,-200.0,-1079.0,-611.0,-937.0,-237.0,-378.0,576.0,-552.0,162.0
19:40:38.050000,-196.0,-1068.0,-689.0,-937.0,-237.0,-378.0,580.0,-546.0,148.0
19:40:38.055000,-210.0,-1036.0,-714.0,-999.0,-215.0,-370.0,580.0,-546.0,148.0
19:40:38.059000,-247.0,-1008.0,-641.0,-965.0,-232.0,-329.0,580.0,-538.0,150.0
19:40:38.064000,-273.0,-1001.0,-553.0,-965.0,-232.0,-329.0,580.0,-538.0,150.0
19:40:38.068000,-280.0,-982.0,-576.0,-974.0,-179.0,-320.0,580.0,-538.0,150.0
19:40:38.074000,-254.0,-946.0,-615.0,-979.0,-159.0,-330.0,589.0,-531.0,133.0
19:40:38.078000,-237.0,-914.0,-611.0,-991.0,-218.0,-327.0,589.0,-531.0,133.0
19:40:38.083000,-217.0,-903.0,-581.0,-999.0,-250.0,-309.0,589.0,-528.0,136.0
19:40:38.088000,-216.0,-898.0,-557.0,-991.0,-252.0,-290.0,589.0,-528.0,136.0
19:40:38.092000,-216.0,-898.0,-557.0,-994.0,-214.0,-279.0,589.0,-528.0,136.0
19:40:38.097000,-212.0,-883.0,-599.0,-989.0,-153.0,-273.0,573.0,-526.0,129.0
19:40:38.101000,-187.0,-876.0,-639.0,-935.0,-203.0,-262.0,573.0,-526.0,129.0
19:40:38.106000,-154.0,-873.0,-539.0,-916.0,-238.0,-254.0,586.0,-519.0,127.0
19:40:38.111000,-165.0,-849.0,-520.0,-963.0,-154.0,-240.0,586.0,-519.0,127.0
19:40:38.116000,-166.0,-843.0,-569.0,-980.0,-135.0,-226.0,585.0,-523.0,105.0
19:40:38.121000,-191.0,-833.0,-532.0,-980.0,-173.0,-228.0,585.0,-523.0,105.0
19:40:38.125000,-201.0,-808.0,-486.0,-1012.0,-169.0,-235.0,585.0,-523.0,105.0
19:40:38.130000,-186.0,-793.0,-506.0,-1021.0,-199.0,-224.0,582.0,-510.0,106.0
19:40:38.135000,-203.0,-761.0,-437.0,-999.0,-239.0,-213.0,582.0,-510.0,106.0
19:40:38.139000,-218.0,-744.0,-337.0,-1004.0,-194.0,-203.0,582.0,-511.0,102.0
19:40:38.144000,-219.0,-735.0,-336.0,-1023.0,-106.0,-188.0,582.0,-511.0,102.0
19:40:38.148000,-249.0,-718.0,-420.0,-996.0,-51.0,-178.0,582.0,-511.0,102.0
19:40:38.153000,-278.0,-695.0,-457.0,-955.0,-87.0,-176.0,585.0,-508.0,91.0
19:40:38.158000,-287.0,-679.0,-457.0,-955.0,-87.0,-176.0,585.0,-508.0,91.0
19:40:38.163000,-305.0,-654.0,-397.0,-948.0,-181.0,-171.0,594.0,-507.0,85.0
19:40:38.168000,-331.0,-630.0,-349.0,-986.0,-222.0,-161.0,594.0,-507.0,85.0
19:40:38.172000,-357.0,-586.0,-417.0,-1071.0,-163.0,-162.0,594.0,-507.0,85.0
19:40:38.177000,-365.0,-576.0,-456.0,-1098.0,-116.0,-155.0,583.0,-507.0,79.0
19:40:38.182000,-391.0,-554.0,-403.0,-1033.0,-160.0,-138.0,583.0,-507.0,79.0
19:40:38.186000,-393.0,-549.0,-370.0,-979.0,-175.0,-127.0,592.0,-496.0,79.0
19:40:38.191000,-380.0,-543.0,-359.0,-969.0,-129.0,-121.0,592.0,-496.0,79.0
19:40:38.195000,-380.0,-543.0,-359.0,-984.0,-109.0,-118.0,592.0,-496.0,79.0
19:40:38.200000,-387.0,-500.0,-419.0,-987.0,-102.0,-120.0,574.0,-504.0,82.0
19:40:38.205000,-387.0,-500.0,-419.0,-968.0,-119.0,-112.0,574.0,-504.0,82.0
19:40:38.210000,-399.0,-494.0,-428.0,-947.0,-145.0,-101.0,582.0,-493.0,69.0
19:40:38.215000,-396.0,-494.0,-424.0,-944.0,-147.0,-108.0,582.0,-493.0,69.0
19:40:38.219000,-394.0,-484.0,-453.0,-956.0,-134.0,-113.0,582.0,-493.0,69.0
19:40:38.224000,-371.0,-485.0,-443.0,-967.0,-105.0,-108.0,586.0,-469.0,61.0
19:40:38.229000,-377.0,-486.0,-409.0,-973.0,-53.0,-105.0,586.0,-469.0,61.0
19:40:38.233000,-388.0,-473.0,-421.0,-957.0,-33.0,-100.0,577.0,-487.0,78.0
19:40:38.238000,-399.0,-478.0,-398.0,-939.0,-63.0,-102.0,577.0,-487.0,78.0
19:40:38.242000,-423.0,-455.0,-332.0,-966.0,-55.0,-108.0,577.0,-487.0,78.0
19:40:38.247000,-443.0,-441.0,-319.0,-1014.0,-23.0,-107.0,586.0,-481.0,54.0
19:40:38.252000,-442.0,-436.0,-315.0,-1024.0,-25.0,-112.0,586.0,-481.0,54.0
19:40:38.257000,-464.0,-421.0,-279.0,-1024.0,-25.0,-112.0,600.0,-477.0,51.0
19:40:38.262000,-476.0,-410.0,-241.0,-1021.0,-12.0,-110.0,600.0,-477.0,51.0
19:40:38.266000,-479.0,-402.0,-234.0,-1021.0,-15.0,-117.0,600.0,-477.0,51.0
19:40:38.271000,-503.0,-371.0,-204.0,-1014.0,-28.0,-116.0,594.0,-475.0,60.0
19:40:38.276000,-518.0,-357.0,-131.0,-1014.0,-28.0,-116.0,594.0,-475.0,60.0
19:40:38.280000,-529.0,-337.0,-95.0,-1029.0,-25.0,-115.0,583.0,-474.0,45.0
19:40:38.285000,-550.0,-319.0,-114.0,-1055.0,-5.0,-117.0,583.0,-474.0,45.0
19:40:38.289000,-553.0,-310.0,-100.0,-1051.0,1.0,-113.0,583.0,-474.0,45.0
19:40:38.294000,-576.0,-294.0,-82.0,-1026.0,-6.0,-112.0,598.0,-471.0,40.0
19:40:38.299000,-595.0,-282.0,-56.0,-1014.0,9.0,-111.0,598.0,-471.0,40.0
19:40:38.304000,-620.0,-283.0,-28.0,-1006.0,34.0,-105.0,582.0,-474.0,43.0
19:40:38.309000,-649.0,-275.0,-18.0,-994.0,46.0,-105.0,582.0,-474.0,43.0
19:40:38.313000,-649.0,-275.0,-18.0,-990.0,54.0,-102.0,582.0,-474.0,43.0
19:40:38.318000,-676.0,-279.0,-24.0,-982.0,51.0,-97.0,589.0,-465.0,40.0
19:40:38.323000,-690.0,-287.0,-13.0,-960.0,29.0,-98.0,589.0,-465.0,40.0
19:40:38.327000,-718.0,-291.0,15.0,-953.0,5.0,-95.0,568.0,-462.0,42.0
19:40:38.332000,-734.0,-306.0,46.0,-955.0,28.0,-89.0,568.0,-462.0,42.0
19:40:38.336000,-757.0,-324.0,37.0,-934.0,34.0,-85.0,568.0,-462.0,42.0
19:40:38.341000,-779.0,-341.0,66.0,-909.0,20.0,-84.0,583.0,-462.0,31.0
19:40:38.346000,-804.0,-366.0,105.0,-909.0,24.0,-80.0,583.0,-462.0,31.0
19:40:38.351000,-835.0,-390.0,127.0,-908.0,51.0,-65.0,580.0,-450.0,28.0
19:40:38.356000,-864.0,-428.0,130.0,-905.0,74.0,-48.0,580.0,-450.0,28.0
19:40:38.360000,-891.0,-459.0,132.0,-912.0,100.0,-43.0,580.0,-450.0,28.0
19:40:38.365000,-929.0,-486.0,119.0,-924.0,121.0,-39.0,582.0,-457.0,30.0
19:40:38.370000,-988.0,-518.0,126.0,-916.0,128.0,-29.0,582.0,-457.0,30.0
19:40:38.374000,-1048.0,-546.0,157.0,-916.0,128.0,-29.0,582.0,-450.0,21.0
19:40:38.379000,-1118.0,-572.0,191.0,-916.0,108.0,-21.0,582.0,-450.0,21.0
19:40:38.383000,-1191.0,-599.0,187.0,-940.0,131.0,-9.0,582.0,-450.0,21.0
19:40:38.388000,-1269.0,-632.0,214.0,-954.0,153.0,1.0,583.0,-442.0,9.0
19:40:38.393000,-1360.0,-671.0,200.0,-957.0,174.0,30.0,583.0,-442.0,9.0
19:40:38.398000,-1449.0,-713.0,156.0,-948.0,214.0,57.0,580.0,-454.0,9.0
19:40:38.403000,-1537.0,-746.0,109.0,-914.0,241.0,63.0,580.0,-454.0,9.0
19:40:38.407000,-1635.0,-784.0,98.0,-890.0,242.0,79.0,580.0,-454.0,9.0
19:40:38.412000,-1735.0,-831.0,118.0,-882.0,199.0,107.0,579.0,-447.0,9.0
19:40:38.417000,-1837.0,-878.0,114.0,-895.0,181.0,129.0,579.0,-447.0,9.0
19:40:38.421000,-1928.0,-928.0,88.0,-919.0,192.0,156.0,562.0,-444.0,0.0
19:40:38.426000,-1928.0,-928.0,88.0,-923.0,191.0,184.0,562.0,-444.0,0.0
19:40:38.430000,-2023.0,-968.0,59.0,-922.0,200.0,210.0,562.0,-444.0,0.0
19:40:38.435000,-2123.0,-1003.0,3.0,-921.0,210.0,245.0,565.0,-423.0,-13.0
19:40:38.440000,-2217.0,-1057.0,-48.0,-894.0,199.0,282.0,565.0,-423.0,-13.0
19:40:38.445000,-2303.0,-1124.0,-98.0,-846.0,176.0,320.0,558.0,-417.0,-31.0
19:40:38.450000,-2383.0,-1194.0,-119.0,-822.0,154.0,352.0,558.0,-417.0,-31.0
19:40:38.457000,-2575.0,-1292.0,-196.0,-876.0,196.0,420.0,565.0,-414.0,-22.0
19:40:38.459000,-2575.0,-1292.0,-196.0,-876.0,196.0,420.0,565.0,-414.0,-22.0
19:40:38.463000,-2681.0,-1347.0,-277.0,-855.0,205.0,463.0,565.0,-414.0,-22.0
19:40:38.468000,-2780.0,-1411.0,-312.0,-830.0,203.0,498.0,546.0,-393.0,-31.0
19:40:38.473000,-2866.0,-1462.0,-352.0,-859.0,211.0,531.0,546.0,-393.0,-31.0
19:40:38.478000,-2949.0,-1511.0,-439.0,-859.0,211.0,531.0,541.0,-385.0,-39.0
19:40:38.482000,-3021.0,-1566.0,-475.0,-904.0,182.0,616.0,541.0,-385.0,-39.0
19:40:38.486000,-3110.0,-1617.0,-470.0,-904.0,182.0,616.0,541.0,-385.0,-39.0
19:40:38.492000,-3199.0,-1659.0,-539.0,-930.0,209.0,651.0,535.0,-369.0,-39.0
19:40:38.497000,-3291.0,-1696.0,-584.0,-928.0,256.0,716.0,535.0,-369.0,-39.0
19:40:38.501000,-3383.0,-1738.0,-580.0,-928.0,256.0,716.0,529.0,-334.0,-57.0
19:40:38.506000,-3486.0,-1770.0,-613.0,-923.0,258.0,752.0,529.0,-334.0,-57.0
19:40:38.510000,-3567.0,-1820.0,-683.0,-947.0,266.0,785.0,529.0,-334.0,-57.0
19:40:38.515000,-3650.0,-1852.0,-714.0,-931.0,278.0,815.0,525.0,-312.0,-57.0
19:40:38.520000,-3731.0,-1894.0,-751.0,-897.0,268.0,847.0,525.0,-312.0,-57.0
19:40:38.525000,-3781.0,-1938.0,-795.0,-879.0,299.0,875.0,508.0,-292.0,-61.0
19:40:38.529000,-3845.0,-1967.0,-875.0,-874.0,313.0,898.0,508.0,-292.0,-61.0
19:40:38.533000,-3845.0,-1967.0,-875.0,-856.0,309.0,923.0,508.0,-292.0,-61.0
19:40:38.539000,-3893.0,-1994.0,-882.0,-848.0,265.0,942.0,508.0,-273.0,-58.0
19:40:38.544000,-3931.0,-2023.0,-858.0,-885.0,281.0,957.0,508.0,-273.0,-58.0
19:40:38.548000,-3956.0,-2053.0,-938.0,-915.0,303.0,962.0,483.0,-256.0,-57.0
19:40:38.553000,-3964.0,-2079.0,-1024.0,-881.0,276.0,960.0,483.0,-256.0,-57.0
19:40:38.557000,-3962.0,-2102.0,-1035.0,-863.0,257.0,970.0,483.0,-256.0,-57.0
19:40:38.562000,-3966.0,-2123.0,-1059.0,-875.0,291.0,960.0,489.0,-231.0,-52.0
19:40:38.567000,-3952.0,-2132.0,-1089.0,-871.0,290.0,950.0,489.0,-231.0,-52.0
19:40:38.572000,-3930.0,-2148.0,-1074.0,-897.0,295.0,944.0,451.0,-213.0,-45.0
19:40:38.576000,-3901.0,-2151.0,-1088.0,-919.0,335.0,930.0,451.0,-213.0,-45.0
19:40:38.580000,-3878.0,-2149.0,-1120.0,-916.0,317.0,927.0,451.0,-213.0,-45.0
19:40:38.586000,-3831.0,-2164.0,-1150.0,-868.0,321.0,922.0,423.0,-169.0,-22.0
19:40:38.591000,-3779.0,-2181.0,-1129.0,-806.0,282.0,914.0,423.0,-169.0,-22.0
19:40:38.595000,-3735.0,-2191.0,-1075.0,-806.0,282.0,914.0,432.0,-144.0,-28.0
19:40:38.600000,-3685.0,-2195.0,-1037.0,-777.0,263.0,901.0,432.0,-144.0,-28.0
19:40:38.604000,-3619.0,-2209.0,-1015.0,-770.0,253.0,881.0,432.0,-144.0,-28.0
19:40:38.609000,-3546.0,-2205.0,-1031.0,-765.0,270.0,855.0,406.0,-123.0,-12.0
19:40:38.614000,-3465.0,-2205.0,-1075.0,-775.0,327.0,827.0,406.0,-123.0,-12.0
19:40:38.619000,-3395.0,-2205.0,-1050.0,-763.0,352.0,814.0,399.0,-109.0,-3.0
19:40:38.623000,-3336.0,-2195.0,-962.0,-731.0,336.0,804.0,399.0,-109.0,-3.0
19:40:38.627000,-3336.0,-2195.0,-962.0,-728.0,338.0,791.0,399.0,-109.0,-3.0
19:40:38.633000,-3219.0,-2170.0,-830.0,-755.0,357.0,777.0,382.0,-90.0,15.0
19:40:38.638000,-3147.0,-2153.0,-851.0,-780.0,393.0,755.0,382.0,-90.0,15.0
19:40:38.642000,-3147.0,-2153.0,-851.0,-770.0,405.0,734.0,366.0,-72.0,13.0
19:40:38.647000,-3073.0,-2136.0,-842.0,-720.0,363.0,715.0,366.0,-72.0,13.0
19:40:38.651000,-3000.0,-2111.0,-759.0,-681.0,321.0,693.0,366.0,-72.0,13.0
19:40:38.656000,-2935.0,-2076.0,-649.0,-702.0,336.0,674.0,349.0,-49.0,39.0
19:40:38.661000,-2877.0,-2035.0,-590.0,-747.0,403.0,652.0,349.0,-49.0,39.0
19:40:38.665000,-2827.0,-1992.0,-550.0,-778.0,460.0,630.0,340.0,-45.0,54.0
19:40:38.670000,-2776.0,-1942.0,-513.0,-800.0,496.0,604.0,340.0,-45.0,54.0
19:40:38.674000,-2723.0,-1889.0,-485.0,-806.0,502.0,589.0,340.0,-45.0,54.0
19:40:38.680000,-2669.0,-1843.0,-454.0,-795.0,483.0,581.0,340.0,-34.0,75.0
19:40:38.684000,-2615.0,-1789.0,-426.0,-768.0,446.0,561.0,340.0,-34.0,75.0
19:40:38.689000,-2551.0,-1734.0,-392.0,-743.0,415.0,543.0,330.0,-30.0,88.0
19:40:38.694000,-2475.0,-1680.0,-386.0,-733.0,417.0,526.0,330.0,-30.0,88.0
19:40:38.698000,-2394.0,-1622.0,-414.0,-730.0,424.0,507.0,330.0,-30.0,88.0
19:40:38.703000,-2308.0,-1564.0,-444.0,-736.0,440.0,487.0,319.0,-19.0,96.0
19:40:38.707000,-2220.0,-1512.0,-487.0,-737.0,462.0,467.0,319.0,-19.0,96.0
19:40:38.713000,-2137.0,-1456.0,-522.0,-737.0,462.0,467.0,309.0,-15.0,112.0
19:40:38.717000,-2057.0,-1398.0,-532.0,-719.0,467.0,441.0,309.0,-15.0,112.0
19:40:38.722000,-1987.0,-1348.0,-521.0,-708.0,463.0,424.0,304.0,-10.0,129.0
19:40:38.727000,-1924.0,-1302.0,-508.0,-711.0,476.0,411.0,304.0,-10.0,129.0
19:40:38.731000,-1867.0,-1253.0,-514.0,-712.0,516.0,391.0,304.0,-10.0,129.0
19:40:38.736000,-1813.0,-1209.0,-523.0,-698.0,556.0,375.0,300.0,-6.0,153.0
19:40:38.741000,-1761.0,-1169.0,-516.0,-666.0,572.0,364.0,300.0,-6.0,153.0
19:40:38.746000,-1712.0,-1129.0,-485.0,-626.0,565.0,352.0,295.0,6.0,157.0
19:40:38.750000,-1661.0,-1088.0,-454.0,-601.0,552.0,337.0,295.0,6.0,157.0
19:40:38.754000,-1661.0,-1088.0,-454.0,-597.0,551.0,320.0,295.0,6.0,157.0
19:40:38.760000,-1614.0,-1045.0,-446.0,-592.0,558.0,305.0,270.0,0.0,172.0
19:40:38.764000,-1566.0,-1005.0,-443.0,-576.0,562.0,291.0,270.0,0.0,172.0
19:40:38.769000,-1520.0,-963.0,-428.0,-558.0,571.0,277.0,280.0,1.0,180.0
19:40:38.774000,-1481.0,-920.0,-406.0,-543.0,586.0,265.0,280.0,1.0,180.0
19:40:38.778000,-1451.0,-870.0,-378.0,-537.0,611.0,255.0,280.0,1.0,180.0
19:40:38.783000,-1423.0,-821.0,-373.0,-537.0,637.0,248.0,282.0,3.0,187.0
19:40:38.788000,-1402.0,-779.0,-388.0,-522.0,651.0,242.0,282.0,3.0,187.0
19:40:38.793000,-1386.0,-738.0,-401.0,-493.0,655.0,229.0,276.0,7.0,198.0
19:40:38.797000,-1372.0,-695.0,-397.0,-468.0,653.0,215.0,276.0,7.0,198.0
19:40:38.801000,-1357.0,-658.0,-385.0,-459.0,649.0,203.0,276.0,7.0,198.0
19:40:38.807000,-1341.0,-629.0,-382.0,-454.0,641.0,187.0,277.0,7.0,229.0
19:40:38.811000,-1320.0,-603.0,-389.0,-441.0,633.0,170.0,277.0,7.0,229.0
19:40:38.816000,-1290.0,-582.0,-403.0,-441.0,633.0,170.0,273.0,13.0,228.0
19:40:38.821000,-1253.0,-564.0,-416.0,-418.0,620.0,156.0,273.0,13.0,228.0
19:40:38.825000,-1213.0,-550.0,-431.0,-387.0,601.0,149.0,273.0,13.0,228.0
19:40:38.830000,-1175.0,-534.0,-448.0,-351.0,589.0,145.0,267.0,13.0,238.0
19:40:38.835000,-1134.0,-522.0,-447.0,-313.0,590.0,144.0,267.0,13.0,238.0
19:40:38.840000,-1094.0,-514.0,-424.0,-279.0,598.0,145.0,262.0,10.0,243.0
19:40:38.844000,-1058.0,-508.0,-401.0,-264.0,609.0,148.0,262.0,10.0,243.0
19:40:38.848000,-1058.0,-508.0,-401.0,-267.0,624.0,148.0,262.0,10.0,243.0
19:40:38.853000,-1021.0,-499.0,-379.0,-280.0,636.0,147.0,262.0,9.0,262.0
19:40:38.858000,-957.0,-469.0,-340.0,-304.0,645.0,142.0,262.0,9.0,262.0
19:40:38.863000,-957.0,-469.0,-340.0,-337.0,652.0,137.0,258.0,4.0,265.0
19:40:38.868000,-926.0,-447.0,-320.0,-372.0,651.0,136.0,258.0,4.0,265.0
19:40:38.872000,-892.0,-427.0,-301.0,-393.0,645.0,137.0,258.0,4.0,265.0
19:40:38.877000,-861.0,-410.0,-280.0,-390.0,638.0,142.0,250.0,7.0,270.0
19:40:38.882000,-833.0,-395.0,-242.0,-371.0,632.0,146.0,250.0,7.0,270.0
19:40:38.886000,-803.0,-378.0,-197.0,-365.0,631.0,152.0,253.0,16.0,273.0
19:40:38.891000,-775.0,-362.0,-172.0,-375.0,636.0,160.0,253.0,16.0,273.0
19:40:38.895000,-748.0,-352.0,-161.0,-369.0,633.0,167.0,253.0,16.0,273.0
19:40:38.901000,-721.0,-343.0,-144.0,-347.0,634.0,171.0,250.0,13.0,276.0
19:40:38.905000,-695.0,-333.0,-131.0,-341.0,655.0,176.0,250.0,13.0,276.0
19:40:38.910000,-672.0,-329.0,-131.0,-341.0,655.0,176.0,246.0,9.0,282.0
19:40:38.915000,-656.0,-326.0,-133.0,-362.0,684.0,180.0,246.0,9.0,282.0
19:40:38.919000,-642.0,-320.0,-128.0,-366.0,678.0,177.0,246.0,9.0,282.0
19:40:38.924000,-627.0,-316.0,-129.0,-366.0,678.0,177.0,255.0,19.0,286.0
19:40:38.929000,-609.0,-313.0,-137.0,-358.0,667.0,174.0,255.0,19.0,286.0
19:40:38.933000,-585.0,-314.0,-140.0,-323.0,633.0,162.0,249.0,3.0,292.0
19:40:38.938000,-557.0,-309.0,-153.0,-323.0,633.0,162.0,249.0,3.0,292.0
19:40:38.942000,-531.0,-301.0,-185.0,-325.0,631.0,151.0,249.0,3.0,292.0
19:40:38.948000,-501.0,-296.0,-220.0,-331.0,636.0,143.0,253.0,12.0,298.0
19:40:38.952000,-475.0,-283.0,-238.0,-332.0,637.0,131.0,253.0,12.0,298.0
19:40:38.957000,-451.0,-269.0,-240.0,-338.0,638.0,119.0,255.0,3.0,297.0
19:40:38.962000,-436.0,-255.0,-245.0,-354.0,652.0,111.0,255.0,3.0,297.0
19:40:38.966000,-436.0,-255.0,-245.0,-368.0,668.0,103.0,255.0,3.0,297.0
19:40:38.971000,-418.0,-239.0,-259.0,-360.0,656.0,95.0,238.0,0.0,297.0
19:40:38.976000,-392.0,-222.0,-259.0,-348.0,621.0,90.0,238.0,0.0,297.0
19:40:38.980000,-355.0,-210.0,-265.0,-345.0,601.0,84.0,240.0,9.0,315.0
19:40:38.985000,-316.0,-192.0,-294.0,-329.0,603.0,74.0,240.0,9.0,315.0
19:40:38.989000,-275.0,-172.0,-309.0,-314.0,620.0,67.0,240.0,9.0,315.0
19:40:38.995000,-238.0,-154.0,-308.0,-328.0,650.0,67.0,237.0,12.0,304.0
19:40:38.999000,-202.0,-134.0,-318.0,-348.0,678.0,73.0,237.0,12.0,304.0
19:40:39.004000,-173.0,-114.0,-348.0,-338.0,680.0,84.0,241.0,10.0,318.0
19:40:39.009000,-146.0,-103.0,-349.0,-302.0,672.0,96.0,241.0,10.0,318.0
19:40:39.013000,-107.0,-97.0,-343.0,-271.0,679.0,109.0,241.0,10.0,318.0
