hh:mm:ss.ms,gyroX[mdps],gyroY[mdps],gyroZ[mdps],accX[mg],accY[mg],accZ[mg],magX[mG],magY[mG],magZ[mG]
19:40:00.160000,-2387.0,-534.0,-88.0,-286.0,-513.0,-314.0,325.0,-519.0,520.0
19:40:00.166000,-2431.0,-525.0,-14.0,-255.0,-535.0,-347.0,322.0,-537.0,499.0
19:40:00.170000,-2457.0,-519.0,112.0,-247.0,-596.0,-346.0,322.0,-537.0,499.0
19:40:00.174000,-2492.0,-529.0,261.0,-222.0,-643.0,-344.0,327.0,-555.0,495.0
19:40:00.180000,-2520.0,-543.0,396.0,-187.0,-668.0,-261.0,327.0,-555.0,495.0
19:40:00.184000,-2551.0,-576.0,473.0,-144.0,-617.0,-388.0,322.0,-567.0,475.0
19:40:00.189000,-2445.0,-539.0,518.0,-95.0,-644.0,-453.0,322.0,-567.0,475.0
19:40:00.193000,-2509.0,-557.0,543.0,-18.0,-724.0,-358.0,322.0,-567.0,475.0
19:40:00.199000,-2450.0,-567.0,631.0,38.0,-766.0,-380.0,321.0,-592.0,469.0
19:40:00.203000,-2436.0,-597.0,759.0,38.0,-848.0,-361.0,321.0,-592.0,469.0
19:40:00.208000,-2383.0,-629.0,893.0,59.0,-848.0,-361.0,322.0,-597.0,453.0
19:40:00.213000,-2333.0,-655.0,1006.0,99.0,-862.0,-380.0,322.0,-597.0,453.0
19:40:00.217000,-2265.0,-682.0,1094.0,196.0,-803.0,-369.0,322.0,-597.0,453.0
19:40:00.222000,-2254.0,-708.0,1185.0,196.0,-803.0,-369.0,321.0,-612.0,450.0
19:40:00.227000,-2207.0,-728.0,1330.0,255.0,-796.0,-345.0,321.0,-612.0,450.0
19:40:00.231000,-2152.0,-751.0,1432.0,269.0,-749.0,-340.0,328.0,-622.0,438.0
19:40:00.236000,-2142.0,-770.0,1515.0,282.0,-703.0,-300.0,328.0,-622.0,438.0
19:40:00.240000,-2142.0,-770.0,1515.0,314.0,-730.0,-268.0,328.0,-622.0,438.0
19:40:00.246000,-2107.0,-821.0,1723.0,337.0,-734.0,-246.0,315.0,-627.0,421.0
19:40:00.250000,-2107.0,-821.0,1723.0,374.0,-719.0,-230.0,315.0,-627.0,421.0
19:40:00.255000,-2058.0,-855.0,1803.0,424.0,-777.0,-203.0,304.0,-640.0,411.0
19:40:00.260000,-2065.0,-880.0,1906.0,494.0,-823.0,-188.0,304.0,-640.0,411.0
19:40:00.264000,-2051.0,-898.0,2032.0,519.0,-815.0,-184.0,304.0,-640.0,411.0
19:40:00.269000,-2020.0,-917.0,2094.0,515.0,-826.0,-160.0,304.0,-661.0,382.0
19:40:00.274000,-2013.0,-935.0,2123.0,582.0,-848.0,-160.0,304.0,-661.0,382.0
19:40:00.278000,-1992.0,-963.0,2235.0,705.0,-846.0,-177.0,283.0,-658.0,382.0
19:40:00.283000,-1986.0,-983.0,2381.0,745.0,-884.0,-166.0,283.0,-658.0,382.0
19:40:00.287000,-1962.0,-1009.0,2509.0,679.0,-929.0,-158.0,283.0,-658.0,382.0
19:40:00.293000,-1926.0,-1038.0,2625.0,746.0,-920.0,-168.0,285.0,-666.0,369.0
19:40:00.297000,-1904.0,-1082.0,2736.0,745.0,-948.0,-145.0,285.0,-666.0,369.0
19:40:00.301000,-1890.0,-1113.0,2833.0,605.0,-962.0,-118.0,276.0,-672.0,360.0
19:40:00.307000,-1876.0,-1145.0,2933.0,554.0,-985.0,-76.0,276.0,-672.0,360.0
19:40:00.311000,-1864.0,-1185.0,3014.0,569.0,-976.0,-50.0,276.0,-672.0,360.0
19:40:00.316000,-1857.0,-1212.0,3112.0,569.0,-976.0,-50.0,253.0,-687.0,342.0
19:40:00.321000,-1858.0,-1230.0,3243.0,601.0,-989.0,-27.0,253.0,-687.0,342.0
19:40:00.325000,-1837.0,-1243.0,3363.0,520.0,-966.0,28.0,250.0,-679.0,334.0
19:40:00.330000,-1844.0,-1225.0,3357.0,493.0,-836.0,53.0,250.0,-679.0,334.0
19:40:00.334000,-1812.0,-1199.0,3241.0,573.0,-910.0,54.0,250.0,-679.0,334.0
19:40:00.340000,-1780.0,-1170.0,3161.0,546.0,-1085.0,71.0,235.0,-682.0,309.0
19:40:00.344000,-1716.0,-1164.0,3391.0,487.0,-1171.0,83.0,235.0,-682.0,309.0
19:40:00.349000,-1698.0,-1143.0,3608.0,477.0,-1279.0,95.0,201.0,-687.0,324.0
19:40:00.354000,-1645.0,-1108.0,3563.0,419.0,-1219.0,100.0,201.0,-687.0,324.0
19:40:00.358000,-1585.0,-1073.0,3355.0,352.0,-1077.0,98.0,201.0,-685.0,301.0
19:40:00.363000,-1585.0,-1073.0,3355.0,380.0,-1077.0,123.0,201.0,-685.0,301.0
19:40:00.367000,-1511.0,-1046.0,3158.0,477.0,-1067.0,140.0,201.0,-685.0,301.0
19:40:00.372000,-1460.0,-1029.0,2983.0,580.0,-998.0,174.0,172.0,-679.0,288.0
19:40:00.377000,-1442.0,-1002.0,2883.0,642.0,-957.0,199.0,172.0,-679.0,288.0
19:40:00.382000,-1402.0,-980.0,2804.0,672.0,-976.0,189.0,178.0,-678.0,291.0
19:40:00.387000,-1357.0,-964.0,2744.0,655.0,-1027.0,200.0,178.0,-678.0,291.0
19:40:00.391000,-1283.0,-945.0,2755.0,590.0,-990.0,219.0,178.0,-678.0,291.0
19:40:00.396000,-1253.0,-933.0,2720.0,591.0,-886.0,223.0,157.0,-682.0,292.0
19:40:00.401000,-1207.0,-923.0,2641.0,640.0,-882.0,230.0,157.0,-682.0,292.0
19:40:00.405000,-1159.0,-906.0,2590.0,664.0,-793.0,259.0,145.0,-672.0,274.0
19:40:00.410000,-1145.0,-896.0,2571.0,664.0,-793.0,259.0,145.0,-672.0,274.0
19:40:00.414000,-1134.0,-893.0,2648.0,764.0,-791.0,297.0,145.0,-672.0,274.0
19:40:00.419000,-1127.0,-887.0,2744.0,739.0,-674.0,342.0,135.0,-664.0,270.0
19:40:00.424000,-1137.0,-894.0,2773.0,739.0,-674.0,342.0,135.0,-664.0,270.0
19:40:00.428000,-1169.0,-893.0,2846.0,825.0,-634.0,397.0,132.0,-661.0,262.0
19:40:00.434000,-1192.0,-885.0,2967.0,825.0,-634.0,397.0,132.0,-661.0,262.0
19:40:00.438000,-1230.0,-864.0,3078.0,889.0,-637.0,416.0,132.0,-661.0,262.0
19:40:00.443000,-1262.0,-853.0,3197.0,959.0,-607.0,445.0,112.0,-655.0,268.0
19:40:00.448000,-1280.0,-841.0,3326.0,1034.0,-673.0,474.0,112.0,-655.0,268.0
19:40:00.452000,-1297.0,-821.0,3402.0,1102.0,-717.0,489.0,111.0,-651.0,265.0
19:40:00.457000,-1325.0,-799.0,3402.0,1145.0,-695.0,515.0,111.0,-651.0,265.0
19:40:00.461000,-1325.0,-799.0,3402.0,1183.0,-699.0,525.0,111.0,-651.0,265.0
19:40:00.466000,-1350.0,-746.0,3348.0,1207.0,-703.0,507.0,103.0,-642.0,256.0
19:40:00.471000,-1350.0,-746.0,3348.0,1203.0,-698.0,504.0,103.0,-642.0,256.0
19:40:00.476000,-1338.0,-725.0,3285.0,1216.0,-717.0,511.0,79.0,-631.0,259.0
19:40:00.481000,-1331.0,-707.0,3238.0,1260.0,-766.0,498.0,79.0,-631.0,259.0
19:40:00.485000,-1278.0,-697.0,3245.0,1301.0,-808.0,503.0,79.0,-631.0,259.0
19:40:00.490000,-1253.0,-695.0,3280.0,1334.0,-819.0,516.0,64.0,-622.0,256.0
19:40:00.495000,-1219.0,-684.0,3276.0,1385.0,-810.0,514.0,64.0,-622.0,256.0
19:40:00.499000,-1176.0,-676.0,3225.0,1445.0,-811.0,529.0,54.0,-621.0,247.0
19:40:00.504000,-1137.0,-676.0,3157.0,1509.0,-833.0,564.0,54.0,-621.0,247.0
19:40:00.508000,-1129.0,-679.0,3122.0,1560.0,-828.0,568.0,54.0,-621.0,247.0
19:40:00.513000,-1117.0,-655.0,3112.0,1545.0,-717.0,565.0,58.0,-612.0,249.0
19:40:00.518000,-1061.0,-659.0,3028.0,1513.0,-614.0,568.0,58.0,-612.0,249.0
19:40:00.523000,-1063.0,-638.0,2941.0,1513.0,-614.0,568.0,31.0,-594.0,253.0
19:40:00.528000,-1057.0,-638.0,2905.0,1512.0,-556.0,574.0,31.0,-594.0,253.0
19:40:00.532000,-1054.0,-632.0,2897.0,1512.0,-556.0,574.0,31.0,-594.0,253.0
19:40:00.537000,-1054.0,-628.0,2864.0,1502.0,-526.0,571.0,25.0,-591.0,243.0
19:40:00.542000,-1030.0,-637.0,2818.0,1503.0,-485.0,560.0,25.0,-591.0,243.0
19:40:00.546000,-1028.0,-640.0,2814.0,1506.0,-502.0,560.0,19.0,-567.0,256.0
19:40:00.551000,-1009.0,-641.0,2769.0,1473.0,-464.0,565.0,19.0,-567.0,256.0
19:40:00.555000,-981.0,-630.0,2690.0,1426.0,-423.0,546.0,19.0,-567.0,256.0
19:40:00.560000,-954.0,-604.0,2652.0,1401.0,-422.0,530.0,3.0,-564.0,264.0
19:40:00.565000,-924.0,-566.0,2676.0,1405.0,-429.0,517.0,3.0,-564.0,264.0
19:40:00.570000,-884.0,-543.0,2702.0,1418.0,-455.0,511.0,10.0,-558.0,243.0
19:40:00.575000,-853.0,-515.0,2663.0,1432.0,-425.0,506.0,10.0,-558.0,243.0
19:40:00.579000,-853.0,-515.0,2663.0,1452.0,-351.0,498.0,10.0,-558.0,243.0
19:40:00.584000,-814.0,-491.0,2585.0,1484.0,-271.0,503.0,10.0,-543.0,243.0
19:40:00.589000,-796.0,-473.0,2483.0,1523.0,-193.0,513.0,10.0,-543.0,243.0
19:40:00.593000,-782.0,-466.0,2360.0,1567.0,-130.0,528.0,4.0,-543.0,250.0
19:40:00.598000,-781.0,-455.0,2267.0,1601.0,-117.0,531.0,4.0,-543.0,250.0
19:40:00.602000,-766.0,-441.0,2228.0,1620.0,-101.0,535.0,4.0,-543.0,250.0
19:40:00.607000,-779.0,-442.0,2231.0,1641.0,-82.0,543.0,3.0,-529.0,255.0
19:40:00.612000,-802.0,-442.0,2257.0,1667.0,-59.0,526.0,3.0,-529.0,255.0
19:40:00.617000,-823.0,-431.0,2298.0,1677.0,-6.0,521.0,-16.0,-541.0,243.0
19:40:00.622000,-859.0,-424.0,2352.0,1645.0,34.0,508.0,-16.0,-541.0,243.0
19:40:00.626000,-888.0,-410.0,2402.0,1585.0,64.0,482.0,-16.0,-541.0,243.0
19:40:00.631000,-924.0,-401.0,2431.0,1529.0,60.0,469.0,-18.0,-514.0,250.0
19:40:00.636000,-957.0,-387.0,2483.0,1487.0,21.0,456.0,-18.0,-514.0,250.0
19:40:00.640000,-984.0,-368.0,2572.0,1487.0,21.0,456.0,-6.0,-508.0,250.0
19:40:00.645000,-1003.0,-346.0,2652.0,1425.0,-27.0,423.0,-6.0,-508.0,250.0
19:40:00.649000,-1012.0,-337.0,2695.0,1425.0,-27.0,423.0,-6.0,-508.0,250.0
19:40:00.654000,-1002.0,-331.0,2744.0,1435.0,-35.0,401.0,-30.0,-492.0,258.0
19:40:00.659000,-981.0,-329.0,2811.0,1465.0,-65.0,377.0,-30.0,-492.0,258.0
19:40:00.664000,-952.0,-327.0,2877.0,1493.0,-105.0,355.0,-27.0,-484.0,246.0
19:40:00.669000,-927.0,-329.0,2922.0,1511.0,-113.0,336.0,-27.0,-484.0,246.0
19:40:00.673000,-887.0,-333.0,2955.0,1522.0,-86.0,323.0,-27.0,-484.0,246.0
19:40:00.678000,-870.0,-334.0,2982.0,1524.0,-48.0,311.0,-22.0,-463.0,259.0
19:40:00.683000,-857.0,-344.0,3002.0,1520.0,-21.0,305.0,-22.0,-463.0,259.0
19:40:00.687000,-857.0,-344.0,3002.0,1519.0,24.0,292.0,-33.0,-438.0,270.0
19:40:00.692000,-856.0,-355.0,3006.0,1496.0,39.0,292.0,-33.0,-438.0,270.0
19:40:00.697000,-861.0,-364.0,3011.0,1467.0,19.0,282.0,-33.0,-438.0,270.0
19:40:00.701000,-858.0,-377.0,3030.0,1462.0,7.0,263.0,-33.0,-438.0,270.0
19:40:00.706000,-851.0,-390.0,3080.0,1466.0,-50.0,254.0,-33.0,-438.0,270.0
19:40:00.711000,-826.0,-408.0,3129.0,1466.0,-94.0,239.0,-40.0,-420.0,262.0
19:40:00.716000,-807.0,-424.0,3160.0,1444.0,-80.0,230.0,-40.0,-420.0,262.0
19:40:00.720000,-765.0,-441.0,3179.0,1423.0,-46.0,220.0,-37.0,-399.0,261.0
19:40:00.725000,-725.0,-454.0,3181.0,1389.0,-21.0,210.0,-37.0,-399.0,261.0
19:40:00.729000,-683.0,-464.0,3148.0,1318.0,3.0,204.0,-37.0,-399.0,261.0
19:40:00.734000,-655.0,-469.0,3110.0,1259.0,33.0,185.0,-31.0,-390.0,268.0
19:40:00.739000,-622.0,-473.0,3075.0,1230.0,68.0,175.0,-31.0,-390.0,268.0
19:40:00.744000,-588.0,-487.0,3037.0,1230.0,68.0,175.0,-34.0,-370.0,267.0
19:40:00.748000,-563.0,-499.0,3002.0,1210.0,177.0,155.0,-34.0,-370.0,267.0
19:40:00.753000,-557.0,-500.0,2956.0,1210.0,177.0,155.0,-34.0,-370.0,267.0
19:40:00.758000,-536.0,-504.0,2911.0,1187.0,252.0,143.0,-34.0,-357.0,274.0
19:40:00.763000,-522.0,-499.0,2858.0,1162.0,325.0,129.0,-34.0,-357.0,274.0
19:40:00.767000,-525.0,-493.0,2847.0,1128.0,375.0,117.0,-33.0,-340.0,268.0
19:40:00.772000,-546.0,-479.0,2836.0,1062.0,441.0,113.0,-33.0,-340.0,268.0
19:40:00.776000,-564.0,-470.0,2795.0,951.0,514.0,105.0,-33.0,-340.0,268.0
19:40:00.781000,-593.0,-471.0,2746.0,853.0,557.0,95.0,-28.0,-316.0,291.0
19:40:00.786000,-610.0,-455.0,2722.0,781.0,526.0,81.0,-28.0,-316.0,291.0
19:40:00.791000,-622.0,-441.0,2716.0,764.0,487.0,54.0,-13.0,-309.0,288.0
19:40:00.795000,-604.0,-427.0,2689.0,728.0,488.0,27.0,-13.0,-309.0,288.0
19:40:00.800000,-604.0,-427.0,2689.0,682.0,498.0,10.0,-13.0,-309.0,288.0
19:40:00.805000,-590.0,-414.0,2678.0,673.0,530.0,0.0,-16.0,-297.0,295.0
19:40:00.810000,-568.0,-406.0,2662.0,651.0,554.0,-11.0,-16.0,-297.0,295.0
19:40:00.814000,-561.0,-396.0,2639.0,644.0,618.0,-15.0,-6.0,-285.0,294.0
19:40:00.819000,-548.0,-391.0,2615.0,636.0,652.0,-16.0,-6.0,-285.0,294.0
19:40:00.826000,-536.0,-380.0,2594.0,713.0,681.0,-27.0,0.0,-268.0,297.0
19:40:00.828000,-536.0,-380.0,2594.0,713.0,681.0,-27.0,0.0,-268.0,297.0
19:40:00.832000,-534.0,-379.0,2571.0,764.0,687.0,-34.0,0.0,-268.0,297.0
19:40:00.838000,-526.0,-382.0,2549.0,815.0,693.0,-40.0,13.0,-271.0,301.0
19:40:00.842000,-521.0,-392.0,2531.0,846.0,698.0,-44.0,13.0,-271.0,301.0
19:40:00.847000,-515.0,-403.0,2517.0,846.0,698.0,-44.0,4.0,-253.0,304.0
19:40:00.852000,-507.0,-408.0,2508.0,865.0,731.0,-50.0,4.0,-253.0,304.0
19:40:00.856000,-499.0,-409.0,2508.0,866.0,749.0,-46.0,4.0,-253.0,304.0
19:40:00.861000,-497.0,-407.0,2508.0,866.0,749.0,-46.0,24.0,-232.0,319.0
19:40:00.866000,-501.0,-405.0,2512.0,838.0,785.0,-48.0,24.0,-232.0,319.0
19:40:00.871000,-502.0,-403.0,2496.0,838.0,785.0,-48.0,24.0,-226.0,324.0
19:40:00.875000,-499.0,-396.0,2452.0,812.0,809.0,-49.0,24.0,-226.0,324.0
19:40:00.879000,-492.0,-387.0,2415.0,791.0,815.0,-56.0,24.0,-226.0,324.0
19:40:00.885000,-485.0,-378.0,2417.0,794.0,825.0,-67.0,40.0,-213.0,322.0
19:40:00.889000,-482.0,-373.0,2442.0,783.0,809.0,-64.0,40.0,-213.0,322.0
19:40:00.894000,-479.0,-365.0,2457.0,749.0,817.0,-65.0,61.0,-211.0,327.0
19:40:00.899000,-478.0,-356.0,2448.0,695.0,848.0,-79.0,61.0,-211.0,327.0
19:40:00.903000,-478.0,-356.0,2448.0,650.0,885.0,-89.0,61.0,-211.0,327.0
19:40:00.908000,-476.0,-348.0,2438.0,602.0,928.0,-90.0,57.0,-190.0,328.0
19:40:00.913000,-479.0,-347.0,2410.0,562.0,955.0,-88.0,57.0,-190.0,328.0
19:40:00.918000,-482.0,-340.0,2382.0,561.0,976.0,-96.0,73.0,-186.0,331.0
19:40:00.922000,-483.0,-336.0,2366.0,555.0,972.0,-101.0,73.0,-186.0,331.0
19:40:00.926000,-489.0,-330.0,2360.0,541.0,975.0,-105.0,73.0,-186.0,331.0
19:40:00.932000,-487.0,-327.0,2352.0,501.0,972.0,-101.0,87.0,-181.0,334.0
19:40:00.936000,-499.0,-322.0,2329.0,465.0,969.0,-97.0,87.0,-181.0,334.0
19:40:00.941000,-505.0,-315.0,2300.0,444.0,941.0,-105.0,93.0,-175.0,343.0
19:40:00.946000,-511.0,-310.0,2276.0,438.0,897.0,-108.0,93.0,-175.0,343.0
19:40:00.950000,-508.0,-302.0,2251.0,436.0,862.0,-111.0,93.0,-175.0,343.0
19:40:00.955000,-497.0,-298.0,2214.0,432.0,878.0,-118.0,100.0,-165.0,340.0
19:40:00.960000,-486.0,-293.0,2176.0,442.0,935.0,-121.0,100.0,-165.0,340.0
19:40:00.965000,-481.0,-290.0,2146.0,442.0,935.0,-121.0,114.0,-156.0,358.0
19:40:00.969000,-482.0,-291.0,2128.0,452.0,1066.0,-119.0,114.0,-156.0,358.0
19:40:00.973000,-494.0,-293.0,2093.0,430.0,1066.0,-118.0,114.0,-156.0,358.0
19:40:00.979000,-502.0,-297.0,2041.0,378.0,1107.0,-112.0,120.0,-156.0,351.0
19:40:00.983000,-497.0,-299.0,1995.0,344.0,1082.0,-113.0,120.0,-156.0,351.0
19:40:00.988000,-497.0,-299.0,1974.0,332.0,1037.0,-115.0,142.0,-150.0,340.0
19:40:00.993000,-501.0,-294.0,1967.0,321.0,995.0,-113.0,142.0,-150.0,340.0
19:40:00.997000,-508.0,-287.0,1957.0,292.0,996.0,-113.0,142.0,-150.0,340.0
19:40:01.002000,-514.0,-282.0,1946.0,252.0,1027.0,-112.0,150.0,-144.0,361.0
19:40:01.007000,-523.0,-270.0,1930.0,207.0,1053.0,-107.0,150.0,-144.0,361.0
19:40:01.012000,-537.0,-262.0,1936.0,151.0,1042.0,-106.0,166.0,-135.0,358.0
19:40:01.016000,-537.0,-262.0,1936.0,98.0,1041.0,-104.0,166.0,-135.0,358.0
19:40:01.020000,-559.0,-242.0,1953.0,47.0,949.0,-93.0,166.0,-135.0,358.0
19:40:01.026000,-563.0,-217.0,1958.0,4.0,881.0,-108.0,171.0,-136.0,361.0
19:40:01.030000,-562.0,-199.0,1945.0,4.0,898.0,-111.0,171.0,-136.0,361.0
19:40:01.035000,-560.0,-172.0,1930.0,4.0,847.0,-101.0,189.0,-142.0,367.0
19:40:01.040000,-555.0,-157.0,1928.0,15.0,916.0,-105.0,189.0,-142.0,367.0
19:40:01.044000,-561.0,-132.0,1925.0,4.0,917.0,-102.0,189.0,-142.0,367.0
19:40:01.049000,-555.0,-112.0,1896.0,-36.0,960.0,-122.0,201.0,-133.0,376.0
19:40:01.054000,-564.0,-98.0,1839.0,-40.0,1024.0,-126.0,201.0,-133.0,376.0
19:40:01.059000,-551.0,-78.0,1776.0,-73.0,904.0,-114.0,202.0,-135.0,370.0
19:40:01.063000,-547.0,-76.0,1698.0,-70.0,970.0,-131.0,202.0,-135.0,370.0
19:40:01.067000,-545.0,-65.0,1624.0,-61.0,926.0,-143.0,202.0,-135.0,370.0
19:40:01.073000,-523.0,-58.0,1543.0,-86.0,895.0,-150.0,213.0,-136.0,378.0
19:40:01.077000,-529.0,-58.0,1453.0,-87.0,940.0,-162.0,213.0,-136.0,378.0
19:40:01.082000,-513.0,-52.0,1366.0,-87.0,940.0,-162.0,229.0,-138.0,373.0
19:40:01.087000,-507.0,-56.0,1286.0,-117.0,869.0,-189.0,229.0,-138.0,373.0
19:40:01.094000,-506.0,-46.0,1208.0,-214.0,972.0,-193.0,235.0,-136.0,397.0
19:40:01.096000,-509.0,-46.0,1141.0,-214.0,972.0,-193.0,235.0,-136.0,397.0
19:40:01.100000,-504.0,-56.0,1132.0,-168.0,945.0,-198.0,235.0,-136.0,397.0
19:40:01.105000,-487.0,-66.0,1096.0,-101.0,880.0,-223.0,235.0,-136.0,387.0
19:40:01.110000,-507.0,-75.0,1059.0,-101.0,885.0,-229.0,235.0,-136.0,387.0
19:40:01.115000,-499.0,-82.0,1006.0,-148.0,933.0,-235.0,237.0,-133.0,382.0
19:40:01.120000,-533.0,-93.0,975.0,-190.0,985.0,-240.0,237.0,-133.0,382.0
19:40:01.124000,-533.0,-93.0,975.0,-209.0,982.0,-234.0,237.0,-133.0,382.0
19:40:01.129000,-537.0,-102.0,948.0,-218.0,927.0,-249.0,243.0,-133.0,397.0
19:40:01.134000,-563.0,-108.0,934.0,-178.0,907.0,-255.0,243.0,-133.0,397.0
19:40:01.139000,-561.0,-117.0,916.0,-187.0,875.0,-269.0,249.0,-135.0,400.0
19:40:01.143000,-578.0,-119.0,900.0,-188.0,870.0,-267.0,249.0,-135.0,400.0
19:40:01.147000,-586.0,-121.0,898.0,-190.0,863.0,-261.0,249.0,-135.0,400.0
19:40:01.153000,-609.0,-129.0,907.0,-205.0,847.0,-259.0,252.0,-135.0,399.0
19:40:01.157000,-620.0,-128.0,909.0,-214.0,782.0,-259.0,252.0,-135.0,399.0
19:40:01.162000,-634.0,-137.0,903.0,-201.0,737.0,-262.0,262.0,-145.0,408.0
19:40:01.167000,-644.0,-135.0,898.0,-201.0,703.0,-267.0,262.0,-145.0,408.0
19:40:01.171000,-655.0,-139.0,889.0,-198.0,742.0,-273.0,262.0,-145.0,408.0
19:40:01.176000,-665.0,-133.0,870.0,-198.0,733.0,-270.0,270.0,-141.0,412.0
19:40:01.181000,-673.0,-131.0,840.0,-221.0,718.0,-277.0,270.0,-141.0,412.0
19:40:01.186000,-685.0,-134.0,813.0,-221.0,718.0,-277.0,267.0,-142.0,420.0
19:40:01.190000,-694.0,-125.0,795.0,-232.0,738.0,-285.0,267.0,-142.0,420.0
19:40:01.194000,-693.0,-124.0,760.0,-251.0,696.0,-285.0,267.0,-142.0,420.0
19:40:01.200000,-697.0,-116.0,725.0,-266.0,687.0,-295.0,277.0,-144.0,420.0
19:40:01.204000,-685.0,-108.0,679.0,-253.0,625.0,-294.0,277.0,-144.0,420.0
19:40:01.209000,-687.0,-99.0,618.0,-257.0,574.0,-299.0,288.0,-157.0,417.0
19:40:01.214000,-679.0,-87.0,563.0,-236.0,652.0,-318.0,288.0,-157.0,417.0
19:40:01.218000,-662.0,-78.0,515.0,-229.0,592.0,-315.0,288.0,-157.0,417.0
19:40:01.223000,-663.0,-60.0,459.0,-242.0,623.0,-319.0,277.0,-150.0,433.0
19:40:01.228000,-657.0,-46.0,409.0,-249.0,646.0,-330.0,277.0,-150.0,433.0
19:40:01.233000,-660.0,-39.0,373.0,-274.0,568.0,-332.0,291.0,-154.0,423.0
19:40:01.237000,-660.0,-39.0,373.0,-282.0,628.0,-340.0,291.0,-154.0,423.0
19:40:01.241000,-661.0,-21.0,329.0,-281.0,576.0,-336.0,291.0,-154.0,423.0
19:40:01.247000,-657.0,-13.0,284.0,-262.0,575.0,-350.0,291.0,-169.0,433.0
19:40:01.251000,-651.0,0.0,247.0,-240.0,568.0,-362.0,291.0,-169.0,433.0
19:40:01.256000,-642.0,3.0,212.0,-256.0,558.0,-365.0,283.0,-163.0,429.0
19:40:01.261000,-651.0,6.0,181.0,-259.0,667.0,-375.0,283.0,-163.0,429.0
19:40:01.265000,-648.0,7.0,163.0,-270.0,586.0,-364.0,283.0,-163.0,429.0
19:40:01.270000,-644.0,0.0,151.0,-263.0,624.0,-391.0,291.0,-166.0,439.0
19:40:01.275000,-639.0,-7.0,142.0,-235.0,608.0,-393.0,291.0,-166.0,439.0
19:40:01.280000,-629.0,-18.0,143.0,-233.0,539.0,-398.0,289.0,-169.0,435.0
19:40:01.284000,-614.0,-27.0,137.0,-220.0,617.0,-424.0,289.0,-169.0,435.0
19:40:01.288000,-599.0,-37.0,142.0,-238.0,531.0,-407.0,289.0,-169.0,435.0
19:40:01.294000,-583.0,-50.0,140.0,-267.0,571.0,-430.0,292.0,-165.0,430.0
19:40:01.298000,-566.0,-53.0,129.0,-267.0,571.0,-430.0,292.0,-165.0,430.0
19:40:01.303000,-546.0,-63.0,122.0,-272.0,588.0,-435.0,295.0,-177.0,448.0
19:40:01.308000,-525.0,-70.0,111.0,-278.0,533.0,-430.0,295.0,-177.0,448.0
19:40:01.315000,-513.0,-73.0,93.0,-303.0,544.0,-427.0,283.0,-178.0,456.0
19:40:01.317000,-507.0,-74.0,72.0,-303.0,544.0,-427.0,283.0,-178.0,456.0
19:40:01.321000,-496.0,-66.0,49.0,-298.0,627.0,-437.0,283.0,-178.0,456.0
19:40:01.327000,-484.0,-63.0,20.0,-279.0,600.0,-426.0,295.0,-183.0,447.0
19:40:01.331000,-485.0,-55.0,-15.0,-300.0,586.0,-433.0,295.0,-183.0,447.0
19:40:01.336000,-480.0,-42.0,-52.0,-315.0,712.0,-441.0,303.0,-183.0,447.0
19:40:01.341000,-476.0,-37.0,-98.0,-362.0,644.0,-428.0,303.0,-183.0,447.0
19:40:01.345000,-476.0,-37.0,-98.0,-408.0,701.0,-454.0,303.0,-183.0,447.0
19:40:01.350000,-478.0,-28.0,-133.0,-420.0,763.0,-459.0,291.0,-180.0,451.0
19:40:01.355000,-473.0,-25.0,-173.0,-446.0,684.0,-446.0,291.0,-180.0,451.0
19:40:01.359000,-481.0,-18.0,-207.0,-442.0,731.0,-460.0,291.0,-186.0,450.0
19:40:01.364000,-481.0,-4.0,-240.0,-423.0,655.0,-462.0,291.0,-186.0,450.0
19:40:01.368000,-476.0,3.0,-259.0,-417.0,653.0,-478.0,291.0,-186.0,450.0
19:40:01.374000,-480.0,9.0,-278.0,-418.0,728.0,-481.0,282.0,-190.0,451.0
19:40:01.378000,-484.0,14.0,-291.0,-444.0,669.0,-467.0,282.0,-190.0,451.0
19:40:01.383000,-492.0,17.0,-308.0,-445.0,784.0,-493.0,289.0,-198.0,450.0
19:40:01.388000,-500.0,21.0,-328.0,-430.0,780.0,-490.0,289.0,-198.0,450.0
19:40:01.392000,-508.0,30.0,-343.0,-439.0,722.0,-488.0,289.0,-198.0,450.0
19:40:01.397000,-524.0,43.0,-364.0,-427.0,851.0,-506.0,273.0,-198.0,459.0
19:40:01.401000,-533.0,54.0,-389.0,-418.0,774.0,-491.0,273.0,-198.0,459.0
19:40:01.406000,-536.0,65.0,-420.0,-418.0,774.0,-491.0,282.0,-201.0,471.0
19:40:01.411000,-535.0,72.0,-455.0,-422.0,760.0,-510.0,282.0,-201.0,471.0
19:40:01.415000,-535.0,83.0,-494.0,-434.0,834.0,-529.0,282.0,-201.0,471.0
19:40:01.421000,-536.0,96.0,-542.0,-492.0,777.0,-520.0,279.0,-201.0,456.0
19:40:01.425000,-537.0,109.0,-581.0,-532.0,819.0,-536.0,279.0,-201.0,456.0
19:40:01.430000,-525.0,121.0,-610.0,-530.0,766.0,-541.0,283.0,-205.0,462.0
19:40:01.435000,-523.0,128.0,-641.0,-522.0,720.0,-548.0,283.0,-205.0,462.0
19:40:01.439000,-522.0,145.0,-667.0,-515.0,758.0,-551.0,283.0,-205.0,462.0
19:40:01.444000,-527.0,158.0,-690.0,-523.0,750.0,-548.0,268.0,-207.0,469.0
19:40:01.449000,-529.0,168.0,-714.0,-523.0,829.0,-559.0,268.0,-207.0,469.0
19:40:01.453000,-528.0,347.0,-747.0,-527.0,836.0,-558.0,261.0,-199.0,462.0
19:40:01.458000,-528.0,179.0,-747.0,-528.0,855.0,-563.0,261.0,-199.0,462.0
19:40:01.462000,-532.0,185.0,-783.0,-503.0,867.0,-568.0,261.0,-199.0,462.0
19:40:01.468000,-525.0,192.0,-812.0,-476.0,788.0,-570.0,268.0,-211.0,462.0
19:40:01.472000,-514.0,196.0,-837.0,-448.0,794.0,-585.0,268.0,-211.0,462.0
19:40:01.477000,-499.0,200.0,-863.0,-436.0,750.0,-588.0,265.0,-211.0,468.0
19:40:01.482000,-478.0,204.0,-902.0,-430.0,747.0,-600.0,265.0,-211.0,468.0
19:40:01.486000,-461.0,204.0,-951.0,-412.0,789.0,-609.0,265.0,-211.0,468.0
19:40:01.491000,-444.0,203.0,-1001.0,-404.0,761.0,-607.0,255.0,-223.0,465.0
19:40:01.496000,-433.0,205.0,-1054.0,-393.0,827.0,-619.0,255.0,-223.0,465.0
19:40:01.500000,-427.0,208.0,-1104.0,-393.0,828.0,-622.0,238.0,-216.0,471.0
19:40:01.505000,-417.0,213.0,-1157.0,-406.0,814.0,-622.0,238.0,-216.0,471.0
19:40:01.509000,-418.0,216.0,-1211.0,-407.0,852.0,-623.0,238.0,-216.0,471.0
19:40:01.515000,-415.0,222.0,-1262.0,-408.0,809.0,-619.0,243.0,-223.0,465.0
19:40:01.519000,-420.0,230.0,-1305.0,-408.0,809.0,-619.0,243.0,-223.0,465.0
19:40:01.524000,-431.0,240.0,-1341.0,-403.0,848.0,-627.0,235.0,-228.0,475.0
19:40:01.529000,-440.0,252.0,-1372.0,-399.0,860.0,-623.0,235.0,-228.0,475.0
19:40:01.533000,-454.0,262.0,-1406.0,-405.0,904.0,-624.0,235.0,-228.0,475.0
19:40:01.538000,-470.0,272.0,-1439.0,-405.0,904.0,-624.0,216.0,-231.0,495.0
19:40:01.543000,-484.0,283.0,-1465.0,-401.0,875.0,-616.0,216.0,-231.0,495.0
19:40:01.547000,-504.0,293.0,-1483.0,-391.0,884.0,-621.0,234.0,-235.0,468.0
19:40:01.552000,-515.0,301.0,-1500.0,-371.0,894.0,-620.0,234.0,-235.0,468.0
19:40:01.556000,-515.0,301.0,-1500.0,-355.0,850.0,-617.0,234.0,-235.0,468.0
19:40:01.562000,-532.0,309.0,-1535.0,-341.0,864.0,-620.0,217.0,-228.0,466.0
19:40:01.566000,-532.0,309.0,-1535.0,-333.0,838.0,-613.0,217.0,-228.0,466.0
19:40:01.571000,-533.0,307.0,-1549.0,-326.0,827.0,-614.0,220.0,-243.0,483.0
19:40:01.576000,-532.0,303.0,-1554.0,-306.0,846.0,-619.0,220.0,-243.0,483.0
19:40:01.580000,-527.0,298.0,-1542.0,-299.0,813.0,-617.0,220.0,-243.0,483.0
19:40:01.585000,-522.0,293.0,-1520.0,-299.0,837.0,-615.0,202.0,-247.0,489.0
19:40:01.590000,-518.0,287.0,-1500.0,-294.0,832.0,-610.0,202.0,-247.0,489.0
19:40:01.594000,-513.0,284.0,-1484.0,-295.0,808.0,-608.0,189.0,-253.0,468.0
19:40:01.599000,-517.0,281.0,-1462.0,-284.0,834.0,-614.0,189.0,-253.0,468.0
19:40:01.603000,-519.0,284.0,-1433.0,-275.0,807.0,-610.0,189.0,-253.0,468.0
19:40:01.609000,-529.0,287.0,-1402.0,-276.0,810.0,-600.0,189.0,-250.0,477.0
19:40:01.613000,-544.0,291.0,-1376.0,-278.0,809.0,-589.0,189.0,-250.0,477.0
19:40:01.618000,-562.0,301.0,-1361.0,-270.0,794.0,-571.0,189.0,-264.0,478.0
19:40:01.623000,-593.0,310.0,-1346.0,-231.0,790.0,-561.0,189.0,-264.0,478.0
19:40:01.627000,-616.0,321.0,-1325.0,-231.0,790.0,-561.0,189.0,-264.0,478.0
19:40:01.632000,-632.0,326.0,-1304.0,-166.0,736.0,-558.0,180.0,-267.0,478.0
19:40:01.637000,-646.0,331.0,-1302.0,-106.0,725.0,-563.0,180.0,-267.0,478.0
19:40:01.641000,-660.0,333.0,-1321.0,-83.0,735.0,-571.0,168.0,-277.0,478.0
19:40:01.646000,-677.0,332.0,-1353.0,-94.0,768.0,-580.0,168.0,-277.0,478.0
19:40:01.650000,-693.0,332.0,-1388.0,-111.0,816.0,-591.0,168.0,-277.0,478.0
19:40:01.656000,-711.0,331.0,-1426.0,-131.0,812.0,-598.0,166.0,-273.0,486.0
19:40:01.660000,-711.0,331.0,-1426.0,-141.0,825.0,-610.0,166.0,-273.0,486.0
19:40:01.665000,-759.0,338.0,-1514.0,-142.0,830.0,-622.0,169.0,-288.0,486.0
19:40:01.670000,-790.0,345.0,-1561.0,-147.0,847.0,-633.0,169.0,-288.0,486.0
19:40:01.674000,-790.0,345.0,-1561.0,-150.0,890.0,-646.0,163.0,-286.0,487.0
19:40:01.679000,-821.0,352.0,-1598.0,-161.0,886.0,-649.0,163.0,-286.0,487.0
19:40:01.683000,-861.0,354.0,-1624.0,-175.0,918.0,-644.0,163.0,-286.0,487.0
19:40:01.688000,-907.0,347.0,-1642.0,-180.0,910.0,-633.0,147.0,-309.0,484.0
19:40:01.693000,-943.0,328.0,-1645.0,-147.0,834.0,-627.0,147.0,-309.0,484.0
19:40:01.698000,-968.0,294.0,-1624.0,-74.0,743.0,-642.0,145.0,-321.0,490.0
19:40:01.703000,-960.0,259.0,-1595.0,-20.0,623.0,-670.0,145.0,-321.0,490.0
19:40:01.707000,-938.0,221.0,-1572.0,-32.0,636.0,-700.0,145.0,-321.0,490.0
19:40:01.712000,-917.0,193.0,-1575.0,-124.0,731.0,-725.0,127.0,-327.0,477.0
19:40:01.717000,-903.0,176.0,-1604.0,-273.0,845.0,-742.0,127.0,-327.0,477.0
19:40:01.721000,-910.0,158.0,-1619.0,-429.0,985.0,-752.0,142.0,-337.0,480.0
19:40:01.726000,-927.0,147.0,-1624.0,-566.0,1018.0,-748.0,142.0,-337.0,480.0
19:40:01.730000,-960.0,121.0,-1628.0,-641.0,1061.0,-734.0,142.0,-337.0,480.0
19:40:01.735000,-1009.0,89.0,-1624.0,-641.0,1061.0,-734.0,127.0,-342.0,477.0
19:40:01.740000,-1054.0,45.0,-1603.0,-646.0,1041.0,-726.0,127.0,-342.0,477.0
19:40:01.744000,-1118.0,-17.0,-1553.0,-460.0,895.0,-706.0,123.0,-361.0,504.0
19:40:01.750000,-1167.0,-79.0,-1491.0,-460.0,895.0,-706.0,123.0,-361.0,504.0
19:40:01.754000,-1210.0,-144.0,-1435.0,-345.0,795.0,-724.0,123.0,-361.0,504.0
19:40:01.759000,-1242.0,-212.0,-1395.0,-265.0,759.0,-746.0,123.0,-361.0,504.0
19:40:01.763000,-1258.0,-264.0,-1367.0,-257.0,736.0,-784.0,123.0,-361.0,504.0
19:40:01.768000,-1290.0,-320.0,-1351.0,-323.0,775.0,-813.0,132.0,-390.0,486.0
19:40:01.773000,-1302.0,-363.0,-1365.0,-449.0,873.0,-841.0,132.0,-390.0,486.0
19:40:01.778000,-1327.0,-403.0,-1412.0,-618.0,943.0,-880.0,135.0,-394.0,487.0
19:40:01.782000,-1327.0,-403.0,-1412.0,-772.0,1048.0,-894.0,135.0,-394.0,487.0
19:40:01.786000,-1341.0,-453.0,-1486.0,-876.0,1029.0,-905.0,135.0,-394.0,487.0
19:40:01.792000,-1353.0,-511.0,-1535.0,-895.0,994.0,-903.0,129.0,-412.0,492.0
19:40:01.796000,-1368.0,-578.0,-1548.0,-858.0,925.0,-911.0,129.0,-412.0,492.0
19:40:01.801000,-1362.0,-636.0,-1552.0,-799.0,811.0,-937.0,136.0,-414.0,489.0
19:40:01.806000,-1352.0,-699.0,-1543.0,-733.0,843.0,-944.0,136.0,-414.0,489.0
19:40:01.810000,-1350.0,-742.0,-1547.0,-724.0,881.0,-954.0,136.0,-414.0,489.0
19:40:01.815000,-1362.0,-772.0,-1598.0,-756.0,1026.0,-952.0,135.0,-432.0,489.0
19:40:01.820000,-1395.0,-811.0,-1652.0,-790.0,1214.0,-940.0,135.0,-432.0,489.0
19:40:01.825000,-1437.0,-842.0,-1659.0,-843.0,1269.0,-939.0,147.0,-448.0,495.0
19:40:01.829000,-1497.0,-885.0,-1626.0,-873.0,1316.0,-925.0,147.0,-448.0,495.0
19:40:01.833000,-1565.0,-933.0,-1575.0,-891.0,1252.0,-934.0,147.0,-448.0,495.0
19:40:01.839000,-1621.0,-980.0,-1556.0,-881.0,1165.0,-972.0,142.0,-445.0,487.0
19:40:01.843000,-1669.0,-1030.0,-1519.0,-839.0,1145.0,-977.0,142.0,-445.0,487.0
19:40:01.848000,-1715.0,-1067.0,-1430.0,-839.0,1145.0,-977.0,159.0,-478.0,484.0
19:40:01.853000,-1724.0,-1104.0,-1337.0,-877.0,1077.0,-1000.0,159.0,-478.0,484.0
19:40:01.857000,-1745.0,-1132.0,-1269.0,-949.0,1107.0,-1037.0,159.0,-478.0,484.0
19:40:01.862000,-1772.0,-1129.0,-1227.0,-950.0,1141.0,-1038.0,169.0,-496.0,489.0
19:40:01.867000,-1782.0,-1141.0,-1201.0,-910.0,1023.0,-1042.0,169.0,-496.0,489.0
19:40:01.871000,-1785.0,-1179.0,-1192.0,-903.0,963.0,-1044.0,171.0,-510.0,486.0
19:40:01.876000,-1835.0,-1250.0,-1121.0,-865.0,922.0,-994.0,171.0,-510.0,486.0
19:40:01.880000,-1835.0,-1250.0,-1121.0,-733.0,808.0,-1000.0,171.0,-510.0,486.0
19:40:01.886000,-1833.0,-1236.0,-794.0,-674.0,730.0,-1036.0,189.0,-519.0,478.0
19:40:01.890000,-1850.0,-1201.0,-794.0,-723.0,695.0,-1023.0,189.0,-519.0,478.0
19:40:01.895000,-1850.0,-1201.0,-794.0,-656.0,643.0,-984.0,196.0,-529.0,474.0
19:40:01.900000,-1849.0,-1234.0,-795.0,-503.0,520.0,-948.0,196.0,-529.0,474.0
19:40:01.904000,-1880.0,-1206.0,-802.0,-369.0,329.0,-920.0,196.0,-529.0,474.0
19:40:01.909000,-1981.0,-1190.0,-798.0,-251.0,206.0,-875.0,220.0,-550.0,469.0
19:40:01.914000,-2030.0,-1184.0,-837.0,-92.0,135.0,-854.0,220.0,-550.0,469.0
19:40:01.919000,-2120.0,-1168.0,-834.0,117.0,-3.0,-783.0,219.0,-559.0,460.0
19:40:01.923000,-2173.0,-1211.0,-831.0,200.0,-204.0,-762.0,219.0,-559.0,460.0
19:40:01.927000,-2090.0,-1187.0,-875.0,303.0,-441.0,-806.0,219.0,-559.0,460.0
19:40:01.933000,-1939.0,-1161.0,-791.0,436.0,-571.0,-774.0,229.0,-573.0,462.0
19:40:01.937000,-1759.0,-1230.0,-875.0,517.0,-556.0,-738.0,229.0,-573.0,462.0
19:40:01.942000,-1672.0,-1238.0,-1178.0,517.0,-556.0,-738.0,240.0,-595.0,451.0
19:40:01.947000,-1548.0,-1298.0,-1520.0,494.0,-730.0,-759.0,240.0,-595.0,451.0
19:40:01.954000,-1438.0,-1267.0,-1722.0,460.0,-823.0,-823.0,253.0,-598.0,439.0
19:40:01.956000,-1406.0,-1281.0,-1673.0,460.0,-823.0,-823.0,253.0,-598.0,439.0
19:40:01.960000,-1428.0,-1299.0,-1668.0,398.0,-607.0,-809.0,253.0,-598.0,439.0
19:40:01.966000,-1438.0,-1328.0,-1781.0,218.0,-264.0,-778.0,273.0,-604.0,448.0
19:40:01.970000,-1474.0,-1347.0,-1727.0,95.0,-296.0,-770.0,273.0,-604.0,448.0
19:40:01.975000,-1537.0,-1316.0,-1672.0,-7.0,-496.0,-855.0,273.0,-612.0,438.0
19:40:01.980000,-1607.0,-1341.0,-1721.0,-160.0,-484.0,-898.0,273.0,-612.0,438.0
19:40:01.984000,-1717.0,-1274.0,-1799.0,-204.0,-350.0,-902.0,273.0,-612.0,438.0
19:40:01.989000,-1754.0,-1268.0,-1807.0,-169.0,-230.0,-946.0,295.0,-627.0,420.0
19:40:01.994000,-1824.0,-1315.0,-1798.0,-174.0,-175.0,-962.0,295.0,-627.0,420.0
19:40:01.999000,-1892.0,-1339.0,-1715.0,-141.0,-136.0,-989.0,304.0,-631.0,409.0
19:40:02.003000,-1892.0,-1339.0,-1715.0,-11.0,-142.0,-957.0,304.0,-631.0,409.0
19:40:02.007000,-1986.0,-1363.0,-1571.0,-7.0,-245.0,-932.0,304.0,-631.0,409.0
19:40:02.013000,-2014.0,-1387.0,-1495.0,-39.0,-358.0,-1034.0,328.0,-634.0,405.0
19:40:02.017000,-2011.0,-1404.0,-1439.0,127.0,-354.0,-980.0,328.0,-634.0,405.0
19:40:02.022000,-2115.0,-1482.0,-1452.0,132.0,-397.0,-935.0,343.0,-640.0,385.0
19:40:02.027000,-2103.0,-1528.0,-1593.0,61.0,-540.0,-1016.0,343.0,-640.0,385.0
19:40:02.031000,-2053.0,-1597.0,-1537.0,142.0,-663.0,-997.0,343.0,-640.0,385.0
19:40:02.036000,-2028.0,-1662.0,-1394.0,133.0,-732.0,-1022.0,346.0,-642.0,373.0
19:40:02.041000,-1934.0,-1743.0,-1347.0,91.0,-649.0,-997.0,346.0,-642.0,373.0
19:40:02.046000,-1904.0,-1803.0,-1474.0,21.0,-615.0,-970.0,376.0,-657.0,366.0
19:40:02.050000,-1824.0,-1853.0,-1585.0,39.0,-671.0,-969.0,376.0,-657.0,366.0
19:40:02.054000,-1689.0,-1950.0,-1502.0,55.0,-747.0,-950.0,376.0,-657.0,366.0
19:40:02.060000,-1534.0,-1984.0,-1393.0,-40.0,-805.0,-958.0,376.0,-651.0,354.0
19:40:02.064000,-1487.0,-1974.0,-1325.0,-40.0,-805.0,-958.0,376.0,-651.0,354.0
19:40:02.069000,-1470.0,-1959.0,-1313.0,-146.0,-771.0,-916.0,402.0,-660.0,324.0
19:40:02.073000,-1402.0,-1974.0,-1373.0,-369.0,-640.0,-906.0,402.0,-660.0,324.0
19:40:02.078000,-1394.0,-1921.0,-1401.0,-369.0,-640.0,-906.0,402.0,-660.0,324.0
19:40:02.083000,-1358.0,-1866.0,-1348.0,-316.0,-623.0,-909.0,420.0,-664.0,306.0
19:40:02.088000,-1316.0,-1829.0,-1375.0,-225.0,-585.0,-895.0,420.0,-664.0,306.0
19:40:02.093000,-1310.0,-1789.0,-1393.0,-217.0,-615.0,-871.0,424.0,-661.0,301.0
19:40:02.097000,-1299.0,-1730.0,-1424.0,-286.0,-650.0,-867.0,424.0,-661.0,301.0
19:40:02.101000,-1299.0,-1730.0,-1424.0,-460.0,-625.0,-849.0,424.0,-661.0,301.0
19:40:02.107000,-1307.0,-1712.0,-1451.0,-601.0,-701.0,-835.0,441.0,-652.0,294.0
19:40:02.111000,-1307.0,-1712.0,-1451.0,-628.0,-816.0,-832.0,441.0,-652.0,294.0
19:40:02.115000,-1334.0,-1684.0,-1431.0,-650.0,-759.0,-874.0,453.0,-649.0,280.0
19:40:02.121000,-1241.0,-1642.0,-1442.0,-684.0,-608.0,-918.0,453.0,-649.0,280.0
19:40:02.125000,-1146.0,-1613.0,-1440.0,-690.0,-532.0,-881.0,453.0,-649.0,280.0
19:40:02.130000,-1078.0,-1625.0,-1486.0,-692.0,-555.0,-796.0,444.0,-655.0,267.0
19:40:02.135000,-1101.0,-1666.0,-1520.0,-610.0,-647.0,-775.0,444.0,-655.0,267.0
19:40:02.140000,-1083.0,-1638.0,-1470.0,-479.0,-790.0,-802.0,481.0,-637.0,250.0
19:40:02.144000,-1050.0,-1591.0,-1320.0,-421.0,-847.0,-795.0,481.0,-637.0,250.0
19:40:02.148000,-974.0,-1551.0,-1248.0,-401.0,-740.0,-806.0,481.0,-637.0,250.0
19:40:02.154000,-820.0,-1543.0,-1248.0,-367.0,-601.0,-829.0,486.0,-651.0,231.0
19:40:02.158000,-662.0,-1486.0,-1197.0,-373.0,-595.0,-762.0,486.0,-651.0,231.0
19:40:02.163000,-677.0,-1456.0,-1028.0,-373.0,-595.0,-762.0,495.0,-633.0,229.0
19:40:02.168000,-896.0,-1426.0,-938.0,-612.0,-708.0,-492.0,495.0,-633.0,229.0
19:40:02.172000,-1092.0,-1434.0,-1005.0,-612.0,-814.0,-492.0,495.0,-633.0,229.0
19:40:02.177000,-1034.0,-1415.0,-1029.0,-733.0,-814.0,-614.0,496.0,-627.0,216.0
19:40:02.182000,-907.0,-1404.0,-1108.0,-797.0,-831.0,-735.0,496.0,-627.0,216.0
19:40:02.187000,-825.0,-1379.0,-1194.0,-882.0,-715.0,-731.0,502.0,-633.0,205.0
19:40:02.191000,-653.0,-1375.0,-1117.0,-912.0,-651.0,-756.0,502.0,-633.0,205.0
19:40:02.199000,-597.0,-1437.0,-991.0,-853.0,-630.0,-635.0,498.0,-622.0,192.0
19:40:02.201000,-700.0,-1418.0,-887.0,-853.0,-630.0,-635.0,498.0,-622.0,192.0
19:40:02.205000,-791.0,-1397.0,-846.0,-729.0,-630.0,-595.0,498.0,-622.0,192.0
19:40:02.210000,-862.0,-1374.0,-860.0,-622.0,-526.0,-582.0,507.0,-616.0,186.0
19:40:02.215000,-762.0,-1301.0,-1104.0,-628.0,-402.0,-653.0,507.0,-616.0,186.0
19:40:02.219000,-762.0,-1301.0,-1104.0,-794.0,-313.0,-700.0,523.0,-618.0,171.0
19:40:02.224000,-581.0,-1292.0,-1402.0,-843.0,-390.0,-658.0,523.0,-618.0,171.0
19:40:02.228000,-490.0,-1271.0,-1332.0,-727.0,-558.0,-603.0,523.0,-618.0,171.0
19:40:02.234000,-488.0,-1263.0,-1086.0,-668.0,-612.0,-569.0,520.0,-603.0,162.0
19:40:02.238000,-493.0,-1253.0,-1036.0,-697.0,-600.0,-575.0,520.0,-603.0,162.0
19:40:02.243000,-503.0,-1222.0,-1124.0,-731.0,-631.0,-560.0,519.0,-601.0,172.0
19:40:02.248000,-474.0,-1228.0,-1124.0,-768.0,-766.0,-570.0,519.0,-601.0,172.0
19:40:02.252000,-436.0,-1200.0,-1079.0,-868.0,-860.0,-555.0,519.0,-601.0,172.0
19:40:02.257000,-429.0,-1198.0,-1114.0,-970.0,-651.0,-542.0,531.0,-594.0,153.0
19:40:02.262000,-416.0,-1161.0,-1210.0,-1009.0,-329.0,-537.0,531.0,-594.0,153.0
19:40:02.266000,-438.0,-1138.0,-1309.0,-942.0,-247.0,-503.0,535.0,-580.0,139.0
19:40:02.271000,-409.0,-1134.0,-1278.0,-942.0,-247.0,-503.0,535.0,-580.0,139.0
19:40:02.275000,-368.0,-1129.0,-1229.0,-798.0,-437.0,-477.0,535.0,-580.0,139.0
19:40:02.281000,-373.0,-1095.0,-1204.0,-793.0,-465.0,-453.0,538.0,-591.0,130.0
19:40:02.285000,-389.0,-1080.0,-1139.0,-793.0,-465.0,-453.0,538.0,-591.0,130.0
19:40:02.290000,-402.0,-1070.0,-1085.0,-796.0,-488.0,-423.0,535.0,-573.0,121.0
19:40:02.295000,-393.0,-1052.0,-1111.0,-843.0,-415.0,-411.0,535.0,-573.0,121.0
19:40:02.299000,-365.0,-1023.0,-1178.0,-890.0,-290.0,-421.0,535.0,-573.0,121.0
19:40:02.304000,-350.0,-1025.0,-1241.0,-927.0,-259.0,-397.0,550.0,-565.0,120.0
19:40:02.309000,-323.0,-994.0,-1194.0,-886.0,-345.0,-388.0,550.0,-565.0,120.0
19:40:02.313000,-280.0,-961.0,-1078.0,-789.0,-452.0,-405.0,552.0,-558.0,111.0
19:40:02.318000,-235.0,-951.0,-1026.0,-833.0,-474.0,-390.0,552.0,-558.0,111.0
19:40:02.322000,-235.0,-951.0,-1026.0,-951.0,-446.0,-363.0,552.0,-558.0,111.0
19:40:02.328000,-256.0,-920.0,-1023.0,-963.0,-350.0,-351.0,547.0,-546.0,117.0
19:40:02.332000,-256.0,-920.0,-1023.0,-887.0,-284.0,-368.0,547.0,-546.0,117.0
19:40:02.337000,-209.0,-893.0,-978.0,-809.0,-364.0,-369.0,552.0,-552.0,103.0
19:40:02.342000,-201.0,-854.0,-862.0,-838.0,-392.0,-353.0,552.0,-552.0,103.0
19:40:02.346000,-176.0,-830.0,-853.0,-947.0,-315.0,-348.0,552.0,-552.0,103.0
19:40:02.351000,-145.0,-801.0,-962.0,-955.0,-299.0,-350.0,559.0,-543.0,96.0
19:40:02.356000,-93.0,-786.0,-949.0,-880.0,-374.0,-342.0,559.0,-543.0,96.0
19:40:02.360000,-59.0,-772.0,-833.0,-887.0,-388.0,-342.0,561.0,-531.0,100.0
19:40:02.365000,-46.0,-720.0,-828.0,-941.0,-332.0,-337.0,561.0,-531.0,100.0
19:40:02.369000,0.0,-705.0,-844.0,-959.0,-293.0,-328.0,561.0,-531.0,100.0
19:40:02.375000,49.0,-686.0,-860.0,-946.0,-249.0,-339.0,553.0,-522.0,79.0
19:40:02.379000,75.0,-645.0,-890.0,-913.0,-242.0,-322.0,553.0,-522.0,79.0
19:40:02.384000,63.0,-623.0,-877.0,-913.0,-242.0,-322.0,556.0,-525.0,79.0
19:40:02.389000,48.0,-608.0,-758.0,-870.0,-321.0,-307.0,556.0,-525.0,79.0
19:40:02.393000,65.0,-606.0,-631.0,-870.0,-321.0,-307.0,556.0,-525.0,79.0
19:40:02.398000,56.0,-594.0,-645.0,-916.0,-265.0,-305.0,564.0,-522.0,66.0
19:40:02.402000,56.0,-590.0,-699.0,-886.0,-149.0,-289.0,564.0,-522.0,66.0
19:40:02.407000,86.0,-582.0,-662.0,-886.0,-149.0,-289.0,568.0,-513.0,66.0
19:40:02.412000,104.0,-580.0,-606.0,-838.0,-155.0,-284.0,568.0,-513.0,66.0
19:40:02.417000,112.0,-560.0,-609.0,-837.0,-96.0,-271.0,567.0,-507.0,70.0
19:40:02.422000,93.0,-541.0,-620.0,-855.0,-47.0,-254.0,567.0,-507.0,70.0
19:40:02.426000,93.0,-541.0,-620.0,-847.0,-94.0,-232.0,567.0,-507.0,70.0
19:40:02.431000,102.0,-555.0,-476.0,-820.0,-143.0,-214.0,565.0,-507.0,69.0
19:40:02.436000,114.0,-555.0,-462.0,-810.0,-116.0,-203.0,565.0,-507.0,69.0
19:40:02.440000,114.0,-555.0,-462.0,-805.0,-78.0,-195.0,556.0,-499.0,58.0
19:40:02.445000,114.0,-546.0,-430.0,-813.0,-27.0,-176.0,556.0,-499.0,58.0
19:40:02.449000,121.0,-543.0,-415.0,-832.0,32.0,-152.0,556.0,-499.0,58.0
19:40:02.454000,95.0,-537.0,-418.0,-835.0,51.0,-129.0,544.0,-498.0,76.0
19:40:02.459000,56.0,-532.0,-385.0,-831.0,38.0,-113.0,544.0,-498.0,76.0
19:40:02.464000,33.0,-527.0,-325.0,-846.0,20.0,-99.0,568.0,-508.0,54.0
19:40:02.469000,11.0,-525.0,-296.0,-868.0,40.0,-83.0,568.0,-508.0,54.0
19:40:02.473000,-10.0,-528.0,-290.0,-883.0,59.0,-69.0,568.0,-508.0,54.0
19:40:02.478000,-40.0,-522.0,-256.0,-898.0,58.0,-55.0,561.0,-496.0,51.0
19:40:02.483000,-83.0,-511.0,-207.0,-913.0,77.0,-30.0,561.0,-496.0,51.0
19:40:02.487000,-123.0,-514.0,-207.0,-918.0,87.0,-20.0,562.0,-493.0,45.0
19:40:02.492000,-168.0,-497.0,-212.0,-919.0,69.0,-19.0,562.0,-493.0,45.0
19:40:02.499000,-190.0,-486.0,-183.0,-948.0,51.0,-8.0,567.0,-493.0,40.0
19:40:02.501000,-217.0,-476.0,-161.0,-948.0,51.0,-8.0,567.0,-493.0,40.0
19:40:02.506000,-250.0,-469.0,-176.0,-999.0,66.0,6.0,567.0,-493.0,40.0
19:40:02.511000,-294.0,-446.0,-189.0,-1019.0,81.0,11.0,567.0,-498.0,39.0
19:40:02.516000,-317.0,-429.0,-137.0,-1011.0,44.0,8.0,567.0,-498.0,39.0
19:40:02.520000,-335.0,-408.0,-81.0,-1024.0,5.0,8.0,553.0,-493.0,39.0
19:40:02.525000,-357.0,-390.0,-90.0,-1064.0,6.0,11.0,553.0,-493.0,39.0
19:40:02.529000,-365.0,-372.0,-117.0,-1081.0,28.0,13.0,553.0,-493.0,39.0
19:40:02.534000,-371.0,-361.0,-44.0,-1043.0,18.0,17.0,558.0,-495.0,42.0
19:40:02.539000,-389.0,-344.0,30.0,-1005.0,-8.0,28.0,558.0,-495.0,42.0
19:40:02.544000,-406.0,-315.0,13.0,-1033.0,2.0,27.0,555.0,-492.0,34.0
19:40:02.548000,-406.0,-315.0,13.0,-1078.0,16.0,25.0,555.0,-492.0,34.0
19:40:02.553000,-423.0,-294.0,-7.0,-1074.0,0.0,31.0,555.0,-492.0,34.0
19:40:02.558000,-442.0,-286.0,18.0,-1042.0,-10.0,34.0,555.0,-487.0,33.0
19:40:02.563000,-452.0,-285.0,60.0,-1010.0,0.0,38.0,555.0,-487.0,33.0
19:40:02.567000,-458.0,-287.0,65.0,-989.0,26.0,42.0,546.0,-490.0,24.0
19:40:02.572000,-473.0,-275.0,46.0,-979.0,37.0,42.0,546.0,-490.0,24.0
19:40:02.576000,-487.0,-252.0,52.0,-993.0,42.0,50.0,546.0,-490.0,24.0
19:40:02.581000,-508.0,-243.0,64.0,-1034.0,57.0,66.0,558.0,-496.0,28.0
19:40:02.586000,-548.0,-235.0,52.0,-1047.0,59.0,69.0,558.0,-496.0,28.0
19:40:02.590000,-592.0,-218.0,53.0,-1031.0,51.0,67.0,555.0,-492.0,36.0
19:40:02.595000,-619.0,-201.0,77.0,-1033.0,57.0,72.0,555.0,-492.0,36.0
19:40:02.600000,-648.0,-189.0,101.0,-1046.0,80.0,78.0,555.0,-492.0,36.0
19:40:02.605000,-700.0,-168.0,144.0,-1081.0,107.0,81.0,564.0,-484.0,13.0
19:40:02.610000,-763.0,-149.0,142.0,-1081.0,137.0,82.0,564.0,-484.0,13.0
19:40:02.614000,-805.0,-139.0,82.0,-1125.0,137.0,82.0,556.0,-481.0,21.0
19:40:02.619000,-853.0,-132.0,90.0,-1095.0,121.0,80.0,556.0,-481.0,21.0
19:40:02.623000,-899.0,-132.0,165.0,-1019.0,78.0,79.0,556.0,-481.0,21.0
19:40:02.628000,-952.0,-133.0,183.0,-997.0,110.0,82.0,552.0,-486.0,13.0
19:40:02.633000,-1007.0,-130.0,182.0,-1011.0,170.0,86.0,552.0,-486.0,13.0
19:40:02.638000,-1073.0,-131.0,221.0,-1017.0,171.0,92.0,558.0,-477.0,25.0
19:40:02.642000,-1150.0,-141.0,236.0,-1037.0,162.0,103.0,558.0,-477.0,25.0
19:40:02.647000,-1150.0,-141.0,236.0,-1058.0,174.0,113.0,558.0,-477.0,25.0
19:40:02.652000,-1292.0,-192.0,233.0,-1038.0,176.0,118.0,556.0,-480.0,12.0
19:40:02.657000,-1372.0,-229.0,273.0,-995.0,172.0,127.0,556.0,-480.0,12.0
19:40:02.661000,-1372.0,-229.0,273.0,-967.0,195.0,142.0,552.0,-472.0,16.0
19:40:02.666000,-1472.0,-263.0,296.0,-953.0,229.0,157.0,552.0,-472.0,16.0
19:40:02.670000,-1569.0,-309.0,291.0,-934.0,226.0,179.0,552.0,-472.0,16.0
19:40:02.675000,-1678.0,-366.0,303.0,-903.0,191.0,201.0,553.0,-463.0,4.0
19:40:02.680000,-1790.0,-431.0,353.0,-883.0,172.0,213.0,553.0,-463.0,4.0
19:40:02.685000,-1888.0,-500.0,369.0,-878.0,204.0,223.0,547.0,-466.0,3.0
19:40:02.689000,-1998.0,-566.0,296.0,-833.0,222.0,247.0,547.0,-466.0,3.0
19:40:02.694000,-2102.0,-651.0,273.0,-753.0,196.0,276.0,547.0,-466.0,3.0
19:40:02.699000,-2222.0,-740.0,305.0,-720.0,192.0,301.0,547.0,-457.0,-6.0
19:40:02.704000,-2365.0,-818.0,300.0,-732.0,221.0,324.0,547.0,-457.0,-6.0
19:40:02.708000,-2480.0,-911.0,267.0,-732.0,221.0,324.0,556.0,-450.0,-15.0
19:40:02.713000,-2608.0,-996.0,248.0,-749.0,229.0,381.0,556.0,-450.0,-15.0
19:40:02.717000,-2750.0,-1087.0,250.0,-750.0,216.0,422.0,556.0,-450.0,-15.0
19:40:02.722000,-2894.0,-1182.0,219.0,-750.0,234.0,455.0,552.0,-447.0,-22.0
19:40:02.727000,-3041.0,-1262.0,151.0,-750.0,234.0,455.0,552.0,-447.0,-22.0
19:40:02.732000,-3196.0,-1342.0,149.0,-727.0,230.0,493.0,538.0,-433.0,-9.0
19:40:02.736000,-3366.0,-1421.0,122.0,-724.0,241.0,542.0,538.0,-433.0,-9.0
19:40:02.741000,-3535.0,-1484.0,20.0,-752.0,312.0,589.0,538.0,-433.0,-9.0
19:40:02.746000,-3672.0,-1549.0,-45.0,-757.0,314.0,632.0,528.0,-411.0,-34.0
19:40:02.751000,-3803.0,-1618.0,-95.0,-753.0,238.0,679.0,528.0,-411.0,-34.0
19:40:02.755000,-3927.0,-1687.0,-165.0,-769.0,179.0,725.0,523.0,-387.0,-54.0
19:40:02.760000,-4027.0,-1763.0,-248.0,-798.0,148.0,770.0,523.0,-387.0,-54.0
19:40:02.764000,-4027.0,-1763.0,-248.0,-798.0,116.0,813.0,523.0,-387.0,-54.0
19:40:02.769000,-4114.0,-1834.0,-289.0,-770.0,79.0,850.0,517.0,-379.0,-48.0
19:40:02.774000,-4197.0,-1892.0,-318.0,-766.0,48.0,896.0,517.0,-379.0,-48.0
19:40:02.778000,-4270.0,-1959.0,-380.0,-772.0,7.0,939.0,517.0,-379.0,-48.0
19:40:02.783000,-4323.0,-2025.0,-420.0,-775.0,-18.0,965.0,502.0,-361.0,-63.0
19:40:02.788000,-4369.0,-2074.0,-478.0,-807.0,11.0,991.0,502.0,-361.0,-63.0
19:40:02.793000,-4396.0,-2127.0,-602.0,-820.0,27.0,1017.0,504.0,-336.0,-60.0
19:40:02.798000,-4428.0,-2163.0,-689.0,-799.0,-4.0,1040.0,504.0,-336.0,-60.0
19:40:02.802000,-4449.0,-2198.0,-707.0,-826.0,-13.0,1066.0,504.0,-336.0,-60.0
19:40:02.807000,-4473.0,-2225.0,-756.0,-878.0,19.0,1087.0,478.0,-294.0,-60.0
19:40:02.811000,-4473.0,-2257.0,-853.0,-879.0,36.0,1103.0,478.0,-294.0,-60.0
19:40:02.816000,-4488.0,-2272.0,-905.0,-849.0,24.0,1125.0,462.0,-258.0,-63.0
19:40:02.821000,-4491.0,-2293.0,-884.0,-839.0,34.0,1143.0,462.0,-258.0,-63.0
19:40:02.826000,-4485.0,-2318.0,-870.0,-839.0,34.0,1143.0,459.0,-238.0,-69.0
19:40:02.830000,-4499.0,-2310.0,-947.0,-882.0,104.0,1152.0,459.0,-238.0,-69.0
19:40:02.835000,-4495.0,-2300.0,-1004.0,-929.0,163.0,1153.0,459.0,-238.0,-69.0
19:40:02.840000,-4481.0,-2292.0,-1021.0,-949.0,163.0,1157.0,435.0,-207.0,-60.0
19:40:02.845000,-4453.0,-2290.0,-993.0,-977.0,146.0,1158.0,435.0,-207.0,-60.0
19:40:02.849000,-4429.0,-2291.0,-991.0,-1010.0,192.0,1161.0,429.0,-198.0,-40.0
19:40:02.854000,-4401.0,-2295.0,-1042.0,-1018.0,192.0,1170.0,429.0,-198.0,-40.0
19:40:02.858000,-4350.0,-2297.0,-1079.0,-962.0,198.0,1169.0,429.0,-198.0,-40.0
19:40:02.863000,-4297.0,-2293.0,-1027.0,-866.0,136.0,1164.0,415.0,-178.0,-36.0
19:40:02.868000,-4229.0,-2286.0,-948.0,-812.0,81.0,1154.0,415.0,-178.0,-36.0
19:40:02.873000,-4160.0,-2278.0,-940.0,-837.0,94.0,1141.0,394.0,-144.0,-27.0
19:40:02.877000,-4160.0,-2278.0,-940.0,-875.0,137.0,1126.0,394.0,-144.0,-27.0
19:40:02.882000,-4092.0,-2261.0,-960.0,-876.0,162.0,1103.0,394.0,-144.0,-27.0
19:40:02.887000,-4020.0,-2237.0,-959.0,-884.0,171.0,1078.0,369.0,-105.0,0.0
19:40:02.892000,-3935.0,-2205.0,-942.0,-919.0,180.0,1048.0,369.0,-105.0,0.0
19:40:02.896000,-3840.0,-2168.0,-934.0,-956.0,198.0,1015.0,343.0,-88.0,21.0
19:40:02.901000,-3758.0,-2121.0,-928.0,-998.0,237.0,987.0,343.0,-88.0,21.0
19:40:02.905000,-3688.0,-2074.0,-927.0,-1027.0,282.0,964.0,343.0,-88.0,21.0
19:40:02.910000,-3622.0,-2025.0,-906.0,-1023.0,318.0,938.0,334.0,-76.0,37.0
19:40:02.915000,-3552.0,-1978.0,-873.0,-1008.0,346.0,908.0,334.0,-76.0,37.0
19:40:02.920000,-3478.0,-1925.0,-869.0,-985.0,348.0,876.0,349.0,-69.0,39.0
19:40:02.924000,-3387.0,-1880.0,-877.0,-958.0,326.0,845.0,349.0,-69.0,39.0
19:40:02.929000,-3299.0,-1829.0,-862.0,-917.0,307.0,813.0,349.0,-69.0,39.0
19:40:02.934000,-3204.0,-1780.0,-788.0,-883.0,313.0,784.0,328.0,-52.0,64.0
19:40:02.939000,-3112.0,-1733.0,-702.0,-883.0,313.0,784.0,328.0,-52.0,64.0
19:40:02.943000,-3019.0,-1675.0,-673.0,-897.0,342.0,749.0,307.0,-52.0,99.0
19:40:02.948000,-2916.0,-1619.0,-653.0,-915.0,365.0,708.0,307.0,-52.0,99.0
19:40:02.952000,-2814.0,-1569.0,-602.0,-898.0,358.0,677.0,307.0,-52.0,99.0
19:40:02.957000,-2708.0,-1523.0,-531.0,-863.0,350.0,653.0,309.0,-24.0,117.0
19:40:02.962000,-2599.0,-1474.0,-468.0,-839.0,342.0,624.0,309.0,-24.0,117.0
19:40:02.967000,-2486.0,-1414.0,-401.0,-832.0,321.0,586.0,298.0,-18.0,129.0
19:40:02.971000,-2376.0,-1356.0,-322.0,-825.0,303.0,551.0,298.0,-18.0,129.0
19:40:02.976000,-2376.0,-1356.0,-322.0,-814.0,325.0,531.0,298.0,-18.0,129.0
19:40:02.981000,-2186.0,-1245.0,-261.0,-811.0,408.0,512.0,295.0,-16.0,144.0
19:40:02.986000,-2186.0,-1245.0,-261.0,-806.0,494.0,496.0,295.0,-16.0,144.0
19:40:02.990000,-2094.0,-1194.0,-273.0,-780.0,511.0,485.0,289.0,-21.0,150.0
19:40:02.995000,-1995.0,-1144.0,-259.0,-749.0,462.0,476.0,289.0,-21.0,150.0
19:40:02.999000,-1904.0,-1092.0,-207.0,-744.0,411.0,468.0,289.0,-21.0,150.0
19:40:03.004000,-1821.0,-1043.0,-162.0,-765.0,415.0,459.0,291.0,-9.0,163.0
19:40:03.009000,-1736.0,-998.0,-158.0,-767.0,444.0,440.0,291.0,-9.0,163.0
19:40:03.014000,-1654.0,-942.0,-170.0,-743.0,452.0,412.0,285.0,1.0,180.0
19:40:03.018000,-1568.0,-882.0,-156.0,-722.0,449.0,385.0,285.0,1.0,180.0
19:40:03.023000,-1488.0,-817.0,-137.0,-730.0,462.0,358.0,285.0,1.0,180.0
19:40:03.028000,-1416.0,-751.0,-156.0,-745.0,504.0,334.0,279.0,-1.0,196.0
19:40:03.033000,-1352.0,-695.0,-191.0,-740.0,549.0,321.0,279.0,-1.0,196.0
19:40:03.037000,-1312.0,-641.0,-207.0,-740.0,549.0,321.0,285.0,-9.0,201.0
19:40:03.042000,-1288.0,-590.0,-205.0,-722.0,661.0,298.0,285.0,-9.0,201.0
19:40:03.046000,-1283.0,-546.0,-215.0,-720.0,720.0,289.0,285.0,-9.0,201.0
19:40:03.051000,-1281.0,-504.0,-238.0,-720.0,720.0,289.0,282.0,4.0,208.0
19:40:03.056000,-1268.0,-474.0,-264.0,-704.0,743.0,279.0,282.0,4.0,208.0
19:40:03.061000,-1253.0,-452.0,-301.0,-677.0,728.0,273.0,282.0,-3.0,219.0
19:40:03.065000,-1239.0,-432.0,-322.0,-641.0,690.0,268.0,282.0,-3.0,219.0
19:40:03.073000,-1210.0,-419.0,-326.0,-580.0,640.0,238.0,283.0,1.0,222.0
19:40:03.075000,-1167.0,-404.0,-350.0,-580.0,640.0,238.0,283.0,1.0,222.0
19:40:03.079000,-1112.0,-392.0,-407.0,-575.0,648.0,216.0,283.0,1.0,222.0
19:40:03.084000,-1057.0,-380.0,-464.0,-565.0,667.0,205.0,279.0,-6.0,237.0
19:40:03.089000,-1014.0,-378.0,-480.0,-538.0,676.0,209.0,279.0,-6.0,237.0
19:40:03.094000,-978.0,-382.0,-458.0,-499.0,660.0,212.0,276.0,-6.0,243.0
19:40:03.098000,-978.0,-382.0,-458.0,-461.0,643.0,211.0,276.0,-6.0,243.0
19:40:03.102000,-941.0,-387.0,-418.0,-436.0,638.0,204.0,276.0,-6.0,243.0
19:40:03.108000,-902.0,-382.0,-389.0,-423.0,651.0,195.0,276.0,6.0,252.0
19:40:03.112000,-864.0,-371.0,-386.0,-407.0,674.0,187.0,276.0,6.0,252.0
19:40:03.117000,-828.0,-357.0,-379.0,-395.0,684.0,177.0,264.0,4.0,259.0
19:40:03.122000,-798.0,-338.0,-338.0,-406.0,707.0,171.0,264.0,4.0,259.0
19:40:03.126000,-779.0,-317.0,-297.0,-446.0,750.0,172.0,264.0,4.0,259.0
19:40:03.131000,-770.0,-291.0,-283.0,-481.0,779.0,167.0,258.0,-1.0,265.0
19:40:03.136000,-756.0,-259.0,-287.0,-480.0,765.0,164.0,258.0,-1.0,265.0
19:40:03.141000,-733.0,-227.0,-285.0,-448.0,720.0,167.0,274.0,6.0,265.0
19:40:03.145000,-708.0,-198.0,-275.0,-410.0,678.0,172.0,274.0,6.0,265.0
19:40:03.149000,-689.0,-165.0,-253.0,-393.0,660.0,175.0,274.0,6.0,265.0
19:40:03.155000,-662.0,-141.0,-247.0,-400.0,685.0,173.0,261.0,7.0,271.0
19:40:03.159000,-634.0,-122.0,-277.0,-405.0,731.0,168.0,261.0,7.0,271.0
19:40:03.164000,-612.0,-103.0,-331.0,-405.0,731.0,168.0,258.0,-3.0,282.0
19:40:03.169000,-587.0,-93.0,-351.0,-397.0,760.0,165.0,258.0,-3.0,282.0
19:40:03.173000,-562.0,-79.0,-331.0,-395.0,755.0,157.0,258.0,-3.0,282.0
19:40:03.178000,-541.0,-73.0,-322.0,-416.0,748.0,148.0,262.0,-4.0,286.0
19:40:03.183000,-516.0,-79.0,-328.0,-432.0,755.0,146.0,262.0,-4.0,286.0
19:40:03.188000,-495.0,-87.0,-315.0,-417.0,752.0,144.0,255.0,-3.0,292.0
19:40:03.192000,-471.0,-93.0,-305.0,-391.0,746.0,139.0,255.0,-3.0,292.0
19:40:03.196000,-471.0,-93.0,-305.0,-376.0,755.0,131.0,255.0,-3.0,292.0
19:40:03.201000,-442.0,-107.0,-322.0,-351.0,765.0,133.0,255.0,4.0,289.0
19:40:03.206000,-424.0,-122.0,-324.0,-313.0,767.0,132.0,255.0,4.0,289.0
19:40:03.211000,-403.0,-137.0,-294.0,-307.0,786.0,129.0,240.0,3.0,315.0
19:40:03.216000,-388.0,-149.0,-287.0,-320.0,822.0,135.0,240.0,3.0,315.0
19:40:03.220000,-369.0,-164.0,-324.0,-315.0,845.0,138.0,240.0,3.0,315.0
19:40:03.225000,-347.0,-177.0,-367.0,-297.0,828.0,143.0,255.0,0.0,297.0
19:40:03.230000,-327.0,-189.0,-366.0,-287.0,794.0,150.0,255.0,0.0,297.0
19:40:03.235000,-303.0,-197.0,-340.0,-291.0,777.0,153.0,241.0,-3.0,295.0
19:40:03.239000,-276.0,-200.0,-327.0,-304.0,779.0,159.0,241.0,-3.0,295.0
