hh:mm:ss.ms,gyroX[mdps],gyroY[mdps],gyroZ[mdps],accX[mg],accY[mg],accZ[mg],magX[mG],magY[mG],magZ[mG]
19:41:31.458000,-1909.0,-797.0,-882.0,-609.0,-583.0,-669.0,279.0,-445.0,546.0
19:41:31.462000,-1909.0,-797.0,-882.0,-784.0,-693.0,-589.0,279.0,-445.0,546.0
19:41:31.467000,-1927.0,-797.0,-934.0,-721.0,-653.0,-533.0,285.0,-469.0,540.0
19:41:31.472000,-1929.0,-749.0,-771.0,-537.0,-617.0,-537.0,285.0,-469.0,540.0
19:41:31.476000,-2039.0,-708.0,-335.0,-278.0,-741.0,-477.0,288.0,-481.0,528.0
19:41:31.481000,-2104.0,-693.0,36.0,-284.0,-540.0,-510.0,288.0,-481.0,528.0
19:41:31.485000,-2109.0,-637.0,-285.0,-461.0,-292.0,-527.0,288.0,-481.0,528.0
19:41:31.490000,-2130.0,-563.0,-604.0,-359.0,-437.0,-541.0,285.0,-496.0,522.0
19:41:31.495000,-2062.0,-547.0,-583.0,-233.0,-654.0,-570.0,285.0,-496.0,522.0
19:41:31.500000,-2046.0,-496.0,-472.0,-370.0,-686.0,-597.0,303.0,-508.0,519.0
19:41:31.505000,-2034.0,-435.0,-473.0,-465.0,-646.0,-592.0,303.0,-508.0,519.0
19:41:31.509000,-2023.0,-410.0,-534.0,-397.0,-607.0,-633.0,303.0,-508.0,519.0
19:41:31.514000,-1948.0,-378.0,-452.0,-295.0,-625.0,-649.0,298.0,-522.0,514.0
19:41:31.518000,-1922.0,-374.0,-321.0,-204.0,-697.0,-617.0,298.0,-522.0,514.0
19:41:31.523000,-1913.0,-340.0,-243.0,-204.0,-728.0,-617.0,304.0,-535.0,504.0
19:41:31.528000,-1867.0,-338.0,-204.0,-219.0,-732.0,-654.0,304.0,-535.0,504.0
19:41:31.533000,-1800.0,-319.0,-121.0,-231.0,-730.0,-686.0,307.0,-549.0,492.0
19:41:31.537000,-1731.0,-324.0,-52.0,-173.0,-707.0,-701.0,307.0,-549.0,492.0
19:41:31.541000,-1677.0,-337.0,-46.0,-90.0,-682.0,-686.0,307.0,-549.0,492.0
19:41:31.547000,-1610.0,-357.0,37.0,-26.0,-683.0,-679.0,306.0,-556.0,483.0
19:41:31.552000,-1595.0,-361.0,220.0,12.0,-718.0,-669.0,306.0,-556.0,483.0
19:41:31.556000,-1565.0,-364.0,410.0,12.0,-728.0,-662.0,301.0,-576.0,474.0
19:41:31.561000,-1530.0,-366.0,549.0,-40.0,-677.0,-670.0,301.0,-576.0,474.0
19:41:31.565000,-1530.0,-366.0,549.0,-93.0,-597.0,-658.0,301.0,-576.0,474.0
19:41:31.570000,-1512.0,-374.0,629.0,-104.0,-525.0,-630.0,304.0,-594.0,463.0
19:41:31.575000,-1503.0,-391.0,686.0,-79.0,-483.0,-616.0,304.0,-594.0,463.0
19:41:31.580000,-1497.0,-399.0,751.0,-41.0,-475.0,-597.0,295.0,-592.0,463.0
19:41:31.584000,-1509.0,-403.0,840.0,-10.0,-472.0,-574.0,295.0,-592.0,463.0
19:41:31.588000,-1509.0,-415.0,912.0,22.0,-450.0,-566.0,295.0,-592.0,463.0
19:41:31.594000,-1525.0,-422.0,961.0,54.0,-462.0,-543.0,300.0,-598.0,451.0
19:41:31.598000,-1550.0,-438.0,1026.0,82.0,-475.0,-521.0,300.0,-598.0,451.0
19:41:31.603000,-1572.0,-455.0,1111.0,92.0,-471.0,-501.0,303.0,-606.0,447.0
19:41:31.608000,-1603.0,-467.0,1169.0,99.0,-445.0,-473.0,303.0,-606.0,447.0
19:41:31.612000,-1629.0,-483.0,1209.0,127.0,-438.0,-443.0,303.0,-606.0,447.0
19:41:31.617000,-1666.0,-496.0,1262.0,156.0,-477.0,-406.0,289.0,-618.0,444.0
19:41:31.622000,-1706.0,-516.0,1331.0,195.0,-517.0,-366.0,289.0,-618.0,444.0
19:41:31.627000,-1746.0,-536.0,1402.0,195.0,-517.0,-366.0,276.0,-636.0,420.0
19:41:31.631000,-1778.0,-552.0,1488.0,338.0,-586.0,-310.0,276.0,-636.0,420.0
19:41:31.635000,-1807.0,-562.0,1573.0,338.0,-586.0,-310.0,276.0,-636.0,420.0
19:41:31.641000,-1831.0,-575.0,1644.0,375.0,-575.0,-284.0,285.0,-642.0,418.0
19:41:31.645000,-1846.0,-595.0,1729.0,404.0,-596.0,-258.0,285.0,-642.0,418.0
19:41:31.650000,-1852.0,-603.0,1818.0,437.0,-624.0,-242.0,274.0,-643.0,405.0
19:41:31.655000,-1850.0,-617.0,1887.0,447.0,-628.0,-226.0,274.0,-643.0,405.0
19:41:31.659000,-1849.0,-636.0,1969.0,475.0,-668.0,-202.0,274.0,-643.0,405.0
19:41:31.664000,-1820.0,-659.0,2059.0,520.0,-738.0,-180.0,267.0,-645.0,391.0
19:41:31.669000,-1782.0,-677.0,2119.0,529.0,-765.0,-159.0,267.0,-645.0,391.0
19:41:31.674000,-1752.0,-697.0,2193.0,534.0,-769.0,-136.0,253.0,-657.0,382.0
19:41:31.678000,-1724.0,-714.0,2301.0,567.0,-762.0,-119.0,253.0,-657.0,382.0
19:41:31.682000,-1724.0,-714.0,2301.0,620.0,-754.0,-113.0,253.0,-657.0,382.0
19:41:31.688000,-1694.0,-726.0,2419.0,565.0,-799.0,-89.0,243.0,-658.0,367.0
19:41:31.692000,-1654.0,-737.0,2482.0,439.0,-748.0,-60.0,243.0,-658.0,367.0
19:41:31.697000,-1616.0,-742.0,2519.0,438.0,-735.0,-43.0,216.0,-669.0,360.0
19:41:31.702000,-1584.0,-739.0,2623.0,563.0,-830.0,-68.0,216.0,-669.0,360.0
19:41:31.706000,-1563.0,-725.0,2814.0,569.0,-795.0,-75.0,216.0,-669.0,360.0
19:41:31.711000,-1545.0,-736.0,2989.0,524.0,-842.0,-53.0,217.0,-663.0,343.0
19:41:31.716000,-1512.0,-732.0,3115.0,460.0,-959.0,-48.0,217.0,-663.0,343.0
19:41:31.721000,-1480.0,-714.0,3134.0,331.0,-955.0,-18.0,207.0,-666.0,340.0
19:41:31.725000,-1463.0,-702.0,3154.0,319.0,-946.0,10.0,207.0,-666.0,340.0
19:41:31.729000,-1462.0,-689.0,3221.0,375.0,-889.0,33.0,207.0,-666.0,340.0
19:41:31.735000,-1465.0,-678.0,3295.0,473.0,-808.0,59.0,184.0,-660.0,336.0
19:41:31.739000,-1475.0,-676.0,3365.0,595.0,-783.0,70.0,184.0,-660.0,336.0
19:41:31.744000,-1463.0,-676.0,3397.0,595.0,-783.0,70.0,165.0,-670.0,336.0
19:41:31.749000,-1453.0,-660.0,3311.0,688.0,-764.0,76.0,165.0,-670.0,336.0
19:41:31.753000,-1425.0,-644.0,3119.0,715.0,-758.0,91.0,165.0,-670.0,336.0
19:41:31.758000,-1382.0,-644.0,3013.0,702.0,-804.0,116.0,163.0,-658.0,325.0
19:41:31.763000,-1380.0,-639.0,2998.0,751.0,-887.0,137.0,163.0,-658.0,325.0
19:41:31.768000,-1355.0,-644.0,3007.0,818.0,-906.0,152.0,145.0,-651.0,318.0
19:41:31.772000,-1375.0,-631.0,3024.0,835.0,-835.0,194.0,145.0,-651.0,318.0
19:41:31.776000,-1375.0,-631.0,3024.0,842.0,-816.0,224.0,145.0,-651.0,318.0
19:41:31.782000,-1360.0,-629.0,3070.0,822.0,-832.0,239.0,147.0,-648.0,322.0
19:41:31.786000,-1342.0,-636.0,3013.0,831.0,-798.0,251.0,147.0,-648.0,322.0
19:41:31.791000,-1342.0,-636.0,3013.0,921.0,-792.0,242.0,135.0,-645.0,313.0
19:41:31.796000,-1337.0,-636.0,3006.0,986.0,-854.0,249.0,135.0,-645.0,313.0
19:41:31.800000,-1325.0,-634.0,3052.0,935.0,-818.0,254.0,135.0,-645.0,313.0
19:41:31.805000,-1309.0,-639.0,3063.0,863.0,-781.0,261.0,117.0,-645.0,306.0
19:41:31.810000,-1295.0,-648.0,3073.0,823.0,-792.0,282.0,117.0,-645.0,306.0
19:41:31.815000,-1285.0,-639.0,3085.0,884.0,-670.0,299.0,115.0,-631.0,306.0
19:41:31.819000,-1306.0,-632.0,3131.0,1011.0,-610.0,340.0,115.0,-631.0,306.0
19:41:31.823000,-1341.0,-637.0,3188.0,1085.0,-592.0,389.0,115.0,-631.0,306.0
19:41:31.829000,-1351.0,-641.0,3231.0,1164.0,-579.0,423.0,99.0,-630.0,300.0
19:41:31.833000,-1351.0,-641.0,3249.0,1223.0,-649.0,475.0,99.0,-630.0,300.0
19:41:31.838000,-1360.0,-643.0,3203.0,1225.0,-684.0,501.0,84.0,-606.0,282.0
19:41:31.843000,-1313.0,-621.0,3101.0,1297.0,-770.0,485.0,84.0,-606.0,282.0
19:41:31.847000,-1311.0,-595.0,3010.0,1334.0,-765.0,501.0,84.0,-606.0,282.0
19:41:31.852000,-1328.0,-569.0,3038.0,1334.0,-765.0,501.0,87.0,-606.0,280.0
19:41:31.857000,-1328.0,-548.0,3092.0,1235.0,-661.0,511.0,87.0,-606.0,280.0
19:41:31.861000,-1332.0,-531.0,3115.0,1150.0,-768.0,501.0,78.0,-600.0,286.0
19:41:31.866000,-1326.0,-523.0,3113.0,1150.0,-768.0,501.0,78.0,-600.0,286.0
19:41:31.871000,-1314.0,-505.0,3091.0,1186.0,-728.0,489.0,78.0,-597.0,283.0
19:41:31.876000,-1310.0,-493.0,3071.0,1282.0,-703.0,476.0,78.0,-597.0,283.0
19:41:31.880000,-1330.0,-475.0,3040.0,1328.0,-598.0,484.0,78.0,-597.0,283.0
19:41:31.885000,-1362.0,-455.0,2987.0,1311.0,-449.0,502.0,72.0,-594.0,279.0
19:41:31.890000,-1382.0,-445.0,2914.0,1302.0,-365.0,533.0,72.0,-594.0,279.0
19:41:31.895000,-1404.0,-420.0,2860.0,1337.0,-339.0,540.0,51.0,-576.0,280.0
19:41:31.899000,-1404.0,-420.0,2860.0,1422.0,-373.0,541.0,51.0,-576.0,280.0
19:41:31.903000,-1409.0,-410.0,2873.0,1539.0,-466.0,536.0,51.0,-576.0,280.0
19:41:31.909000,-1393.0,-398.0,2906.0,1556.0,-588.0,511.0,51.0,-571.0,271.0
19:41:31.913000,-1351.0,-374.0,2928.0,1483.0,-610.0,506.0,51.0,-571.0,271.0
19:41:31.918000,-1295.0,-359.0,2949.0,1472.0,-608.0,521.0,34.0,-583.0,282.0
19:41:31.923000,-1278.0,-343.0,3021.0,1504.0,-602.0,528.0,34.0,-583.0,282.0
19:41:31.927000,-1232.0,-330.0,3118.0,1523.0,-535.0,519.0,34.0,-583.0,282.0
19:41:31.932000,-1192.0,-310.0,3153.0,1506.0,-478.0,531.0,40.0,-553.0,276.0
19:41:31.937000,-1163.0,-296.0,3100.0,1526.0,-431.0,543.0,40.0,-553.0,276.0
19:41:31.942000,-1117.0,-282.0,3043.0,1635.0,-437.0,547.0,25.0,-552.0,268.0
19:41:31.946000,-1078.0,-259.0,3059.0,1760.0,-509.0,565.0,25.0,-552.0,268.0
19:41:31.954000,-1033.0,-221.0,3145.0,1720.0,-458.0,551.0,36.0,-546.0,265.0
19:41:31.956000,-1033.0,-221.0,3145.0,1720.0,-458.0,551.0,36.0,-546.0,265.0
19:41:31.960000,-1033.0,-182.0,3121.0,1720.0,-378.0,551.0,36.0,-546.0,265.0
19:41:31.965000,-1028.0,-155.0,3054.0,1619.0,-378.0,538.0,22.0,-532.0,264.0
19:41:31.970000,-1036.0,-126.0,2944.0,1532.0,-343.0,524.0,22.0,-532.0,264.0
19:41:31.974000,-1023.0,-95.0,2889.0,1535.0,-348.0,514.0,18.0,-528.0,261.0
19:41:31.979000,-1017.0,-60.0,2961.0,1609.0,-375.0,485.0,18.0,-528.0,261.0
19:41:31.983000,-1035.0,-51.0,3097.0,1675.0,-397.0,467.0,18.0,-528.0,261.0
19:41:31.989000,-1052.0,-42.0,3100.0,1659.0,-320.0,452.0,9.0,-525.0,256.0
19:41:31.993000,-1047.0,-42.0,2967.0,1588.0,-228.0,430.0,9.0,-525.0,256.0
19:41:31.998000,-1042.0,-20.0,2865.0,1573.0,-205.0,404.0,7.0,-511.0,259.0
19:41:32.003000,-1043.0,-27.0,2898.0,1648.0,-239.0,398.0,7.0,-511.0,259.0
19:41:32.007000,-1043.0,-27.0,2898.0,1722.0,-289.0,414.0,7.0,-511.0,259.0
19:41:32.012000,-1060.0,-56.0,2958.0,1756.0,-287.0,409.0,-9.0,-495.0,258.0
19:41:32.017000,-1066.0,-84.0,2954.0,1771.0,-246.0,383.0,-9.0,-495.0,258.0
19:41:32.021000,-1076.0,-94.0,2919.0,1729.0,-204.0,363.0,-9.0,-481.0,261.0
19:41:32.026000,-1078.0,-115.0,2889.0,1645.0,-203.0,362.0,-9.0,-481.0,261.0
19:41:32.030000,-1072.0,-141.0,2853.0,1623.0,-250.0,356.0,-9.0,-481.0,261.0
19:41:32.036000,-1047.0,-167.0,2850.0,1654.0,-299.0,355.0,-6.0,-472.0,250.0
19:41:32.040000,-1012.0,-179.0,2889.0,1670.0,-310.0,366.0,-6.0,-472.0,250.0
19:41:32.045000,-1003.0,-195.0,2864.0,1634.0,-263.0,370.0,-21.0,-463.0,261.0
19:41:32.050000,-984.0,-193.0,2746.0,1575.0,-166.0,349.0,-21.0,-463.0,261.0
19:41:32.054000,-977.0,-193.0,2608.0,1545.0,-95.0,339.0,-21.0,-463.0,261.0
19:41:32.059000,-961.0,-208.0,2556.0,1547.0,-81.0,335.0,-9.0,-447.0,255.0
19:41:32.064000,-947.0,-233.0,2579.0,1531.0,-42.0,325.0,-9.0,-447.0,255.0
19:41:32.068000,-931.0,-252.0,2586.0,1531.0,-42.0,325.0,-24.0,-442.0,264.0
19:41:32.073000,-919.0,-273.0,2575.0,1465.0,13.0,320.0,-24.0,-442.0,264.0
19:41:32.077000,-901.0,-308.0,2552.0,1345.0,70.0,305.0,-24.0,-442.0,264.0
19:41:32.083000,-875.0,-334.0,2520.0,1345.0,70.0,305.0,-42.0,-414.0,271.0
19:41:32.087000,-840.0,-366.0,2525.0,1350.0,58.0,289.0,-42.0,-414.0,271.0
19:41:32.092000,-802.0,-390.0,2557.0,1375.0,52.0,273.0,-24.0,-405.0,264.0
19:41:32.097000,-762.0,-413.0,2599.0,1372.0,81.0,259.0,-24.0,-405.0,264.0
19:41:32.101000,-719.0,-434.0,2650.0,1353.0,115.0,254.0,-24.0,-405.0,264.0
19:41:32.106000,-679.0,-452.0,2718.0,1351.0,110.0,246.0,-30.0,-405.0,262.0
19:41:32.111000,-627.0,-460.0,2783.0,1353.0,104.0,231.0,-30.0,-405.0,262.0
19:41:32.115000,-574.0,-471.0,2828.0,1336.0,111.0,208.0,-18.0,-388.0,265.0
19:41:32.120000,-574.0,-471.0,2828.0,1295.0,134.0,198.0,-18.0,-388.0,265.0
19:41:32.128000,-466.0,-477.0,2850.0,1244.0,171.0,156.0,-31.0,-379.0,268.0
19:41:32.130000,-466.0,-477.0,2850.0,1244.0,171.0,156.0,-31.0,-379.0,268.0
19:41:32.134000,-413.0,-471.0,2869.0,1226.0,200.0,142.0,-31.0,-379.0,268.0
19:41:32.139000,-359.0,-469.0,2893.0,1173.0,267.0,126.0,-24.0,-358.0,261.0
19:41:32.144000,-322.0,-460.0,2893.0,1107.0,328.0,120.0,-24.0,-358.0,261.0
19:41:32.148000,-303.0,-446.0,2876.0,1073.0,374.0,109.0,-22.0,-355.0,265.0
19:41:32.153000,-290.0,-432.0,2845.0,1042.0,417.0,95.0,-22.0,-355.0,265.0
19:41:32.157000,-288.0,-416.0,2794.0,1021.0,468.0,83.0,-22.0,-355.0,265.0
19:41:32.162000,-281.0,-398.0,2736.0,1035.0,506.0,71.0,-12.0,-321.0,286.0
19:41:32.167000,-273.0,-384.0,2718.0,1060.0,529.0,74.0,-12.0,-321.0,286.0
19:41:32.172000,-289.0,-375.0,2758.0,1060.0,529.0,74.0,-16.0,-316.0,285.0
19:41:32.177000,-306.0,-364.0,2788.0,1039.0,608.0,63.0,-16.0,-316.0,285.0
19:41:32.181000,-328.0,-350.0,2764.0,1039.0,608.0,63.0,-16.0,-316.0,285.0
19:41:32.186000,-359.0,-343.0,2697.0,1029.0,688.0,65.0,-9.0,-291.0,286.0
19:41:32.191000,-385.0,-344.0,2629.0,1062.0,704.0,70.0,-9.0,-291.0,286.0
19:41:32.195000,-408.0,-335.0,2583.0,1132.0,690.0,60.0,-3.0,-291.0,285.0
19:41:32.200000,-440.0,-335.0,2578.0,1177.0,680.0,53.0,-3.0,-291.0,285.0
19:41:32.204000,-478.0,-323.0,2611.0,1192.0,701.0,52.0,-3.0,-291.0,285.0
19:41:32.209000,-524.0,-319.0,2636.0,1158.0,721.0,54.0,6.0,-271.0,295.0
19:41:32.214000,-524.0,-319.0,2636.0,1073.0,726.0,52.0,6.0,-271.0,295.0
19:41:32.219000,-586.0,-306.0,2599.0,985.0,731.0,38.0,9.0,-265.0,294.0
19:41:32.224000,-615.0,-296.0,2578.0,917.0,730.0,31.0,9.0,-265.0,294.0
19:41:32.228000,-615.0,-296.0,2578.0,878.0,719.0,30.0,9.0,-265.0,294.0
19:41:32.232000,-638.0,-288.0,2551.0,883.0,702.0,24.0,24.0,-238.0,306.0
19:41:32.238000,-649.0,-282.0,2527.0,934.0,693.0,8.0,24.0,-238.0,306.0
19:41:32.242000,-653.0,-273.0,2506.0,961.0,693.0,0.0,22.0,-232.0,309.0
19:41:32.247000,-659.0,-268.0,2488.0,957.0,721.0,-4.0,22.0,-232.0,309.0
19:41:32.251000,-665.0,-263.0,2463.0,934.0,745.0,-5.0,22.0,-232.0,309.0
19:41:32.256000,-665.0,-261.0,2412.0,899.0,747.0,-9.0,43.0,-228.0,307.0
19:41:32.261000,-659.0,-259.0,2349.0,878.0,746.0,-16.0,43.0,-228.0,307.0
19:41:32.266000,-654.0,-257.0,2285.0,871.0,752.0,-8.0,45.0,-213.0,328.0
19:41:32.271000,-648.0,-261.0,2223.0,840.0,744.0,-11.0,45.0,-213.0,328.0
19:41:32.275000,-642.0,-267.0,2153.0,837.0,763.0,-17.0,45.0,-213.0,328.0
19:41:32.280000,-641.0,-277.0,2100.0,829.0,745.0,-16.0,52.0,-214.0,316.0
19:41:32.285000,-627.0,-287.0,2046.0,804.0,726.0,-24.0,52.0,-214.0,316.0
19:41:32.289000,-620.0,-299.0,2001.0,804.0,726.0,-24.0,60.0,-198.0,322.0
19:41:32.294000,-602.0,-303.0,1963.0,783.0,709.0,-31.0,60.0,-198.0,322.0
19:41:32.298000,-579.0,-313.0,1942.0,750.0,680.0,-34.0,60.0,-198.0,322.0
19:41:32.303000,-559.0,-311.0,1922.0,722.0,686.0,-35.0,72.0,-183.0,331.0
19:41:32.308000,-547.0,-309.0,1906.0,671.0,701.0,-53.0,72.0,-183.0,331.0
19:41:32.313000,-539.0,-298.0,1904.0,634.0,757.0,-59.0,81.0,-195.0,331.0
19:41:32.318000,-536.0,-291.0,1899.0,587.0,795.0,-65.0,81.0,-195.0,331.0
19:41:32.322000,-536.0,-291.0,1899.0,572.0,865.0,-61.0,81.0,-195.0,331.0
19:41:32.327000,-553.0,-285.0,1930.0,567.0,890.0,-54.0,90.0,-177.0,336.0
19:41:32.332000,-573.0,-286.0,1945.0,583.0,938.0,-59.0,90.0,-177.0,336.0
19:41:32.336000,-573.0,-286.0,1945.0,580.0,945.0,-48.0,99.0,-172.0,340.0
19:41:32.341000,-579.0,-287.0,1927.0,543.0,950.0,-55.0,99.0,-172.0,340.0
19:41:32.345000,-589.0,-289.0,1896.0,531.0,982.0,-59.0,99.0,-172.0,340.0
19:41:32.350000,-599.0,-294.0,1863.0,532.0,970.0,-50.0,112.0,-168.0,342.0
19:41:32.355000,-611.0,-303.0,1852.0,533.0,954.0,-44.0,112.0,-168.0,342.0
19:41:32.360000,-622.0,-310.0,1845.0,516.0,964.0,-43.0,106.0,-160.0,367.0
19:41:32.365000,-637.0,-319.0,1831.0,490.0,982.0,-41.0,106.0,-160.0,367.0
19:41:32.369000,-650.0,-325.0,1807.0,467.0,995.0,-41.0,106.0,-160.0,367.0
19:41:32.374000,-666.0,-332.0,1789.0,451.0,990.0,-34.0,136.0,-153.0,357.0
19:41:32.379000,-679.0,-340.0,1775.0,440.0,956.0,-34.0,136.0,-153.0,357.0
19:41:32.383000,-684.0,-349.0,1754.0,443.0,926.0,-31.0,138.0,-148.0,354.0
19:41:32.388000,-683.0,-357.0,1737.0,423.0,892.0,-42.0,138.0,-148.0,354.0
19:41:32.392000,-677.0,-357.0,1722.0,407.0,946.0,-54.0,138.0,-148.0,354.0
19:41:32.397000,-682.0,-360.0,1726.0,364.0,924.0,-45.0,147.0,-159.0,358.0
19:41:32.402000,-680.0,-358.0,1725.0,364.0,924.0,-45.0,147.0,-159.0,358.0
19:41:32.407000,-694.0,-359.0,1718.0,314.0,963.0,-62.0,165.0,-148.0,361.0
19:41:32.412000,-699.0,-354.0,1708.0,292.0,995.0,-62.0,165.0,-148.0,361.0
19:41:32.416000,-712.0,-349.0,1692.0,265.0,976.0,-64.0,165.0,-148.0,361.0
19:41:32.421000,-723.0,-343.0,1684.0,241.0,995.0,-69.0,174.0,-141.0,361.0
19:41:32.426000,-733.0,-333.0,1668.0,203.0,995.0,-85.0,174.0,-141.0,361.0
19:41:32.430000,-750.0,-325.0,1649.0,160.0,1011.0,-84.0,166.0,-148.0,373.0
19:41:32.435000,-760.0,-318.0,1621.0,125.0,987.0,-89.0,166.0,-148.0,373.0
19:41:32.439000,-760.0,-318.0,1621.0,95.0,961.0,-100.0,166.0,-148.0,373.0
19:41:32.444000,-769.0,-305.0,1570.0,74.0,921.0,-106.0,178.0,-139.0,399.0
19:41:32.449000,-769.0,-305.0,1570.0,70.0,897.0,-111.0,178.0,-139.0,399.0
19:41:32.454000,-772.0,-296.0,1539.0,62.0,888.0,-118.0,198.0,-144.0,393.0
19:41:32.459000,-765.0,-290.0,1498.0,37.0,925.0,-133.0,198.0,-144.0,393.0
19:41:32.463000,-770.0,-280.0,1470.0,-5.0,993.0,-138.0,198.0,-144.0,393.0
19:41:32.467000,-770.0,-271.0,1435.0,-56.0,986.0,-147.0,199.0,-142.0,388.0
19:41:32.473000,-775.0,-261.0,1414.0,-94.0,1018.0,-158.0,199.0,-142.0,388.0
19:41:32.477000,-778.0,-247.0,1380.0,-150.0,1036.0,-158.0,214.0,-147.0,394.0
19:41:32.482000,-798.0,-233.0,1348.0,-172.0,1038.0,-161.0,214.0,-147.0,394.0
19:41:32.486000,-809.0,-218.0,1323.0,-160.0,968.0,-172.0,214.0,-147.0,394.0
19:41:32.491000,-809.0,-197.0,1306.0,-168.0,945.0,-194.0,222.0,-144.0,420.0
19:41:32.496000,-819.0,-172.0,1279.0,-195.0,968.0,-209.0,222.0,-144.0,420.0
19:41:32.501000,-822.0,-137.0,1252.0,-195.0,968.0,-209.0,225.0,-142.0,402.0
19:41:32.506000,-835.0,-114.0,1219.0,-230.0,990.0,-218.0,225.0,-142.0,402.0
19:41:32.510000,-844.0,-88.0,1202.0,-230.0,990.0,-218.0,225.0,-142.0,402.0
19:41:32.515000,-861.0,-65.0,1187.0,-210.0,969.0,-227.0,234.0,-150.0,403.0
19:41:32.520000,-875.0,-36.0,1173.0,-213.0,928.0,-224.0,234.0,-150.0,403.0
19:41:32.524000,-883.0,-17.0,1148.0,-220.0,902.0,-230.0,244.0,-147.0,414.0
19:41:32.529000,-889.0,6.0,1133.0,-202.0,873.0,-242.0,244.0,-147.0,414.0
19:41:32.533000,-903.0,27.0,1124.0,-177.0,856.0,-250.0,244.0,-147.0,414.0
19:41:32.538000,-916.0,51.0,1127.0,-167.0,852.0,-260.0,246.0,-156.0,418.0
19:41:32.543000,-935.0,74.0,1129.0,-171.0,874.0,-274.0,246.0,-156.0,418.0
19:41:32.548000,-949.0,99.0,1139.0,-183.0,875.0,-284.0,246.0,-156.0,420.0
19:41:32.553000,-969.0,116.0,1134.0,-208.0,856.0,-295.0,246.0,-156.0,420.0
19:41:32.557000,-969.0,116.0,1134.0,-226.0,860.0,-313.0,246.0,-156.0,420.0
19:41:32.562000,-977.0,136.0,1118.0,-240.0,815.0,-323.0,255.0,-168.0,427.0
19:41:32.567000,-980.0,142.0,1087.0,-237.0,795.0,-334.0,255.0,-168.0,427.0
19:41:32.571000,-973.0,146.0,1059.0,-214.0,741.0,-346.0,259.0,-157.0,433.0
19:41:32.576000,-963.0,144.0,1032.0,-186.0,724.0,-353.0,259.0,-157.0,433.0
19:41:32.581000,-954.0,144.0,1005.0,-166.0,704.0,-362.0,250.0,-168.0,445.0
19:41:32.585000,-942.0,141.0,969.0,-167.0,689.0,-361.0,250.0,-168.0,445.0
19:41:32.590000,-938.0,135.0,934.0,-173.0,678.0,-366.0,250.0,-168.0,445.0
19:41:32.595000,-920.0,128.0,901.0,-170.0,679.0,-382.0,270.0,-175.0,436.0
19:41:32.600000,-908.0,123.0,864.0,-173.0,656.0,-387.0,270.0,-175.0,436.0
19:41:32.604000,-891.0,118.0,826.0,-173.0,656.0,-387.0,276.0,-168.0,442.0
19:41:32.609000,-887.0,114.0,795.0,-195.0,648.0,-409.0,276.0,-168.0,442.0
19:41:32.613000,-877.0,113.0,770.0,-227.0,627.0,-420.0,276.0,-168.0,442.0
19:41:32.618000,-878.0,109.0,737.0,-227.0,627.0,-420.0,276.0,-187.0,456.0
19:41:32.623000,-877.0,112.0,708.0,-255.0,608.0,-424.0,276.0,-187.0,456.0
19:41:32.628000,-877.0,113.0,671.0,-255.0,594.0,-436.0,270.0,-175.0,453.0
19:41:32.632000,-870.0,119.0,627.0,-242.0,572.0,-448.0,270.0,-175.0,453.0
19:41:32.637000,-865.0,119.0,574.0,-248.0,559.0,-464.0,270.0,-175.0,453.0
19:41:32.642000,-861.0,121.0,536.0,-262.0,588.0,-479.0,276.0,-190.0,459.0
19:41:32.647000,-861.0,114.0,487.0,-286.0,606.0,-487.0,276.0,-190.0,459.0
19:41:32.651000,-853.0,112.0,443.0,-301.0,621.0,-496.0,282.0,-196.0,460.0
19:41:32.656000,-834.0,108.0,406.0,-294.0,586.0,-516.0,282.0,-196.0,460.0
19:41:32.663000,-825.0,99.0,378.0,-270.0,535.0,-531.0,270.0,-192.0,459.0
19:41:32.665000,-825.0,99.0,378.0,-270.0,535.0,-531.0,270.0,-192.0,459.0
19:41:32.669000,-805.0,84.0,326.0,-264.0,534.0,-545.0,270.0,-192.0,459.0
19:41:32.675000,-788.0,72.0,270.0,-258.0,541.0,-563.0,271.0,-195.0,457.0
19:41:32.679000,-763.0,60.0,226.0,-265.0,549.0,-573.0,271.0,-195.0,457.0
19:41:32.684000,-753.0,51.0,202.0,-280.0,529.0,-571.0,283.0,-196.0,469.0
19:41:32.689000,-743.0,29.0,203.0,-277.0,491.0,-566.0,283.0,-196.0,469.0
19:41:32.693000,-732.0,9.0,206.0,-267.0,452.0,-568.0,283.0,-196.0,469.0
19:41:32.698000,-711.0,-3.0,178.0,-281.0,435.0,-570.0,279.0,-211.0,466.0
19:41:32.703000,-697.0,-25.0,130.0,-275.0,439.0,-561.0,279.0,-211.0,466.0
19:41:32.707000,-684.0,-48.0,119.0,-246.0,431.0,-555.0,286.0,-205.0,469.0
19:41:32.712000,-679.0,-64.0,138.0,-239.0,442.0,-559.0,286.0,-205.0,469.0
19:41:32.716000,-660.0,-75.0,142.0,-257.0,451.0,-562.0,286.0,-205.0,469.0
19:41:32.722000,-641.0,-82.0,109.0,-281.0,455.0,-567.0,292.0,-217.0,472.0
19:41:32.726000,-615.0,-77.0,74.0,-281.0,455.0,-567.0,292.0,-217.0,472.0
19:41:32.731000,-592.0,-70.0,50.0,-315.0,451.0,-576.0,285.0,-220.0,478.0
19:41:32.736000,-574.0,-67.0,32.0,-353.0,451.0,-571.0,285.0,-220.0,478.0
19:41:32.740000,-557.0,-64.0,0.0,-371.0,461.0,-569.0,285.0,-220.0,478.0
19:41:32.745000,-544.0,-59.0,-45.0,-368.0,473.0,-569.0,286.0,-225.0,475.0
19:41:32.750000,-532.0,-52.0,-65.0,-349.0,450.0,-563.0,286.0,-225.0,475.0
19:41:32.755000,-519.0,-46.0,-64.0,-321.0,409.0,-564.0,289.0,-217.0,477.0
19:41:32.759000,-505.0,-43.0,-72.0,-315.0,385.0,-570.0,289.0,-217.0,477.0
19:41:32.763000,-505.0,-43.0,-72.0,-331.0,400.0,-577.0,289.0,-217.0,477.0
19:41:32.769000,-469.0,-35.0,-169.0,-351.0,426.0,-586.0,280.0,-237.0,472.0
19:41:32.773000,-469.0,-35.0,-169.0,-368.0,451.0,-594.0,280.0,-237.0,472.0
19:41:32.778000,-455.0,-32.0,-224.0,-377.0,460.0,-599.0,283.0,-235.0,474.0
19:41:32.783000,-440.0,-27.0,-268.0,-373.0,445.0,-595.0,283.0,-235.0,474.0
19:41:32.787000,-431.0,-23.0,-295.0,-355.0,436.0,-594.0,283.0,-235.0,474.0
19:41:32.792000,-420.0,-17.0,-314.0,-340.0,437.0,-598.0,283.0,-232.0,480.0
19:41:32.797000,-409.0,-14.0,-332.0,-333.0,448.0,-601.0,283.0,-232.0,480.0
19:41:32.802000,-399.0,-9.0,-349.0,-332.0,492.0,-617.0,282.0,-234.0,486.0
19:41:32.806000,-389.0,-5.0,-371.0,-360.0,535.0,-618.0,282.0,-234.0,486.0
19:41:32.810000,-389.0,-2.0,-419.0,-396.0,561.0,-613.0,282.0,-234.0,486.0
19:41:32.816000,-383.0,4.0,-476.0,-399.0,550.0,-618.0,276.0,-240.0,484.0
19:41:32.820000,-373.0,10.0,-513.0,-380.0,516.0,-616.0,276.0,-240.0,484.0
19:41:32.825000,-368.0,11.0,-526.0,-380.0,516.0,-616.0,280.0,-244.0,496.0
19:41:32.830000,-359.0,15.0,-520.0,-368.0,477.0,-626.0,280.0,-244.0,496.0
19:41:32.834000,-351.0,18.0,-526.0,-399.0,511.0,-630.0,280.0,-244.0,496.0
19:41:32.839000,-343.0,23.0,-562.0,-404.0,561.0,-634.0,262.0,-249.0,484.0
19:41:32.844000,-342.0,33.0,-623.0,-404.0,561.0,-634.0,262.0,-249.0,484.0
19:41:32.849000,-358.0,44.0,-662.0,-418.0,621.0,-635.0,276.0,-246.0,484.0
19:41:32.853000,-373.0,49.0,-663.0,-427.0,646.0,-633.0,276.0,-246.0,484.0
19:41:32.857000,-386.0,49.0,-662.0,-424.0,654.0,-637.0,276.0,-246.0,484.0
19:41:32.863000,-406.0,52.0,-666.0,-397.0,638.0,-640.0,273.0,-246.0,489.0
19:41:32.867000,-415.0,50.0,-675.0,-360.0,615.0,-641.0,273.0,-246.0,489.0
19:41:32.872000,-415.0,47.0,-730.0,-340.0,627.0,-648.0,268.0,-253.0,486.0
19:41:32.877000,-409.0,48.0,-795.0,-321.0,622.0,-647.0,268.0,-253.0,486.0
19:41:32.881000,-409.0,48.0,-795.0,-281.0,615.0,-645.0,268.0,-253.0,486.0
19:41:32.886000,-408.0,54.0,-802.0,-252.0,600.0,-654.0,267.0,-253.0,487.0
19:41:32.891000,-410.0,63.0,-772.0,-274.0,638.0,-665.0,267.0,-253.0,487.0
19:41:32.896000,-414.0,68.0,-795.0,-320.0,705.0,-665.0,255.0,-252.0,493.0
19:41:32.900000,-415.0,72.0,-862.0,-326.0,712.0,-669.0,255.0,-252.0,493.0
19:41:32.904000,-412.0,73.0,-914.0,-308.0,693.0,-675.0,255.0,-252.0,493.0
19:41:32.910000,-415.0,74.0,-942.0,-291.0,666.0,-671.0,243.0,-247.0,486.0
19:41:32.914000,-423.0,72.0,-963.0,-264.0,662.0,-668.0,243.0,-247.0,486.0
19:41:32.919000,-428.0,72.0,-984.0,-254.0,675.0,-665.0,252.0,-255.0,493.0
19:41:32.924000,-434.0,71.0,-1017.0,-258.0,729.0,-674.0,252.0,-255.0,493.0
19:41:32.928000,-446.0,73.0,-1071.0,-279.0,793.0,-676.0,252.0,-252.0,490.0
19:41:32.933000,-469.0,74.0,-1138.0,-301.0,838.0,-672.0,252.0,-252.0,490.0
19:41:32.937000,-488.0,80.0,-1189.0,-301.0,834.0,-676.0,252.0,-252.0,490.0
19:41:32.943000,-506.0,82.0,-1221.0,-299.0,820.0,-678.0,243.0,-262.0,501.0
19:41:32.947000,-526.0,81.0,-1252.0,-299.0,820.0,-678.0,243.0,-262.0,501.0
19:41:32.952000,-547.0,86.0,-1283.0,-283.0,820.0,-682.0,249.0,-271.0,487.0
19:41:32.957000,-565.0,91.0,-1309.0,-253.0,810.0,-688.0,249.0,-271.0,487.0
19:41:32.961000,-586.0,91.0,-1332.0,-227.0,814.0,-689.0,249.0,-271.0,487.0
19:41:32.966000,-607.0,91.0,-1359.0,-210.0,817.0,-688.0,244.0,-264.0,495.0
19:41:32.971000,-631.0,91.0,-1399.0,-203.0,848.0,-696.0,244.0,-264.0,495.0
19:41:32.976000,-658.0,91.0,-1441.0,-213.0,914.0,-705.0,228.0,-270.0,496.0
19:41:32.980000,-688.0,83.0,-1471.0,-231.0,931.0,-700.0,228.0,-270.0,496.0
19:41:32.984000,-688.0,83.0,-1471.0,-234.0,919.0,-701.0,228.0,-270.0,496.0
19:41:32.990000,-739.0,60.0,-1521.0,-228.0,908.0,-711.0,222.0,-277.0,493.0
19:41:32.994000,-739.0,60.0,-1521.0,-218.0,904.0,-714.0,222.0,-277.0,493.0
19:41:32.999000,-763.0,47.0,-1552.0,-197.0,899.0,-716.0,217.0,-286.0,499.0
19:41:33.004000,-788.0,36.0,-1564.0,-180.0,899.0,-715.0,217.0,-286.0,499.0
19:41:33.008000,-816.0,29.0,-1558.0,-172.0,902.0,-718.0,217.0,-286.0,499.0
19:41:33.013000,-838.0,31.0,-1556.0,-174.0,906.0,-730.0,222.0,-288.0,499.0
19:41:33.018000,-849.0,32.0,-1571.0,-189.0,915.0,-737.0,222.0,-288.0,499.0
19:41:33.023000,-862.0,28.0,-1596.0,-208.0,925.0,-744.0,220.0,-295.0,502.0
19:41:33.027000,-879.0,23.0,-1619.0,-236.0,944.0,-753.0,220.0,-295.0,502.0
19:41:33.031000,-898.0,11.0,-1635.0,-271.0,977.0,-755.0,220.0,-295.0,502.0
19:41:33.037000,-925.0,-5.0,-1652.0,-291.0,1005.0,-757.0,219.0,-300.0,501.0
19:41:33.041000,-966.0,-23.0,-1663.0,-284.0,1016.0,-754.0,219.0,-300.0,501.0
19:41:33.046000,-1013.0,-41.0,-1642.0,-284.0,1016.0,-754.0,207.0,-310.0,499.0
19:41:33.051000,-1061.0,-56.0,-1597.0,-217.0,989.0,-757.0,207.0,-310.0,499.0
19:41:33.055000,-1112.0,-69.0,-1544.0,-217.0,989.0,-757.0,207.0,-310.0,499.0
19:41:33.060000,-1163.0,-77.0,-1493.0,-201.0,953.0,-753.0,204.0,-324.0,510.0
19:41:33.065000,-1209.0,-81.0,-1454.0,-207.0,953.0,-753.0,204.0,-324.0,510.0
19:41:33.070000,-1255.0,-87.0,-1397.0,-222.0,935.0,-744.0,208.0,-336.0,505.0
19:41:33.074000,-1297.0,-92.0,-1311.0,-229.0,897.0,-732.0,208.0,-336.0,505.0
19:41:33.078000,-1328.0,-93.0,-1225.0,-239.0,844.0,-730.0,208.0,-336.0,505.0
19:41:33.084000,-1348.0,-84.0,-1158.0,-262.0,796.0,-742.0,202.0,-348.0,507.0
19:41:33.088000,-1361.0,-66.0,-1115.0,-306.0,768.0,-754.0,202.0,-348.0,507.0
19:41:33.093000,-1367.0,-44.0,-1097.0,-373.0,753.0,-764.0,198.0,-358.0,502.0
19:41:33.098000,-1373.0,-30.0,-1100.0,-452.0,754.0,-768.0,198.0,-358.0,502.0
19:41:33.102000,-1373.0,-30.0,-1100.0,-517.0,761.0,-763.0,198.0,-358.0,502.0
19:41:33.107000,-1381.0,-27.0,-1106.0,-540.0,738.0,-767.0,202.0,-364.0,510.0
19:41:33.112000,-1383.0,-32.0,-1111.0,-524.0,692.0,-775.0,202.0,-364.0,510.0
19:41:33.117000,-1386.0,-41.0,-1117.0,-484.0,657.0,-778.0,193.0,-372.0,510.0
19:41:33.121000,-1393.0,-47.0,-1127.0,-443.0,638.0,-773.0,193.0,-372.0,510.0
19:41:33.125000,-1407.0,-52.0,-1148.0,-402.0,625.0,-764.0,193.0,-372.0,510.0
19:41:33.131000,-1427.0,-52.0,-1169.0,-358.0,631.0,-761.0,199.0,-402.0,508.0
19:41:33.135000,-1454.0,-46.0,-1187.0,-344.0,658.0,-747.0,199.0,-402.0,508.0
19:41:33.140000,-1490.0,-39.0,-1208.0,-358.0,700.0,-735.0,198.0,-393.0,513.0
19:41:33.145000,-1535.0,-24.0,-1244.0,-381.0,716.0,-735.0,198.0,-393.0,513.0
19:41:33.149000,-1582.0,-5.0,-1281.0,-421.0,705.0,-733.0,198.0,-393.0,513.0
19:41:33.154000,-1632.0,16.0,-1308.0,-480.0,695.0,-731.0,180.0,-405.0,504.0
19:41:33.159000,-1681.0,42.0,-1333.0,-551.0,673.0,-728.0,180.0,-405.0,504.0
19:41:33.164000,-1726.0,65.0,-1364.0,-551.0,673.0,-728.0,202.0,-421.0,519.0
19:41:33.168000,-1763.0,73.0,-1402.0,-615.0,564.0,-713.0,202.0,-421.0,519.0
19:41:33.172000,-1791.0,70.0,-1442.0,-615.0,564.0,-713.0,202.0,-421.0,519.0
19:41:33.178000,-1802.0,60.0,-1476.0,-573.0,490.0,-722.0,196.0,-433.0,502.0
19:41:33.182000,-1803.0,42.0,-1525.0,-508.0,439.0,-740.0,196.0,-433.0,502.0
19:41:33.186000,-1817.0,24.0,-1612.0,-478.0,447.0,-752.0,186.0,-463.0,519.0
19:41:33.192000,-1839.0,-2.0,-1714.0,-485.0,497.0,-755.0,186.0,-463.0,519.0
19:41:33.196000,-1869.0,-2.0,-1813.0,-502.0,535.0,-756.0,186.0,-463.0,519.0
19:41:33.201000,-1892.0,-85.0,-1890.0,-500.0,528.0,-761.0,201.0,-463.0,507.0
19:41:33.206000,-1901.0,-138.0,-1941.0,-465.0,491.0,-778.0,201.0,-463.0,507.0
19:41:33.210000,-1901.0,-138.0,-1941.0,-406.0,441.0,-797.0,208.0,-480.0,496.0
19:41:33.215000,-1911.0,-203.0,-1969.0,-342.0,392.0,-828.0,208.0,-480.0,496.0
19:41:33.219000,-1904.0,-268.0,-1949.0,-322.0,371.0,-863.0,208.0,-480.0,496.0
19:41:33.225000,-1901.0,-323.0,-1916.0,-364.0,391.0,-900.0,207.0,-502.0,499.0
19:41:33.229000,-1876.0,-373.0,-1901.0,-430.0,404.0,-940.0,207.0,-502.0,499.0
19:41:33.234000,-1848.0,-420.0,-1901.0,-500.0,406.0,-970.0,214.0,-507.0,502.0
19:41:33.239000,-1824.0,-464.0,-1904.0,-565.0,423.0,-990.0,214.0,-507.0,502.0
19:41:33.243000,-1808.0,-512.0,-1883.0,-625.0,437.0,-997.0,211.0,-514.0,489.0
19:41:33.248000,-1791.0,-567.0,-1843.0,-673.0,435.0,-1010.0,211.0,-514.0,489.0
19:41:33.252000,-1766.0,-621.0,-1795.0,-689.0,411.0,-1016.0,211.0,-514.0,489.0
19:41:33.257000,-1743.0,-679.0,-1747.0,-693.0,379.0,-1030.0,226.0,-525.0,486.0
19:41:33.262000,-1702.0,-732.0,-1725.0,-700.0,357.0,-1055.0,226.0,-525.0,486.0
19:41:33.267000,-1647.0,-791.0,-1717.0,-700.0,357.0,-1055.0,235.0,-544.0,481.0
19:41:33.271000,-1600.0,-847.0,-1696.0,-689.0,376.0,-1073.0,235.0,-544.0,481.0
19:41:33.276000,-1572.0,-881.0,-1659.0,-689.0,376.0,-1073.0,235.0,-544.0,481.0
19:41:33.281000,-1535.0,-900.0,-1625.0,-684.0,395.0,-1082.0,252.0,-559.0,472.0
19:41:33.286000,-1504.0,-924.0,-1613.0,-698.0,426.0,-1093.0,252.0,-559.0,472.0
19:41:33.290000,-1497.0,-935.0,-1640.0,-738.0,483.0,-1099.0,261.0,-570.0,474.0
19:41:33.295000,-1511.0,-938.0,-1683.0,-784.0,590.0,-1111.0,261.0,-570.0,474.0
19:41:33.299000,-1516.0,-944.0,-1696.0,-853.0,683.0,-1125.0,261.0,-570.0,474.0
19:41:33.304000,-1505.0,-942.0,-1687.0,-972.0,683.0,-1149.0,271.0,-570.0,460.0
19:41:33.309000,-1507.0,-949.0,-1645.0,-1026.0,684.0,-1158.0,271.0,-570.0,460.0
19:41:33.314000,-1503.0,-954.0,-1573.0,-1025.0,626.0,-1160.0,288.0,-585.0,468.0
19:41:33.319000,-1485.0,-970.0,-1502.0,-1050.0,525.0,-1189.0,288.0,-585.0,468.0
19:41:33.323000,-1485.0,-970.0,-1502.0,-1011.0,471.0,-1164.0,288.0,-585.0,468.0
19:41:33.328000,-1513.0,-1032.0,-1371.0,-935.0,377.0,-1169.0,289.0,-597.0,453.0
19:41:33.333000,-1515.0,-1064.0,-1246.0,-959.0,427.0,-1179.0,289.0,-597.0,453.0
19:41:33.337000,-1527.0,-1103.0,-1233.0,-965.0,407.0,-1229.0,298.0,-600.0,438.0
19:41:33.342000,-1437.0,-1057.0,-1231.0,-971.0,418.0,-1280.0,298.0,-600.0,438.0
19:41:33.346000,-1320.0,-1075.0,-1380.0,-968.0,527.0,-1206.0,298.0,-600.0,438.0
19:41:33.351000,-1261.0,-1118.0,-1439.0,-876.0,442.0,-1147.0,322.0,-604.0,427.0
19:41:33.356000,-1243.0,-1157.0,-1321.0,-871.0,344.0,-1134.0,322.0,-604.0,427.0
19:41:33.361000,-1192.0,-1177.0,-1221.0,-873.0,210.0,-1109.0,330.0,-616.0,429.0
19:41:33.366000,-1173.0,-1219.0,-1143.0,-790.0,126.0,-1073.0,330.0,-616.0,429.0
19:41:33.370000,-1184.0,-1241.0,-1103.0,-775.0,111.0,-1037.0,330.0,-616.0,429.0
19:41:33.375000,-1199.0,-1238.0,-1101.0,-660.0,31.0,-1001.0,346.0,-621.0,420.0
19:41:33.380000,-1210.0,-1232.0,-937.0,-444.0,-99.0,-914.0,346.0,-621.0,420.0
19:41:33.384000,-1232.0,-1300.0,-752.0,-444.0,-99.0,-914.0,348.0,-628.0,420.0
19:41:33.389000,-1220.0,-1327.0,-686.0,-175.0,-380.0,-853.0,348.0,-628.0,420.0
19:41:33.393000,-1180.0,-1307.0,-825.0,-175.0,-380.0,-853.0,348.0,-628.0,420.0
19:41:33.398000,-1132.0,-1315.0,-854.0,-167.0,-533.0,-797.0,363.0,-621.0,415.0
19:41:33.403000,-1101.0,-1313.0,-769.0,-51.0,-671.0,-750.0,363.0,-621.0,415.0
19:41:33.408000,-1113.0,-1311.0,-801.0,74.0,-768.0,-695.0,366.0,-631.0,393.0
19:41:33.413000,-1078.0,-1305.0,-867.0,6.0,-879.0,-675.0,366.0,-631.0,393.0
19:41:33.417000,-1078.0,-1305.0,-867.0,-1.0,-899.0,-735.0,366.0,-631.0,393.0
19:41:33.422000,-996.0,-1246.0,-991.0,94.0,-859.0,-727.0,391.0,-633.0,385.0
19:41:33.427000,-1015.0,-1200.0,-1087.0,-101.0,-916.0,-726.0,391.0,-633.0,385.0
19:41:33.431000,-1015.0,-1200.0,-1087.0,-313.0,-868.0,-774.0,391.0,-639.0,375.0
19:41:33.436000,-1061.0,-1186.0,-1155.0,-275.0,-736.0,-778.0,391.0,-639.0,375.0
19:41:33.440000,-1043.0,-1211.0,-1248.0,-318.0,-742.0,-833.0,391.0,-639.0,375.0
19:41:33.445000,-1068.0,-1148.0,-1397.0,-354.0,-736.0,-933.0,399.0,-645.0,366.0
19:41:33.450000,-1120.0,-1072.0,-1292.0,-335.0,-666.0,-923.0,399.0,-645.0,366.0
19:41:33.455000,-1169.0,-1054.0,-1184.0,-447.0,-683.0,-914.0,418.0,-639.0,358.0
19:41:33.460000,-1198.0,-1061.0,-1222.0,-447.0,-667.0,-993.0,418.0,-639.0,358.0
19:41:33.464000,-1205.0,-1038.0,-1374.0,-275.0,-565.0,-1029.0,418.0,-639.0,358.0
19:41:33.469000,-1185.0,-1003.0,-1527.0,-264.0,-637.0,-990.0,421.0,-643.0,346.0
19:41:33.474000,-1117.0,-1069.0,-1451.0,-343.0,-678.0,-1013.0,421.0,-643.0,346.0
19:41:33.478000,-1112.0,-1080.0,-1313.0,-343.0,-678.0,-1013.0,424.0,-634.0,343.0
19:41:33.483000,-1093.0,-1088.0,-1358.0,-432.0,-492.0,-1025.0,424.0,-634.0,343.0
19:41:33.487000,-1022.0,-1081.0,-1502.0,-349.0,-626.0,-1079.0,424.0,-634.0,343.0
19:41:33.492000,-910.0,-1092.0,-1540.0,-349.0,-626.0,-1079.0,460.0,-645.0,331.0
19:41:33.497000,-811.0,-1138.0,-1428.0,-216.0,-733.0,-1041.0,460.0,-645.0,331.0
19:41:33.502000,-756.0,-1201.0,-1283.0,-212.0,-866.0,-1009.0,454.0,-634.0,313.0
19:41:33.507000,-707.0,-1244.0,-1254.0,-232.0,-898.0,-1000.0,454.0,-634.0,313.0
19:41:33.511000,-602.0,-1243.0,-1306.0,-266.0,-797.0,-1026.0,454.0,-634.0,313.0
19:41:33.516000,-487.0,-1278.0,-1358.0,-266.0,-797.0,-1023.0,463.0,-634.0,316.0
19:41:33.521000,-425.0,-1286.0,-1313.0,-275.0,-855.0,-991.0,463.0,-634.0,316.0
19:41:33.525000,-434.0,-1276.0,-1173.0,-259.0,-846.0,-964.0,480.0,-624.0,316.0
19:41:33.530000,-490.0,-1276.0,-1104.0,-237.0,-802.0,-908.0,480.0,-624.0,316.0
19:41:33.534000,-490.0,-1276.0,-1104.0,-333.0,-698.0,-908.0,480.0,-624.0,316.0
19:41:33.539000,-509.0,-1261.0,-1119.0,-562.0,-517.0,-907.0,483.0,-619.0,297.0
19:41:33.544000,-492.0,-1264.0,-1129.0,-624.0,-473.0,-900.0,483.0,-619.0,297.0
19:41:33.549000,-436.0,-1269.0,-1278.0,-441.0,-627.0,-892.0,492.0,-612.0,282.0
19:41:33.554000,-438.0,-1247.0,-1268.0,-358.0,-702.0,-841.0,492.0,-612.0,282.0
19:41:33.558000,-460.0,-1233.0,-1203.0,-510.0,-584.0,-816.0,492.0,-612.0,282.0
19:41:33.563000,-426.0,-1228.0,-1266.0,-612.0,-579.0,-800.0,507.0,-615.0,283.0
19:41:33.568000,-416.0,-1220.0,-1267.0,-562.0,-655.0,-777.0,507.0,-615.0,283.0
19:41:33.572000,-420.0,-1190.0,-1155.0,-541.0,-678.0,-767.0,510.0,-609.0,271.0
19:41:33.577000,-369.0,-1186.0,-1130.0,-587.0,-638.0,-756.0,510.0,-609.0,271.0
19:41:33.581000,-308.0,-1165.0,-1266.0,-570.0,-524.0,-730.0,510.0,-609.0,271.0
19:41:33.586000,-311.0,-1136.0,-1332.0,-541.0,-425.0,-701.0,525.0,-615.0,268.0
19:41:33.591000,-294.0,-1127.0,-1406.0,-598.0,-418.0,-664.0,525.0,-615.0,268.0
19:41:33.595000,-280.0,-1157.0,-1395.0,-680.0,-476.0,-644.0,525.0,-591.0,261.0
19:41:33.601000,-270.0,-1146.0,-1299.0,-680.0,-513.0,-675.0,525.0,-591.0,261.0
19:41:33.605000,-242.0,-1126.0,-1273.0,-730.0,-513.0,-659.0,538.0,-589.0,244.0
19:41:33.610000,-198.0,-1123.0,-1312.0,-713.0,-486.0,-653.0,538.0,-589.0,244.0
19:41:33.614000,-261.0,-1115.0,-1314.0,-730.0,-461.0,-587.0,538.0,-589.0,244.0
19:41:33.619000,-319.0,-1088.0,-1236.0,-752.0,-422.0,-544.0,534.0,-588.0,244.0
19:41:33.624000,-332.0,-1075.0,-1279.0,-811.0,-342.0,-563.0,534.0,-588.0,244.0
19:41:33.629000,-319.0,-1056.0,-1247.0,-812.0,-284.0,-564.0,547.0,-579.0,231.0
19:41:33.633000,-329.0,-1029.0,-1116.0,-745.0,-335.0,-546.0,547.0,-579.0,231.0
19:41:33.638000,-329.0,-1029.0,-1116.0,-784.0,-423.0,-519.0,547.0,-579.0,231.0
19:41:33.643000,-310.0,-1005.0,-1008.0,-842.0,-443.0,-505.0,547.0,-573.0,234.0
19:41:33.648000,-310.0,-1005.0,-1008.0,-839.0,-389.0,-499.0,547.0,-573.0,234.0
19:41:33.652000,-298.0,-994.0,-1017.0,-809.0,-273.0,-492.0,558.0,-568.0,219.0
19:41:33.657000,-268.0,-987.0,-1072.0,-764.0,-212.0,-491.0,558.0,-568.0,219.0
19:41:33.661000,-239.0,-968.0,-1117.0,-716.0,-254.0,-484.0,558.0,-568.0,219.0
19:41:33.666000,-226.0,-938.0,-1103.0,-735.0,-325.0,-472.0,565.0,-559.0,210.0
19:41:33.671000,-214.0,-912.0,-1046.0,-841.0,-339.0,-475.0,565.0,-559.0,210.0
19:41:33.675000,-190.0,-889.0,-1053.0,-920.0,-333.0,-486.0,562.0,-552.0,201.0
19:41:33.680000,-174.0,-858.0,-1051.0,-901.0,-350.0,-492.0,562.0,-552.0,201.0
19:41:33.685000,-142.0,-840.0,-961.0,-880.0,-357.0,-497.0,562.0,-552.0,201.0
19:41:33.690000,-126.0,-800.0,-850.0,-927.0,-306.0,-507.0,574.0,-552.0,196.0
19:41:33.695000,-119.0,-744.0,-850.0,-986.0,-227.0,-512.0,574.0,-552.0,196.0
19:41:33.699000,-77.0,-713.0,-884.0,-986.0,-227.0,-512.0,577.0,-540.0,195.0
19:41:33.704000,-63.0,-686.0,-793.0,-836.0,-227.0,-502.0,577.0,-540.0,195.0
19:41:33.708000,-114.0,-644.0,-642.0,-795.0,-199.0,-498.0,577.0,-540.0,195.0
19:41:33.713000,-147.0,-611.0,-574.0,-795.0,-199.0,-498.0,580.0,-538.0,180.0
19:41:33.718000,-143.0,-578.0,-577.0,-884.0,-190.0,-528.0,580.0,-538.0,180.0
19:41:33.723000,-144.0,-548.0,-557.0,-884.0,-190.0,-528.0,579.0,-538.0,186.0
19:41:33.727000,-150.0,-525.0,-539.0,-867.0,-182.0,-532.0,579.0,-538.0,186.0
19:41:33.732000,-152.0,-516.0,-511.0,-810.0,-141.0,-533.0,579.0,-538.0,186.0
19:41:33.737000,-146.0,-505.0,-484.0,-756.0,-151.0,-546.0,586.0,-532.0,183.0
19:41:33.742000,-127.0,-510.0,-434.0,-740.0,-180.0,-560.0,586.0,-532.0,183.0
19:41:33.746000,-98.0,-514.0,-336.0,-758.0,-213.0,-573.0,592.0,-526.0,187.0
19:41:33.751000,-102.0,-508.0,-329.0,-800.0,-207.0,-588.0,592.0,-526.0,187.0
19:41:33.755000,-102.0,-508.0,-329.0,-815.0,-171.0,-593.0,592.0,-526.0,187.0
19:41:33.760000,-93.0,-508.0,-318.0,-794.0,-202.0,-590.0,586.0,-528.0,171.0
19:41:33.765000,-61.0,-525.0,-211.0,-803.0,-246.0,-591.0,586.0,-528.0,171.0
19:41:33.770000,-60.0,-521.0,-156.0,-843.0,-239.0,-595.0,577.0,-517.0,177.0
19:41:33.774000,-40.0,-521.0,-189.0,-846.0,-217.0,-597.0,577.0,-517.0,177.0
19:41:33.779000,-24.0,-515.0,-218.0,-792.0,-210.0,-597.0,577.0,-517.0,177.0
19:41:33.784000,-27.0,-514.0,-144.0,-736.0,-185.0,-585.0,585.0,-525.0,174.0
19:41:33.789000,-31.0,-525.0,-54.0,-734.0,-148.0,-572.0,585.0,-525.0,174.0
19:41:33.793000,-40.0,-527.0,-38.0,-788.0,-132.0,-570.0,597.0,-520.0,165.0
19:41:33.798000,-51.0,-515.0,-122.0,-826.0,-160.0,-568.0,597.0,-520.0,165.0
19:41:33.802000,-22.0,-525.0,-172.0,-804.0,-223.0,-555.0,597.0,-520.0,165.0
19:41:33.807000,-11.0,-536.0,-128.0,-778.0,-244.0,-542.0,597.0,-525.0,172.0
19:41:33.812000,-28.0,-537.0,-81.0,-786.0,-191.0,-536.0,597.0,-525.0,172.0
19:41:33.817000,-18.0,-554.0,-63.0,-786.0,-191.0,-536.0,586.0,-523.0,160.0
19:41:33.821000,-35.0,-561.0,-16.0,-778.0,-157.0,-527.0,586.0,-523.0,160.0
19:41:33.826000,-51.0,-563.0,5.0,-773.0,-158.0,-517.0,586.0,-523.0,160.0
19:41:33.831000,-61.0,-555.0,-75.0,-829.0,-133.0,-511.0,586.0,-523.0,160.0
19:41:33.836000,-62.0,-560.0,-78.0,-872.0,-161.0,-501.0,586.0,-523.0,160.0
19:41:33.840000,-71.0,-572.0,44.0,-835.0,-234.0,-482.0,589.0,-526.0,153.0
19:41:33.845000,-95.0,-562.0,77.0,-811.0,-231.0,-470.0,589.0,-526.0,153.0
19:41:33.849000,-99.0,-557.0,-27.0,-851.0,-153.0,-465.0,589.0,-526.0,153.0
19:41:33.854000,-114.0,-543.0,-78.0,-869.0,-118.0,-454.0,595.0,-525.0,154.0
19:41:33.859000,-136.0,-534.0,-54.0,-844.0,-135.0,-436.0,595.0,-525.0,154.0
19:41:33.864000,-140.0,-536.0,-35.0,-833.0,-137.0,-417.0,583.0,-522.0,154.0
19:41:33.868000,-140.0,-536.0,-35.0,-829.0,-124.0,-403.0,583.0,-522.0,154.0
19:41:33.873000,-158.0,-534.0,-27.0,-807.0,-110.0,-388.0,583.0,-522.0,154.0
19:41:33.878000,-187.0,-527.0,4.0,-812.0,-96.0,-375.0,595.0,-525.0,138.0
19:41:33.883000,-200.0,-531.0,40.0,-856.0,-72.0,-363.0,595.0,-525.0,138.0
19:41:33.887000,-234.0,-520.0,23.0,-893.0,-43.0,-349.0,588.0,-522.0,126.0
19:41:33.892000,-252.0,-513.0,-18.0,-887.0,-43.0,-333.0,588.0,-522.0,126.0
19:41:33.896000,-259.0,-515.0,2.0,-861.0,-80.0,-307.0,588.0,-522.0,126.0
19:41:33.901000,-288.0,-529.0,54.0,-865.0,-76.0,-287.0,580.0,-531.0,142.0
19:41:33.906000,-324.0,-527.0,55.0,-865.0,-41.0,-275.0,580.0,-531.0,142.0
19:41:33.911000,-358.0,-530.0,38.0,-852.0,-36.0,-261.0,589.0,-520.0,130.0
19:41:33.915000,-392.0,-528.0,46.0,-856.0,-65.0,-258.0,589.0,-520.0,130.0
19:41:33.920000,-415.0,-520.0,70.0,-885.0,-76.0,-249.0,589.0,-520.0,130.0
19:41:33.925000,-429.0,-518.0,87.0,-903.0,-78.0,-233.0,595.0,-520.0,121.0
19:41:33.930000,-443.0,-514.0,113.0,-903.0,-78.0,-233.0,595.0,-520.0,121.0
19:41:33.934000,-468.0,-502.0,84.0,-939.0,-27.0,-207.0,591.0,-519.0,126.0
19:41:33.939000,-504.0,-485.0,32.0,-939.0,-27.0,-207.0,591.0,-519.0,126.0
19:41:33.944000,-536.0,-468.0,51.0,-942.0,-40.0,-194.0,603.0,-526.0,112.0
19:41:33.948000,-555.0,-450.0,70.0,-955.0,-73.0,-186.0,603.0,-526.0,112.0
19:41:33.952000,-577.0,-432.0,51.0,-998.0,-91.0,-180.0,603.0,-526.0,112.0
19:41:33.958000,-579.0,-427.0,45.0,-1008.0,-116.0,-176.0,588.0,-520.0,112.0
19:41:33.962000,-594.0,-407.0,60.0,-961.0,-157.0,-171.0,588.0,-520.0,112.0
19:41:33.967000,-592.0,-398.0,54.0,-942.0,-175.0,-172.0,597.0,-517.0,102.0
19:41:33.972000,-592.0,-387.0,30.0,-968.0,-158.0,-173.0,597.0,-517.0,102.0
19:41:33.976000,-592.0,-387.0,30.0,-967.0,-147.0,-170.0,597.0,-517.0,102.0
19:41:33.981000,-602.0,-377.0,32.0,-954.0,-147.0,-165.0,588.0,-525.0,97.0
19:41:33.986000,-611.0,-375.0,46.0,-970.0,-127.0,-167.0,588.0,-525.0,97.0
19:41:33.991000,-624.0,-358.0,25.0,-1006.0,-115.0,-164.0,582.0,-528.0,96.0
19:41:33.995000,-639.0,-356.0,40.0,-1018.0,-148.0,-150.0,582.0,-528.0,96.0
19:41:33.999000,-669.0,-365.0,99.0,-1027.0,-152.0,-150.0,582.0,-528.0,96.0
19:41:34.005000,-711.0,-361.0,80.0,-1027.0,-95.0,-149.0,585.0,-516.0,90.0
19:41:34.009000,-713.0,-382.0,31.0,-993.0,-61.0,-142.0,585.0,-516.0,90.0
19:41:34.014000,-753.0,-375.0,-6.0,-946.0,-63.0,-132.0,589.0,-517.0,99.0
19:41:34.019000,-794.0,-379.0,24.0,-937.0,-49.0,-118.0,589.0,-517.0,99.0
19:41:34.023000,-835.0,-393.0,48.0,-975.0,-24.0,-109.0,589.0,-517.0,99.0
19:41:34.028000,-896.0,-389.0,32.0,-1012.0,-24.0,-104.0,582.0,-517.0,102.0
19:41:34.033000,-942.0,-403.0,32.0,-1040.0,-19.0,-89.0,582.0,-517.0,102.0
19:41:34.038000,-1021.0,-417.0,-3.0,-1040.0,-19.0,-89.0,595.0,-516.0,76.0
19:41:34.042000,-1074.0,-457.0,-32.0,-1026.0,34.0,-67.0,595.0,-516.0,76.0
19:41:34.046000,-1149.0,-476.0,-61.0,-974.0,79.0,-58.0,595.0,-516.0,76.0
19:41:34.052000,-1233.0,-496.0,-25.0,-944.0,66.0,-46.0,591.0,-508.0,79.0
19:41:34.056000,-1331.0,-508.0,22.0,-960.0,36.0,-32.0,591.0,-508.0,79.0
19:41:34.061000,-1411.0,-532.0,18.0,-1019.0,42.0,-26.0,589.0,-504.0,67.0
19:41:34.066000,-1509.0,-567.0,0.0,-1060.0,50.0,-5.0,589.0,-504.0,67.0
19:41:34.073000,-1609.0,-606.0,-67.0,-1005.0,99.0,35.0,598.0,-502.0,64.0
19:41:34.075000,-1698.0,-641.0,-69.0,-1005.0,99.0,35.0,598.0,-502.0,64.0
19:41:34.079000,-1698.0,-641.0,-69.0,-931.0,37.0,49.0,598.0,-502.0,64.0
19:41:34.085000,-1936.0,-670.0,-30.0,-948.0,45.0,76.0,580.0,-495.0,54.0
19:41:34.089000,-1936.0,-715.0,-30.0,-1006.0,140.0,106.0,580.0,-495.0,54.0
19:41:34.094000,-2044.0,-772.0,-132.0,-986.0,136.0,122.0,585.0,-502.0,55.0
19:41:34.099000,-2165.0,-808.0,-114.0,-953.0,77.0,142.0,585.0,-502.0,55.0
19:41:34.103000,-2293.0,-851.0,-79.0,-978.0,114.0,176.0,585.0,-502.0,55.0
19:41:34.108000,-2412.0,-914.0,-149.0,-970.0,135.0,208.0,577.0,-481.0,42.0
19:41:34.113000,-2541.0,-970.0,-191.0,-936.0,83.0,242.0,577.0,-481.0,42.0
19:41:34.118000,-2665.0,-1032.0,-187.0,-928.0,69.0,279.0,567.0,-469.0,28.0
19:41:34.122000,-2805.0,-1088.0,-202.0,-897.0,86.0,315.0,567.0,-469.0,28.0
19:41:34.126000,-2942.0,-1151.0,-219.0,-867.0,70.0,356.0,567.0,-469.0,28.0
19:41:34.132000,-3067.0,-1224.0,-239.0,-860.0,29.0,397.0,580.0,-457.0,10.0
19:41:34.136000,-3173.0,-1316.0,-294.0,-874.0,42.0,421.0,580.0,-457.0,10.0
19:41:34.141000,-3252.0,-1384.0,-427.0,-874.0,42.0,421.0,570.0,-451.0,1.0
19:41:34.146000,-3364.0,-1434.0,-462.0,-860.0,-50.0,490.0,570.0,-451.0,1.0
19:41:34.150000,-3454.0,-1525.0,-420.0,-860.0,-50.0,490.0,570.0,-451.0,1.0
19:41:34.155000,-3584.0,-1579.0,-487.0,-868.0,-12.0,536.0,565.0,-444.0,-7.0
19:41:34.160000,-3690.0,-1638.0,-575.0,-834.0,-5.0,626.0,565.0,-444.0,-7.0
19:41:34.165000,-3770.0,-1703.0,-612.0,-834.0,-5.0,626.0,559.0,-427.0,-15.0
19:41:34.169000,-3864.0,-1757.0,-635.0,-870.0,-70.0,671.0,559.0,-427.0,-15.0
19:41:34.173000,-3923.0,-1806.0,-728.0,-898.0,-55.0,704.0,559.0,-427.0,-15.0
19:41:34.179000,-3985.0,-1855.0,-802.0,-880.0,-44.0,739.0,553.0,-388.0,-27.0
19:41:34.183000,-4041.0,-1887.0,-889.0,-849.0,-48.0,775.0,553.0,-388.0,-27.0
19:41:34.188000,-4096.0,-1908.0,-1034.0,-850.0,18.0,805.0,543.0,-370.0,-39.0
19:41:34.193000,-4125.0,-1947.0,-1113.0,-855.0,35.0,849.0,543.0,-370.0,-39.0
19:41:34.197000,-4125.0,-1947.0,-1113.0,-868.0,7.0,885.0,543.0,-370.0,-39.0
19:41:34.202000,-4181.0,-1960.0,-1157.0,-935.0,22.0,907.0,532.0,-339.0,-40.0
19:41:34.207000,-4195.0,-1985.0,-1214.0,-1007.0,31.0,925.0,532.0,-339.0,-40.0
19:41:34.212000,-4202.0,-2009.0,-1277.0,-1040.0,-4.0,940.0,520.0,-327.0,-49.0
19:41:34.216000,-4220.0,-2022.0,-1299.0,-1026.0,7.0,964.0,520.0,-327.0,-49.0
19:41:34.220000,-4223.0,-2062.0,-1330.0,-972.0,59.0,979.0,520.0,-327.0,-49.0
19:41:34.226000,-4219.0,-2073.0,-1381.0,-940.0,81.0,986.0,508.0,-294.0,-43.0
19:41:34.230000,-4211.0,-2082.0,-1371.0,-951.0,102.0,1011.0,508.0,-294.0,-43.0
19:41:34.235000,-4200.0,-2104.0,-1371.0,-980.0,134.0,1023.0,501.0,-268.0,-55.0
19:41:34.240000,-4185.0,-2112.0,-1439.0,-979.0,116.0,1028.0,501.0,-268.0,-55.0
19:41:34.244000,-4157.0,-2132.0,-1426.0,-935.0,78.0,1043.0,501.0,-268.0,-55.0
19:41:34.249000,-4129.0,-2163.0,-1367.0,-911.0,112.0,1045.0,477.0,-217.0,-36.0
19:41:34.254000,-4099.0,-2173.0,-1384.0,-902.0,145.0,1041.0,477.0,-217.0,-36.0
19:41:34.259000,-4041.0,-2202.0,-1391.0,-902.0,145.0,1041.0,459.0,-198.0,-37.0
19:41:34.263000,-3997.0,-2216.0,-1365.0,-882.0,129.0,1044.0,459.0,-198.0,-37.0
19:41:34.267000,-3948.0,-2227.0,-1332.0,-869.0,136.0,1044.0,459.0,-198.0,-37.0
19:41:34.273000,-3876.0,-2243.0,-1321.0,-870.0,170.0,1039.0,447.0,-175.0,-31.0
19:41:34.277000,-3822.0,-2245.0,-1290.0,-847.0,174.0,1031.0,447.0,-175.0,-31.0
19:41:34.281000,-3761.0,-2249.0,-1215.0,-788.0,179.0,1007.0,438.0,-150.0,-24.0
19:41:34.287000,-3689.0,-2240.0,-1165.0,-788.0,179.0,1007.0,438.0,-150.0,-24.0
19:41:34.291000,-3689.0,-2240.0,-1165.0,-833.0,238.0,988.0,438.0,-150.0,-24.0
19:41:34.296000,-3556.0,-2206.0,-1204.0,-861.0,282.0,981.0,418.0,-132.0,-16.0
19:41:34.301000,-3504.0,-2172.0,-1153.0,-845.0,280.0,976.0,418.0,-132.0,-16.0
19:41:34.306000,-3504.0,-2172.0,-1153.0,-821.0,260.0,968.0,396.0,-114.0,-1.0
19:41:34.310000,-3437.0,-2150.0,-1067.0,-801.0,251.0,957.0,396.0,-114.0,-1.0
19:41:34.314000,-3383.0,-2116.0,-998.0,-787.0,276.0,938.0,396.0,-114.0,-1.0
19:41:34.320000,-3331.0,-2078.0,-954.0,-770.0,315.0,915.0,384.0,-91.0,27.0
19:41:34.324000,-3281.0,-2026.0,-896.0,-776.0,353.0,891.0,384.0,-91.0,27.0
19:41:34.328000,-3234.0,-1971.0,-866.0,-797.0,375.0,876.0,352.0,-69.0,55.0
19:41:34.334000,-3189.0,-1920.0,-834.0,-795.0,367.0,856.0,352.0,-69.0,55.0
19:41:34.338000,-3138.0,-1874.0,-784.0,-801.0,370.0,825.0,357.0,-58.0,51.0
19:41:34.343000,-3087.0,-1811.0,-742.0,-808.0,391.0,792.0,357.0,-58.0,51.0
19:41:34.347000,-3040.0,-1745.0,-693.0,-803.0,409.0,765.0,357.0,-58.0,51.0
19:41:34.353000,-2992.0,-1682.0,-639.0,-801.0,428.0,739.0,349.0,-45.0,64.0
19:41:34.357000,-2940.0,-1626.0,-595.0,-800.0,442.0,720.0,349.0,-45.0,64.0
19:41:34.362000,-2885.0,-1581.0,-568.0,-800.0,442.0,720.0,336.0,-40.0,79.0
19:41:34.367000,-2822.0,-1536.0,-552.0,-745.0,422.0,671.0,336.0,-40.0,79.0
19:41:34.371000,-2746.0,-1493.0,-549.0,-745.0,422.0,671.0,336.0,-40.0,79.0
19:41:34.376000,-2664.0,-1455.0,-559.0,-719.0,412.0,644.0,342.0,-27.0,115.0
19:41:34.381000,-2583.0,-1414.0,-531.0,-691.0,397.0,612.0,342.0,-27.0,115.0
19:41:34.385000,-2507.0,-1379.0,-497.0,-669.0,380.0,581.0,324.0,-24.0,114.0
19:41:34.390000,-2429.0,-1350.0,-483.0,-675.0,398.0,550.0,324.0,-24.0,114.0
19:41:34.394000,-2349.0,-1318.0,-485.0,-682.0,442.0,512.0,324.0,-24.0,114.0
19:41:34.400000,-2282.0,-1285.0,-488.0,-685.0,486.0,478.0,310.0,-19.0,138.0
19:41:34.404000,-2221.0,-1255.0,-490.0,-686.0,524.0,454.0,310.0,-19.0,138.0
19:41:34.409000,-2165.0,-1229.0,-475.0,-682.0,550.0,432.0,319.0,0.0,148.0
19:41:34.414000,-2165.0,-1229.0,-475.0,-673.0,554.0,413.0,319.0,0.0,148.0
19:41:34.418000,-2111.0,-1201.0,-450.0,-670.0,554.0,395.0,319.0,0.0,148.0
19:41:34.423000,-2058.0,-1177.0,-433.0,-667.0,561.0,378.0,303.0,1.0,166.0
19:41:34.428000,-2006.0,-1151.0,-426.0,-658.0,577.0,361.0,303.0,1.0,166.0
19:41:34.432000,-1956.0,-1122.0,-428.0,-648.0,588.0,351.0,304.0,3.0,166.0
19:41:34.437000,-1914.0,-1100.0,-424.0,-629.0,584.0,342.0,304.0,3.0,166.0
19:41:34.441000,-1870.0,-1079.0,-413.0,-606.0,570.0,325.0,304.0,3.0,166.0
19:41:34.447000,-1820.0,-1056.0,-409.0,-586.0,559.0,308.0,298.0,0.0,183.0
19:41:34.451000,-1768.0,-1033.0,-414.0,-570.0,552.0,294.0,298.0,0.0,183.0
19:41:34.455000,-1714.0,-1010.0,-419.0,-561.0,549.0,278.0,292.0,1.0,192.0
19:41:34.461000,-1660.0,-984.0,-420.0,-561.0,551.0,259.0,292.0,1.0,192.0
19:41:34.465000,-1607.0,-958.0,-417.0,-564.0,555.0,242.0,292.0,1.0,192.0
19:41:34.470000,-1558.0,-931.0,-410.0,-564.0,558.0,234.0,292.0,6.0,220.0
19:41:34.475000,-1512.0,-912.0,-401.0,-564.0,564.0,229.0,292.0,6.0,220.0
19:41:34.479000,-1471.0,-892.0,-392.0,-559.0,564.0,229.0,279.0,7.0,231.0
19:41:34.484000,-1435.0,-867.0,-391.0,-551.0,581.0,217.0,279.0,7.0,231.0
19:41:34.488000,-1403.0,-842.0,-401.0,-544.0,609.0,207.0,279.0,7.0,231.0
19:41:34.494000,-1376.0,-813.0,-408.0,-536.0,636.0,197.0,277.0,4.0,234.0
19:41:34.498000,-1348.0,-781.0,-410.0,-533.0,660.0,184.0,277.0,4.0,234.0
19:41:34.502000,-1321.0,-749.0,-416.0,-538.0,681.0,169.0,285.0,10.0,244.0
19:41:34.508000,-1297.0,-718.0,-428.0,-550.0,693.0,157.0,285.0,10.0,244.0
19:41:34.512000,-1297.0,-718.0,-428.0,-561.0,691.0,148.0,285.0,10.0,244.0
19:41:34.517000,-1224.0,-665.0,-452.0,-566.0,679.0,139.0,288.0,7.0,250.0
19:41:34.522000,-1176.0,-641.0,-476.0,-559.0,660.0,127.0,288.0,7.0,250.0
19:41:34.526000,-1176.0,-641.0,-476.0,-538.0,636.0,114.0,271.0,9.0,265.0
19:41:34.531000,-1124.0,-621.0,-493.0,-514.0,616.0,106.0,271.0,9.0,265.0
19:41:34.535000,-1071.0,-597.0,-496.0,-494.0,609.0,101.0,271.0,9.0,265.0
