hh:mm:ss.ms,gyroX[mdps],gyroY[mdps],gyroZ[mdps],accX[mg],accY[mg],accZ[mg],magX[mG],magY[mG],magZ[mG]
19:39:27.023000,-93.0,-369.0,2093.0,-429.0,-423.0,245.0,510.0,-616.0,259.0
19:39:27.028000,-131.0,-370.0,2179.0,-408.0,-470.0,263.0,510.0,-616.0,259.0
19:39:27.032000,-154.0,-380.0,2278.0,-396.0,-514.0,273.0,510.0,-616.0,259.0
19:39:27.037000,-156.0,-388.0,2345.0,-352.0,-572.0,277.0,493.0,-642.0,249.0
19:39:27.042000,-158.0,-394.0,2408.0,-280.0,-637.0,288.0,493.0,-642.0,249.0
19:39:27.047000,-165.0,-403.0,2501.0,-280.0,-637.0,288.0,480.0,-640.0,241.0
19:39:27.052000,-168.0,-413.0,2596.0,-161.0,-701.0,302.0,480.0,-640.0,241.0
19:39:27.056000,-149.0,-423.0,2672.0,-115.0,-683.0,308.0,480.0,-640.0,241.0
19:39:27.060000,-140.0,-434.0,2702.0,-115.0,-683.0,308.0,474.0,-657.0,243.0
19:39:27.066000,-131.0,-444.0,2725.0,-63.0,-673.0,314.0,474.0,-657.0,243.0
19:39:27.070000,-125.0,-457.0,2759.0,-5.0,-681.0,315.0,448.0,-667.0,238.0
19:39:27.075000,-117.0,-468.0,2783.0,37.0,-671.0,316.0,448.0,-667.0,238.0
19:39:27.079000,-118.0,-483.0,2802.0,66.0,-653.0,311.0,448.0,-667.0,238.0
19:39:27.084000,-121.0,-490.0,2849.0,102.0,-658.0,299.0,435.0,-688.0,241.0
19:39:27.089000,-142.0,-494.0,2909.0,123.0,-670.0,287.0,435.0,-688.0,241.0
19:39:27.093000,-142.0,-494.0,2909.0,117.0,-652.0,274.0,402.0,-691.0,231.0
19:39:27.099000,-176.0,-506.0,2981.0,117.0,-626.0,257.0,402.0,-691.0,231.0
19:39:27.103000,-176.0,-506.0,2981.0,119.0,-636.0,243.0,402.0,-691.0,231.0
19:39:27.108000,-202.0,-515.0,3033.0,114.0,-618.0,230.0,388.0,-697.0,228.0
19:39:27.113000,-237.0,-525.0,3085.0,101.0,-580.0,238.0,388.0,-697.0,228.0
19:39:27.117000,-281.0,-549.0,3122.0,97.0,-555.0,262.0,372.0,-706.0,220.0
19:39:27.122000,-325.0,-576.0,3166.0,112.0,-514.0,265.0,372.0,-706.0,220.0
19:39:27.126000,-371.0,-591.0,3215.0,149.0,-467.0,256.0,372.0,-706.0,220.0
19:39:27.131000,-422.0,-599.0,3276.0,203.0,-465.0,240.0,358.0,-714.0,211.0
19:39:27.136000,-454.0,-608.0,3349.0,260.0,-518.0,223.0,358.0,-714.0,211.0
19:39:27.140000,-480.0,-618.0,3433.0,260.0,-612.0,232.0,307.0,-702.0,216.0
19:39:27.146000,-491.0,-634.0,3505.0,217.0,-691.0,234.0,307.0,-702.0,216.0
19:39:27.150000,-486.0,-646.0,3535.0,199.0,-726.0,227.0,307.0,-702.0,216.0
19:39:27.155000,-485.0,-652.0,3552.0,185.0,-735.0,254.0,292.0,-723.0,210.0
19:39:27.160000,-494.0,-657.0,3580.0,155.0,-733.0,270.0,292.0,-723.0,210.0
19:39:27.164000,-502.0,-658.0,3602.0,155.0,-733.0,270.0,282.0,-726.0,201.0
19:39:27.169000,-512.0,-661.0,3616.0,130.0,-646.0,250.0,282.0,-726.0,201.0
19:39:27.173000,-534.0,-664.0,3619.0,133.0,-613.0,272.0,282.0,-726.0,201.0
19:39:27.178000,-554.0,-658.0,3592.0,121.0,-640.0,282.0,253.0,-720.0,198.0
19:39:27.183000,-574.0,-653.0,3570.0,194.0,-540.0,324.0,253.0,-720.0,198.0
19:39:27.188000,-584.0,-655.0,3571.0,194.0,-540.0,324.0,235.0,-715.0,213.0
19:39:27.193000,-607.0,-667.0,3569.0,230.0,-625.0,380.0,235.0,-715.0,213.0
19:39:27.197000,-629.0,-647.0,3536.0,279.0,-597.0,388.0,225.0,-712.0,202.0
19:39:27.202000,-669.0,-618.0,3497.0,351.0,-521.0,336.0,225.0,-712.0,202.0
19:39:27.206000,-669.0,-618.0,3497.0,357.0,-577.0,328.0,225.0,-712.0,202.0
19:39:27.211000,-704.0,-631.0,3427.0,308.0,-646.0,368.0,195.0,-711.0,202.0
19:39:27.216000,-704.0,-631.0,3427.0,316.0,-582.0,407.0,195.0,-711.0,202.0
19:39:27.221000,-750.0,-625.0,3419.0,380.0,-591.0,394.0,178.0,-700.0,198.0
19:39:27.225000,-779.0,-616.0,3452.0,444.0,-579.0,390.0,178.0,-700.0,198.0
19:39:27.230000,-818.0,-609.0,3502.0,479.0,-598.0,438.0,178.0,-700.0,198.0
19:39:27.235000,-846.0,-609.0,3517.0,516.0,-624.0,460.0,159.0,-681.0,198.0
19:39:27.240000,-875.0,-618.0,3503.0,624.0,-578.0,463.0,159.0,-681.0,198.0
19:39:27.244000,-885.0,-622.0,3488.0,705.0,-620.0,458.0,135.0,-684.0,187.0
19:39:27.249000,-898.0,-611.0,3479.0,678.0,-572.0,453.0,135.0,-684.0,187.0
19:39:27.253000,-925.0,-602.0,3445.0,596.0,-549.0,461.0,135.0,-684.0,187.0
19:39:27.258000,-922.0,-613.0,3384.0,535.0,-579.0,471.0,123.0,-666.0,192.0
19:39:27.263000,-953.0,-618.0,3363.0,536.0,-586.0,496.0,123.0,-666.0,192.0
19:39:27.268000,-955.0,-633.0,3427.0,536.0,-586.0,496.0,103.0,-669.0,181.0
19:39:27.272000,-954.0,-644.0,3544.0,654.0,-756.0,521.0,103.0,-669.0,181.0
19:39:27.277000,-945.0,-665.0,3628.0,654.0,-756.0,521.0,103.0,-669.0,181.0
19:39:27.282000,-926.0,-675.0,3638.0,733.0,-754.0,531.0,93.0,-643.0,202.0
19:39:27.287000,-910.0,-683.0,3619.0,833.0,-711.0,542.0,93.0,-643.0,202.0
19:39:27.291000,-886.0,-694.0,3605.0,949.0,-652.0,570.0,84.0,-640.0,184.0
19:39:27.296000,-857.0,-688.0,3632.0,1061.0,-647.0,580.0,84.0,-640.0,184.0
19:39:27.300000,-847.0,-672.0,3679.0,1135.0,-619.0,577.0,84.0,-640.0,184.0
19:39:27.305000,-857.0,-653.0,3686.0,1114.0,-593.0,596.0,66.0,-616.0,186.0
19:39:27.310000,-869.0,-632.0,3646.0,1054.0,-564.0,613.0,66.0,-616.0,186.0
19:39:27.314000,-869.0,-632.0,3646.0,1040.0,-536.0,632.0,54.0,-612.0,186.0
19:39:27.319000,-893.0,-595.0,3569.0,1099.0,-503.0,641.0,54.0,-612.0,186.0
19:39:27.324000,-893.0,-595.0,3569.0,1196.0,-420.0,650.0,54.0,-612.0,186.0
19:39:27.329000,-941.0,-576.0,3549.0,1279.0,-363.0,654.0,43.0,-598.0,184.0
19:39:27.334000,-967.0,-571.0,3441.0,1378.0,-352.0,641.0,43.0,-598.0,184.0
19:39:27.338000,-975.0,-574.0,3336.0,1504.0,-439.0,628.0,43.0,-589.0,181.0
19:39:27.343000,-963.0,-578.0,3326.0,1580.0,-570.0,612.0,43.0,-589.0,181.0
19:39:27.347000,-954.0,-574.0,3373.0,1555.0,-593.0,602.0,43.0,-589.0,181.0
19:39:27.352000,-945.0,-565.0,3387.0,1502.0,-506.0,592.0,31.0,-577.0,181.0
19:39:27.357000,-936.0,-569.0,3341.0,1487.0,-381.0,594.0,31.0,-577.0,181.0
19:39:27.362000,-940.0,-574.0,3266.0,1488.0,-292.0,599.0,18.0,-564.0,180.0
19:39:27.366000,-949.0,-578.0,3174.0,1510.0,-234.0,599.0,18.0,-564.0,180.0
19:39:27.371000,-963.0,-585.0,3079.0,1573.0,-203.0,608.0,18.0,-564.0,180.0
19:39:27.376000,-963.0,-602.0,3007.0,1647.0,-174.0,612.0,15.0,-543.0,193.0
19:39:27.381000,-953.0,-609.0,2927.0,1691.0,-162.0,611.0,15.0,-543.0,193.0
19:39:27.385000,-942.0,-616.0,2882.0,1691.0,-162.0,611.0,4.0,-529.0,187.0
19:39:27.390000,-935.0,-612.0,2866.0,1697.0,-178.0,613.0,4.0,-529.0,187.0
19:39:27.394000,-925.0,-599.0,2849.0,1652.0,-173.0,612.0,4.0,-529.0,187.0
19:39:27.399000,-905.0,-585.0,2821.0,1567.0,-137.0,608.0,-9.0,-522.0,190.0
19:39:27.404000,-878.0,-574.0,2800.0,1472.0,-81.0,589.0,-9.0,-522.0,190.0
19:39:27.409000,-840.0,-560.0,2776.0,1472.0,-81.0,589.0,-4.0,-505.0,199.0
19:39:27.413000,-804.0,-545.0,2766.0,1473.0,-99.0,577.0,-4.0,-505.0,199.0
19:39:27.418000,-764.0,-534.0,2772.0,1484.0,-113.0,575.0,-4.0,-505.0,199.0
19:39:27.423000,-721.0,-518.0,2768.0,1500.0,-111.0,565.0,-10.0,-489.0,189.0
19:39:27.428000,-691.0,-497.0,2720.0,1490.0,-72.0,552.0,-10.0,-489.0,189.0
19:39:27.432000,-691.0,-497.0,2541.0,1471.0,11.0,549.0,-10.0,-481.0,186.0
19:39:27.437000,-676.0,-480.0,2674.0,1479.0,103.0,554.0,-10.0,-481.0,186.0
19:39:27.441000,-682.0,-471.0,2657.0,1504.0,172.0,554.0,-10.0,-481.0,186.0
19:39:27.446000,-689.0,-459.0,2660.0,1514.0,227.0,550.0,-18.0,-471.0,202.0
19:39:27.451000,-710.0,-438.0,2663.0,1485.0,304.0,559.0,-18.0,-471.0,202.0
19:39:27.456000,-744.0,-413.0,2625.0,1446.0,393.0,569.0,-13.0,-459.0,196.0
19:39:27.460000,-791.0,-394.0,2557.0,1451.0,440.0,566.0,-13.0,-459.0,196.0
19:39:27.465000,-840.0,-373.0,2537.0,1486.0,437.0,554.0,-13.0,-459.0,196.0
19:39:27.470000,-882.0,-349.0,2559.0,1499.0,418.0,544.0,-19.0,-450.0,181.0
19:39:27.475000,-906.0,-331.0,2595.0,1482.0,389.0,536.0,-19.0,-450.0,181.0
19:39:27.479000,-917.0,-322.0,2618.0,1468.0,369.0,520.0,-6.0,-444.0,198.0
19:39:27.484000,-927.0,-319.0,2629.0,1474.0,366.0,508.0,-6.0,-444.0,198.0
19:39:27.488000,-921.0,-329.0,2613.0,1513.0,375.0,500.0,-6.0,-444.0,198.0
19:39:27.493000,-917.0,-343.0,2592.0,1584.0,377.0,499.0,-19.0,-429.0,190.0
19:39:27.498000,-917.0,-366.0,2604.0,1584.0,377.0,499.0,-19.0,-429.0,190.0
19:39:27.503000,-915.0,-393.0,2612.0,1640.0,369.0,505.0,-19.0,-418.0,201.0
19:39:27.507000,-915.0,-415.0,2625.0,1673.0,364.0,495.0,-19.0,-418.0,201.0
19:39:27.512000,-916.0,-432.0,2674.0,1693.0,364.0,490.0,-19.0,-418.0,201.0
19:39:27.517000,-925.0,-438.0,2704.0,1684.0,369.0,493.0,-24.0,-403.0,201.0
19:39:27.522000,-932.0,-437.0,2711.0,1654.0,393.0,492.0,-24.0,-403.0,201.0
19:39:27.526000,-935.0,-434.0,2737.0,1620.0,434.0,487.0,-27.0,-385.0,202.0
19:39:27.531000,-957.0,-436.0,2785.0,1570.0,471.0,483.0,-27.0,-385.0,202.0
19:39:27.538000,-979.0,-440.0,2810.0,1445.0,503.0,475.0,-15.0,-375.0,219.0
19:39:27.540000,-996.0,-440.0,2814.0,1445.0,503.0,475.0,-15.0,-375.0,219.0
19:39:27.544000,-996.0,-440.0,2814.0,1403.0,477.0,457.0,-15.0,-375.0,219.0
19:39:27.550000,-1008.0,-435.0,2825.0,1361.0,447.0,440.0,-21.0,-363.0,214.0
19:39:27.554000,-1012.0,-438.0,2846.0,1317.0,431.0,428.0,-21.0,-363.0,214.0
19:39:27.559000,-1010.0,-450.0,2886.0,1297.0,400.0,404.0,-10.0,-348.0,213.0
19:39:27.564000,-998.0,-469.0,2953.0,1302.0,384.0,384.0,-10.0,-348.0,213.0
19:39:27.568000,-986.0,-494.0,3005.0,1311.0,408.0,372.0,-10.0,-348.0,213.0
19:39:27.573000,-973.0,-518.0,3010.0,1313.0,466.0,366.0,-15.0,-342.0,213.0
19:39:27.577000,-964.0,-550.0,2978.0,1317.0,520.0,368.0,-15.0,-342.0,213.0
19:39:27.583000,-958.0,-577.0,2957.0,1324.0,532.0,363.0,-7.0,-316.0,217.0
19:39:27.587000,-941.0,-607.0,2948.0,1330.0,527.0,356.0,-7.0,-316.0,217.0
19:39:27.591000,-914.0,-636.0,2948.0,1325.0,495.0,353.0,-7.0,-316.0,217.0
19:39:27.597000,-884.0,-651.0,2958.0,1304.0,444.0,344.0,-6.0,-312.0,229.0
19:39:27.601000,-850.0,-648.0,2973.0,1258.0,415.0,331.0,-6.0,-312.0,229.0
19:39:27.606000,-812.0,-626.0,2963.0,1258.0,415.0,331.0,6.0,-285.0,229.0
19:39:27.611000,-772.0,-594.0,2919.0,1176.0,450.0,315.0,6.0,-285.0,229.0
19:39:27.615000,-738.0,-553.0,2870.0,1077.0,527.0,307.0,6.0,-285.0,229.0
19:39:27.620000,-711.0,-508.0,2824.0,968.0,593.0,290.0,10.0,-271.0,237.0
19:39:27.625000,-679.0,-471.0,2787.0,869.0,647.0,276.0,10.0,-271.0,237.0
19:39:27.630000,-637.0,-441.0,2772.0,805.0,635.0,256.0,3.0,-253.0,232.0
19:39:27.634000,-599.0,-423.0,2780.0,789.0,619.0,241.0,3.0,-253.0,232.0
19:39:27.638000,-599.0,-423.0,2780.0,793.0,596.0,233.0,3.0,-253.0,232.0
19:39:27.644000,-506.0,-406.0,2762.0,807.0,623.0,215.0,19.0,-240.0,250.0
19:39:27.648000,-460.0,-400.0,2751.0,826.0,663.0,205.0,19.0,-240.0,250.0
19:39:27.653000,-460.0,-400.0,2751.0,839.0,718.0,200.0,25.0,-231.0,241.0
19:39:27.658000,-425.0,-402.0,2716.0,851.0,781.0,209.0,25.0,-231.0,241.0
19:39:27.662000,-400.0,-407.0,2669.0,877.0,828.0,212.0,25.0,-231.0,241.0
19:39:27.667000,-384.0,-417.0,2644.0,905.0,868.0,222.0,42.0,-207.0,264.0
19:39:27.672000,-375.0,-424.0,2633.0,924.0,887.0,227.0,42.0,-207.0,264.0
19:39:27.677000,-367.0,-429.0,2634.0,943.0,894.0,225.0,45.0,-198.0,262.0
19:39:27.681000,-357.0,-432.0,2649.0,953.0,885.0,223.0,45.0,-198.0,262.0
19:39:27.685000,-354.0,-426.0,2654.0,945.0,898.0,223.0,45.0,-198.0,262.0
19:39:27.691000,-358.0,-410.0,2651.0,907.0,932.0,225.0,61.0,-186.0,255.0
19:39:27.695000,-362.0,-387.0,2639.0,847.0,975.0,228.0,61.0,-186.0,255.0
19:39:27.700000,-375.0,-364.0,2625.0,847.0,984.0,224.0,64.0,-184.0,261.0
19:39:27.705000,-397.0,-332.0,2606.0,698.0,980.0,216.0,64.0,-184.0,261.0
19:39:27.709000,-419.0,-300.0,2592.0,646.0,962.0,221.0,64.0,-184.0,261.0
19:39:27.714000,-440.0,-273.0,2592.0,613.0,947.0,222.0,84.0,-177.0,261.0
19:39:27.719000,-457.0,-250.0,2598.0,613.0,947.0,222.0,84.0,-177.0,261.0
19:39:27.724000,-473.0,-234.0,2602.0,599.0,924.0,220.0,78.0,-159.0,283.0
19:39:27.728000,-487.0,-214.0,2591.0,594.0,935.0,217.0,78.0,-159.0,283.0
19:39:27.732000,-507.0,-194.0,2575.0,588.0,968.0,213.0,78.0,-159.0,283.0
19:39:27.738000,-525.0,-177.0,2566.0,588.0,1010.0,214.0,99.0,-159.0,280.0
19:39:27.742000,-545.0,-165.0,2555.0,582.0,1033.0,214.0,99.0,-159.0,280.0
19:39:27.747000,-564.0,-156.0,2536.0,573.0,1044.0,211.0,129.0,-145.0,267.0
19:39:27.752000,-581.0,-149.0,2501.0,565.0,1047.0,208.0,129.0,-145.0,267.0
19:39:27.756000,-581.0,-149.0,2501.0,553.0,1038.0,205.0,129.0,-145.0,267.0
19:39:27.761000,-597.0,-145.0,2453.0,545.0,1031.0,202.0,135.0,-130.0,304.0
19:39:27.766000,-612.0,-145.0,2405.0,538.0,1019.0,200.0,135.0,-130.0,304.0
19:39:27.771000,-629.0,-145.0,2366.0,524.0,1011.0,198.0,154.0,-130.0,280.0
19:39:27.775000,-646.0,-144.0,2339.0,494.0,1016.0,187.0,154.0,-130.0,280.0
19:39:27.779000,-659.0,-142.0,2319.0,454.0,1043.0,185.0,154.0,-130.0,280.0
19:39:27.785000,-687.0,-140.0,2306.0,413.0,1046.0,197.0,159.0,-121.0,288.0
19:39:27.789000,-714.0,-135.0,2293.0,361.0,1029.0,184.0,159.0,-121.0,288.0
19:39:27.794000,-739.0,-129.0,2265.0,309.0,1060.0,172.0,171.0,-121.0,291.0
19:39:27.799000,-769.0,-124.0,2235.0,277.0,1056.0,185.0,171.0,-121.0,291.0
19:39:27.806000,-802.0,-113.0,2198.0,265.0,916.0,162.0,177.0,-118.0,295.0
19:39:27.808000,-802.0,-113.0,2198.0,265.0,916.0,162.0,177.0,-118.0,295.0
19:39:27.812000,-811.0,-112.0,2183.0,259.0,957.0,164.0,177.0,-118.0,295.0
19:39:27.818000,-815.0,-112.0,2153.0,244.0,909.0,177.0,184.0,-115.0,303.0
19:39:27.822000,-807.0,-107.0,2107.0,227.0,848.0,155.0,184.0,-115.0,303.0
19:39:27.827000,-800.0,-102.0,2057.0,227.0,848.0,155.0,216.0,-111.0,307.0
19:39:27.832000,-794.0,-100.0,2013.0,204.0,911.0,129.0,216.0,-111.0,307.0
19:39:27.836000,-786.0,-96.0,1976.0,182.0,944.0,140.0,216.0,-111.0,307.0
19:39:27.841000,-774.0,-88.0,1938.0,159.0,864.0,141.0,223.0,-100.0,315.0
19:39:27.846000,-772.0,-83.0,1891.0,124.0,869.0,114.0,223.0,-100.0,315.0
19:39:27.851000,-760.0,-78.0,1835.0,89.0,947.0,108.0,222.0,-109.0,334.0
19:39:27.855000,-744.0,-72.0,1776.0,54.0,875.0,107.0,222.0,-109.0,334.0
19:39:27.859000,-744.0,-72.0,1776.0,6.0,847.0,83.0,222.0,-109.0,334.0
19:39:27.865000,-739.0,-60.0,1668.0,-38.0,923.0,72.0,243.0,-100.0,321.0
19:39:27.869000,-720.0,-51.0,1626.0,-68.0,827.0,68.0,243.0,-100.0,321.0
19:39:27.874000,-720.0,-51.0,1626.0,-97.0,799.0,43.0,249.0,-121.0,322.0
19:39:27.879000,-720.0,-42.0,1582.0,-125.0,908.0,32.0,249.0,-121.0,322.0
19:39:27.883000,-719.0,-28.0,1544.0,-167.0,852.0,22.0,249.0,-121.0,322.0
19:39:27.888000,-710.0,-14.0,1507.0,-228.0,912.0,-5.0,256.0,-108.0,322.0
19:39:27.893000,-728.0,-2.0,1470.0,-275.0,999.0,-33.0,256.0,-108.0,322.0
19:39:27.898000,-714.0,14.0,1430.0,-347.0,930.0,-27.0,276.0,-117.0,345.0
19:39:27.902000,-728.0,30.0,1388.0,-420.0,1003.0,-14.0,276.0,-117.0,345.0
19:39:27.906000,-751.0,36.0,1345.0,-384.0,996.0,-20.0,276.0,-117.0,345.0
19:39:27.912000,-746.0,32.0,1334.0,-300.0,819.0,-32.0,288.0,-114.0,345.0
19:39:27.916000,-727.0,32.0,1309.0,-276.0,838.0,-55.0,288.0,-114.0,345.0
19:39:27.921000,-733.0,33.0,1252.0,-276.0,838.0,-55.0,291.0,-115.0,354.0
19:39:27.926000,-723.0,34.0,1193.0,-294.0,868.0,-49.0,291.0,-115.0,354.0
19:39:27.930000,-720.0,26.0,1134.0,-268.0,927.0,-52.0,291.0,-115.0,354.0
19:39:27.935000,-728.0,18.0,1087.0,-268.0,927.0,-52.0,294.0,-121.0,348.0
19:39:27.939000,-724.0,18.0,1045.0,-206.0,797.0,-51.0,294.0,-121.0,348.0
19:39:27.945000,-734.0,13.0,1001.0,-206.0,797.0,-51.0,307.0,-124.0,346.0
19:39:27.949000,-749.0,18.0,958.0,-208.0,852.0,-57.0,307.0,-124.0,346.0
19:39:27.953000,-756.0,25.0,903.0,-244.0,806.0,-53.0,307.0,-124.0,346.0
19:39:27.959000,-781.0,27.0,847.0,-288.0,823.0,-63.0,294.0,-112.0,354.0
19:39:27.963000,-800.0,33.0,802.0,-295.0,882.0,-73.0,294.0,-112.0,354.0
19:39:27.968000,-819.0,38.0,753.0,-310.0,805.0,-74.0,312.0,-123.0,369.0
19:39:27.973000,-833.0,40.0,709.0,-306.0,822.0,-85.0,312.0,-123.0,369.0
19:39:27.977000,-833.0,40.0,709.0,-277.0,819.0,-98.0,312.0,-123.0,369.0
19:39:27.982000,-837.0,44.0,666.0,-268.0,755.0,-101.0,325.0,-132.0,367.0
19:39:27.987000,-846.0,48.0,618.0,-253.0,782.0,-114.0,325.0,-132.0,367.0
19:39:27.992000,-842.0,52.0,569.0,-243.0,766.0,-121.0,322.0,-132.0,364.0
19:39:27.996000,-839.0,51.0,525.0,-241.0,701.0,-120.0,322.0,-132.0,364.0
19:39:28.000000,-830.0,49.0,487.0,-238.0,675.0,-132.0,322.0,-132.0,364.0
19:39:28.006000,-812.0,42.0,442.0,-243.0,656.0,-139.0,319.0,-138.0,381.0
19:39:28.010000,-794.0,35.0,408.0,-241.0,582.0,-140.0,319.0,-138.0,381.0
19:39:28.015000,-767.0,27.0,389.0,-233.0,587.0,-150.0,330.0,-132.0,385.0
19:39:28.020000,-742.0,15.0,371.0,-219.0,597.0,-155.0,330.0,-132.0,385.0
19:39:28.024000,-714.0,5.0,369.0,-213.0,543.0,-162.0,330.0,-132.0,385.0
19:39:28.029000,-688.0,0.0,368.0,-219.0,605.0,-177.0,327.0,-138.0,400.0
19:39:28.034000,-665.0,-9.0,354.0,-220.0,625.0,-179.0,327.0,-138.0,400.0
19:39:28.039000,-641.0,-15.0,347.0,-220.0,625.0,-179.0,336.0,-145.0,388.0
19:39:28.043000,-619.0,-20.0,330.0,-233.0,580.0,-183.0,336.0,-145.0,388.0
19:39:28.047000,-602.0,-30.0,308.0,-246.0,643.0,-199.0,336.0,-145.0,388.0
19:39:28.053000,-583.0,-40.0,291.0,-234.0,647.0,-197.0,327.0,-150.0,382.0
19:39:28.057000,-564.0,-49.0,266.0,-240.0,598.0,-201.0,327.0,-150.0,382.0
19:39:28.062000,-554.0,-62.0,238.0,-250.0,652.0,-213.0,330.0,-147.0,394.0
19:39:28.067000,-539.0,-72.0,215.0,-241.0,653.0,-203.0,330.0,-147.0,394.0
19:39:28.071000,-522.0,-86.0,193.0,-242.0,598.0,-203.0,330.0,-147.0,394.0
19:39:28.076000,-513.0,-101.0,186.0,-225.0,631.0,-209.0,333.0,-148.0,394.0
19:39:28.081000,-497.0,-110.0,181.0,-197.0,622.0,-201.0,333.0,-148.0,394.0
19:39:28.085000,-486.0,-118.0,168.0,-204.0,599.0,-206.0,322.0,-156.0,405.0
19:39:28.090000,-486.0,-118.0,168.0,-206.0,680.0,-216.0,322.0,-156.0,405.0
19:39:28.094000,-480.0,-121.0,160.0,-232.0,666.0,-205.0,322.0,-156.0,405.0
19:39:28.100000,-475.0,-126.0,144.0,-272.0,646.0,-201.0,330.0,-147.0,403.0
19:39:28.104000,-477.0,-128.0,136.0,-274.0,689.0,-213.0,330.0,-147.0,403.0
19:39:28.109000,-473.0,-126.0,124.0,-274.0,632.0,-208.0,339.0,-157.0,418.0
19:39:28.114000,-475.0,-117.0,130.0,-287.0,630.0,-218.0,339.0,-157.0,418.0
19:39:28.118000,-474.0,-107.0,131.0,-310.0,695.0,-232.0,339.0,-157.0,418.0
19:39:28.123000,-479.0,-96.0,128.0,-360.0,684.0,-228.0,328.0,-159.0,426.0
19:39:28.128000,-485.0,-81.0,109.0,-410.0,725.0,-242.0,328.0,-159.0,426.0
19:39:28.132000,-493.0,-68.0,92.0,-421.0,758.0,-252.0,348.0,-156.0,397.0
19:39:28.137000,-501.0,-53.0,76.0,-427.0,698.0,-251.0,348.0,-156.0,397.0
19:39:28.141000,-508.0,-39.0,59.0,-428.0,693.0,-263.0,348.0,-156.0,397.0
19:39:28.147000,-513.0,-24.0,39.0,-420.0,695.0,-273.0,342.0,-165.0,408.0
19:39:28.151000,-513.0,-6.0,9.0,-420.0,664.0,-273.0,342.0,-165.0,408.0
19:39:28.156000,-513.0,11.0,-25.0,-426.0,664.0,-277.0,343.0,-160.0,406.0
19:39:28.161000,-519.0,25.0,-54.0,-436.0,739.0,-294.0,343.0,-160.0,406.0
19:39:28.165000,-518.0,42.0,-83.0,-436.0,739.0,-294.0,343.0,-160.0,406.0
19:39:28.170000,-520.0,53.0,-118.0,-442.0,730.0,-303.0,339.0,-156.0,411.0
19:39:28.175000,-515.0,64.0,-156.0,-444.0,773.0,-315.0,339.0,-156.0,411.0
19:39:28.179000,-508.0,75.0,-189.0,-450.0,729.0,-313.0,325.0,-171.0,414.0
19:39:28.184000,-497.0,85.0,-222.0,-451.0,720.0,-324.0,325.0,-171.0,414.0
19:39:28.188000,-497.0,85.0,-222.0,-457.0,744.0,-336.0,325.0,-171.0,414.0
19:39:28.194000,-473.0,108.0,-270.0,-471.0,733.0,-341.0,324.0,-174.0,408.0
19:39:28.198000,-473.0,108.0,-270.0,-492.0,775.0,-355.0,324.0,-174.0,408.0
19:39:28.203000,-463.0,113.0,-295.0,-522.0,797.0,-355.0,328.0,-174.0,421.0
19:39:28.208000,-455.0,120.0,-312.0,-545.0,798.0,-356.0,328.0,-174.0,421.0
19:39:28.212000,-448.0,119.0,-320.0,-552.0,814.0,-363.0,328.0,-174.0,421.0
19:39:28.217000,-435.0,121.0,-322.0,-560.0,782.0,-367.0,312.0,-180.0,426.0
19:39:28.222000,-428.0,123.0,-318.0,-565.0,805.0,-371.0,312.0,-180.0,426.0
19:39:28.226000,-422.0,119.0,-314.0,-566.0,809.0,-368.0,325.0,-174.0,421.0
19:39:28.231000,-414.0,117.0,-317.0,-559.0,796.0,-367.0,325.0,-174.0,421.0
19:39:28.235000,-411.0,113.0,-327.0,-526.0,820.0,-371.0,325.0,-174.0,421.0
19:39:28.241000,-401.0,109.0,-343.0,-508.0,795.0,-368.0,322.0,-177.0,424.0
19:39:28.245000,-399.0,110.0,-365.0,-504.0,833.0,-365.0,322.0,-177.0,424.0
19:39:28.249000,-398.0,108.0,-385.0,-498.0,870.0,-365.0,325.0,-181.0,442.0
19:39:28.255000,-392.0,109.0,-405.0,-518.0,847.0,-358.0,325.0,-181.0,442.0
19:39:28.259000,-394.0,109.0,-429.0,-525.0,865.0,-356.0,325.0,-181.0,442.0
19:39:28.264000,-387.0,111.0,-448.0,-525.0,865.0,-356.0,321.0,-180.0,430.0
19:39:28.269000,-377.0,117.0,-468.0,-519.0,817.0,-358.0,321.0,-180.0,430.0
19:39:28.273000,-375.0,126.0,-484.0,-531.0,789.0,-353.0,313.0,-178.0,430.0
19:39:28.278000,-359.0,139.0,-490.0,-526.0,804.0,-355.0,313.0,-178.0,430.0
19:39:28.282000,-352.0,155.0,-503.0,-525.0,765.0,-361.0,313.0,-178.0,430.0
19:39:28.288000,-350.0,172.0,-529.0,-555.0,805.0,-365.0,315.0,-187.0,435.0
19:39:28.292000,-352.0,189.0,-560.0,-594.0,864.0,-365.0,315.0,-187.0,435.0
19:39:28.296000,-352.0,189.0,-560.0,-626.0,892.0,-363.0,312.0,-190.0,436.0
19:39:28.302000,-364.0,215.0,-609.0,-649.0,919.0,-369.0,312.0,-190.0,436.0
19:39:28.306000,-370.0,226.0,-634.0,-670.0,909.0,-372.0,291.0,-172.0,439.0
19:39:28.311000,-370.0,226.0,-634.0,-675.0,893.0,-373.0,291.0,-172.0,439.0
19:39:28.315000,-371.0,233.0,-658.0,-665.0,868.0,-374.0,291.0,-172.0,439.0
19:39:28.320000,-371.0,239.0,-681.0,-653.0,866.0,-375.0,303.0,-190.0,427.0
19:39:28.325000,-373.0,240.0,-704.0,-645.0,863.0,-374.0,303.0,-190.0,427.0
19:39:28.330000,-371.0,243.0,-725.0,-652.0,854.0,-375.0,294.0,-190.0,439.0
19:39:28.335000,-379.0,247.0,-743.0,-661.0,885.0,-378.0,294.0,-190.0,439.0
19:39:28.339000,-390.0,254.0,-751.0,-680.0,892.0,-377.0,294.0,-190.0,439.0
19:39:28.344000,-412.0,263.0,-753.0,-702.0,922.0,-378.0,276.0,-198.0,460.0
19:39:28.349000,-444.0,271.0,-749.0,-725.0,945.0,-385.0,276.0,-198.0,460.0
19:39:28.353000,-478.0,282.0,-746.0,-746.0,961.0,-390.0,279.0,-195.0,436.0
19:39:28.358000,-525.0,291.0,-742.0,-757.0,974.0,-396.0,279.0,-195.0,436.0
19:39:28.362000,-566.0,304.0,-741.0,-773.0,949.0,-404.0,279.0,-195.0,436.0
19:39:28.367000,-611.0,315.0,-748.0,-783.0,947.0,-414.0,285.0,-193.0,447.0
19:39:28.372000,-649.0,324.0,-762.0,-783.0,947.0,-414.0,285.0,-193.0,447.0
19:39:28.377000,-689.0,333.0,-791.0,-795.0,920.0,-425.0,264.0,-199.0,451.0
19:39:28.382000,-734.0,338.0,-828.0,-793.0,916.0,-440.0,264.0,-199.0,451.0
19:39:28.386000,-772.0,338.0,-872.0,-793.0,916.0,-440.0,264.0,-199.0,451.0
19:39:28.391000,-812.0,332.0,-922.0,-754.0,887.0,-450.0,271.0,-195.0,454.0
19:39:28.396000,-845.0,325.0,-977.0,-707.0,884.0,-459.0,271.0,-195.0,454.0
19:39:28.400000,-882.0,316.0,-1037.0,-671.0,864.0,-465.0,264.0,-202.0,451.0
19:39:28.405000,-916.0,310.0,-1099.0,-645.0,858.0,-472.0,264.0,-202.0,451.0
19:39:28.409000,-916.0,310.0,-1099.0,-641.0,869.0,-481.0,264.0,-202.0,451.0
19:39:28.414000,-991.0,291.0,-1208.0,-649.0,915.0,-485.0,256.0,-211.0,457.0
19:39:28.419000,-991.0,291.0,-1208.0,-666.0,947.0,-485.0,256.0,-211.0,457.0
19:39:28.423000,-1033.0,278.0,-1241.0,-682.0,956.0,-486.0,250.0,-207.0,456.0
19:39:28.429000,-1082.0,263.0,-1259.0,-690.0,955.0,-490.0,250.0,-207.0,456.0
19:39:28.433000,-1125.0,244.0,-1271.0,-682.0,919.0,-494.0,250.0,-207.0,456.0
19:39:28.438000,-1175.0,225.0,-1268.0,-662.0,886.0,-496.0,243.0,-231.0,463.0
19:39:28.443000,-1214.0,211.0,-1254.0,-645.0,838.0,-502.0,243.0,-231.0,463.0
19:39:28.447000,-1250.0,197.0,-1236.0,-631.0,808.0,-505.0,234.0,-228.0,468.0
19:39:28.452000,-1288.0,182.0,-1220.0,-625.0,783.0,-514.0,234.0,-228.0,468.0
19:39:28.456000,-1325.0,167.0,-1203.0,-620.0,785.0,-525.0,234.0,-228.0,468.0
19:39:28.461000,-1372.0,152.0,-1192.0,-631.0,792.0,-535.0,232.0,-240.0,477.0
19:39:28.466000,-1416.0,141.0,-1205.0,-641.0,802.0,-547.0,232.0,-240.0,477.0
19:39:28.471000,-1470.0,124.0,-1223.0,-641.0,802.0,-547.0,223.0,-241.0,477.0
19:39:28.476000,-1519.0,105.0,-1246.0,-600.0,817.0,-567.0,223.0,-241.0,477.0
19:39:28.480000,-1583.0,79.0,-1278.0,-600.0,817.0,-567.0,223.0,-241.0,477.0
19:39:28.485000,-1644.0,52.0,-1325.0,-560.0,822.0,-573.0,219.0,-262.0,480.0
19:39:28.490000,-1709.0,22.0,-1373.0,-533.0,800.0,-584.0,219.0,-262.0,480.0
19:39:28.494000,-1781.0,-14.0,-1401.0,-510.0,800.0,-587.0,211.0,-274.0,484.0
19:39:28.499000,-1847.0,-53.0,-1432.0,-498.0,785.0,-591.0,211.0,-274.0,484.0
19:39:28.503000,-1918.0,-88.0,-1484.0,-514.0,779.0,-598.0,211.0,-274.0,484.0
19:39:28.508000,-1981.0,-122.0,-1544.0,-548.0,761.0,-605.0,213.0,-282.0,495.0
19:39:28.513000,-2052.0,-156.0,-1584.0,-574.0,717.0,-613.0,213.0,-282.0,495.0
19:39:28.518000,-2101.0,-182.0,-1611.0,-574.0,704.0,-633.0,189.0,-294.0,502.0
19:39:28.523000,-2167.0,-214.0,-1664.0,-590.0,680.0,-652.0,189.0,-294.0,502.0
19:39:28.527000,-2167.0,-214.0,-1664.0,-619.0,679.0,-650.0,189.0,-294.0,502.0
19:39:28.532000,-2245.0,-239.0,-1736.0,-648.0,662.0,-684.0,208.0,-307.0,498.0
19:39:28.537000,-2279.0,-263.0,-1813.0,-675.0,628.0,-702.0,208.0,-307.0,498.0
19:39:28.541000,-2321.0,-313.0,-1870.0,-650.0,558.0,-698.0,196.0,-328.0,493.0
19:39:28.546000,-2357.0,-355.0,-1878.0,-619.0,446.0,-720.0,196.0,-328.0,493.0
19:39:28.553000,-2391.0,-454.0,-1968.0,-610.0,359.0,-746.0,178.0,-354.0,520.0
19:39:28.555000,-2391.0,-454.0,-1968.0,-610.0,359.0,-746.0,178.0,-354.0,520.0
19:39:28.560000,-2368.0,-490.0,-2016.0,-574.0,260.0,-766.0,178.0,-354.0,520.0
19:39:28.565000,-2359.0,-535.0,-2039.0,-559.0,260.0,-768.0,210.0,-361.0,504.0
19:39:28.570000,-2337.0,-551.0,-2044.0,-567.0,243.0,-798.0,210.0,-361.0,504.0
19:39:28.574000,-2298.0,-560.0,-2041.0,-607.0,243.0,-809.0,208.0,-390.0,511.0
19:39:28.579000,-2273.0,-583.0,-2076.0,-666.0,287.0,-806.0,208.0,-390.0,511.0
19:39:28.583000,-2250.0,-592.0,-2105.0,-688.0,215.0,-808.0,208.0,-390.0,511.0
19:39:28.588000,-2233.0,-612.0,-2062.0,-688.0,184.0,-824.0,201.0,-399.0,507.0
19:39:28.593000,-2214.0,-625.0,-1999.0,-629.0,253.0,-836.0,201.0,-399.0,507.0
19:39:28.598000,-2189.0,-636.0,-2006.0,-629.0,253.0,-836.0,205.0,-424.0,516.0
19:39:28.602000,-2136.0,-665.0,-2031.0,-654.0,264.0,-868.0,205.0,-424.0,516.0
19:39:28.607000,-2143.0,-685.0,-1992.0,-610.0,242.0,-879.0,205.0,-424.0,516.0
19:39:28.612000,-2118.0,-685.0,-1964.0,-579.0,228.0,-896.0,213.0,-432.0,508.0
19:39:28.617000,-2110.0,-709.0,-1971.0,-626.0,249.0,-923.0,213.0,-432.0,508.0
19:39:28.621000,-2114.0,-689.0,-1958.0,-647.0,308.0,-923.0,213.0,-448.0,511.0
19:39:28.626000,-2081.0,-690.0,-1979.0,-672.0,336.0,-952.0,213.0,-448.0,511.0
19:39:28.630000,-2081.0,-690.0,-1979.0,-738.0,353.0,-950.0,213.0,-448.0,511.0
19:39:28.635000,-2097.0,-662.0,-2090.0,-747.0,341.0,-933.0,229.0,-477.0,498.0
19:39:28.640000,-2097.0,-662.0,-2090.0,-653.0,259.0,-929.0,229.0,-477.0,498.0
19:39:28.644000,-2100.0,-683.0,-2031.0,-577.0,219.0,-937.0,229.0,-477.0,498.0
19:39:28.649000,-2083.0,-694.0,-2037.0,-572.0,245.0,-998.0,232.0,-492.0,498.0
19:39:28.654000,-2057.0,-655.0,-2103.0,-601.0,281.0,-1018.0,232.0,-492.0,498.0
19:39:28.659000,-2037.0,-685.0,-2135.0,-633.0,341.0,-1004.0,235.0,-502.0,502.0
19:39:28.664000,-2053.0,-688.0,-2148.0,-656.0,507.0,-1058.0,235.0,-502.0,502.0
19:39:28.668000,-2049.0,-658.0,-2165.0,-658.0,647.0,-1055.0,235.0,-502.0,502.0
19:39:28.673000,-2041.0,-701.0,-2135.0,-574.0,604.0,-993.0,243.0,-513.0,495.0
19:39:28.677000,-2072.0,-782.0,-2031.0,-552.0,575.0,-979.0,243.0,-513.0,495.0
19:39:28.682000,-2070.0,-879.0,-2053.0,-652.0,613.0,-954.0,256.0,-520.0,481.0
19:39:28.687000,-2131.0,-961.0,-2152.0,-654.0,560.0,-940.0,256.0,-520.0,481.0
19:39:28.692000,-2199.0,-971.0,-2106.0,-654.0,560.0,-940.0,247.0,-543.0,486.0
19:39:28.696000,-2165.0,-971.0,-1948.0,-688.0,459.0,-1007.0,247.0,-543.0,486.0
19:39:28.701000,-2087.0,-952.0,-1831.0,-707.0,481.0,-1061.0,247.0,-543.0,486.0
19:39:28.706000,-2102.0,-989.0,-1717.0,-680.0,540.0,-1022.0,292.0,-558.0,477.0
19:39:28.711000,-2167.0,-1025.0,-1753.0,-722.0,612.0,-959.0,292.0,-558.0,477.0
19:39:28.715000,-2193.0,-1037.0,-1960.0,-891.0,462.0,-1020.0,294.0,-567.0,459.0
19:39:28.720000,-2118.0,-1042.0,-1831.0,-891.0,462.0,-1020.0,294.0,-567.0,459.0
19:39:28.724000,-2023.0,-1070.0,-1685.0,-659.0,365.0,-1065.0,294.0,-567.0,459.0
19:39:28.729000,-2027.0,-1113.0,-1768.0,-625.0,538.0,-1039.0,312.0,-592.0,456.0
19:39:28.734000,-1956.0,-1112.0,-1873.0,-645.0,590.0,-1036.0,312.0,-592.0,456.0
19:39:28.739000,-1839.0,-1117.0,-1897.0,-651.0,479.0,-1087.0,325.0,-597.0,448.0
19:39:28.743000,-1794.0,-1088.0,-1724.0,-699.0,333.0,-1096.0,325.0,-597.0,448.0
19:39:28.748000,-1794.0,-1088.0,-1724.0,-695.0,243.0,-1034.0,325.0,-597.0,448.0
19:39:28.753000,-1825.0,-1138.0,-1555.0,-625.0,279.0,-1005.0,333.0,-612.0,445.0
19:39:28.758000,-1837.0,-1144.0,-1572.0,-479.0,272.0,-1012.0,333.0,-612.0,445.0
19:39:28.762000,-1796.0,-1139.0,-1593.0,-327.0,140.0,-1003.0,339.0,-609.0,424.0
19:39:28.767000,-1701.0,-1147.0,-1512.0,-237.0,-27.0,-961.0,339.0,-609.0,424.0
19:39:28.771000,-1684.0,-1156.0,-1430.0,-208.0,-227.0,-920.0,339.0,-609.0,424.0
19:39:28.776000,-1619.0,-1182.0,-1323.0,-189.0,-357.0,-896.0,372.0,-622.0,409.0
19:39:28.781000,-1533.0,-1211.0,-1315.0,-90.0,-377.0,-821.0,372.0,-622.0,409.0
19:39:28.786000,-1399.0,-1302.0,-1250.0,24.0,-443.0,-795.0,378.0,-631.0,411.0
19:39:28.790000,-1232.0,-1346.0,-1148.0,60.0,-651.0,-778.0,378.0,-631.0,411.0
19:39:28.795000,-1134.0,-1374.0,-1165.0,74.0,-876.0,-695.0,378.0,-631.0,411.0
19:39:28.800000,-1085.0,-1457.0,-1111.0,-12.0,-1062.0,-685.0,381.0,-627.0,396.0
19:39:28.805000,-1131.0,-1433.0,-1061.0,111.0,-965.0,-704.0,381.0,-627.0,396.0
19:39:28.809000,-1198.0,-1348.0,-989.0,111.0,-965.0,-704.0,397.0,-640.0,399.0
19:39:28.814000,-1085.0,-1330.0,-1017.0,257.0,-647.0,-716.0,397.0,-640.0,399.0
19:39:28.818000,-1192.0,-1325.0,-1171.0,2.0,-528.0,-669.0,397.0,-640.0,399.0
19:39:28.823000,-1235.0,-1295.0,-1145.0,-254.0,-674.0,-642.0,402.0,-628.0,372.0
19:39:28.828000,-1229.0,-1249.0,-1240.0,-315.0,-793.0,-717.0,402.0,-628.0,372.0
19:39:28.833000,-1243.0,-1241.0,-1479.0,-351.0,-617.0,-749.0,414.0,-639.0,369.0
19:39:28.837000,-1226.0,-1269.0,-1550.0,-421.0,-372.0,-754.0,414.0,-639.0,369.0
19:39:28.842000,-1226.0,-1269.0,-1550.0,-483.0,-273.0,-781.0,414.0,-639.0,369.0
19:39:28.847000,-1116.0,-1306.0,-1634.0,-524.0,-354.0,-825.0,433.0,-640.0,343.0
19:39:28.852000,-1089.0,-1273.0,-1682.0,-512.0,-535.0,-871.0,433.0,-640.0,343.0
19:39:28.856000,-1089.0,-1273.0,-1682.0,-450.0,-703.0,-904.0,463.0,-630.0,343.0
19:39:28.861000,-1068.0,-1246.0,-1521.0,-499.0,-744.0,-882.0,463.0,-630.0,343.0
19:39:28.865000,-1094.0,-1287.0,-1404.0,-522.0,-570.0,-872.0,463.0,-630.0,343.0
19:39:28.870000,-1121.0,-1324.0,-1503.0,-409.0,-465.0,-895.0,457.0,-627.0,330.0
19:39:28.875000,-1152.0,-1311.0,-1512.0,-343.0,-526.0,-906.0,457.0,-627.0,330.0
19:39:28.879000,-1130.0,-1340.0,-1333.0,-363.0,-598.0,-918.0,466.0,-637.0,328.0
19:39:28.884000,-1099.0,-1351.0,-1316.0,-410.0,-661.0,-916.0,466.0,-637.0,328.0
19:39:28.889000,-1015.0,-1428.0,-1339.0,-395.0,-735.0,-914.0,466.0,-637.0,328.0
19:39:28.894000,-921.0,-1495.0,-1206.0,-481.0,-823.0,-939.0,480.0,-630.0,310.0
19:39:28.899000,-873.0,-1533.0,-1050.0,-648.0,-827.0,-947.0,480.0,-630.0,310.0
19:39:28.903000,-801.0,-1593.0,-942.0,-648.0,-738.0,-942.0,483.0,-631.0,301.0
19:39:28.908000,-757.0,-1639.0,-864.0,-710.0,-699.0,-927.0,483.0,-631.0,301.0
19:39:28.912000,-788.0,-1649.0,-756.0,-683.0,-674.0,-930.0,483.0,-631.0,301.0
19:39:28.917000,-732.0,-1642.0,-695.0,-590.0,-666.0,-931.0,510.0,-634.0,297.0
19:39:28.922000,-646.0,-1658.0,-704.0,-590.0,-666.0,-931.0,510.0,-634.0,297.0
19:39:28.927000,-644.0,-1704.0,-860.0,-512.0,-716.0,-872.0,516.0,-622.0,273.0
19:39:28.931000,-676.0,-1733.0,-1078.0,-536.0,-699.0,-809.0,516.0,-622.0,273.0
19:39:28.936000,-605.0,-1712.0,-1087.0,-478.0,-662.0,-806.0,516.0,-622.0,273.0
19:39:28.941000,-554.0,-1674.0,-958.0,-354.0,-696.0,-805.0,517.0,-628.0,256.0
19:39:28.946000,-546.0,-1661.0,-975.0,-355.0,-695.0,-750.0,517.0,-628.0,256.0
19:39:28.950000,-547.0,-1619.0,-1143.0,-476.0,-611.0,-707.0,526.0,-613.0,253.0
19:39:28.955000,-555.0,-1569.0,-1248.0,-628.0,-569.0,-694.0,526.0,-613.0,253.0
19:39:28.959000,-555.0,-1569.0,-1248.0,-720.0,-550.0,-683.0,526.0,-613.0,253.0
19:39:28.964000,-552.0,-1525.0,-1286.0,-766.0,-497.0,-658.0,529.0,-612.0,241.0
19:39:28.969000,-544.0,-1507.0,-1339.0,-768.0,-485.0,-635.0,529.0,-612.0,241.0
19:39:28.974000,-553.0,-1456.0,-1338.0,-714.0,-510.0,-619.0,534.0,-610.0,237.0
19:39:28.978000,-570.0,-1416.0,-1342.0,-699.0,-445.0,-598.0,534.0,-610.0,237.0
19:39:28.983000,-557.0,-1380.0,-1456.0,-692.0,-376.0,-591.0,534.0,-610.0,237.0
19:39:28.988000,-529.0,-1322.0,-1524.0,-650.0,-406.0,-557.0,543.0,-601.0,222.0
19:39:28.993000,-521.0,-1304.0,-1454.0,-627.0,-425.0,-535.0,543.0,-601.0,222.0
19:39:28.997000,-517.0,-1273.0,-1374.0,-668.0,-372.0,-531.0,565.0,-586.0,207.0
19:39:29.002000,-534.0,-1239.0,-1395.0,-744.0,-304.0,-517.0,565.0,-586.0,207.0
19:39:29.006000,-519.0,-1200.0,-1438.0,-796.0,-309.0,-524.0,565.0,-586.0,207.0
19:39:29.011000,-487.0,-1159.0,-1410.0,-847.0,-351.0,-513.0,546.0,-577.0,195.0
19:39:29.016000,-468.0,-1141.0,-1344.0,-821.0,-352.0,-496.0,546.0,-577.0,195.0
19:39:29.021000,-482.0,-1114.0,-1228.0,-821.0,-352.0,-496.0,574.0,-577.0,190.0
19:39:29.025000,-501.0,-1096.0,-1193.0,-944.0,-324.0,-498.0,574.0,-577.0,190.0
19:39:29.030000,-455.0,-1053.0,-1194.0,-944.0,-324.0,-498.0,574.0,-577.0,190.0
19:39:29.035000,-370.0,-1015.0,-1033.0,-920.0,-357.0,-540.0,567.0,-570.0,181.0
19:39:29.040000,-354.0,-989.0,-768.0,-809.0,-405.0,-528.0,567.0,-570.0,181.0
19:39:29.044000,-405.0,-1010.0,-620.0,-825.0,-336.0,-435.0,568.0,-558.0,168.0
19:39:29.049000,-415.0,-1035.0,-759.0,-825.0,-336.0,-435.0,568.0,-558.0,168.0
19:39:29.053000,-351.0,-1010.0,-891.0,-876.0,-244.0,-490.0,568.0,-558.0,168.0
19:39:29.058000,-296.0,-984.0,-764.0,-824.0,-190.0,-510.0,565.0,-547.0,171.0
19:39:29.063000,-243.0,-994.0,-606.0,-864.0,-151.0,-488.0,565.0,-547.0,171.0
19:39:29.068000,-288.0,-1025.0,-595.0,-1035.0,-124.0,-444.0,580.0,-553.0,153.0
19:39:29.072000,-370.0,-1022.0,-625.0,-1144.0,-145.0,-409.0,580.0,-553.0,153.0
19:39:29.077000,-370.0,-1022.0,-625.0,-1108.0,-191.0,-417.0,580.0,-553.0,153.0
19:39:29.082000,-408.0,-1019.0,-632.0,-957.0,-251.0,-411.0,579.0,-541.0,150.0
19:39:29.087000,-456.0,-1015.0,-555.0,-826.0,-281.0,-382.0,579.0,-541.0,150.0
19:39:29.091000,-478.0,-1055.0,-457.0,-770.0,-230.0,-362.0,597.0,-544.0,138.0
19:39:29.096000,-473.0,-1079.0,-479.0,-735.0,-174.0,-359.0,597.0,-544.0,138.0
19:39:29.100000,-462.0,-1059.0,-580.0,-692.0,-276.0,-351.0,597.0,-544.0,138.0
19:39:29.105000,-424.0,-1054.0,-538.0,-704.0,-400.0,-323.0,591.0,-543.0,142.0
19:39:29.110000,-372.0,-1087.0,-498.0,-801.0,-349.0,-294.0,591.0,-543.0,142.0
19:39:29.115000,-341.0,-1089.0,-605.0,-863.0,-296.0,-294.0,576.0,-541.0,129.0
19:39:29.119000,-338.0,-1071.0,-663.0,-867.0,-347.0,-279.0,576.0,-541.0,129.0
19:39:29.127000,-335.0,-1070.0,-671.0,-981.0,-312.0,-275.0,592.0,-538.0,114.0
19:39:29.129000,-335.0,-1070.0,-671.0,-981.0,-312.0,-275.0,592.0,-538.0,114.0
19:39:29.133000,-320.0,-1060.0,-725.0,-1029.0,-272.0,-265.0,592.0,-538.0,114.0
19:39:29.138000,-308.0,-1059.0,-753.0,-1029.0,-272.0,-265.0,586.0,-517.0,109.0
19:39:29.143000,-280.0,-1046.0,-732.0,-1021.0,-275.0,-267.0,586.0,-517.0,109.0
19:39:29.148000,-255.0,-1027.0,-691.0,-987.0,-299.0,-273.0,591.0,-517.0,103.0
19:39:29.152000,-235.0,-1007.0,-627.0,-982.0,-298.0,-265.0,591.0,-517.0,103.0
19:39:29.156000,-224.0,-987.0,-580.0,-1009.0,-258.0,-247.0,591.0,-517.0,103.0
19:39:29.161000,-203.0,-948.0,-604.0,-1075.0,-170.0,-244.0,591.0,-514.0,97.0
19:39:29.166000,-199.0,-912.0,-652.0,-1142.0,-90.0,-244.0,591.0,-514.0,97.0
19:39:29.171000,-249.0,-889.0,-602.0,-1134.0,-81.0,-206.0,591.0,-517.0,114.0
19:39:29.176000,-268.0,-875.0,-504.0,-1085.0,-97.0,-186.0,591.0,-517.0,114.0
19:39:29.180000,-268.0,-875.0,-504.0,-1077.0,-112.0,-195.0,591.0,-517.0,114.0
19:39:29.185000,-286.0,-844.0,-483.0,-1118.0,-56.0,-183.0,591.0,-507.0,82.0
19:39:29.190000,-329.0,-816.0,-554.0,-1131.0,70.0,-171.0,591.0,-507.0,82.0
19:39:29.195000,-378.0,-789.0,-634.0,-1059.0,83.0,-156.0,586.0,-508.0,76.0
19:39:29.199000,-440.0,-774.0,-609.0,-981.0,-2.0,-149.0,586.0,-508.0,76.0
19:39:29.203000,-466.0,-753.0,-570.0,-1008.0,-76.0,-158.0,586.0,-508.0,76.0
19:39:29.209000,-481.0,-719.0,-601.0,-1079.0,-106.0,-155.0,591.0,-492.0,63.0
19:39:29.213000,-494.0,-700.0,-589.0,-1069.0,-131.0,-146.0,591.0,-492.0,63.0
19:39:29.218000,-508.0,-686.0,-445.0,-1024.0,-150.0,-143.0,595.0,-486.0,63.0
19:39:29.223000,-527.0,-662.0,-312.0,-1042.0,-118.0,-148.0,595.0,-486.0,63.0
19:39:29.227000,-519.0,-640.0,-325.0,-1079.0,-81.0,-159.0,595.0,-486.0,63.0
19:39:29.232000,-489.0,-613.0,-420.0,-1068.0,-99.0,-165.0,585.0,-490.0,58.0
19:39:29.237000,-448.0,-590.0,-443.0,-1042.0,-144.0,-160.0,585.0,-490.0,58.0
19:39:29.242000,-443.0,-554.0,-391.0,-1042.0,-144.0,-160.0,586.0,-478.0,49.0
19:39:29.246000,-453.0,-526.0,-330.0,-1043.0,-165.0,-151.0,586.0,-478.0,49.0
19:39:29.250000,-441.0,-507.0,-309.0,-1055.0,-145.0,-147.0,586.0,-478.0,49.0
19:39:29.256000,-422.0,-486.0,-312.0,-1055.0,-145.0,-147.0,591.0,-481.0,48.0
19:39:29.260000,-416.0,-463.0,-290.0,-1029.0,-143.0,-145.0,591.0,-481.0,48.0
19:39:29.265000,-417.0,-439.0,-289.0,-1013.0,-125.0,-143.0,600.0,-477.0,52.0
19:39:29.270000,-417.0,-416.0,-291.0,-1012.0,-94.0,-142.0,600.0,-477.0,52.0
19:39:29.274000,-424.0,-399.0,-240.0,-995.0,-100.0,-141.0,600.0,-477.0,52.0
19:39:29.279000,-436.0,-382.0,-171.0,-970.0,-119.0,-141.0,585.0,-477.0,39.0
19:39:29.284000,-432.0,-366.0,-148.0,-961.0,-103.0,-140.0,585.0,-477.0,39.0
19:39:29.289000,-437.0,-346.0,-157.0,-968.0,-73.0,-138.0,589.0,-472.0,30.0
19:39:29.293000,-437.0,-346.0,-157.0,-970.0,-54.0,-130.0,589.0,-472.0,30.0
19:39:29.297000,-451.0,-331.0,-165.0,-967.0,-44.0,-122.0,589.0,-472.0,30.0
19:39:29.303000,-464.0,-315.0,-165.0,-959.0,-32.0,-119.0,580.0,-472.0,33.0
19:39:29.307000,-473.0,-308.0,-169.0,-946.0,-26.0,-112.0,580.0,-472.0,33.0
19:39:29.312000,-488.0,-305.0,-166.0,-935.0,-47.0,-103.0,594.0,-475.0,24.0
19:39:29.317000,-509.0,-296.0,-144.0,-948.0,-55.0,-99.0,594.0,-475.0,24.0
19:39:29.321000,-523.0,-290.0,-137.0,-975.0,-30.0,-97.0,594.0,-475.0,24.0
19:39:29.326000,-541.0,-284.0,-161.0,-964.0,-6.0,-93.0,591.0,-456.0,30.0
19:39:29.331000,-560.0,-285.0,-161.0,-935.0,10.0,-90.0,591.0,-456.0,30.0
19:39:29.336000,-590.0,-279.0,-144.0,-939.0,42.0,-80.0,589.0,-459.0,30.0
19:39:29.340000,-628.0,-280.0,-147.0,-963.0,70.0,-72.0,589.0,-459.0,30.0
19:39:29.344000,-655.0,-282.0,-165.0,-970.0,69.0,-66.0,589.0,-459.0,30.0
19:39:29.350000,-690.0,-277.0,-153.0,-980.0,70.0,-56.0,586.0,-453.0,22.0
19:39:29.354000,-734.0,-273.0,-130.0,-980.0,88.0,-44.0,586.0,-453.0,22.0
19:39:29.359000,-787.0,-271.0,-102.0,-996.0,88.0,-44.0,591.0,-448.0,30.0
19:39:29.364000,-840.0,-268.0,-99.0,-1011.0,126.0,-33.0,591.0,-448.0,30.0
19:39:29.368000,-892.0,-270.0,-101.0,-1015.0,167.0,-23.0,591.0,-448.0,30.0
19:39:29.373000,-952.0,-276.0,-111.0,-1006.0,179.0,-10.0,592.0,-447.0,22.0
19:39:29.378000,-1012.0,-284.0,-126.0,-1005.0,177.0,0.0,592.0,-447.0,22.0
19:39:29.382000,-1075.0,-296.0,-116.0,-1003.0,168.0,5.0,600.0,-450.0,7.0
19:39:29.387000,-1153.0,-310.0,-79.0,-1002.0,146.0,13.0,600.0,-450.0,7.0
19:39:29.391000,-1153.0,-310.0,-79.0,-1017.0,169.0,16.0,600.0,-450.0,7.0
19:39:29.396000,-1234.0,-325.0,-39.0,-1034.0,216.0,30.0,588.0,-441.0,13.0
19:39:29.401000,-1397.0,-527.0,-110.0,-1043.0,278.0,45.0,588.0,-441.0,13.0
19:39:29.406000,-1397.0,-375.0,-110.0,-1021.0,325.0,55.0,595.0,-430.0,12.0
19:39:29.411000,-1492.0,-403.0,-119.0,-970.0,308.0,80.0,595.0,-430.0,12.0
19:39:29.415000,-1598.0,-445.0,-39.0,-951.0,285.0,103.0,595.0,-430.0,12.0
19:39:29.420000,-1708.0,-488.0,32.0,-964.0,329.0,121.0,588.0,-433.0,0.0
19:39:29.425000,-1822.0,-529.0,17.0,-959.0,342.0,136.0,588.0,-433.0,0.0
19:39:29.429000,-1939.0,-577.0,28.0,-930.0,305.0,150.0,585.0,-423.0,3.0
19:39:29.434000,-2041.0,-628.0,72.0,-926.0,310.0,155.0,585.0,-423.0,3.0
19:39:29.438000,-2141.0,-680.0,91.0,-933.0,315.0,170.0,585.0,-423.0,3.0
19:39:29.444000,-2249.0,-742.0,102.0,-917.0,317.0,190.0,592.0,-405.0,-1.0
19:39:29.448000,-2354.0,-808.0,98.0,-900.0,303.0,197.0,592.0,-405.0,-1.0
19:39:29.453000,-2461.0,-879.0,91.0,-900.0,303.0,197.0,585.0,-412.0,-9.0
19:39:29.458000,-2573.0,-959.0,102.0,-837.0,306.0,231.0,585.0,-412.0,-9.0
19:39:29.462000,-2692.0,-1046.0,103.0,-807.0,344.0,252.0,585.0,-412.0,-9.0
19:39:29.467000,-2802.0,-1136.0,81.0,-807.0,344.0,252.0,582.0,-400.0,-6.0
19:39:29.471000,-2926.0,-1223.0,75.0,-732.0,297.0,302.0,582.0,-400.0,-6.0
19:39:29.477000,-3034.0,-1322.0,67.0,-732.0,297.0,302.0,576.0,-387.0,-19.0
19:39:29.481000,-3127.0,-1419.0,-16.0,-754.0,268.0,329.0,576.0,-387.0,-19.0
19:39:29.486000,-3205.0,-1524.0,-128.0,-789.0,239.0,360.0,571.0,-372.0,-25.0
19:39:29.491000,-3280.0,-1627.0,-182.0,-780.0,181.0,400.0,571.0,-372.0,-25.0
19:39:29.495000,-3364.0,-1724.0,-215.0,-742.0,118.0,434.0,571.0,-372.0,-25.0
19:39:29.500000,-3449.0,-1823.0,-315.0,-733.0,132.0,470.0,564.0,-364.0,-22.0
19:39:29.505000,-3546.0,-1912.0,-448.0,-733.0,198.0,514.0,564.0,-364.0,-22.0
19:39:29.510000,-3637.0,-1996.0,-498.0,-707.0,224.0,560.0,556.0,-333.0,-43.0
19:39:29.514000,-3637.0,-1996.0,-498.0,-707.0,237.0,613.0,556.0,-333.0,-43.0
19:39:29.518000,-3740.0,-2069.0,-529.0,-752.0,256.0,666.0,556.0,-333.0,-43.0
19:39:29.524000,-3836.0,-2135.0,-562.0,-814.0,284.0,711.0,546.0,-312.0,-36.0
19:39:29.528000,-3943.0,-2190.0,-626.0,-871.0,313.0,765.0,546.0,-312.0,-36.0
19:39:29.533000,-4056.0,-2248.0,-700.0,-879.0,337.0,818.0,532.0,-292.0,-51.0
19:39:29.538000,-4154.0,-2288.0,-749.0,-870.0,345.0,862.0,532.0,-292.0,-51.0
19:39:29.542000,-4260.0,-2324.0,-771.0,-879.0,373.0,916.0,532.0,-292.0,-51.0
19:39:29.547000,-4340.0,-2373.0,-824.0,-882.0,391.0,966.0,534.0,-273.0,-42.0
19:39:29.552000,-4412.0,-2405.0,-885.0,-882.0,362.0,1006.0,534.0,-273.0,-42.0
19:39:29.556000,-4470.0,-2429.0,-938.0,-902.0,325.0,1045.0,501.0,-244.0,-54.0
19:39:29.561000,-4509.0,-2452.0,-1004.0,-910.0,295.0,1070.0,501.0,-244.0,-54.0
19:39:29.565000,-4536.0,-2459.0,-1103.0,-890.0,252.0,1081.0,501.0,-244.0,-54.0
19:39:29.571000,-4535.0,-2466.0,-1177.0,-868.0,208.0,1082.0,487.0,-220.0,-42.0
19:39:29.575000,-4529.0,-2464.0,-1205.0,-868.0,208.0,1082.0,487.0,-220.0,-42.0
19:39:29.580000,-4531.0,-2457.0,-1246.0,-880.0,208.0,1080.0,483.0,-201.0,-34.0
19:39:29.585000,-4529.0,-2438.0,-1350.0,-928.0,258.0,1071.0,483.0,-201.0,-34.0
19:39:29.589000,-4513.0,-2433.0,-1430.0,-966.0,302.0,1061.0,483.0,-201.0,-34.0
19:39:29.594000,-4492.0,-2422.0,-1460.0,-968.0,291.0,1051.0,459.0,-154.0,-25.0
19:39:29.598000,-4454.0,-2412.0,-1462.0,-939.0,261.0,1037.0,459.0,-154.0,-25.0
19:39:29.604000,-4422.0,-2384.0,-1460.0,-924.0,251.0,1022.0,418.0,-135.0,0.0
19:39:29.608000,-4388.0,-2369.0,-1465.0,-933.0,251.0,1009.0,418.0,-135.0,0.0
19:39:29.613000,-4331.0,-2347.0,-1505.0,-938.0,261.0,987.0,418.0,-105.0,3.0
19:39:29.618000,-4265.0,-2320.0,-1549.0,-926.0,288.0,945.0,418.0,-105.0,3.0
19:39:29.622000,-4265.0,-2320.0,-1549.0,-908.0,306.0,908.0,418.0,-105.0,3.0
19:39:29.626000,-4202.0,-2277.0,-1560.0,-920.0,300.0,874.0,408.0,-81.0,27.0
19:39:29.632000,-4141.0,-2230.0,-1521.0,-956.0,288.0,849.0,408.0,-81.0,27.0
19:39:29.636000,-4057.0,-2212.0,-1462.0,-962.0,301.0,828.0,393.0,-76.0,31.0
19:39:29.640000,-3961.0,-2204.0,-1427.0,-917.0,302.0,792.0,393.0,-76.0,31.0
19:39:29.645000,-3876.0,-2177.0,-1400.0,-854.0,266.0,749.0,393.0,-76.0,31.0
19:39:29.651000,-3765.0,-2156.0,-1372.0,-809.0,241.0,701.0,373.0,-54.0,64.0
19:39:29.655000,-3647.0,-2125.0,-1367.0,-788.0,247.0,664.0,373.0,-54.0,64.0
19:39:29.660000,-3539.0,-2109.0,-1348.0,-769.0,264.0,629.0,357.0,-37.0,91.0
19:39:29.665000,-3435.0,-2080.0,-1296.0,-775.0,300.0,574.0,357.0,-37.0,91.0
19:39:29.669000,-3330.0,-2036.0,-1257.0,-803.0,361.0,528.0,357.0,-37.0,91.0
19:39:29.674000,-3236.0,-1997.0,-1229.0,-807.0,398.0,497.0,336.0,-19.0,106.0
19:39:29.679000,-3154.0,-1959.0,-1185.0,-796.0,417.0,464.0,336.0,-19.0,106.0
19:39:29.683000,-3057.0,-1926.0,-1161.0,-775.0,428.0,425.0,324.0,-9.0,118.0
19:39:29.688000,-2954.0,-1892.0,-1145.0,-775.0,428.0,425.0,324.0,-9.0,118.0
19:39:29.692000,-2861.0,-1854.0,-1127.0,-745.0,425.0,392.0,324.0,-9.0,118.0
19:39:29.697000,-2765.0,-1823.0,-1104.0,-720.0,427.0,363.0,315.0,-3.0,130.0
19:39:29.702000,-2671.0,-1787.0,-1082.0,-695.0,432.0,330.0,315.0,-3.0,130.0
19:39:29.707000,-2576.0,-1747.0,-1061.0,-675.0,446.0,300.0,307.0,1.0,156.0
19:39:29.712000,-2482.0,-1717.0,-1029.0,-660.0,464.0,280.0,307.0,1.0,156.0
19:39:29.716000,-2482.0,-1717.0,-1029.0,-643.0,482.0,261.0,307.0,1.0,156.0
19:39:29.721000,-2289.0,-1652.0,-982.0,-628.0,499.0,239.0,298.0,-4.0,172.0
19:39:29.726000,-2191.0,-1621.0,-960.0,-609.0,512.0,218.0,298.0,-4.0,172.0
19:39:29.730000,-2191.0,-1621.0,-960.0,-588.0,517.0,197.0,280.0,6.0,208.0
19:39:29.735000,-2098.0,-1589.0,-920.0,-574.0,522.0,180.0,280.0,6.0,208.0
19:39:29.739000,-2005.0,-1561.0,-867.0,-573.0,527.0,165.0,280.0,6.0,208.0
19:39:29.744000,-1908.0,-1533.0,-814.0,-576.0,528.0,151.0,267.0,10.0,214.0
19:39:29.749000,-1811.0,-1493.0,-770.0,-574.0,524.0,142.0,267.0,10.0,214.0
19:39:29.754000,-1715.0,-1455.0,-724.0,-565.0,521.0,138.0,264.0,3.0,220.0
19:39:29.759000,-1624.0,-1415.0,-667.0,-562.0,524.0,130.0,264.0,3.0,220.0
19:39:29.763000,-1537.0,-1369.0,-604.0,-571.0,533.0,127.0,264.0,3.0,220.0
19:39:29.768000,-1451.0,-1326.0,-544.0,-578.0,546.0,139.0,262.0,13.0,228.0
19:39:29.773000,-1374.0,-1283.0,-488.0,-566.0,550.0,157.0,262.0,13.0,228.0
19:39:29.777000,-1309.0,-1234.0,-426.0,-542.0,543.0,176.0,255.0,10.0,249.0
19:39:29.782000,-1247.0,-1183.0,-359.0,-519.0,537.0,188.0,255.0,10.0,249.0
19:39:29.786000,-1192.0,-1124.0,-308.0,-511.0,538.0,194.0,255.0,10.0,249.0
19:39:29.791000,-1143.0,-1057.0,-266.0,-521.0,562.0,198.0,255.0,9.0,250.0
19:39:29.796000,-1104.0,-990.0,-237.0,-521.0,562.0,198.0,255.0,9.0,250.0
19:39:29.801000,-1077.0,-919.0,-213.0,-544.0,609.0,197.0,255.0,7.0,271.0
19:39:29.806000,-1060.0,-847.0,-189.0,-573.0,655.0,189.0,255.0,7.0,271.0
19:39:29.810000,-1048.0,-778.0,-170.0,-607.0,686.0,179.0,255.0,7.0,271.0
19:39:29.815000,-1040.0,-710.0,-163.0,-630.0,694.0,168.0,261.0,0.0,267.0
19:39:29.820000,-1025.0,-648.0,-166.0,-624.0,679.0,153.0,261.0,0.0,267.0
19:39:29.824000,-999.0,-595.0,-177.0,-592.0,657.0,138.0,255.0,18.0,277.0
19:39:29.829000,-966.0,-544.0,-206.0,-550.0,640.0,124.0,255.0,18.0,277.0
19:39:29.833000,-966.0,-544.0,-206.0,-504.0,626.0,112.0,255.0,18.0,277.0
19:39:29.838000,-889.0,-471.0,-247.0,-456.0,609.0,108.0,259.0,7.0,277.0
19:39:29.843000,-889.0,-471.0,-247.0,-422.0,598.0,111.0,259.0,7.0,277.0
19:39:29.848000,-855.0,-449.0,-250.0,-400.0,605.0,114.0,255.0,13.0,289.0
19:39:29.853000,-815.0,-435.0,-246.0,-377.0,622.0,114.0,255.0,13.0,289.0
19:39:29.857000,-778.0,-421.0,-247.0,-357.0,640.0,111.0,255.0,13.0,289.0
19:39:29.861000,-738.0,-408.0,-249.0,-339.0,658.0,105.0,246.0,3.0,321.0
19:39:29.867000,-695.0,-394.0,-254.0,-326.0,673.0,99.0,246.0,3.0,321.0
19:39:29.871000,-653.0,-382.0,-259.0,-324.0,699.0,96.0,246.0,3.0,321.0
19:39:29.876000,-609.0,-369.0,-271.0,-326.0,726.0,95.0,246.0,3.0,321.0
19:39:29.880000,-567.0,-357.0,-266.0,-321.0,734.0,103.0,246.0,3.0,321.0
19:39:29.885000,-529.0,-348.0,-239.0,-311.0,725.0,116.0,253.0,10.0,307.0
19:39:29.890000,-493.0,-345.0,-205.0,-286.0,702.0,131.0,253.0,10.0,307.0
19:39:29.895000,-449.0,-343.0,-179.0,-286.0,702.0,131.0,250.0,-3.0,309.0
19:39:29.900000,-406.0,-340.0,-156.0,-180.0,665.0,157.0,250.0,-3.0,309.0
19:39:29.904000,-369.0,-335.0,-114.0,-180.0,665.0,157.0,250.0,-3.0,309.0
19:39:29.909000,-339.0,-329.0,-61.0,-133.0,735.0,171.0,247.0,4.0,312.0
19:39:29.914000,-313.0,-318.0,-32.0,-128.0,735.0,171.0,247.0,4.0,312.0
19:39:29.918000,-298.0,-308.0,-25.0,-161.0,801.0,178.0,237.0,4.0,318.0
19:39:29.923000,-293.0,-298.0,-9.0,-195.0,840.0,189.0,237.0,4.0,318.0
19:39:29.927000,-286.0,-284.0,18.0,-214.0,840.0,191.0,237.0,4.0,318.0
19:39:29.932000,-273.0,-264.0,36.0,-238.0,826.0,182.0,256.0,1.0,309.0
19:39:29.937000,-259.0,-241.0,44.0,-277.0,814.0,173.0,256.0,1.0,309.0
19:39:29.942000,-245.0,-219.0,63.0,-312.0,799.0,167.0,243.0,-1.0,322.0
19:39:29.947000,-214.0,-200.0,105.0,-325.0,780.0,159.0,243.0,-1.0,322.0
19:39:29.951000,-214.0,-200.0,105.0,-330.0,765.0,150.0,243.0,-1.0,322.0
19:39:29.956000,-178.0,-176.0,143.0,-346.0,761.0,142.0,249.0,0.0,324.0
19:39:29.961000,-147.0,-149.0,161.0,-361.0,764.0,135.0,249.0,0.0,324.0
19:39:29.965000,-119.0,-116.0,174.0,-374.0,763.0,132.0,246.0,0.0,322.0
19:39:29.970000,-96.0,-81.0,207.0,-391.0,757.0,131.0,246.0,0.0,322.0
19:39:29.974000,-73.0,-49.0,260.0,-412.0,756.0,128.0,246.0,0.0,322.0
19:39:29.979000,-48.0,-16.0,290.0,-430.0,770.0,123.0,246.0,-7.0,321.0
19:39:29.984000,-16.0,15.0,282.0,-428.0,777.0,124.0,246.0,-7.0,321.0
19:39:29.989000,9.0,45.0,275.0,-403.0,764.0,123.0,264.0,7.0,327.0
19:39:29.994000,42.0,70.0,284.0,-382.0,751.0,122.0,264.0,7.0,327.0
19:39:29.998000,72.0,91.0,279.0,-369.0,753.0,124.0,264.0,7.0,327.0
19:39:30.003000,103.0,106.0,247.0,-349.0,754.0,124.0,262.0,7.0,345.0
19:39:30.008000,142.0,116.0,217.0,-323.0,745.0,125.0,262.0,7.0,345.0
19:39:30.012000,179.0,125.0,208.0,-323.0,745.0,125.0,262.0,7.0,345.0
19:39:30.017000,217.0,125.0,196.0,-310.0,745.0,130.0,262.0,7.0,345.0
19:39:30.021000,254.0,124.0,155.0,-303.0,764.0,135.0,262.0,7.0,345.0
19:39:30.026000,288.0,116.0,132.0,-286.0,767.0,142.0,262.0,1.0,316.0
19:39:30.031000,312.0,105.0,142.0,-263.0,750.0,154.0,262.0,1.0,316.0
19:39:30.036000,324.0,92.0,149.0,-249.0,763.0,164.0,258.0,6.0,316.0
19:39:30.041000,355.0,79.0,123.0,-253.0,807.0,175.0,258.0,6.0,316.0
19:39:30.045000,355.0,79.0,123.0,-265.0,811.0,180.0,258.0,6.0,316.0
19:39:30.050000,359.0,55.0,112.0,-271.0,805.0,183.0,271.0,15.0,316.0
19:39:30.054000,359.0,55.0,112.0,-278.0,833.0,198.0,271.0,15.0,316.0
19:39:30.059000,351.0,40.0,116.0,-285.0,861.0,209.0,252.0,3.0,318.0
19:39:30.064000,347.0,29.0,87.0,-281.0,880.0,204.0,252.0,3.0,318.0
19:39:30.069000,344.0,18.0,52.0,-271.0,889.0,200.0,256.0,16.0,306.0
19:39:30.073000,344.0,8.0,23.0,-269.0,884.0,199.0,256.0,16.0,306.0
19:39:30.078000,350.0,0.0,0.0,-273.0,854.0,191.0,256.0,16.0,306.0
19:39:30.083000,358.0,-2.0,-12.0,-289.0,830.0,173.0,268.0,9.0,316.0
19:39:30.088000,373.0,-4.0,-14.0,-317.0,820.0,157.0,268.0,9.0,316.0
19:39:30.092000,396.0,-6.0,-23.0,-338.0,807.0,139.0,262.0,7.0,312.0
19:39:30.097000,431.0,-7.0,-51.0,-339.0,789.0,123.0,262.0,7.0,312.0
19:39:30.101000,463.0,-12.0,-72.0,-326.0,785.0,112.0,262.0,7.0,312.0
