hh:mm:ss.ms,gyroX[mdps],gyroY[mdps],gyroZ[mdps],accX[mg],accY[mg],accZ[mg],magX[mG],magY[mG],magZ[mG]
19:39:48.586000,-184.0,-261.0,1789.0,-315.0,-440.0,337.0,508.0,-634.0,184.0
19:39:48.590000,-193.0,-289.0,1854.0,-271.0,-421.0,342.0,508.0,-634.0,184.0
19:39:48.595000,-213.0,-313.0,1915.0,-225.0,-433.0,349.0,498.0,-640.0,196.0
19:39:48.600000,-235.0,-338.0,1991.0,-184.0,-439.0,349.0,498.0,-640.0,196.0
19:39:48.604000,-246.0,-365.0,2075.0,-184.0,-439.0,349.0,483.0,-651.0,193.0
19:39:48.609000,-266.0,-391.0,2162.0,-148.0,-464.0,353.0,483.0,-651.0,193.0
19:39:48.613000,-282.0,-418.0,2256.0,-111.0,-499.0,361.0,483.0,-651.0,193.0
19:39:48.619000,-296.0,-443.0,2340.0,-74.0,-532.0,370.0,471.0,-661.0,181.0
19:39:48.623000,-303.0,-466.0,2414.0,-1.0,-580.0,387.0,471.0,-661.0,181.0
19:39:48.628000,-307.0,-493.0,2492.0,-1.0,-580.0,387.0,456.0,-666.0,177.0
19:39:48.633000,-315.0,-536.0,2566.0,34.0,-595.0,417.0,456.0,-666.0,177.0
19:39:48.637000,-330.0,-595.0,2622.0,69.0,-598.0,489.0,439.0,-681.0,183.0
19:39:48.642000,-359.0,-627.0,2653.0,116.0,-568.0,531.0,439.0,-681.0,183.0
19:39:48.646000,-359.0,-627.0,2653.0,167.0,-552.0,528.0,439.0,-681.0,183.0
19:39:48.651000,-402.0,-641.0,2704.0,220.0,-586.0,508.0,412.0,-687.0,172.0
19:39:48.656000,-402.0,-641.0,2704.0,268.0,-642.0,507.0,412.0,-687.0,172.0
19:39:48.661000,-394.0,-662.0,2727.0,283.0,-729.0,517.0,399.0,-702.0,160.0
19:39:48.666000,-379.0,-680.0,2729.0,282.0,-760.0,515.0,399.0,-702.0,160.0
19:39:48.670000,-367.0,-695.0,2710.0,272.0,-757.0,523.0,399.0,-702.0,160.0
19:39:48.675000,-352.0,-711.0,2694.0,264.0,-771.0,516.0,372.0,-697.0,163.0
19:39:48.680000,-340.0,-725.0,2702.0,272.0,-779.0,506.0,372.0,-697.0,163.0
19:39:48.684000,-328.0,-742.0,2737.0,274.0,-796.0,498.0,363.0,-706.0,166.0
19:39:48.689000,-315.0,-762.0,2781.0,266.0,-796.0,488.0,363.0,-706.0,166.0
19:39:48.693000,-306.0,-778.0,2823.0,254.0,-773.0,494.0,363.0,-706.0,166.0
19:39:48.698000,-308.0,-796.0,2869.0,217.0,-746.0,549.0,334.0,-703.0,163.0
19:39:48.703000,-326.0,-842.0,2913.0,220.0,-653.0,568.0,334.0,-703.0,163.0
19:39:48.708000,-361.0,-861.0,2958.0,220.0,-653.0,568.0,331.0,-715.0,147.0
19:39:48.713000,-425.0,-882.0,3016.0,263.0,-500.0,655.0,331.0,-715.0,147.0
19:39:48.717000,-494.0,-880.0,3083.0,263.0,-464.0,618.0,331.0,-715.0,147.0
19:39:48.722000,-553.0,-877.0,3143.0,266.0,-464.0,618.0,298.0,-715.0,151.0
19:39:48.727000,-589.0,-884.0,3202.0,235.0,-522.0,589.0,298.0,-715.0,151.0
19:39:48.731000,-620.0,-884.0,3256.0,171.0,-623.0,556.0,265.0,-712.0,153.0
19:39:48.736000,-643.0,-877.0,3277.0,47.0,-717.0,545.0,265.0,-712.0,153.0
19:39:48.740000,-636.0,-872.0,3288.0,-57.0,-744.0,521.0,265.0,-712.0,153.0
19:39:48.745000,-631.0,-861.0,3287.0,-95.0,-723.0,503.0,249.0,-711.0,139.0
19:39:48.750000,-640.0,-840.0,3272.0,-114.0,-683.0,471.0,249.0,-711.0,139.0
19:39:48.754000,-640.0,-840.0,3272.0,-86.0,-630.0,437.0,232.0,-711.0,138.0
19:39:48.760000,-631.0,-808.0,3201.0,-63.0,-552.0,429.0,232.0,-711.0,138.0
19:39:48.764000,-631.0,-808.0,3201.0,-61.0,-470.0,439.0,232.0,-711.0,138.0
19:39:48.769000,-630.0,-787.0,3192.0,-14.0,-467.0,449.0,213.0,-699.0,141.0
19:39:48.774000,-632.0,-772.0,3256.0,47.0,-507.0,436.0,213.0,-699.0,141.0
19:39:48.778000,-618.0,-777.0,3323.0,42.0,-513.0,446.0,207.0,-699.0,142.0
19:39:48.783000,-609.0,-779.0,3298.0,25.0,-473.0,456.0,207.0,-699.0,142.0
19:39:48.787000,-613.0,-767.0,3161.0,90.0,-467.0,383.0,207.0,-699.0,142.0
19:39:48.792000,-607.0,-753.0,3012.0,80.0,-392.0,403.0,183.0,-688.0,141.0
19:39:48.797000,-678.0,-751.0,3005.0,78.0,-278.0,408.0,183.0,-688.0,141.0
19:39:48.801000,-718.0,-761.0,3165.0,149.0,-291.0,385.0,162.0,-679.0,135.0
19:39:48.807000,-784.0,-779.0,3393.0,206.0,-393.0,420.0,162.0,-679.0,135.0
19:39:48.811000,-839.0,-793.0,3567.0,327.0,-435.0,411.0,162.0,-679.0,135.0
19:39:48.816000,-883.0,-815.0,3647.0,469.0,-447.0,438.0,142.0,-664.0,135.0
19:39:48.821000,-923.0,-821.0,3651.0,601.0,-436.0,454.0,142.0,-664.0,135.0
19:39:48.825000,-923.0,-833.0,3602.0,601.0,-436.0,454.0,126.0,-667.0,136.0
19:39:48.830000,-955.0,-836.0,3539.0,713.0,-366.0,475.0,126.0,-667.0,136.0
19:39:48.834000,-989.0,-835.0,3446.0,722.0,-217.0,517.0,126.0,-667.0,136.0
19:39:48.839000,-1031.0,-816.0,3359.0,651.0,-79.0,492.0,111.0,-645.0,139.0
19:39:48.843000,-1073.0,-829.0,3346.0,585.0,-90.0,530.0,111.0,-645.0,139.0
19:39:48.849000,-1122.0,-840.0,3425.0,585.0,-90.0,530.0,97.0,-645.0,144.0
19:39:48.854000,-1144.0,-862.0,3548.0,677.0,-257.0,559.0,97.0,-645.0,144.0
19:39:48.858000,-1161.0,-873.0,3675.0,854.0,-423.0,587.0,91.0,-625.0,139.0
19:39:48.863000,-1150.0,-901.0,3743.0,1033.0,-543.0,625.0,91.0,-625.0,139.0
19:39:48.867000,-1150.0,-901.0,3743.0,1165.0,-537.0,655.0,91.0,-625.0,139.0
19:39:48.872000,-1131.0,-927.0,3705.0,1244.0,-509.0,671.0,75.0,-612.0,139.0
19:39:48.877000,-1131.0,-927.0,3705.0,1296.0,-465.0,702.0,75.0,-612.0,139.0
19:39:48.882000,-1100.0,-954.0,3669.0,1371.0,-467.0,737.0,66.0,-591.0,147.0
19:39:48.886000,-1099.0,-960.0,3671.0,1443.0,-501.0,749.0,66.0,-591.0,147.0
19:39:48.890000,-1077.0,-954.0,3650.0,1486.0,-547.0,757.0,66.0,-591.0,147.0
19:39:48.896000,-1036.0,-949.0,3659.0,1497.0,-598.0,776.0,46.0,-580.0,139.0
19:39:48.901000,-1006.0,-939.0,3655.0,1459.0,-571.0,789.0,46.0,-580.0,139.0
19:39:48.905000,-996.0,-917.0,3516.0,1402.0,-504.0,780.0,49.0,-580.0,135.0
19:39:48.910000,-945.0,-897.0,3311.0,1421.0,-467.0,769.0,49.0,-580.0,135.0
19:39:48.914000,-896.0,-889.0,3171.0,1497.0,-429.0,764.0,49.0,-580.0,135.0
19:39:48.919000,-865.0,-884.0,3076.0,1522.0,-350.0,761.0,36.0,-553.0,144.0
19:39:48.924000,-833.0,-884.0,2988.0,1503.0,-232.0,768.0,36.0,-553.0,144.0
19:39:48.928000,-817.0,-890.0,2858.0,1507.0,-111.0,782.0,31.0,-550.0,141.0
19:39:48.933000,-822.0,-900.0,2702.0,1547.0,-30.0,801.0,31.0,-550.0,141.0
19:39:48.937000,-819.0,-908.0,2588.0,1547.0,-30.0,801.0,31.0,-550.0,141.0
19:39:48.943000,-807.0,-903.0,2646.0,1614.0,-57.0,803.0,15.0,-534.0,147.0
19:39:48.947000,-816.0,-889.0,2779.0,1653.0,-156.0,799.0,15.0,-534.0,147.0
19:39:48.952000,-810.0,-885.0,2823.0,1620.0,-186.0,800.0,24.0,-519.0,150.0
19:39:48.957000,-809.0,-870.0,2816.0,1581.0,-134.0,779.0,24.0,-519.0,150.0
19:39:48.961000,-815.0,-856.0,2825.0,1546.0,-79.0,765.0,24.0,-519.0,150.0
19:39:48.966000,-816.0,-846.0,2821.0,1499.0,-18.0,767.0,21.0,-513.0,157.0
19:39:48.971000,-837.0,-839.0,2771.0,1491.0,59.0,766.0,21.0,-513.0,157.0
19:39:48.975000,-837.0,-839.0,2771.0,1546.0,106.0,768.0,18.0,-495.0,156.0
19:39:48.980000,-896.0,-825.0,2635.0,1646.0,115.0,764.0,18.0,-495.0,156.0
19:39:48.984000,-896.0,-825.0,2635.0,1755.0,89.0,760.0,18.0,-495.0,156.0
19:39:48.990000,-924.0,-833.0,2599.0,1839.0,67.0,759.0,10.0,-493.0,156.0
19:39:48.994000,-939.0,-842.0,2578.0,1874.0,62.0,751.0,10.0,-493.0,156.0
19:39:48.999000,-952.0,-844.0,2548.0,1848.0,105.0,742.0,16.0,-483.0,171.0
19:39:49.004000,-969.0,-851.0,2465.0,1788.0,185.0,740.0,16.0,-483.0,171.0
19:39:49.008000,-989.0,-865.0,2369.0,1734.0,216.0,746.0,16.0,-483.0,171.0
19:39:49.013000,-1017.0,-879.0,2306.0,1695.0,206.0,739.0,7.0,-471.0,163.0
19:39:49.017000,-1050.0,-884.0,2281.0,1654.0,204.0,718.0,7.0,-471.0,163.0
19:39:49.023000,-1071.0,-896.0,2293.0,1602.0,183.0,698.0,1.0,-465.0,165.0
19:39:49.027000,-1090.0,-909.0,2324.0,1556.0,161.0,679.0,1.0,-465.0,165.0
19:39:49.032000,-1096.0,-921.0,2331.0,1556.0,132.0,660.0,-3.0,-450.0,172.0
19:39:49.037000,-1084.0,-936.0,2354.0,1573.0,98.0,642.0,-3.0,-450.0,172.0
19:39:49.041000,-1065.0,-946.0,2381.0,1573.0,126.0,633.0,-3.0,-450.0,172.0
19:39:49.046000,-1059.0,-939.0,2381.0,1573.0,157.0,633.0,-10.0,-441.0,180.0
19:39:49.051000,-1054.0,-926.0,2373.0,1539.0,185.0,632.0,-10.0,-441.0,180.0
19:39:49.056000,-1058.0,-903.0,2363.0,1486.0,225.0,628.0,3.0,-438.0,181.0
19:39:49.060000,-1060.0,-883.0,2356.0,1432.0,245.0,621.0,3.0,-438.0,181.0
19:39:49.064000,-1066.0,-863.0,2366.0,1380.0,246.0,605.0,3.0,-438.0,181.0
19:39:49.070000,-1080.0,-824.0,2343.0,1380.0,246.0,605.0,-4.0,-426.0,183.0
19:39:49.074000,-1080.0,-789.0,2303.0,1354.0,270.0,583.0,-4.0,-426.0,183.0
19:39:49.079000,-1071.0,-767.0,2303.0,1357.0,280.0,570.0,1.0,-415.0,187.0
19:39:49.084000,-1074.0,-749.0,2342.0,1373.0,280.0,565.0,1.0,-415.0,187.0
19:39:49.088000,-1074.0,-749.0,2342.0,1350.0,319.0,549.0,1.0,-415.0,187.0
19:39:49.093000,-1089.0,-716.0,2335.0,1299.0,385.0,526.0,-15.0,-409.0,195.0
19:39:49.098000,-1090.0,-689.0,2312.0,1291.0,411.0,519.0,-15.0,-409.0,195.0
19:39:49.103000,-1092.0,-673.0,2365.0,1313.0,388.0,515.0,-7.0,-399.0,190.0
19:39:49.107000,-1090.0,-667.0,2431.0,1317.0,352.0,488.0,-7.0,-399.0,190.0
19:39:49.111000,-1089.0,-653.0,2471.0,1318.0,340.0,465.0,-7.0,-399.0,190.0
19:39:49.117000,-1072.0,-651.0,2526.0,1318.0,338.0,463.0,-6.0,-372.0,208.0
19:39:49.121000,-1048.0,-658.0,2569.0,1310.0,301.0,458.0,-6.0,-372.0,208.0
19:39:49.126000,-1029.0,-663.0,2592.0,1318.0,282.0,446.0,-18.0,-367.0,211.0
19:39:49.131000,-995.0,-671.0,2609.0,1341.0,275.0,435.0,-18.0,-367.0,211.0
19:39:49.135000,-974.0,-681.0,2634.0,1354.0,290.0,427.0,-18.0,-367.0,211.0
19:39:49.140000,-949.0,-697.0,2657.0,1340.0,349.0,417.0,-1.0,-355.0,202.0
19:39:49.145000,-940.0,-712.0,2658.0,1306.0,420.0,404.0,-1.0,-355.0,202.0
19:39:49.149000,-928.0,-726.0,2676.0,1266.0,471.0,402.0,3.0,-340.0,201.0
19:39:49.154000,-932.0,-732.0,2695.0,1199.0,528.0,394.0,3.0,-340.0,201.0
19:39:49.158000,-939.0,-730.0,2667.0,1199.0,528.0,394.0,3.0,-340.0,201.0
19:39:49.164000,-933.0,-725.0,2604.0,1129.0,629.0,386.0,-16.0,-334.0,219.0
19:39:49.168000,-939.0,-721.0,2570.0,1085.0,634.0,379.0,-16.0,-334.0,219.0
19:39:49.173000,-954.0,-711.0,2542.0,1044.0,659.0,364.0,0.0,-331.0,214.0
19:39:49.178000,-961.0,-696.0,2487.0,990.0,677.0,363.0,0.0,-331.0,214.0
19:39:49.182000,-959.0,-697.0,2452.0,970.0,639.0,355.0,0.0,-331.0,214.0
19:39:49.187000,-954.0,-688.0,2447.0,974.0,644.0,337.0,12.0,-295.0,225.0
19:39:49.192000,-927.0,-682.0,2461.0,960.0,555.0,331.0,12.0,-295.0,225.0
19:39:49.196000,-927.0,-682.0,2461.0,935.0,554.0,313.0,16.0,-298.0,228.0
19:39:49.201000,-865.0,-681.0,2434.0,891.0,590.0,306.0,16.0,-298.0,228.0
19:39:49.206000,-865.0,-681.0,2434.0,859.0,615.0,294.0,6.0,-277.0,238.0
19:39:49.211000,-837.0,-683.0,2402.0,872.0,704.0,296.0,6.0,-277.0,238.0
19:39:49.215000,-812.0,-685.0,2372.0,886.0,681.0,292.0,6.0,-277.0,238.0
19:39:49.220000,-785.0,-682.0,2342.0,894.0,756.0,262.0,21.0,-273.0,246.0
19:39:49.225000,-760.0,-681.0,2307.0,900.0,788.0,277.0,21.0,-273.0,246.0
19:39:49.229000,-723.0,-679.0,2272.0,912.0,763.0,270.0,21.0,-256.0,247.0
19:39:49.234000,-702.0,-684.0,2244.0,928.0,828.0,255.0,21.0,-256.0,247.0
19:39:49.238000,-674.0,-681.0,2221.0,913.0,749.0,253.0,21.0,-256.0,247.0
19:39:49.244000,-645.0,-678.0,2198.0,885.0,796.0,224.0,22.0,-249.0,273.0
19:39:49.248000,-627.0,-674.0,2182.0,862.0,877.0,228.0,22.0,-249.0,273.0
19:39:49.253000,-606.0,-671.0,2168.0,862.0,877.0,228.0,22.0,-235.0,264.0
19:39:49.258000,-595.0,-674.0,2165.0,831.0,904.0,208.0,22.0,-235.0,264.0
19:39:49.262000,-591.0,-672.0,2178.0,819.0,952.0,214.0,22.0,-235.0,264.0
19:39:49.267000,-588.0,-670.0,2192.0,819.0,952.0,214.0,43.0,-225.0,270.0
19:39:49.272000,-588.0,-669.0,2179.0,794.0,921.0,222.0,43.0,-225.0,270.0
19:39:49.276000,-586.0,-669.0,2147.0,765.0,937.0,213.0,54.0,-226.0,271.0
19:39:49.281000,-583.0,-662.0,2130.0,744.0,955.0,200.0,54.0,-226.0,271.0
19:39:49.285000,-570.0,-651.0,2148.0,740.0,894.0,213.0,54.0,-226.0,271.0
19:39:49.291000,-557.0,-642.0,2182.0,731.0,792.0,217.0,67.0,-204.0,280.0
19:39:49.295000,-558.0,-627.0,2214.0,717.0,872.0,185.0,67.0,-204.0,280.0
19:39:49.300000,-550.0,-613.0,2233.0,699.0,900.0,206.0,75.0,-207.0,280.0
19:39:49.305000,-548.0,-599.0,2223.0,660.0,880.0,211.0,75.0,-207.0,280.0
19:39:49.309000,-548.0,-599.0,2223.0,633.0,1020.0,175.0,75.0,-207.0,280.0
19:39:49.314000,-555.0,-583.0,2200.0,613.0,998.0,200.0,73.0,-205.0,289.0
19:39:49.319000,-554.0,-568.0,2186.0,587.0,944.0,202.0,73.0,-205.0,289.0
19:39:49.323000,-563.0,-554.0,2179.0,583.0,1010.0,183.0,82.0,-190.0,286.0
19:39:49.328000,-574.0,-535.0,2170.0,564.0,951.0,197.0,82.0,-190.0,286.0
19:39:49.332000,-581.0,-531.0,2146.0,554.0,951.0,185.0,96.0,-183.0,321.0
19:39:49.338000,-595.0,-520.0,2125.0,561.0,971.0,176.0,96.0,-183.0,321.0
19:39:49.342000,-602.0,-506.0,2112.0,542.0,963.0,170.0,96.0,-183.0,321.0
19:39:49.347000,-615.0,-494.0,2101.0,515.0,1019.0,164.0,117.0,-163.0,298.0
19:39:49.352000,-624.0,-477.0,2085.0,469.0,988.0,162.0,117.0,-163.0,298.0
19:39:49.356000,-632.0,-465.0,2060.0,434.0,1009.0,149.0,121.0,-165.0,304.0
19:39:49.361000,-650.0,-452.0,2043.0,409.0,996.0,151.0,121.0,-165.0,304.0
19:39:49.365000,-657.0,-447.0,2020.0,391.0,969.0,149.0,121.0,-165.0,304.0
19:39:49.370000,-671.0,-441.0,1995.0,393.0,971.0,143.0,121.0,-163.0,309.0
19:39:49.375000,-671.0,-440.0,1960.0,393.0,971.0,143.0,121.0,-163.0,309.0
19:39:49.379000,-673.0,-441.0,1908.0,412.0,945.0,130.0,130.0,-154.0,303.0
19:39:49.385000,-672.0,-437.0,1859.0,412.0,945.0,130.0,130.0,-154.0,303.0
19:39:49.389000,-672.0,-438.0,1823.0,406.0,944.0,119.0,130.0,-154.0,303.0
19:39:49.394000,-675.0,-430.0,1795.0,376.0,964.0,115.0,142.0,-156.0,318.0
19:39:49.399000,-677.0,-423.0,1766.0,328.0,968.0,109.0,142.0,-156.0,318.0
19:39:49.403000,-686.0,-413.0,1740.0,282.0,984.0,101.0,151.0,-154.0,316.0
19:39:49.408000,-695.0,-408.0,1713.0,243.0,986.0,94.0,151.0,-154.0,316.0
19:39:49.412000,-695.0,-408.0,1713.0,212.0,990.0,89.0,151.0,-154.0,316.0
19:39:49.417000,-719.0,-380.0,1654.0,192.0,981.0,82.0,175.0,-150.0,330.0
19:39:49.422000,-719.0,-380.0,1654.0,179.0,978.0,70.0,175.0,-150.0,330.0
19:39:49.427000,-737.0,-369.0,1620.0,148.0,965.0,66.0,166.0,-133.0,346.0
19:39:49.432000,-754.0,-358.0,1585.0,119.0,962.0,55.0,166.0,-133.0,346.0
19:39:49.436000,-774.0,-338.0,1554.0,104.0,945.0,40.0,166.0,-133.0,346.0
19:39:49.441000,-784.0,-329.0,1526.0,76.0,939.0,23.0,181.0,-138.0,345.0
19:39:49.446000,-805.0,-320.0,1492.0,37.0,959.0,12.0,181.0,-138.0,345.0
19:39:49.450000,-820.0,-308.0,1456.0,0.0,989.0,-11.0,198.0,-142.0,342.0
19:39:49.455000,-835.0,-299.0,1418.0,-41.0,1015.0,-34.0,198.0,-142.0,342.0
19:39:49.459000,-847.0,-284.0,1380.0,-109.0,1025.0,-37.0,198.0,-142.0,342.0
19:39:49.464000,-863.0,-277.0,1325.0,-162.0,1062.0,-33.0,211.0,-144.0,348.0
19:39:49.469000,-884.0,-266.0,1274.0,-134.0,1016.0,-41.0,211.0,-144.0,348.0
19:39:49.474000,-881.0,-264.0,1242.0,-134.0,1016.0,-41.0,211.0,-142.0,352.0
19:39:49.479000,-883.0,-266.0,1208.0,-51.0,904.0,-66.0,211.0,-142.0,352.0
19:39:49.483000,-877.0,-269.0,1157.0,-51.0,915.0,-68.0,211.0,-142.0,352.0
19:39:49.488000,-872.0,-263.0,1099.0,-55.0,915.0,-68.0,226.0,-135.0,363.0
19:39:49.493000,-858.0,-270.0,1051.0,-58.0,919.0,-70.0,226.0,-135.0,363.0
19:39:49.497000,-851.0,-277.0,1020.0,-31.0,889.0,-77.0,223.0,-141.0,367.0
19:39:49.502000,-844.0,-282.0,971.0,-15.0,876.0,-85.0,223.0,-141.0,367.0
19:39:49.506000,-847.0,-275.0,929.0,-27.0,868.0,-87.0,223.0,-141.0,367.0
19:39:49.511000,-839.0,-270.0,910.0,-21.0,860.0,-94.0,231.0,-142.0,373.0
19:39:49.516000,-847.0,-270.0,897.0,-37.0,845.0,-110.0,231.0,-142.0,373.0
19:39:49.521000,-858.0,-260.0,882.0,-77.0,867.0,-116.0,235.0,-147.0,375.0
19:39:49.526000,-865.0,-251.0,863.0,-96.0,897.0,-122.0,235.0,-147.0,375.0
19:39:49.530000,-865.0,-251.0,863.0,-102.0,875.0,-129.0,235.0,-147.0,375.0
19:39:49.535000,-877.0,-247.0,842.0,-101.0,846.0,-140.0,238.0,-139.0,373.0
19:39:49.540000,-886.0,-235.0,821.0,-76.0,879.0,-155.0,238.0,-139.0,373.0
19:39:49.544000,-890.0,-222.0,787.0,-79.0,814.0,-158.0,240.0,-159.0,384.0
19:39:49.549000,-892.0,-224.0,756.0,-78.0,826.0,-165.0,240.0,-159.0,384.0
19:39:49.553000,-899.0,-211.0,728.0,-64.0,831.0,-181.0,240.0,-159.0,384.0
19:39:49.558000,-884.0,-210.0,675.0,-81.0,781.0,-184.0,256.0,-148.0,399.0
19:39:49.563000,-893.0,-210.0,625.0,-74.0,776.0,-191.0,256.0,-148.0,399.0
19:39:49.568000,-872.0,-209.0,587.0,-58.0,734.0,-195.0,259.0,-157.0,399.0
19:39:49.573000,-863.0,-210.0,542.0,-51.0,710.0,-206.0,259.0,-157.0,399.0
19:39:49.577000,-841.0,-219.0,512.0,-37.0,691.0,-221.0,259.0,-157.0,399.0
19:39:49.582000,-821.0,-226.0,490.0,-37.0,691.0,-218.0,247.0,-159.0,403.0
19:39:49.587000,-798.0,-229.0,461.0,-54.0,712.0,-230.0,247.0,-159.0,403.0
19:39:49.591000,-775.0,-243.0,438.0,-54.0,712.0,-230.0,258.0,-165.0,399.0
19:39:49.596000,-750.0,-252.0,429.0,-53.0,717.0,-237.0,258.0,-165.0,399.0
19:39:49.600000,-723.0,-265.0,413.0,-41.0,715.0,-243.0,258.0,-165.0,399.0
19:39:49.605000,-698.0,-273.0,415.0,-41.0,715.0,-243.0,262.0,-168.0,406.0
19:39:49.610000,-659.0,-292.0,423.0,-34.0,627.0,-247.0,262.0,-168.0,406.0
19:39:49.615000,-642.0,-299.0,427.0,-48.0,645.0,-249.0,262.0,-156.0,405.0
19:39:49.620000,-602.0,-308.0,444.0,-46.0,633.0,-244.0,262.0,-156.0,405.0
19:39:49.624000,-585.0,-319.0,466.0,-61.0,626.0,-254.0,262.0,-156.0,405.0
19:39:49.629000,-553.0,-322.0,495.0,-64.0,651.0,-248.0,279.0,-165.0,409.0
19:39:49.634000,-538.0,-326.0,492.0,-77.0,628.0,-236.0,279.0,-165.0,409.0
19:39:49.638000,-516.0,-329.0,504.0,-73.0,646.0,-228.0,277.0,-168.0,412.0
19:39:49.643000,-516.0,-329.0,504.0,-59.0,599.0,-229.0,277.0,-168.0,412.0
19:39:49.650000,-485.0,-338.0,498.0,-93.0,589.0,-217.0,270.0,-175.0,423.0
19:39:49.652000,-485.0,-338.0,498.0,-93.0,589.0,-217.0,270.0,-175.0,423.0
19:39:49.657000,-458.0,-335.0,496.0,-109.0,606.0,-226.0,270.0,-175.0,423.0
19:39:49.661000,-455.0,-337.0,499.0,-130.0,588.0,-209.0,279.0,-172.0,417.0
19:39:49.667000,-443.0,-336.0,503.0,-152.0,604.0,-208.0,279.0,-172.0,417.0
19:39:49.671000,-445.0,-329.0,494.0,-168.0,620.0,-217.0,274.0,-165.0,420.0
19:39:49.676000,-439.0,-317.0,499.0,-196.0,611.0,-219.0,274.0,-165.0,420.0
19:39:49.680000,-445.0,-308.0,495.0,-231.0,628.0,-214.0,274.0,-165.0,420.0
19:39:49.685000,-452.0,-287.0,494.0,-244.0,629.0,-218.0,283.0,-181.0,418.0
19:39:49.689000,-462.0,-264.0,494.0,-278.0,606.0,-223.0,283.0,-181.0,418.0
19:39:49.695000,-473.0,-253.0,496.0,-278.0,606.0,-223.0,282.0,-180.0,424.0
19:39:49.699000,-489.0,-232.0,494.0,-342.0,615.0,-230.0,282.0,-180.0,424.0
19:39:49.704000,-495.0,-227.0,483.0,-342.0,615.0,-230.0,282.0,-180.0,424.0
19:39:49.709000,-511.0,-219.0,488.0,-393.0,589.0,-225.0,295.0,-180.0,429.0
19:39:49.714000,-497.0,-212.0,496.0,-398.0,556.0,-224.0,295.0,-180.0,429.0
19:39:49.718000,-489.0,-217.0,491.0,-399.0,480.0,-222.0,294.0,-189.0,436.0
19:39:49.723000,-465.0,-208.0,476.0,-401.0,459.0,-219.0,294.0,-189.0,436.0
19:39:49.727000,-422.0,-203.0,438.0,-385.0,434.0,-226.0,294.0,-189.0,436.0
19:39:49.732000,-378.0,-191.0,368.0,-391.0,391.0,-226.0,298.0,-183.0,423.0
19:39:49.737000,-337.0,-172.0,286.0,-416.0,432.0,-242.0,298.0,-183.0,423.0
19:39:49.742000,-305.0,-147.0,198.0,-458.0,485.0,-244.0,306.0,-190.0,433.0
19:39:49.746000,-277.0,-120.0,103.0,-516.0,505.0,-238.0,306.0,-190.0,433.0
19:39:49.751000,-277.0,-120.0,103.0,-560.0,552.0,-256.0,306.0,-190.0,433.0
19:39:49.756000,-249.0,-93.0,-11.0,-581.0,579.0,-265.0,291.0,-196.0,436.0
19:39:49.761000,-231.0,-58.0,-130.0,-594.0,566.0,-270.0,291.0,-196.0,436.0
19:39:49.765000,-218.0,-23.0,-243.0,-594.0,593.0,-286.0,300.0,-186.0,435.0
19:39:49.770000,-212.0,15.0,-344.0,-576.0,617.0,-289.0,300.0,-186.0,435.0
19:39:49.774000,-212.0,46.0,-431.0,-543.0,648.0,-295.0,300.0,-186.0,435.0
19:39:49.779000,-218.0,66.0,-507.0,-494.0,673.0,-308.0,306.0,-193.0,441.0
19:39:49.784000,-221.0,86.0,-574.0,-458.0,675.0,-320.0,306.0,-193.0,441.0
19:39:49.789000,-220.0,93.0,-644.0,-431.0,713.0,-330.0,295.0,-199.0,435.0
19:39:49.793000,-217.0,96.0,-721.0,-395.0,699.0,-335.0,295.0,-199.0,435.0
19:39:49.798000,-204.0,95.0,-788.0,-372.0,702.0,-343.0,295.0,-199.0,435.0
19:39:49.803000,-192.0,93.0,-839.0,-360.0,684.0,-342.0,289.0,-198.0,433.0
19:39:49.808000,-169.0,96.0,-868.0,-362.0,671.0,-342.0,289.0,-198.0,433.0
19:39:49.812000,-162.0,95.0,-893.0,-362.0,671.0,-342.0,285.0,-196.0,438.0
19:39:49.817000,-152.0,104.0,-910.0,-371.0,708.0,-347.0,285.0,-196.0,438.0
19:39:49.821000,-152.0,107.0,-935.0,-408.0,828.0,-352.0,285.0,-196.0,438.0
19:39:49.826000,-154.0,115.0,-947.0,-408.0,828.0,-352.0,280.0,-187.0,439.0
19:39:49.831000,-163.0,114.0,-962.0,-430.0,847.0,-352.0,280.0,-187.0,439.0
19:39:49.836000,-182.0,118.0,-974.0,-459.0,917.0,-359.0,277.0,-198.0,429.0
19:39:49.840000,-194.0,126.0,-980.0,-482.0,944.0,-369.0,277.0,-198.0,429.0
19:39:49.845000,-194.0,126.0,-980.0,-512.0,958.0,-378.0,277.0,-198.0,429.0
19:39:49.850000,-239.0,153.0,-986.0,-530.0,975.0,-392.0,268.0,-201.0,435.0
19:39:49.855000,-271.0,164.0,-987.0,-543.0,988.0,-409.0,268.0,-201.0,435.0
19:39:49.859000,-271.0,164.0,-987.0,-540.0,1027.0,-424.0,252.0,-193.0,435.0
19:39:49.864000,-295.0,179.0,-982.0,-561.0,1052.0,-436.0,252.0,-193.0,435.0
19:39:49.868000,-334.0,188.0,-989.0,-569.0,1073.0,-442.0,252.0,-193.0,435.0
19:39:49.873000,-359.0,202.0,-983.0,-558.0,987.0,-451.0,246.0,-198.0,435.0
19:39:49.878000,-378.0,202.0,-985.0,-529.0,965.0,-461.0,246.0,-198.0,435.0
19:39:49.883000,-393.0,200.0,-985.0,-463.0,910.0,-473.0,259.0,-219.0,438.0
19:39:49.887000,-393.0,196.0,-992.0,-406.0,875.0,-484.0,259.0,-219.0,438.0
19:39:49.892000,-399.0,184.0,-1012.0,-359.0,853.0,-496.0,259.0,-219.0,438.0
19:39:49.896000,-388.0,177.0,-1043.0,-330.0,855.0,-515.0,232.0,-207.0,442.0
19:39:49.902000,-386.0,170.0,-1091.0,-306.0,886.0,-526.0,232.0,-207.0,442.0
19:39:49.906000,-371.0,162.0,-1139.0,-289.0,851.0,-542.0,244.0,-216.0,447.0
19:39:49.911000,-365.0,156.0,-1192.0,-293.0,889.0,-566.0,244.0,-216.0,447.0
19:39:49.915000,-359.0,146.0,-1243.0,-323.0,898.0,-579.0,244.0,-216.0,447.0
19:39:49.920000,-360.0,136.0,-1289.0,-369.0,951.0,-599.0,240.0,-213.0,429.0
19:39:49.925000,-368.0,128.0,-1330.0,-369.0,951.0,-599.0,240.0,-213.0,429.0
19:39:49.930000,-379.0,119.0,-1368.0,-418.0,996.0,-618.0,219.0,-220.0,441.0
19:39:49.934000,-410.0,111.0,-1399.0,-483.0,1046.0,-631.0,219.0,-220.0,441.0
19:39:49.939000,-443.0,105.0,-1407.0,-540.0,1126.0,-643.0,219.0,-220.0,441.0
19:39:49.944000,-487.0,94.0,-1411.0,-594.0,1138.0,-644.0,222.0,-225.0,445.0
19:39:49.949000,-540.0,82.0,-1410.0,-637.0,1196.0,-648.0,222.0,-225.0,445.0
19:39:49.953000,-600.0,67.0,-1402.0,-653.0,1200.0,-645.0,220.0,-223.0,441.0
19:39:49.958000,-670.0,47.0,-1391.0,-653.0,1210.0,-637.0,220.0,-223.0,441.0
19:39:49.962000,-670.0,47.0,-1391.0,-621.0,1236.0,-633.0,220.0,-223.0,441.0
19:39:49.967000,-801.0,12.0,-1362.0,-578.0,1180.0,-631.0,210.0,-229.0,445.0
19:39:49.972000,-801.0,12.0,-1362.0,-547.0,1189.0,-633.0,210.0,-229.0,445.0
19:39:49.977000,-871.0,-2.0,-1348.0,-520.0,1194.0,-636.0,210.0,-246.0,448.0
19:39:49.981000,-933.0,-13.0,-1330.0,-526.0,1153.0,-633.0,210.0,-246.0,448.0
19:39:49.986000,-1001.0,-25.0,-1309.0,-547.0,1192.0,-632.0,210.0,-246.0,448.0
19:39:49.991000,-1068.0,-37.0,-1288.0,-554.0,1171.0,-635.0,198.0,-234.0,454.0
19:39:49.995000,-1125.0,-50.0,-1271.0,-563.0,1123.0,-632.0,198.0,-234.0,454.0
19:39:50.000000,-1190.0,-67.0,-1260.0,-556.0,1137.0,-631.0,174.0,-255.0,459.0
19:39:50.005000,-1244.0,-82.0,-1246.0,-542.0,1083.0,-633.0,174.0,-255.0,459.0
19:39:50.010000,-1295.0,-99.0,-1235.0,-536.0,1079.0,-630.0,181.0,-265.0,463.0
19:39:50.014000,-1356.0,-116.0,-1218.0,-522.0,1083.0,-625.0,181.0,-265.0,463.0
19:39:50.018000,-1405.0,-130.0,-1200.0,-515.0,1013.0,-617.0,181.0,-265.0,463.0
19:39:50.024000,-1460.0,-144.0,-1192.0,-508.0,1024.0,-613.0,189.0,-273.0,456.0
19:39:50.028000,-1510.0,-158.0,-1188.0,-501.0,966.0,-622.0,189.0,-273.0,456.0
19:39:50.033000,-1537.0,-168.0,-1186.0,-508.0,886.0,-636.0,180.0,-280.0,468.0
19:39:50.038000,-1577.0,-171.0,-1182.0,-508.0,886.0,-636.0,180.0,-280.0,468.0
19:39:50.042000,-1603.0,-177.0,-1183.0,-521.0,882.0,-646.0,180.0,-280.0,468.0
19:39:50.047000,-1624.0,-188.0,-1178.0,-537.0,791.0,-657.0,186.0,-280.0,474.0
19:39:50.052000,-1639.0,-196.0,-1170.0,-537.0,765.0,-676.0,186.0,-280.0,474.0
19:39:50.057000,-1638.0,-201.0,-1192.0,-531.0,733.0,-696.0,187.0,-304.0,469.0
19:39:50.061000,-1637.0,-214.0,-1245.0,-537.0,647.0,-712.0,187.0,-304.0,469.0
19:39:50.065000,-1637.0,-214.0,-1245.0,-545.0,634.0,-732.0,187.0,-304.0,469.0
19:39:50.071000,-1589.0,-237.0,-1344.0,-543.0,556.0,-749.0,175.0,-301.0,472.0
19:39:50.075000,-1589.0,-237.0,-1344.0,-529.0,511.0,-758.0,175.0,-301.0,472.0
19:39:50.080000,-1565.0,-258.0,-1363.0,-538.0,512.0,-760.0,166.0,-319.0,475.0
19:39:50.085000,-1528.0,-280.0,-1401.0,-542.0,477.0,-777.0,166.0,-319.0,475.0
19:39:50.090000,-1492.0,-283.0,-1415.0,-531.0,503.0,-790.0,171.0,-340.0,477.0
19:39:50.094000,-1470.0,-280.0,-1400.0,-543.0,486.0,-773.0,171.0,-340.0,477.0
19:39:50.098000,-1446.0,-304.0,-1397.0,-537.0,490.0,-767.0,171.0,-340.0,477.0
19:39:50.104000,-1423.0,-329.0,-1428.0,-504.0,552.0,-771.0,169.0,-345.0,481.0
19:39:50.108000,-1404.0,-347.0,-1491.0,-466.0,530.0,-764.0,169.0,-345.0,481.0
19:39:50.113000,-1398.0,-360.0,-1537.0,-415.0,565.0,-753.0,172.0,-352.0,474.0
19:39:50.118000,-1380.0,-392.0,-1557.0,-364.0,610.0,-751.0,172.0,-352.0,474.0
19:39:50.122000,-1348.0,-400.0,-1572.0,-354.0,595.0,-731.0,172.0,-352.0,474.0
19:39:50.127000,-1343.0,-413.0,-1600.0,-385.0,650.0,-695.0,157.0,-376.0,499.0
19:39:50.132000,-1344.0,-434.0,-1645.0,-412.0,615.0,-681.0,157.0,-376.0,499.0
19:39:50.137000,-1339.0,-441.0,-1673.0,-412.0,615.0,-681.0,172.0,-385.0,487.0
19:39:50.141000,-1323.0,-443.0,-1670.0,-420.0,519.0,-684.0,172.0,-385.0,487.0
19:39:50.145000,-1297.0,-431.0,-1674.0,-445.0,537.0,-697.0,172.0,-385.0,487.0
19:39:50.151000,-1264.0,-410.0,-1674.0,-509.0,555.0,-709.0,174.0,-399.0,492.0
19:39:50.155000,-1262.0,-414.0,-1638.0,-569.0,566.0,-692.0,174.0,-399.0,492.0
19:39:50.159000,-1302.0,-420.0,-1596.0,-608.0,589.0,-637.0,183.0,-411.0,502.0
19:39:50.165000,-1344.0,-452.0,-1627.0,-660.0,589.0,-637.0,183.0,-411.0,502.0
19:39:50.169000,-1366.0,-434.0,-1691.0,-683.0,695.0,-675.0,183.0,-411.0,502.0
19:39:50.174000,-1373.0,-475.0,-1673.0,-619.0,799.0,-709.0,180.0,-429.0,490.0
19:39:50.179000,-1406.0,-510.0,-1611.0,-522.0,798.0,-694.0,180.0,-429.0,490.0
19:39:50.184000,-1478.0,-520.0,-1621.0,-486.0,850.0,-688.0,189.0,-430.0,495.0
19:39:50.188000,-1478.0,-520.0,-1621.0,-504.0,935.0,-696.0,189.0,-430.0,495.0
19:39:50.192000,-1514.0,-550.0,-1664.0,-478.0,927.0,-698.0,189.0,-430.0,495.0
19:39:50.198000,-1557.0,-571.0,-1650.0,-436.0,875.0,-690.0,192.0,-444.0,484.0
19:39:50.202000,-1618.0,-571.0,-1607.0,-431.0,853.0,-690.0,192.0,-444.0,484.0
19:39:50.207000,-1675.0,-593.0,-1522.0,-424.0,796.0,-735.0,196.0,-453.0,486.0
19:39:50.212000,-1663.0,-593.0,-1474.0,-471.0,735.0,-756.0,196.0,-453.0,486.0
19:39:50.216000,-1714.0,-605.0,-1489.0,-539.0,722.0,-774.0,196.0,-453.0,486.0
19:39:50.221000,-1738.0,-592.0,-1494.0,-614.0,751.0,-807.0,195.0,-466.0,486.0
19:39:50.226000,-1732.0,-613.0,-1528.0,-675.0,699.0,-839.0,195.0,-466.0,486.0
19:39:50.231000,-1716.0,-597.0,-1488.0,-673.0,659.0,-865.0,219.0,-499.0,487.0
19:39:50.235000,-1728.0,-634.0,-1421.0,-639.0,726.0,-875.0,219.0,-499.0,487.0
19:39:50.239000,-1754.0,-623.0,-1439.0,-622.0,735.0,-877.0,219.0,-499.0,487.0
19:39:50.245000,-1741.0,-707.0,-1479.0,-596.0,716.0,-896.0,208.0,-511.0,478.0
19:39:50.249000,-1719.0,-739.0,-1477.0,-596.0,724.0,-896.0,208.0,-511.0,478.0
19:39:50.254000,-1696.0,-755.0,-1510.0,-539.0,724.0,-955.0,222.0,-526.0,472.0
19:39:50.259000,-1723.0,-756.0,-1577.0,-547.0,743.0,-972.0,222.0,-526.0,472.0
19:39:50.263000,-1727.0,-743.0,-1587.0,-584.0,761.0,-1006.0,222.0,-526.0,472.0
19:39:50.268000,-1702.0,-734.0,-1405.0,-494.0,682.0,-1037.0,232.0,-526.0,475.0
19:39:50.273000,-1657.0,-752.0,-1255.0,-356.0,533.0,-1034.0,232.0,-526.0,475.0
19:39:50.278000,-1656.0,-715.0,-1425.0,-478.0,559.0,-1063.0,244.0,-538.0,472.0
19:39:50.282000,-1578.0,-698.0,-1565.0,-644.0,691.0,-1117.0,244.0,-538.0,472.0
19:39:50.286000,-1578.0,-698.0,-1565.0,-547.0,548.0,-1112.0,244.0,-538.0,472.0
19:39:50.292000,-1530.0,-799.0,-1297.0,-440.0,238.0,-1105.0,249.0,-550.0,471.0
19:39:50.296000,-1530.0,-799.0,-1297.0,-406.0,85.0,-1080.0,249.0,-550.0,471.0
19:39:50.301000,-1563.0,-879.0,-1179.0,-275.0,62.0,-1066.0,264.0,-568.0,462.0
19:39:50.306000,-1543.0,-931.0,-1121.0,-162.0,2.0,-1129.0,264.0,-568.0,462.0
19:39:50.310000,-1444.0,-982.0,-1186.0,-100.0,0.0,-1149.0,264.0,-568.0,462.0
19:39:50.315000,-1409.0,-1007.0,-1329.0,34.0,28.0,-1087.0,258.0,-577.0,447.0
19:39:50.320000,-1314.0,-1124.0,-1306.0,230.0,-136.0,-1030.0,258.0,-577.0,447.0
19:39:50.324000,-1176.0,-1246.0,-1125.0,317.0,-302.0,-1038.0,276.0,-582.0,444.0
19:39:50.329000,-1124.0,-1234.0,-1155.0,322.0,-270.0,-1017.0,276.0,-582.0,444.0
19:39:50.333000,-994.0,-1276.0,-1315.0,572.0,-523.0,-945.0,276.0,-582.0,444.0
19:39:50.339000,-1013.0,-1250.0,-1155.0,783.0,-852.0,-861.0,294.0,-583.0,439.0
19:39:50.343000,-1094.0,-1245.0,-1003.0,731.0,-719.0,-771.0,294.0,-583.0,439.0
19:39:50.348000,-1080.0,-1278.0,-1092.0,731.0,-719.0,-771.0,312.0,-597.0,447.0
19:39:50.353000,-1024.0,-1329.0,-1308.0,491.0,-465.0,-769.0,312.0,-597.0,447.0
19:39:50.357000,-1064.0,-1337.0,-1422.0,474.0,-506.0,-751.0,312.0,-597.0,447.0
19:39:50.361000,-1090.0,-1288.0,-1467.0,474.0,-506.0,-751.0,309.0,-595.0,423.0
19:39:50.367000,-1190.0,-1299.0,-1498.0,329.0,-537.0,-719.0,309.0,-595.0,423.0
19:39:50.372000,-1413.0,-1281.0,-1409.0,329.0,-537.0,-719.0,337.0,-613.0,412.0
19:39:50.376000,-1474.0,-1200.0,-1389.0,226.0,-308.0,-813.0,337.0,-613.0,412.0
19:39:50.380000,-1491.0,-1202.0,-1566.0,-100.0,-60.0,-939.0,337.0,-613.0,412.0
19:39:50.386000,-1455.0,-1237.0,-1889.0,-439.0,168.0,-922.0,345.0,-613.0,408.0
19:39:50.390000,-1460.0,-1197.0,-1903.0,-542.0,186.0,-965.0,345.0,-613.0,408.0
19:39:50.395000,-1576.0,-1225.0,-1563.0,-372.0,-41.0,-913.0,358.0,-616.0,396.0
19:39:50.400000,-1674.0,-1168.0,-1370.0,-201.0,-274.0,-889.0,358.0,-616.0,396.0
19:39:50.404000,-1674.0,-1168.0,-1370.0,-177.0,-324.0,-947.0,358.0,-616.0,396.0
19:39:50.409000,-1724.0,-1159.0,-1379.0,-152.0,-400.0,-947.0,370.0,-609.0,397.0
19:39:50.414000,-1747.0,-1150.0,-1362.0,-105.0,-545.0,-956.0,370.0,-609.0,397.0
19:39:50.419000,-1759.0,-1154.0,-1353.0,-24.0,-609.0,-983.0,366.0,-615.0,382.0
19:39:50.423000,-1717.0,-1150.0,-1269.0,77.0,-733.0,-1016.0,366.0,-615.0,382.0
19:39:50.427000,-1700.0,-1142.0,-1092.0,125.0,-733.0,-1034.0,366.0,-615.0,382.0
19:39:50.433000,-1616.0,-1164.0,-937.0,154.0,-656.0,-1052.0,388.0,-625.0,376.0
19:39:50.437000,-1547.0,-1184.0,-802.0,51.0,-570.0,-1060.0,388.0,-625.0,376.0
19:39:50.442000,-1523.0,-1197.0,-811.0,-101.0,-498.0,-1052.0,402.0,-642.0,360.0
19:39:50.447000,-1437.0,-1318.0,-967.0,-95.0,-507.0,-1114.0,402.0,-642.0,360.0
19:39:50.451000,-1225.0,-1387.0,-986.0,-20.0,-598.0,-1113.0,402.0,-642.0,360.0
19:39:50.456000,-1206.0,-1453.0,-726.0,-91.0,-680.0,-1024.0,414.0,-639.0,342.0
19:39:50.461000,-1325.0,-1399.0,-607.0,-348.0,-596.0,-1051.0,414.0,-639.0,342.0
19:39:50.466000,-1332.0,-1358.0,-843.0,-348.0,-596.0,-1051.0,430.0,-639.0,327.0
19:39:50.470000,-1253.0,-1414.0,-1000.0,-440.0,-525.0,-1083.0,430.0,-639.0,327.0
19:39:50.474000,-1211.0,-1462.0,-935.0,-242.0,-529.0,-1075.0,430.0,-639.0,327.0
19:39:50.480000,-1300.0,-1463.0,-837.0,-56.0,-533.0,-1014.0,420.0,-628.0,322.0
19:39:50.484000,-1252.0,-1519.0,-836.0,-14.0,-467.0,-970.0,420.0,-628.0,322.0
19:39:50.488000,-1199.0,-1574.0,-949.0,-76.0,-420.0,-953.0,441.0,-630.0,312.0
19:39:50.494000,-1194.0,-1581.0,-980.0,-126.0,-501.0,-915.0,441.0,-630.0,312.0
19:39:50.498000,-1171.0,-1618.0,-861.0,-128.0,-640.0,-878.0,441.0,-630.0,312.0
19:39:50.503000,-1164.0,-1642.0,-864.0,-170.0,-709.0,-829.0,421.0,-633.0,298.0
19:39:50.508000,-1140.0,-1638.0,-980.0,-231.0,-702.0,-816.0,421.0,-633.0,298.0
19:39:50.513000,-1103.0,-1641.0,-1057.0,-269.0,-696.0,-813.0,453.0,-630.0,288.0
19:39:50.517000,-1103.0,-1641.0,-1057.0,-313.0,-679.0,-799.0,453.0,-630.0,288.0
19:39:50.521000,-1104.0,-1619.0,-1094.0,-386.0,-574.0,-800.0,453.0,-630.0,288.0
19:39:50.527000,-1062.0,-1600.0,-1199.0,-431.0,-524.0,-785.0,468.0,-621.0,274.0
19:39:50.531000,-1014.0,-1624.0,-1192.0,-446.0,-573.0,-742.0,468.0,-621.0,274.0
19:39:50.536000,-1049.0,-1639.0,-1130.0,-517.0,-545.0,-710.0,469.0,-624.0,259.0
19:39:50.541000,-1070.0,-1652.0,-1154.0,-627.0,-486.0,-710.0,469.0,-624.0,259.0
19:39:50.545000,-1062.0,-1647.0,-1231.0,-686.0,-488.0,-698.0,469.0,-624.0,259.0
19:39:50.550000,-1073.0,-1638.0,-1217.0,-653.0,-531.0,-692.0,474.0,-627.0,253.0
19:39:50.555000,-1068.0,-1617.0,-1103.0,-607.0,-512.0,-688.0,474.0,-627.0,253.0
19:39:50.559000,-1072.0,-1600.0,-1092.0,-546.0,-523.0,-673.0,481.0,-621.0,240.0
19:39:50.564000,-1061.0,-1581.0,-1052.0,-444.0,-649.0,-667.0,481.0,-621.0,240.0
19:39:50.568000,-1040.0,-1550.0,-1031.0,-497.0,-754.0,-674.0,481.0,-621.0,240.0
19:39:50.574000,-980.0,-1519.0,-1158.0,-611.0,-754.0,-649.0,492.0,-624.0,235.0
19:39:50.578000,-996.0,-1505.0,-1239.0,-611.0,-754.0,-649.0,492.0,-624.0,235.0
19:39:50.583000,-1036.0,-1500.0,-1308.0,-742.0,-681.0,-622.0,489.0,-604.0,222.0
19:39:50.588000,-1087.0,-1492.0,-1288.0,-880.0,-626.0,-631.0,489.0,-604.0,222.0
19:39:50.592000,-1017.0,-1509.0,-1145.0,-811.0,-617.0,-670.0,489.0,-604.0,222.0
19:39:50.596000,-953.0,-1512.0,-1033.0,-678.0,-645.0,-711.0,505.0,-600.0,207.0
19:39:50.602000,-904.0,-1519.0,-1058.0,-667.0,-672.0,-703.0,505.0,-600.0,207.0
19:39:50.606000,-908.0,-1509.0,-1157.0,-710.0,-646.0,-681.0,523.0,-594.0,199.0
19:39:50.611000,-858.0,-1515.0,-1152.0,-702.0,-631.0,-662.0,523.0,-594.0,199.0
19:39:50.615000,-858.0,-1515.0,-1152.0,-710.0,-670.0,-666.0,523.0,-594.0,199.0
19:39:50.621000,-800.0,-1545.0,-1042.0,-756.0,-696.0,-629.0,499.0,-588.0,198.0
19:39:50.625000,-800.0,-1545.0,-1042.0,-795.0,-645.0,-607.0,499.0,-588.0,198.0
19:39:50.630000,-756.0,-1554.0,-1066.0,-856.0,-575.0,-621.0,520.0,-582.0,177.0
19:39:50.635000,-709.0,-1545.0,-1138.0,-873.0,-563.0,-603.0,520.0,-582.0,177.0
19:39:50.639000,-675.0,-1542.0,-1165.0,-788.0,-583.0,-584.0,520.0,-582.0,177.0
19:39:50.644000,-632.0,-1537.0,-1133.0,-681.0,-609.0,-562.0,525.0,-583.0,160.0
19:39:50.648000,-590.0,-1543.0,-1076.0,-634.0,-591.0,-543.0,525.0,-583.0,160.0
19:39:50.653000,-545.0,-1523.0,-1087.0,-658.0,-596.0,-528.0,526.0,-580.0,160.0
19:39:50.658000,-509.0,-1490.0,-1092.0,-712.0,-653.0,-493.0,526.0,-580.0,160.0
19:39:50.663000,-500.0,-1472.0,-1031.0,-771.0,-490.0,-459.0,514.0,-565.0,156.0
19:39:50.668000,-520.0,-1459.0,-998.0,-868.0,-224.0,-452.0,514.0,-565.0,156.0
19:39:50.672000,-518.0,-1435.0,-1042.0,-935.0,-182.0,-448.0,514.0,-565.0,156.0
19:39:50.677000,-535.0,-1407.0,-1072.0,-898.0,-328.0,-433.0,528.0,-550.0,133.0
19:39:50.682000,-529.0,-1383.0,-1043.0,-859.0,-475.0,-427.0,528.0,-550.0,133.0
19:39:50.686000,-503.0,-1356.0,-987.0,-859.0,-475.0,-427.0,537.0,-549.0,132.0
19:39:50.690000,-448.0,-1319.0,-963.0,-947.0,-449.0,-428.0,537.0,-549.0,132.0
19:39:50.695000,-419.0,-1278.0,-952.0,-947.0,-449.0,-428.0,537.0,-549.0,132.0
19:39:50.700000,-430.0,-1249.0,-947.0,-998.0,-340.0,-393.0,519.0,-544.0,127.0
19:39:50.705000,-460.0,-1220.0,-967.0,-1011.0,-250.0,-357.0,519.0,-544.0,127.0
19:39:50.710000,-452.0,-1169.0,-979.0,-990.0,-259.0,-356.0,534.0,-547.0,117.0
19:39:50.715000,-456.0,-1131.0,-984.0,-975.0,-324.0,-356.0,534.0,-547.0,117.0
19:39:50.719000,-436.0,-1103.0,-993.0,-984.0,-359.0,-336.0,534.0,-547.0,117.0
19:39:50.724000,-398.0,-1066.0,-960.0,-975.0,-391.0,-338.0,541.0,-535.0,102.0
19:39:50.729000,-375.0,-1017.0,-886.0,-960.0,-435.0,-335.0,541.0,-535.0,102.0
19:39:50.733000,-375.0,-1017.0,-886.0,-958.0,-431.0,-318.0,526.0,-525.0,114.0
19:39:50.738000,-363.0,-985.0,-831.0,-972.0,-365.0,-308.0,526.0,-525.0,114.0
19:39:50.742000,-352.0,-959.0,-855.0,-985.0,-292.0,-299.0,526.0,-525.0,114.0
19:39:50.747000,-357.0,-931.0,-901.0,-943.0,-279.0,-294.0,535.0,-531.0,94.0
19:39:50.752000,-348.0,-903.0,-849.0,-914.0,-301.0,-294.0,535.0,-531.0,94.0
19:39:50.757000,-303.0,-883.0,-778.0,-936.0,-337.0,-290.0,546.0,-522.0,88.0
19:39:50.762000,-242.0,-868.0,-732.0,-963.0,-356.0,-283.0,546.0,-522.0,88.0
19:39:50.766000,-214.0,-843.0,-707.0,-986.0,-319.0,-277.0,546.0,-522.0,88.0
19:39:50.771000,-209.0,-798.0,-728.0,-994.0,-279.0,-273.0,546.0,-511.0,85.0
19:39:50.776000,-208.0,-756.0,-739.0,-979.0,-278.0,-265.0,546.0,-511.0,85.0
19:39:50.780000,-171.0,-744.0,-725.0,-951.0,-306.0,-265.0,538.0,-511.0,84.0
19:39:50.785000,-127.0,-732.0,-715.0,-943.0,-296.0,-263.0,538.0,-511.0,84.0
19:39:50.789000,-104.0,-704.0,-743.0,-938.0,-258.0,-255.0,538.0,-511.0,84.0
19:39:50.794000,-91.0,-680.0,-737.0,-910.0,-269.0,-248.0,537.0,-507.0,75.0
19:39:50.799000,-91.0,-659.0,-653.0,-910.0,-269.0,-248.0,537.0,-507.0,75.0
19:39:50.804000,-58.0,-645.0,-579.0,-906.0,-291.0,-251.0,541.0,-502.0,76.0
19:39:50.809000,-39.0,-633.0,-624.0,-963.0,-263.0,-249.0,541.0,-502.0,76.0
19:39:50.813000,-22.0,-628.0,-670.0,-995.0,-202.0,-241.0,541.0,-502.0,76.0
19:39:50.818000,-25.0,-615.0,-598.0,-945.0,-214.0,-237.0,543.0,-495.0,72.0
19:39:50.823000,-40.0,-602.0,-527.0,-911.0,-223.0,-226.0,543.0,-495.0,72.0
19:39:50.827000,-49.0,-592.0,-546.0,-953.0,-125.0,-219.0,546.0,-495.0,69.0
19:39:50.832000,-70.0,-583.0,-578.0,-990.0,-68.0,-210.0,546.0,-495.0,69.0
19:39:50.836000,-70.0,-583.0,-578.0,-956.0,-100.0,-203.0,546.0,-495.0,69.0
19:39:50.841000,-101.0,-559.0,-487.0,-924.0,-129.0,-198.0,541.0,-496.0,64.0
19:39:50.846000,-101.0,-559.0,-487.0,-935.0,-118.0,-193.0,541.0,-496.0,64.0
19:39:50.851000,-110.0,-544.0,-457.0,-952.0,-111.0,-191.0,549.0,-484.0,64.0
19:39:50.856000,-102.0,-533.0,-457.0,-963.0,-137.0,-185.0,549.0,-484.0,64.0
19:39:50.860000,-88.0,-522.0,-468.0,-967.0,-161.0,-179.0,549.0,-484.0,64.0
19:39:50.865000,-84.0,-506.0,-477.0,-970.0,-172.0,-174.0,547.0,-492.0,52.0
19:39:50.870000,-80.0,-494.0,-446.0,-968.0,-190.0,-173.0,547.0,-492.0,52.0
19:39:50.874000,-77.0,-485.0,-368.0,-987.0,-185.0,-174.0,558.0,-495.0,51.0
19:39:50.879000,-79.0,-472.0,-327.0,-1020.0,-146.0,-173.0,558.0,-495.0,51.0
19:39:50.883000,-81.0,-458.0,-343.0,-1028.0,-148.0,-173.0,558.0,-495.0,51.0
19:39:50.888000,-82.0,-440.0,-347.0,-1015.0,-188.0,-175.0,549.0,-486.0,51.0
19:39:50.893000,-80.0,-432.0,-322.0,-994.0,-213.0,-166.0,549.0,-486.0,51.0
19:39:50.898000,-84.0,-431.0,-304.0,-994.0,-213.0,-166.0,552.0,-484.0,48.0
19:39:50.903000,-71.0,-429.0,-292.0,-910.0,-184.0,-164.0,552.0,-484.0,48.0
19:39:50.907000,-60.0,-440.0,-260.0,-910.0,-184.0,-164.0,552.0,-484.0,48.0
19:39:50.912000,-63.0,-434.0,-233.0,-888.0,-162.0,-164.0,534.0,-484.0,54.0
19:39:50.917000,-79.0,-425.0,-263.0,-908.0,-136.0,-165.0,534.0,-484.0,54.0
19:39:50.921000,-95.0,-418.0,-305.0,-955.0,-119.0,-165.0,534.0,-472.0,40.0
19:39:50.926000,-107.0,-412.0,-324.0,-980.0,-121.0,-168.0,534.0,-472.0,40.0
19:39:50.930000,-118.0,-401.0,-304.0,-976.0,-137.0,-172.0,534.0,-472.0,40.0
19:39:50.935000,-136.0,-383.0,-285.0,-973.0,-139.0,-175.0,549.0,-477.0,43.0
19:39:50.940000,-167.0,-360.0,-259.0,-970.0,-113.0,-171.0,549.0,-477.0,43.0
19:39:50.945000,-184.0,-340.0,-247.0,-967.0,-80.0,-168.0,546.0,-480.0,36.0
19:39:50.950000,-191.0,-316.0,-260.0,-975.0,-66.0,-175.0,546.0,-480.0,36.0
19:39:50.954000,-191.0,-316.0,-260.0,-986.0,-92.0,-177.0,546.0,-480.0,36.0
19:39:50.959000,-195.0,-299.0,-273.0,-988.0,-135.0,-182.0,543.0,-471.0,40.0
19:39:50.964000,-189.0,-277.0,-277.0,-990.0,-178.0,-195.0,543.0,-471.0,40.0
19:39:50.968000,-176.0,-250.0,-252.0,-1001.0,-209.0,-206.0,555.0,-471.0,33.0
19:39:50.973000,-152.0,-229.0,-211.0,-1015.0,-210.0,-214.0,555.0,-471.0,33.0
19:39:50.977000,-129.0,-212.0,-201.0,-1011.0,-193.0,-216.0,555.0,-471.0,33.0
19:39:50.982000,-99.0,-204.0,-207.0,-987.0,-180.0,-216.0,547.0,-472.0,37.0
19:39:50.987000,-72.0,-200.0,-204.0,-970.0,-169.0,-215.0,547.0,-472.0,37.0
19:39:50.991000,-56.0,-198.0,-207.0,-957.0,-163.0,-216.0,556.0,-466.0,36.0
19:39:50.997000,-37.0,-197.0,-182.0,-942.0,-164.0,-217.0,556.0,-466.0,36.0
19:39:51.001000,-23.0,-204.0,-125.0,-935.0,-157.0,-215.0,556.0,-466.0,36.0
19:39:51.006000,-9.0,-209.0,-78.0,-938.0,-131.0,-213.0,541.0,-471.0,33.0
19:39:51.011000,-4.0,-208.0,-65.0,-932.0,-107.0,-212.0,541.0,-471.0,33.0
19:39:51.015000,-9.0,-207.0,-57.0,-932.0,-107.0,-212.0,547.0,-469.0,37.0
19:39:51.020000,-22.0,-207.0,-42.0,-926.0,-98.0,-208.0,547.0,-469.0,37.0
19:39:51.024000,-37.0,-205.0,-10.0,-933.0,-98.0,-207.0,547.0,-469.0,37.0
19:39:51.029000,-66.0,-203.0,12.0,-944.0,-90.0,-206.0,544.0,-474.0,33.0
19:39:51.034000,-95.0,-200.0,7.0,-985.0,-11.0,-202.0,544.0,-474.0,33.0
19:39:51.039000,-130.0,-189.0,-16.0,-985.0,-11.0,-202.0,535.0,-466.0,42.0
19:39:51.044000,-161.0,-186.0,-16.0,-994.0,-5.0,-199.0,535.0,-466.0,42.0
19:39:51.048000,-187.0,-183.0,11.0,-993.0,-28.0,-196.0,558.0,-472.0,37.0
19:39:51.053000,-214.0,-175.0,19.0,-1003.0,-49.0,-198.0,558.0,-472.0,37.0
19:39:51.057000,-214.0,-175.0,19.0,-1012.0,-55.0,-192.0,558.0,-472.0,37.0
19:39:51.062000,-239.0,-172.0,18.0,-992.0,-65.0,-186.0,553.0,-469.0,27.0
19:39:51.067000,-254.0,-176.0,28.0,-960.0,-87.0,-183.0,553.0,-469.0,27.0
19:39:51.072000,-266.0,-178.0,30.0,-939.0,-110.0,-179.0,553.0,-472.0,21.0
19:39:51.076000,-273.0,-180.0,30.0,-935.0,-127.0,-181.0,553.0,-472.0,21.0
19:39:51.081000,-270.0,-179.0,36.0,-951.0,-124.0,-183.0,553.0,-472.0,21.0
19:39:51.086000,-266.0,-175.0,47.0,-973.0,-102.0,-178.0,547.0,-472.0,25.0
19:39:51.091000,-278.0,-167.0,58.0,-993.0,-67.0,-172.0,547.0,-472.0,25.0
19:39:51.095000,-293.0,-154.0,61.0,-1008.0,-35.0,-169.0,543.0,-469.0,21.0
19:39:51.100000,-310.0,-144.0,72.0,-1022.0,-23.0,-167.0,543.0,-469.0,21.0
19:39:51.104000,-322.0,-135.0,91.0,-1039.0,-28.0,-165.0,543.0,-469.0,21.0
19:39:51.109000,-332.0,-130.0,100.0,-1052.0,-46.0,-163.0,558.0,-469.0,16.0
19:39:51.114000,-342.0,-127.0,112.0,-1059.0,-69.0,-163.0,558.0,-469.0,16.0
19:39:51.119000,-343.0,-124.0,133.0,-1059.0,-69.0,-163.0,559.0,-471.0,21.0
19:39:51.123000,-340.0,-129.0,158.0,-1059.0,-100.0,-154.0,559.0,-471.0,21.0
19:39:51.128000,-339.0,-137.0,168.0,-1059.0,-100.0,-154.0,559.0,-471.0,21.0
19:39:51.133000,-338.0,-146.0,190.0,-1040.0,-109.0,-150.0,540.0,-468.0,24.0
19:39:51.138000,-340.0,-157.0,233.0,-1011.0,-115.0,-147.0,540.0,-468.0,24.0
19:39:51.142000,-354.0,-167.0,245.0,-997.0,-102.0,-141.0,547.0,-471.0,9.0
19:39:51.147000,-375.0,-183.0,223.0,-997.0,-58.0,-131.0,547.0,-471.0,9.0
19:39:51.151000,-400.0,-198.0,206.0,-987.0,-18.0,-119.0,547.0,-471.0,9.0
19:39:51.156000,-432.0,-210.0,199.0,-970.0,0.0,-107.0,549.0,-475.0,19.0
19:39:51.161000,-471.0,-219.0,203.0,-973.0,15.0,-91.0,549.0,-475.0,19.0
19:39:51.166000,-520.0,-228.0,212.0,-993.0,17.0,-72.0,562.0,-465.0,19.0
19:39:51.170000,-568.0,-240.0,214.0,-1007.0,20.0,-52.0,562.0,-465.0,19.0
19:39:51.175000,-568.0,-240.0,214.0,-1004.0,21.0,-36.0,562.0,-465.0,19.0
19:39:51.180000,-611.0,-256.0,216.0,-993.0,15.0,-22.0,544.0,-468.0,9.0
19:39:51.185000,-654.0,-272.0,219.0,-989.0,7.0,-11.0,544.0,-468.0,9.0
19:39:51.189000,-701.0,-286.0,218.0,-996.0,11.0,0.0,540.0,-463.0,12.0
19:39:51.194000,-743.0,-305.0,200.0,-1004.0,19.0,14.0,540.0,-463.0,12.0
19:39:51.198000,-783.0,-331.0,184.0,-1008.0,22.0,25.0,540.0,-463.0,12.0
19:39:51.203000,-830.0,-357.0,160.0,-1013.0,43.0,34.0,544.0,-462.0,-6.0
19:39:51.208000,-884.0,-384.0,105.0,-994.0,59.0,46.0,544.0,-462.0,-6.0
19:39:51.213000,-934.0,-419.0,100.0,-964.0,59.0,53.0,555.0,-456.0,-3.0
19:39:51.217000,-996.0,-451.0,126.0,-962.0,84.0,64.0,555.0,-456.0,-3.0
19:39:51.222000,-1066.0,-487.0,116.0,-967.0,103.0,75.0,555.0,-456.0,-3.0
19:39:51.227000,-1136.0,-528.0,114.0,-972.0,112.0,83.0,552.0,-456.0,12.0
19:39:51.232000,-1206.0,-564.0,89.0,-983.0,148.0,95.0,552.0,-456.0,12.0
19:39:51.236000,-1275.0,-605.0,48.0,-983.0,148.0,95.0,546.0,-456.0,-9.0
19:39:51.241000,-1355.0,-651.0,30.0,-982.0,181.0,113.0,546.0,-456.0,-9.0
19:39:51.245000,-1460.0,-693.0,6.0,-976.0,211.0,137.0,546.0,-456.0,-9.0
19:39:51.250000,-1563.0,-742.0,-18.0,-970.0,245.0,160.0,546.0,-454.0,-15.0
19:39:51.255000,-1672.0,-794.0,-14.0,-953.0,255.0,181.0,546.0,-454.0,-15.0
19:39:51.260000,-1785.0,-857.0,-29.0,-948.0,275.0,209.0,543.0,-438.0,-28.0
19:39:51.264000,-1887.0,-920.0,-47.0,-956.0,310.0,237.0,543.0,-438.0,-28.0
19:39:51.269000,-1887.0,-920.0,-47.0,-959.0,310.0,266.0,543.0,-438.0,-28.0
19:39:51.274000,-2118.0,-1061.0,-68.0,-942.0,297.0,297.0,520.0,-433.0,-33.0
19:39:51.279000,-2223.0,-1144.0,-108.0,-915.0,292.0,319.0,520.0,-433.0,-33.0
19:39:51.283000,-2223.0,-1144.0,-108.0,-884.0,287.0,341.0,532.0,-427.0,-33.0
19:39:51.288000,-2330.0,-1234.0,-139.0,-861.0,307.0,369.0,532.0,-427.0,-33.0
19:39:51.292000,-2452.0,-1320.0,-189.0,-849.0,348.0,403.0,532.0,-427.0,-33.0
19:39:51.297000,-2579.0,-1410.0,-238.0,-821.0,359.0,446.0,522.0,-418.0,-45.0
19:39:51.302000,-2708.0,-1514.0,-231.0,-788.0,348.0,490.0,522.0,-418.0,-45.0
19:39:51.306000,-2856.0,-1607.0,-216.0,-783.0,349.0,529.0,523.0,-405.0,-54.0
19:39:51.311000,-2995.0,-1703.0,-247.0,-782.0,357.0,573.0,523.0,-405.0,-54.0
19:39:51.316000,-3142.0,-1792.0,-299.0,-750.0,365.0,630.0,523.0,-405.0,-54.0
19:39:51.321000,-3286.0,-1890.0,-342.0,-708.0,382.0,686.0,495.0,-390.0,-39.0
19:39:51.326000,-3426.0,-1979.0,-389.0,-692.0,391.0,739.0,495.0,-390.0,-39.0
19:39:51.330000,-3558.0,-2067.0,-446.0,-708.0,386.0,793.0,499.0,-357.0,-63.0
19:39:51.335000,-3682.0,-2149.0,-506.0,-731.0,368.0,845.0,499.0,-357.0,-63.0
19:39:51.339000,-3796.0,-2228.0,-542.0,-745.0,350.0,890.0,499.0,-357.0,-63.0
19:39:51.344000,-3901.0,-2284.0,-557.0,-745.0,350.0,890.0,483.0,-343.0,-72.0
19:39:51.348000,-4022.0,-2331.0,-604.0,-809.0,371.0,994.0,483.0,-343.0,-72.0
19:39:51.354000,-4116.0,-2380.0,-679.0,-809.0,371.0,994.0,483.0,-316.0,-64.0
19:39:51.358000,-4195.0,-2415.0,-775.0,-839.0,370.0,1042.0,483.0,-316.0,-64.0
19:39:51.363000,-4263.0,-2451.0,-821.0,-847.0,330.0,1092.0,463.0,-295.0,-82.0
19:39:51.368000,-4323.0,-2480.0,-820.0,-840.0,263.0,1138.0,463.0,-295.0,-82.0
19:39:51.372000,-4344.0,-2496.0,-841.0,-848.0,229.0,1167.0,463.0,-295.0,-82.0
19:39:51.377000,-4356.0,-2501.0,-861.0,-875.0,206.0,1182.0,451.0,-273.0,-84.0
19:39:51.382000,-4363.0,-2506.0,-926.0,-919.0,188.0,1198.0,451.0,-273.0,-84.0
19:39:51.387000,-4347.0,-2513.0,-985.0,-952.0,196.0,1208.0,441.0,-250.0,-78.0
19:39:51.391000,-4347.0,-2513.0,-985.0,-945.0,181.0,1207.0,441.0,-250.0,-78.0
19:39:51.395000,-4318.0,-2510.0,-973.0,-924.0,134.0,1209.0,441.0,-250.0,-78.0
19:39:51.401000,-4296.0,-2508.0,-924.0,-929.0,134.0,1210.0,418.0,-192.0,-69.0
19:39:51.405000,-4272.0,-2494.0,-936.0,-938.0,176.0,1200.0,418.0,-192.0,-69.0
19:39:51.410000,-4237.0,-2468.0,-982.0,-922.0,196.0,1202.0,400.0,-172.0,-45.0
19:39:51.415000,-4203.0,-2450.0,-985.0,-903.0,225.0,1199.0,400.0,-172.0,-45.0
19:39:51.419000,-4165.0,-2419.0,-988.0,-920.0,281.0,1189.0,400.0,-172.0,-45.0
19:39:51.424000,-4130.0,-2374.0,-1041.0,-947.0,311.0,1184.0,381.0,-145.0,-42.0
19:39:51.429000,-4083.0,-2338.0,-1054.0,-954.0,290.0,1174.0,381.0,-145.0,-42.0
19:39:51.434000,-4020.0,-2311.0,-1026.0,-968.0,280.0,1144.0,363.0,-130.0,-4.0
19:39:51.438000,-3950.0,-2264.0,-1053.0,-993.0,270.0,1117.0,363.0,-130.0,-4.0
19:39:51.442000,-3896.0,-2209.0,-1074.0,-1012.0,246.0,1091.0,363.0,-130.0,-4.0
19:39:51.448000,-3808.0,-2164.0,-1067.0,-1026.0,253.0,1057.0,349.0,-99.0,-15.0
19:39:51.452000,-3705.0,-2122.0,-1064.0,-1026.0,247.0,1030.0,349.0,-99.0,-15.0
19:39:51.457000,-3610.0,-2072.0,-1028.0,-1016.0,247.0,1030.0,334.0,-94.0,7.0
19:39:51.462000,-3525.0,-2014.0,-954.0,-968.0,211.0,1000.0,334.0,-94.0,7.0
19:39:51.466000,-3439.0,-1955.0,-858.0,-911.0,184.0,968.0,334.0,-94.0,7.0
19:39:51.471000,-3341.0,-1892.0,-771.0,-886.0,184.0,928.0,312.0,-64.0,48.0
19:39:51.476000,-3243.0,-1822.0,-768.0,-918.0,245.0,878.0,312.0,-64.0,48.0
19:39:51.481000,-3150.0,-1750.0,-812.0,-961.0,356.0,831.0,295.0,-46.0,60.0
19:39:51.485000,-3074.0,-1677.0,-769.0,-942.0,404.0,793.0,295.0,-46.0,60.0
19:39:51.489000,-3074.0,-1677.0,-769.0,-874.0,361.0,761.0,295.0,-46.0,60.0
19:39:51.495000,-2929.0,-1579.0,-488.0,-841.0,328.0,736.0,292.0,-46.0,76.0
19:39:51.499000,-2929.0,-1579.0,-488.0,-867.0,376.0,692.0,292.0,-46.0,76.0
19:39:51.504000,-2837.0,-1516.0,-501.0,-886.0,444.0,643.0,288.0,-31.0,94.0
19:39:51.509000,-2744.0,-1449.0,-571.0,-848.0,468.0,609.0,288.0,-31.0,94.0
19:39:51.513000,-2647.0,-1397.0,-602.0,-770.0,453.0,580.0,288.0,-31.0,94.0
19:39:51.518000,-2555.0,-1359.0,-557.0,-713.0,434.0,557.0,283.0,-30.0,105.0
19:39:51.523000,-2468.0,-1327.0,-503.0,-700.0,451.0,528.0,283.0,-30.0,105.0
19:39:51.528000,-2375.0,-1294.0,-490.0,-701.0,470.0,501.0,268.0,-18.0,127.0
19:39:51.532000,-2279.0,-1263.0,-501.0,-685.0,467.0,477.0,268.0,-18.0,127.0
19:39:51.536000,-2179.0,-1235.0,-503.0,-649.0,455.0,452.0,268.0,-18.0,127.0
19:39:51.542000,-2078.0,-1205.0,-497.0,-609.0,447.0,438.0,262.0,-15.0,151.0
19:39:51.546000,-1988.0,-1184.0,-492.0,-577.0,466.0,431.0,262.0,-15.0,151.0
19:39:51.551000,-1913.0,-1161.0,-501.0,-577.0,466.0,431.0,252.0,-9.0,157.0
19:39:51.556000,-1843.0,-1130.0,-503.0,-543.0,546.0,394.0,252.0,-9.0,157.0
19:39:51.560000,-1779.0,-1097.0,-478.0,-545.0,579.0,384.0,252.0,-9.0,157.0
19:39:51.565000,-1736.0,-1072.0,-451.0,-545.0,579.0,384.0,262.0,-3.0,178.0
19:39:51.570000,-1701.0,-1042.0,-423.0,-554.0,627.0,378.0,262.0,-3.0,178.0
19:39:51.575000,-1674.0,-1005.0,-403.0,-561.0,683.0,367.0,247.0,-6.0,180.0
19:39:51.579000,-1663.0,-970.0,-385.0,-564.0,732.0,366.0,247.0,-6.0,180.0
19:39:51.583000,-1653.0,-940.0,-363.0,-561.0,766.0,365.0,247.0,-6.0,180.0
19:39:51.589000,-1641.0,-906.0,-354.0,-562.0,786.0,354.0,250.0,3.0,190.0
19:39:51.593000,-1629.0,-875.0,-351.0,-565.0,782.0,344.0,250.0,3.0,190.0
19:39:51.598000,-1607.0,-851.0,-343.0,-555.0,750.0,339.0,253.0,3.0,205.0
19:39:51.603000,-1577.0,-828.0,-327.0,-531.0,706.0,328.0,253.0,3.0,205.0
19:39:51.607000,-1577.0,-828.0,-327.0,-502.0,664.0,308.0,253.0,3.0,205.0
19:39:51.612000,-1537.0,-800.0,-310.0,-482.0,631.0,283.0,241.0,3.0,226.0
19:39:51.617000,-1493.0,-767.0,-303.0,-482.0,614.0,262.0,241.0,3.0,226.0
19:39:51.622000,-1444.0,-732.0,-315.0,-498.0,615.0,248.0,240.0,9.0,238.0
19:39:51.626000,-1401.0,-700.0,-326.0,-511.0,630.0,232.0,240.0,9.0,238.0
19:39:51.630000,-1358.0,-665.0,-329.0,-521.0,648.0,215.0,240.0,9.0,238.0
19:39:51.636000,-1328.0,-625.0,-324.0,-537.0,677.0,200.0,246.0,-1.0,247.0
19:39:51.640000,-1300.0,-585.0,-343.0,-552.0,711.0,182.0,246.0,-1.0,247.0
19:39:51.645000,-1271.0,-549.0,-373.0,-549.0,722.0,167.0,240.0,9.0,256.0
19:39:51.650000,-1246.0,-513.0,-385.0,-539.0,710.0,152.0,240.0,9.0,256.0
19:39:51.654000,-1222.0,-478.0,-378.0,-535.0,687.0,144.0,240.0,9.0,256.0
19:39:51.659000,-1192.0,-452.0,-366.0,-526.0,659.0,133.0,232.0,-4.0,282.0
19:39:51.664000,-1146.0,-431.0,-359.0,-505.0,633.0,123.0,232.0,-4.0,282.0
