hh:mm:ss.ms,gyroX[mdps],gyroY[mdps],gyroZ[mdps],accX[mg],accY[mg],accZ[mg],magX[mG],magY[mG],magZ[mG]
19:41:20.582000,-2587.0,-499.0,0.0,-401.0,-301.0,-354.0,286.0,-504.0,549.0
19:41:20.587000,-2592.0,-494.0,-154.0,-330.0,-362.0,-347.0,286.0,-504.0,549.0
19:41:20.592000,-2601.0,-482.0,-233.0,-330.0,-362.0,-347.0,307.0,-525.0,517.0
19:41:20.596000,-2602.0,-477.0,-183.0,-173.0,-424.0,-347.0,307.0,-525.0,517.0
19:41:20.601000,-2615.0,-475.0,-116.0,-222.0,-523.0,-350.0,307.0,-525.0,517.0
19:41:20.606000,-2626.0,-457.0,0.0,-241.0,-572.0,-369.0,310.0,-529.0,519.0
19:41:20.611000,-2632.0,-448.0,114.0,-225.0,-596.0,-381.0,310.0,-529.0,519.0
19:41:20.615000,-2611.0,-437.0,196.0,-248.0,-589.0,-403.0,304.0,-558.0,495.0
19:41:20.620000,-2591.0,-427.0,295.0,-238.0,-619.0,-422.0,304.0,-558.0,495.0
19:41:20.624000,-2591.0,-427.0,295.0,-199.0,-687.0,-414.0,304.0,-558.0,495.0
19:41:20.629000,-2459.0,-434.0,399.0,-175.0,-692.0,-466.0,312.0,-576.0,505.0
19:41:20.634000,-2504.0,-436.0,398.0,-157.0,-685.0,-444.0,312.0,-576.0,505.0
19:41:20.639000,-2504.0,-436.0,398.0,-42.0,-735.0,-412.0,309.0,-585.0,483.0
19:41:20.643000,-2439.0,-467.0,505.0,63.0,-755.0,-451.0,309.0,-585.0,483.0
19:41:20.648000,-2379.0,-485.0,611.0,93.0,-727.0,-441.0,309.0,-585.0,483.0
19:41:20.653000,-2353.0,-508.0,686.0,142.0,-685.0,-410.0,309.0,-618.0,454.0
19:41:20.658000,-2355.0,-520.0,756.0,192.0,-623.0,-389.0,309.0,-618.0,454.0
19:41:20.662000,-2318.0,-567.0,828.0,212.0,-573.0,-387.0,297.0,-630.0,441.0
19:41:20.667000,-2313.0,-588.0,895.0,225.0,-568.0,-358.0,297.0,-630.0,441.0
19:41:20.671000,-2300.0,-630.0,970.0,238.0,-601.0,-332.0,297.0,-630.0,441.0
19:41:20.676000,-2285.0,-654.0,1057.0,261.0,-653.0,-316.0,297.0,-633.0,436.0
19:41:20.681000,-2263.0,-688.0,1166.0,288.0,-692.0,-300.0,297.0,-633.0,436.0
19:41:20.686000,-2251.0,-709.0,1288.0,288.0,-689.0,-300.0,286.0,-651.0,426.0
19:41:20.690000,-2239.0,-730.0,1387.0,281.0,-654.0,-264.0,286.0,-651.0,426.0
19:41:20.695000,-2226.0,-744.0,1476.0,283.0,-629.0,-249.0,286.0,-651.0,426.0
19:41:20.700000,-2219.0,-752.0,1574.0,283.0,-629.0,-249.0,297.0,-648.0,402.0
19:41:20.704000,-2201.0,-765.0,1678.0,299.0,-705.0,-216.0,297.0,-648.0,402.0
19:41:20.709000,-2186.0,-779.0,1799.0,299.0,-705.0,-216.0,271.0,-663.0,397.0
19:41:20.714000,-2161.0,-793.0,1922.0,328.0,-736.0,-208.0,271.0,-663.0,397.0
19:41:20.719000,-2155.0,-798.0,2057.0,319.0,-746.0,-183.0,277.0,-669.0,379.0
19:41:20.723000,-2130.0,-812.0,2186.0,305.0,-805.0,-152.0,277.0,-669.0,379.0
19:41:20.727000,-2109.0,-825.0,2317.0,337.0,-866.0,-135.0,277.0,-669.0,379.0
19:41:20.733000,-2086.0,-828.0,2431.0,349.0,-898.0,-116.0,250.0,-673.0,360.0
19:41:20.737000,-2069.0,-830.0,2513.0,342.0,-877.0,-93.0,250.0,-673.0,360.0
19:41:20.742000,-2038.0,-826.0,2605.0,367.0,-868.0,-70.0,241.0,-684.0,343.0
19:41:20.747000,-2038.0,-826.0,2605.0,401.0,-925.0,-60.0,241.0,-684.0,343.0
19:41:20.751000,-1997.0,-820.0,2691.0,422.0,-964.0,-42.0,241.0,-684.0,343.0
19:41:20.756000,-1953.0,-816.0,2749.0,400.0,-962.0,-33.0,223.0,-688.0,333.0
19:41:20.761000,-1895.0,-808.0,2771.0,375.0,-972.0,-27.0,223.0,-688.0,333.0
19:41:20.766000,-1852.0,-797.0,2735.0,310.0,-961.0,-1.0,216.0,-685.0,328.0
19:41:20.770000,-1822.0,-789.0,2719.0,270.0,-890.0,30.0,216.0,-685.0,328.0
19:41:20.774000,-1821.0,-773.0,2783.0,311.0,-852.0,41.0,216.0,-685.0,328.0
19:41:20.780000,-1813.0,-758.0,2922.0,347.0,-894.0,39.0,202.0,-682.0,313.0
19:41:20.784000,-1795.0,-751.0,3040.0,383.0,-950.0,38.0,202.0,-682.0,313.0
19:41:20.789000,-1787.0,-744.0,3084.0,388.0,-970.0,36.0,187.0,-678.0,304.0
19:41:20.794000,-1760.0,-738.0,3070.0,392.0,-933.0,32.0,187.0,-678.0,304.0
19:41:20.798000,-1710.0,-745.0,3004.0,407.0,-860.0,53.0,187.0,-678.0,304.0
19:41:20.803000,-1695.0,-750.0,2943.0,445.0,-828.0,85.0,169.0,-673.0,301.0
19:41:20.808000,-1671.0,-760.0,2914.0,445.0,-828.0,85.0,169.0,-673.0,301.0
19:41:20.813000,-1633.0,-763.0,2879.0,504.0,-764.0,75.0,151.0,-673.0,286.0
19:41:20.817000,-1604.0,-777.0,2857.0,495.0,-824.0,100.0,151.0,-673.0,286.0
19:41:20.821000,-1558.0,-786.0,2825.0,495.0,-826.0,131.0,151.0,-673.0,286.0
19:41:20.827000,-1534.0,-788.0,2792.0,533.0,-744.0,134.0,153.0,-675.0,280.0
19:41:20.831000,-1512.0,-782.0,2808.0,555.0,-800.0,160.0,153.0,-675.0,280.0
19:41:20.836000,-1498.0,-780.0,2854.0,551.0,-797.0,187.0,144.0,-660.0,283.0
19:41:20.841000,-1472.0,-767.0,2923.0,599.0,-746.0,137.0,144.0,-660.0,283.0
19:41:20.845000,-1472.0,-767.0,2923.0,603.0,-793.0,158.0,144.0,-660.0,283.0
19:41:20.850000,-1407.0,-779.0,3047.0,513.0,-860.0,220.0,123.0,-654.0,273.0
19:41:20.855000,-1407.0,-779.0,3047.0,488.0,-800.0,232.0,123.0,-654.0,273.0
19:41:20.860000,-1404.0,-763.0,3119.0,532.0,-748.0,280.0,120.0,-646.0,271.0
19:41:20.864000,-1379.0,-758.0,3176.0,633.0,-758.0,270.0,120.0,-646.0,271.0
19:41:20.868000,-1350.0,-735.0,3222.0,760.0,-783.0,250.0,120.0,-646.0,271.0
19:41:20.874000,-1295.0,-722.0,3235.0,870.0,-818.0,254.0,99.0,-630.0,262.0
19:41:20.878000,-1254.0,-718.0,3192.0,927.0,-778.0,266.0,99.0,-630.0,262.0
19:41:20.883000,-1232.0,-713.0,3133.0,944.0,-689.0,285.0,87.0,-627.0,273.0
19:41:20.888000,-1210.0,-707.0,3140.0,950.0,-710.0,311.0,87.0,-627.0,273.0
19:41:20.892000,-1208.0,-719.0,3207.0,935.0,-730.0,333.0,87.0,-627.0,273.0
19:41:20.897000,-1210.0,-729.0,3249.0,937.0,-679.0,344.0,75.0,-616.0,262.0
19:41:20.902000,-1209.0,-733.0,3241.0,1006.0,-649.0,368.0,75.0,-616.0,262.0
19:41:20.907000,-1213.0,-747.0,3251.0,1006.0,-649.0,368.0,84.0,-613.0,262.0
19:41:20.911000,-1220.0,-765.0,3275.0,1182.0,-589.0,431.0,84.0,-613.0,262.0
19:41:20.915000,-1232.0,-774.0,3303.0,1182.0,-570.0,471.0,84.0,-613.0,262.0
19:41:20.921000,-1251.0,-788.0,3311.0,1320.0,-592.0,494.0,70.0,-591.0,262.0
19:41:20.925000,-1255.0,-802.0,3301.0,1320.0,-592.0,494.0,70.0,-591.0,262.0
19:41:20.930000,-1247.0,-816.0,3273.0,1395.0,-604.0,519.0,49.0,-592.0,274.0
19:41:20.935000,-1245.0,-804.0,3222.0,1470.0,-612.0,535.0,49.0,-592.0,274.0
19:41:20.939000,-1225.0,-784.0,3122.0,1493.0,-615.0,518.0,49.0,-592.0,274.0
19:41:20.944000,-1227.0,-749.0,3018.0,1472.0,-593.0,515.0,52.0,-576.0,262.0
19:41:20.949000,-1210.0,-735.0,2954.0,1490.0,-540.0,507.0,52.0,-576.0,262.0
19:41:20.954000,-1224.0,-721.0,2918.0,1507.0,-536.0,521.0,46.0,-561.0,258.0
19:41:20.958000,-1183.0,-714.0,2871.0,1523.0,-532.0,521.0,46.0,-561.0,258.0
19:41:20.962000,-1183.0,-714.0,2871.0,1572.0,-521.0,509.0,46.0,-561.0,258.0
19:41:20.968000,-1160.0,-709.0,2827.0,1634.0,-576.0,524.0,45.0,-555.0,261.0
19:41:20.972000,-1125.0,-722.0,2832.0,1667.0,-575.0,539.0,45.0,-555.0,261.0
19:41:20.977000,-1107.0,-735.0,2849.0,1656.0,-504.0,563.0,52.0,-559.0,256.0
19:41:20.982000,-1108.0,-743.0,2795.0,1608.0,-407.0,561.0,52.0,-559.0,256.0
19:41:20.986000,-1072.0,-751.0,2683.0,1593.0,-352.0,547.0,52.0,-559.0,256.0
19:41:20.991000,-1075.0,-746.0,2661.0,1648.0,-375.0,537.0,40.0,-544.0,253.0
19:41:20.996000,-1071.0,-742.0,2747.0,1682.0,-375.0,529.0,40.0,-544.0,253.0
19:41:21.001000,-1053.0,-748.0,2842.0,1684.0,-368.0,524.0,42.0,-538.0,253.0
19:41:21.005000,-1047.0,-725.0,2880.0,1662.0,-335.0,511.0,42.0,-538.0,253.0
19:41:21.009000,-998.0,-728.0,2840.0,1595.0,-262.0,504.0,42.0,-538.0,253.0
19:41:21.015000,-996.0,-700.0,2763.0,1586.0,-215.0,502.0,18.0,-535.0,267.0
19:41:21.019000,-987.0,-681.0,2751.0,1600.0,-190.0,508.0,18.0,-535.0,267.0
19:41:21.024000,-938.0,-689.0,2760.0,1600.0,-190.0,508.0,25.0,-526.0,267.0
19:41:21.029000,-959.0,-636.0,2760.0,1575.0,-143.0,505.0,25.0,-526.0,267.0
19:41:21.033000,-959.0,-619.0,2779.0,1614.0,-121.0,509.0,25.0,-526.0,267.0
19:41:21.038000,-942.0,-589.0,2798.0,1687.0,-150.0,518.0,28.0,-511.0,253.0
19:41:21.043000,-936.0,-555.0,2800.0,1743.0,-164.0,508.0,28.0,-511.0,253.0
19:41:21.047000,-923.0,-526.0,2801.0,1783.0,-154.0,497.0,18.0,-510.0,265.0
19:41:21.052000,-919.0,-509.0,2844.0,1834.0,-153.0,493.0,18.0,-510.0,265.0
19:41:21.057000,-929.0,-506.0,2913.0,1882.0,-177.0,486.0,22.0,-498.0,262.0
19:41:21.062000,-918.0,-489.0,2957.0,1880.0,-166.0,463.0,22.0,-498.0,262.0
19:41:21.066000,-918.0,-489.0,2957.0,1862.0,-136.0,443.0,22.0,-498.0,262.0
19:41:21.071000,-910.0,-465.0,3035.0,1860.0,-132.0,431.0,9.0,-492.0,264.0
19:41:21.076000,-910.0,-465.0,3035.0,1870.0,-135.0,422.0,9.0,-492.0,264.0
19:41:21.081000,-904.0,-457.0,3088.0,1883.0,-124.0,423.0,9.0,-481.0,258.0
19:41:21.085000,-903.0,-448.0,3110.0,1890.0,-81.0,410.0,9.0,-481.0,258.0
19:41:21.089000,-906.0,-416.0,3105.0,1884.0,-52.0,403.0,9.0,-481.0,258.0
19:41:21.095000,-898.0,-403.0,3096.0,1865.0,-68.0,402.0,-3.0,-459.0,273.0
19:41:21.099000,-882.0,-399.0,3103.0,1847.0,-110.0,384.0,-3.0,-459.0,273.0
19:41:21.104000,-854.0,-392.0,3137.0,1841.0,-169.0,366.0,0.0,-448.0,264.0
19:41:21.109000,-837.0,-387.0,3182.0,1822.0,-207.0,350.0,0.0,-448.0,264.0
19:41:21.113000,-802.0,-386.0,3227.0,1768.0,-211.0,343.0,0.0,-448.0,264.0
19:41:21.118000,-777.0,-387.0,3306.0,1723.0,-177.0,341.0,1.0,-439.0,267.0
19:41:21.123000,-788.0,-385.0,3371.0,1677.0,-53.0,334.0,1.0,-439.0,267.0
19:41:21.128000,-781.0,-394.0,3320.0,1677.0,-53.0,334.0,-9.0,-432.0,274.0
19:41:21.132000,-783.0,-401.0,3310.0,1702.0,-25.0,324.0,-9.0,-432.0,274.0
19:41:21.136000,-786.0,-422.0,3387.0,1697.0,-24.0,302.0,-9.0,-432.0,274.0
19:41:21.142000,-791.0,-432.0,3409.0,1697.0,-24.0,302.0,-6.0,-406.0,267.0
19:41:21.146000,-799.0,-438.0,3370.0,1672.0,2.0,279.0,-6.0,-406.0,267.0
19:41:21.151000,-792.0,-436.0,3332.0,1640.0,20.0,267.0,-6.0,-403.0,270.0
19:41:21.156000,-772.0,-440.0,3303.0,1587.0,54.0,249.0,-6.0,-403.0,270.0
19:41:21.160000,-784.0,-446.0,3290.0,1546.0,80.0,243.0,-6.0,-403.0,270.0
19:41:21.165000,-773.0,-450.0,3301.0,1532.0,95.0,230.0,-7.0,-390.0,280.0
19:41:21.170000,-772.0,-448.0,3320.0,1500.0,108.0,215.0,-7.0,-390.0,280.0
19:41:21.175000,-732.0,-453.0,3333.0,1446.0,104.0,193.0,-16.0,-358.0,276.0
19:41:21.179000,-702.0,-450.0,3295.0,1404.0,115.0,164.0,-16.0,-358.0,276.0
19:41:21.187000,-671.0,-438.0,3229.0,1348.0,243.0,127.0,-1.0,-354.0,292.0
19:41:21.189000,-671.0,-438.0,3229.0,1348.0,243.0,127.0,-1.0,-354.0,292.0
19:41:21.193000,-644.0,-431.0,3186.0,1299.0,298.0,103.0,-1.0,-354.0,292.0
19:41:21.198000,-626.0,-415.0,3152.0,1228.0,346.0,75.0,-3.0,-340.0,285.0
19:41:21.203000,-598.0,-407.0,3138.0,1138.0,364.0,54.0,-3.0,-340.0,285.0
19:41:21.207000,-576.0,-401.0,3136.0,1066.0,376.0,37.0,7.0,-324.0,291.0
19:41:21.212000,-562.0,-401.0,3120.0,1021.0,427.0,17.0,7.0,-324.0,291.0
19:41:21.216000,-555.0,-399.0,3094.0,1010.0,474.0,5.0,7.0,-324.0,291.0
19:41:21.222000,-551.0,-392.0,3084.0,1026.0,534.0,-9.0,9.0,-315.0,286.0
19:41:21.226000,-551.0,-389.0,3084.0,1051.0,596.0,-15.0,9.0,-315.0,286.0
19:41:21.231000,-553.0,-388.0,3056.0,1051.0,638.0,-15.0,7.0,-297.0,291.0
19:41:21.236000,-550.0,-396.0,3005.0,1095.0,631.0,-23.0,7.0,-297.0,291.0
19:41:21.240000,-541.0,-400.0,2985.0,1137.0,604.0,-26.0,7.0,-297.0,291.0
19:41:21.245000,-539.0,-407.0,2981.0,1137.0,604.0,-26.0,22.0,-288.0,294.0
19:41:21.250000,-550.0,-413.0,3015.0,1168.0,602.0,-22.0,22.0,-288.0,294.0
19:41:21.254000,-546.0,-429.0,3023.0,1185.0,624.0,-20.0,37.0,-264.0,306.0
19:41:21.259000,-541.0,-446.0,2954.0,1174.0,659.0,-22.0,37.0,-264.0,306.0
19:41:21.263000,-534.0,-455.0,2865.0,1161.0,683.0,-19.0,37.0,-264.0,306.0
19:41:21.269000,-529.0,-465.0,2846.0,1182.0,697.0,-15.0,28.0,-249.0,294.0
19:41:21.273000,-521.0,-472.0,2877.0,1208.0,681.0,-11.0,28.0,-249.0,294.0
19:41:21.278000,-523.0,-477.0,2887.0,1180.0,671.0,-13.0,36.0,-240.0,330.0
19:41:21.283000,-515.0,-474.0,2823.0,1114.0,706.0,-16.0,36.0,-240.0,330.0
19:41:21.287000,-515.0,-474.0,2823.0,1051.0,732.0,-20.0,36.0,-240.0,330.0
19:41:21.292000,-507.0,-464.0,2763.0,1027.0,746.0,-15.0,49.0,-228.0,312.0
19:41:21.297000,-511.0,-458.0,2776.0,1003.0,776.0,-5.0,49.0,-228.0,312.0
19:41:21.301000,-528.0,-450.0,2792.0,957.0,804.0,-1.0,64.0,-225.0,321.0
19:41:21.306000,-550.0,-438.0,2797.0,914.0,826.0,-4.0,64.0,-225.0,321.0
19:41:21.310000,-573.0,-425.0,2811.0,864.0,839.0,-2.0,64.0,-225.0,321.0
19:41:21.316000,-595.0,-414.0,2809.0,822.0,857.0,-2.0,72.0,-208.0,318.0
19:41:21.320000,-614.0,-406.0,2795.0,803.0,860.0,-1.0,72.0,-208.0,318.0
19:41:21.325000,-637.0,-401.0,2798.0,794.0,834.0,1.0,91.0,-192.0,330.0
19:41:21.330000,-660.0,-396.0,2816.0,783.0,809.0,3.0,91.0,-192.0,330.0
19:41:21.334000,-687.0,-395.0,2814.0,752.0,796.0,12.0,91.0,-192.0,330.0
19:41:21.339000,-715.0,-392.0,2775.0,737.0,792.0,12.0,93.0,-190.0,337.0
19:41:21.344000,-727.0,-393.0,2739.0,735.0,835.0,4.0,93.0,-190.0,337.0
19:41:21.348000,-744.0,-392.0,2693.0,735.0,835.0,4.0,111.0,-174.0,340.0
19:41:21.353000,-765.0,-394.0,2650.0,716.0,882.0,1.0,111.0,-174.0,340.0
19:41:21.357000,-775.0,-394.0,2600.0,686.0,882.0,1.0,111.0,-174.0,340.0
19:41:21.363000,-785.0,-398.0,2541.0,639.0,898.0,-7.0,127.0,-178.0,354.0
19:41:21.367000,-790.0,-407.0,2489.0,550.0,851.0,-14.0,127.0,-178.0,354.0
19:41:21.372000,-783.0,-415.0,2436.0,550.0,851.0,-14.0,144.0,-174.0,346.0
19:41:21.377000,-762.0,-422.0,2373.0,530.0,808.0,-24.0,144.0,-174.0,346.0
19:41:21.381000,-744.0,-424.0,2307.0,513.0,785.0,-30.0,144.0,-174.0,346.0
19:41:21.386000,-720.0,-424.0,2255.0,491.0,759.0,-36.0,142.0,-160.0,355.0
19:41:21.391000,-701.0,-416.0,2206.0,463.0,767.0,-47.0,142.0,-160.0,355.0
19:41:21.395000,-681.0,-411.0,2153.0,417.0,771.0,-51.0,168.0,-157.0,363.0
19:41:21.400000,-671.0,-409.0,2114.0,377.0,776.0,-55.0,168.0,-157.0,363.0
19:41:21.404000,-671.0,-409.0,2114.0,336.0,767.0,-53.0,168.0,-157.0,363.0
19:41:21.410000,-657.0,-402.0,2078.0,293.0,719.0,-51.0,175.0,-147.0,360.0
19:41:21.414000,-638.0,-398.0,2057.0,293.0,718.0,-60.0,175.0,-147.0,360.0
19:41:21.419000,-616.0,-388.0,2041.0,285.0,737.0,-75.0,195.0,-144.0,366.0
19:41:21.424000,-603.0,-381.0,2014.0,266.0,804.0,-82.0,195.0,-144.0,366.0
19:41:21.428000,-593.0,-368.0,1987.0,235.0,858.0,-91.0,195.0,-144.0,366.0
19:41:21.433000,-582.0,-355.0,1949.0,190.0,919.0,-94.0,204.0,-147.0,372.0
19:41:21.438000,-590.0,-344.0,1909.0,156.0,914.0,-89.0,204.0,-147.0,372.0
19:41:21.442000,-588.0,-331.0,1873.0,130.0,894.0,-92.0,204.0,-148.0,379.0
19:41:21.447000,-597.0,-320.0,1839.0,110.0,881.0,-96.0,204.0,-148.0,379.0
19:41:21.451000,-600.0,-305.0,1806.0,97.0,874.0,-103.0,204.0,-148.0,379.0
19:41:21.457000,-608.0,-298.0,1770.0,89.0,885.0,-96.0,222.0,-153.0,376.0
19:41:21.461000,-617.0,-289.0,1742.0,66.0,884.0,-110.0,222.0,-153.0,376.0
19:41:21.466000,-627.0,-275.0,1708.0,66.0,884.0,-110.0,219.0,-153.0,388.0
19:41:21.471000,-644.0,-270.0,1670.0,22.0,916.0,-118.0,219.0,-153.0,388.0
19:41:21.475000,-648.0,-262.0,1638.0,-15.0,853.0,-103.0,219.0,-153.0,388.0
19:41:21.480000,-648.0,-256.0,1591.0,-40.0,818.0,-109.0,240.0,-148.0,391.0
19:41:21.485000,-655.0,-248.0,1544.0,-59.0,843.0,-114.0,240.0,-148.0,391.0
19:41:21.489000,-652.0,-236.0,1509.0,-70.0,807.0,-119.0,258.0,-156.0,385.0
19:41:21.494000,-655.0,-229.0,1469.0,-93.0,835.0,-140.0,258.0,-156.0,385.0
19:41:21.501000,-660.0,-221.0,1432.0,-159.0,838.0,-151.0,256.0,-148.0,393.0
19:41:21.504000,-655.0,-212.0,1381.0,-159.0,838.0,-151.0,256.0,-148.0,393.0
19:41:21.508000,-655.0,-212.0,1381.0,-210.0,899.0,-166.0,256.0,-148.0,393.0
19:41:21.512000,-665.0,-207.0,1333.0,-230.0,866.0,-160.0,253.0,-154.0,400.0
19:41:21.518000,-660.0,-200.0,1296.0,-255.0,806.0,-183.0,253.0,-154.0,400.0
19:41:21.522000,-654.0,-197.0,1248.0,-280.0,867.0,-203.0,267.0,-156.0,402.0
19:41:21.527000,-653.0,-190.0,1208.0,-306.0,826.0,-207.0,267.0,-156.0,402.0
19:41:21.531000,-644.0,-181.0,1159.0,-349.0,874.0,-222.0,267.0,-156.0,402.0
19:41:21.536000,-647.0,-176.0,1113.0,-347.0,869.0,-219.0,279.0,-157.0,396.0
19:41:21.541000,-638.0,-170.0,1080.0,-340.0,775.0,-240.0,279.0,-157.0,396.0
19:41:21.546000,-623.0,-170.0,1036.0,-328.0,833.0,-261.0,274.0,-159.0,402.0
19:41:21.551000,-620.0,-166.0,998.0,-340.0,782.0,-258.0,274.0,-159.0,402.0
19:41:21.555000,-608.0,-160.0,961.0,-371.0,848.0,-275.0,274.0,-159.0,402.0
19:41:21.560000,-611.0,-155.0,936.0,-375.0,875.0,-275.0,289.0,-156.0,408.0
19:41:21.565000,-610.0,-148.0,912.0,-404.0,840.0,-284.0,289.0,-156.0,408.0
19:41:21.569000,-620.0,-146.0,870.0,-404.0,840.0,-284.0,289.0,-153.0,411.0
19:41:21.574000,-631.0,-135.0,846.0,-391.0,882.0,-287.0,289.0,-153.0,411.0
19:41:21.578000,-629.0,-129.0,816.0,-365.0,782.0,-291.0,289.0,-153.0,411.0
19:41:21.583000,-644.0,-120.0,796.0,-349.0,784.0,-297.0,288.0,-171.0,420.0
19:41:21.588000,-647.0,-110.0,776.0,-349.0,784.0,-297.0,288.0,-171.0,420.0
19:41:21.593000,-660.0,-103.0,750.0,-362.0,792.0,-314.0,292.0,-157.0,417.0
19:41:21.598000,-672.0,-90.0,732.0,-355.0,837.0,-314.0,292.0,-157.0,417.0
19:41:21.602000,-683.0,-81.0,700.0,-372.0,790.0,-318.0,292.0,-157.0,417.0
19:41:21.607000,-704.0,-67.0,686.0,-384.0,869.0,-333.0,303.0,-163.0,414.0
19:41:21.612000,-711.0,-58.0,660.0,-391.0,798.0,-323.0,303.0,-163.0,414.0
19:41:21.616000,-726.0,-49.0,620.0,-415.0,813.0,-338.0,301.0,-172.0,420.0
19:41:21.621000,-726.0,-49.0,620.0,-383.0,810.0,-335.0,301.0,-172.0,420.0
19:41:21.625000,-730.0,-37.0,595.0,-367.0,714.0,-338.0,301.0,-172.0,420.0
19:41:21.630000,-729.0,-30.0,560.0,-359.0,747.0,-353.0,303.0,-177.0,417.0
19:41:21.635000,-738.0,-20.0,543.0,-353.0,680.0,-345.0,303.0,-177.0,417.0
19:41:21.640000,-734.0,-13.0,510.0,-379.0,682.0,-352.0,316.0,-180.0,433.0
19:41:21.645000,-728.0,-9.0,458.0,-351.0,664.0,-346.0,316.0,-180.0,433.0
19:41:21.649000,-716.0,-2.0,417.0,-326.0,605.0,-354.0,316.0,-180.0,433.0
19:41:21.654000,-701.0,0.0,371.0,-308.0,660.0,-367.0,316.0,-183.0,438.0
19:41:21.659000,-701.0,7.0,353.0,-296.0,629.0,-361.0,316.0,-183.0,438.0
19:41:21.663000,-693.0,16.0,327.0,-329.0,672.0,-382.0,313.0,-184.0,438.0
19:41:21.668000,-688.0,27.0,284.0,-330.0,696.0,-380.0,313.0,-184.0,438.0
19:41:21.672000,-683.0,41.0,238.0,-340.0,614.0,-384.0,313.0,-184.0,438.0
19:41:21.677000,-666.0,51.0,181.0,-330.0,622.0,-399.0,316.0,-187.0,442.0
19:41:21.682000,-658.0,61.0,151.0,-330.0,591.0,-399.0,316.0,-187.0,442.0
19:41:21.687000,-641.0,73.0,123.0,-306.0,577.0,-399.0,316.0,-190.0,444.0
19:41:21.692000,-634.0,83.0,95.0,-332.0,575.0,-414.0,316.0,-190.0,444.0
19:41:21.696000,-630.0,92.0,84.0,-328.0,621.0,-412.0,316.0,-190.0,444.0
19:41:21.701000,-620.0,95.0,66.0,-321.0,578.0,-415.0,313.0,-192.0,442.0
19:41:21.706000,-615.0,98.0,52.0,-316.0,589.0,-429.0,313.0,-192.0,442.0
19:41:21.710000,-602.0,98.0,41.0,-293.0,555.0,-425.0,319.0,-198.0,447.0
19:41:21.715000,-586.0,95.0,32.0,-290.0,539.0,-436.0,319.0,-198.0,447.0
19:41:21.722000,-576.0,94.0,33.0,-280.0,537.0,-436.0,318.0,-195.0,450.0
19:41:21.724000,-561.0,88.0,27.0,-280.0,537.0,-436.0,318.0,-195.0,450.0
19:41:21.729000,-561.0,88.0,27.0,-287.0,557.0,-453.0,318.0,-195.0,450.0
19:41:21.734000,-546.0,80.0,15.0,-267.0,586.0,-455.0,318.0,-207.0,450.0
19:41:21.739000,-537.0,74.0,7.0,-256.0,537.0,-451.0,318.0,-207.0,450.0
19:41:21.743000,-521.0,65.0,2.0,-253.0,564.0,-468.0,309.0,-205.0,448.0
19:41:21.748000,-511.0,58.0,6.0,-239.0,574.0,-466.0,309.0,-205.0,448.0
19:41:21.752000,-501.0,52.0,9.0,-252.0,529.0,-464.0,309.0,-205.0,448.0
19:41:21.757000,-490.0,42.0,0.0,-260.0,574.0,-482.0,298.0,-199.0,453.0
19:41:21.762000,-480.0,36.0,-9.0,-248.0,552.0,-474.0,298.0,-199.0,453.0
19:41:21.766000,-475.0,28.0,-15.0,-251.0,514.0,-479.0,312.0,-207.0,453.0
19:41:21.771000,-466.0,21.0,-22.0,-244.0,560.0,-498.0,312.0,-207.0,453.0
19:41:21.776000,-464.0,17.0,-26.0,-244.0,545.0,-488.0,312.0,-207.0,453.0
19:41:21.781000,-465.0,16.0,-36.0,-272.0,558.0,-493.0,307.0,-213.0,466.0
19:41:21.786000,-466.0,16.0,-56.0,-283.0,618.0,-503.0,307.0,-213.0,466.0
19:41:21.790000,-472.0,18.0,-71.0,-283.0,618.0,-503.0,306.0,-213.0,457.0
19:41:21.795000,-485.0,20.0,-80.0,-294.0,609.0,-497.0,306.0,-213.0,457.0
19:41:21.799000,-495.0,24.0,-81.0,-326.0,617.0,-510.0,306.0,-213.0,457.0
19:41:21.804000,-508.0,29.0,-80.0,-349.0,641.0,-519.0,310.0,-214.0,460.0
19:41:21.809000,-515.0,32.0,-97.0,-369.0,599.0,-509.0,310.0,-214.0,460.0
19:41:21.813000,-515.0,37.0,-130.0,-384.0,565.0,-520.0,309.0,-217.0,468.0
19:41:21.818000,-513.0,45.0,-163.0,-371.0,572.0,-526.0,309.0,-217.0,468.0
19:41:21.822000,-507.0,50.0,-186.0,-345.0,533.0,-518.0,309.0,-217.0,468.0
19:41:21.828000,-499.0,55.0,-204.0,-329.0,529.0,-532.0,301.0,-219.0,469.0
19:41:21.833000,-497.0,63.0,-221.0,-325.0,588.0,-543.0,301.0,-219.0,469.0
19:41:21.837000,-498.0,76.0,-258.0,-361.0,598.0,-534.0,303.0,-232.0,462.0
19:41:21.842000,-498.0,76.0,-258.0,-420.0,653.0,-542.0,303.0,-232.0,462.0
19:41:21.846000,-501.0,92.0,-308.0,-438.0,701.0,-543.0,303.0,-232.0,462.0
19:41:21.851000,-505.0,102.0,-349.0,-427.0,647.0,-540.0,297.0,-225.0,468.0
19:41:21.856000,-504.0,112.0,-369.0,-411.0,626.0,-555.0,297.0,-225.0,468.0
19:41:21.861000,-504.0,121.0,-376.0,-394.0,619.0,-560.0,294.0,-234.0,471.0
19:41:21.865000,-503.0,133.0,-382.0,-395.0,599.0,-560.0,294.0,-234.0,471.0
19:41:21.869000,-504.0,143.0,-397.0,-385.0,625.0,-569.0,294.0,-234.0,471.0
19:41:21.875000,-506.0,151.0,-411.0,-354.0,619.0,-571.0,303.0,-238.0,475.0
19:41:21.880000,-509.0,158.0,-429.0,-344.0,624.0,-576.0,303.0,-238.0,475.0
19:41:21.884000,-520.0,165.0,-456.0,-337.0,671.0,-579.0,295.0,-234.0,469.0
19:41:21.889000,-535.0,168.0,-482.0,-321.0,677.0,-574.0,295.0,-234.0,469.0
19:41:21.893000,-548.0,164.0,-506.0,-299.0,678.0,-583.0,295.0,-234.0,469.0
19:41:21.898000,-557.0,155.0,-527.0,-271.0,653.0,-591.0,294.0,-234.0,465.0
19:41:21.903000,-560.0,146.0,-547.0,-257.0,619.0,-594.0,294.0,-234.0,465.0
19:41:21.908000,-562.0,131.0,-571.0,-257.0,619.0,-594.0,282.0,-244.0,472.0
19:41:21.912000,-560.0,119.0,-594.0,-247.0,625.0,-600.0,282.0,-244.0,472.0
19:41:21.916000,-557.0,107.0,-619.0,-234.0,607.0,-602.0,282.0,-244.0,472.0
19:41:21.922000,-555.0,94.0,-639.0,-222.0,580.0,-603.0,283.0,-237.0,480.0
19:41:21.927000,-550.0,88.0,-660.0,-209.0,566.0,-605.0,283.0,-237.0,480.0
19:41:21.931000,-546.0,86.0,-690.0,-214.0,575.0,-610.0,285.0,-250.0,480.0
19:41:21.936000,-552.0,88.0,-728.0,-243.0,612.0,-613.0,285.0,-250.0,480.0
19:41:21.940000,-552.0,88.0,-728.0,-289.0,651.0,-618.0,285.0,-250.0,480.0
19:41:21.945000,-594.0,105.0,-820.0,-338.0,738.0,-634.0,292.0,-246.0,478.0
19:41:21.950000,-594.0,105.0,-820.0,-394.0,772.0,-630.0,292.0,-246.0,478.0
19:41:21.955000,-629.0,116.0,-875.0,-443.0,766.0,-628.0,283.0,-259.0,478.0
19:41:21.959000,-662.0,128.0,-932.0,-445.0,785.0,-637.0,283.0,-259.0,478.0
19:41:21.963000,-697.0,142.0,-978.0,-429.0,765.0,-641.0,283.0,-259.0,478.0
19:41:21.969000,-735.0,158.0,-1019.0,-420.0,783.0,-656.0,279.0,-253.0,477.0
19:41:21.973000,-774.0,178.0,-1056.0,-417.0,831.0,-675.0,279.0,-253.0,477.0
19:41:21.978000,-809.0,198.0,-1097.0,-440.0,839.0,-683.0,273.0,-258.0,474.0
19:41:21.983000,-843.0,212.0,-1148.0,-473.0,850.0,-688.0,273.0,-258.0,474.0
19:41:21.987000,-871.0,223.0,-1193.0,-492.0,837.0,-702.0,273.0,-258.0,474.0
19:41:21.992000,-891.0,230.0,-1234.0,-502.0,815.0,-717.0,262.0,-259.0,486.0
19:41:21.997000,-912.0,232.0,-1267.0,-503.0,813.0,-737.0,262.0,-259.0,486.0
19:41:22.002000,-926.0,233.0,-1289.0,-503.0,813.0,-737.0,253.0,-271.0,489.0
19:41:22.006000,-941.0,226.0,-1316.0,-498.0,832.0,-762.0,253.0,-271.0,489.0
19:41:22.010000,-956.0,210.0,-1348.0,-498.0,832.0,-762.0,253.0,-271.0,489.0
19:41:22.016000,-968.0,189.0,-1392.0,-474.0,803.0,-765.0,249.0,-273.0,490.0
19:41:22.020000,-984.0,165.0,-1437.0,-443.0,812.0,-769.0,249.0,-273.0,490.0
19:41:22.025000,-999.0,140.0,-1473.0,-394.0,822.0,-771.0,249.0,-279.0,487.0
19:41:22.030000,-1021.0,112.0,-1502.0,-317.0,824.0,-779.0,249.0,-279.0,487.0
19:41:22.034000,-1042.0,82.0,-1523.0,-317.0,824.0,-779.0,249.0,-279.0,487.0
19:41:22.039000,-1068.0,51.0,-1540.0,-296.0,828.0,-787.0,235.0,-292.0,505.0
19:41:22.044000,-1100.0,22.0,-1553.0,-300.0,851.0,-792.0,235.0,-292.0,505.0
19:41:22.049000,-1142.0,-4.0,-1562.0,-334.0,874.0,-795.0,247.0,-285.0,496.0
19:41:22.053000,-1196.0,-30.0,-1563.0,-379.0,918.0,-794.0,247.0,-285.0,496.0
19:41:22.057000,-1196.0,-30.0,-1563.0,-407.0,938.0,-782.0,247.0,-285.0,496.0
19:41:22.063000,-1255.0,-54.0,-1552.0,-403.0,921.0,-775.0,235.0,-297.0,492.0
19:41:22.067000,-1316.0,-79.0,-1534.0,-373.0,893.0,-772.0,235.0,-297.0,492.0
19:41:22.072000,-1376.0,-101.0,-1513.0,-344.0,860.0,-772.0,231.0,-318.0,507.0
19:41:22.077000,-1435.0,-123.0,-1500.0,-324.0,876.0,-779.0,231.0,-318.0,507.0
19:41:22.081000,-1492.0,-144.0,-1494.0,-318.0,900.0,-782.0,231.0,-318.0,507.0
19:41:22.086000,-1548.0,-159.0,-1500.0,-339.0,917.0,-783.0,229.0,-321.0,501.0
19:41:22.091000,-1610.0,-170.0,-1519.0,-369.0,944.0,-781.0,229.0,-321.0,501.0
19:41:22.096000,-1668.0,-177.0,-1543.0,-399.0,918.0,-778.0,225.0,-333.0,499.0
19:41:22.100000,-1724.0,-186.0,-1570.0,-420.0,909.0,-783.0,225.0,-333.0,499.0
19:41:22.104000,-1779.0,-196.0,-1591.0,-423.0,896.0,-785.0,225.0,-333.0,499.0
19:41:22.110000,-1830.0,-204.0,-1611.0,-427.0,871.0,-787.0,229.0,-343.0,502.0
19:41:22.114000,-1880.0,-212.0,-1637.0,-422.0,886.0,-792.0,229.0,-343.0,502.0
19:41:22.119000,-1926.0,-217.0,-1659.0,-422.0,850.0,-792.0,222.0,-361.0,502.0
19:41:22.124000,-1967.0,-221.0,-1677.0,-411.0,850.0,-791.0,222.0,-361.0,502.0
19:41:22.129000,-2011.0,-226.0,-1684.0,-399.0,833.0,-786.0,234.0,-367.0,504.0
19:41:22.133000,-2047.0,-229.0,-1687.0,-380.0,809.0,-781.0,234.0,-367.0,504.0
19:41:22.137000,-2081.0,-235.0,-1693.0,-383.0,755.0,-784.0,234.0,-367.0,504.0
19:41:22.143000,-2114.0,-241.0,-1691.0,-399.0,777.0,-792.0,226.0,-379.0,501.0
19:41:22.147000,-2143.0,-248.0,-1682.0,-424.0,765.0,-796.0,226.0,-379.0,501.0
19:41:22.152000,-2175.0,-259.0,-1669.0,-471.0,748.0,-796.0,237.0,-405.0,514.0
19:41:22.157000,-2194.0,-267.0,-1649.0,-499.0,737.0,-795.0,237.0,-405.0,514.0
19:41:22.161000,-2194.0,-267.0,-1649.0,-500.0,662.0,-803.0,237.0,-405.0,514.0
19:41:22.166000,-2204.0,-283.0,-1620.0,-479.0,623.0,-811.0,235.0,-418.0,507.0
19:41:22.171000,-2207.0,-301.0,-1596.0,-454.0,562.0,-818.0,235.0,-418.0,507.0
19:41:22.176000,-2203.0,-322.0,-1588.0,-420.0,536.0,-822.0,231.0,-433.0,496.0
19:41:22.180000,-2206.0,-350.0,-1569.0,-374.0,537.0,-825.0,231.0,-433.0,496.0
19:41:22.184000,-2200.0,-376.0,-1544.0,-354.0,510.0,-830.0,231.0,-433.0,496.0
19:41:22.190000,-2205.0,-408.0,-1516.0,-330.0,533.0,-823.0,241.0,-441.0,504.0
19:41:22.194000,-2216.0,-441.0,-1473.0,-312.0,519.0,-819.0,241.0,-441.0,504.0
19:41:22.198000,-2227.0,-479.0,-1424.0,-324.0,541.0,-816.0,243.0,-459.0,498.0
19:41:22.204000,-2251.0,-520.0,-1372.0,-337.0,533.0,-807.0,243.0,-459.0,498.0
19:41:22.208000,-2270.0,-562.0,-1317.0,-360.0,488.0,-805.0,243.0,-459.0,498.0
19:41:22.213000,-2296.0,-605.0,-1262.0,-380.0,479.0,-798.0,228.0,-471.0,502.0
19:41:22.218000,-2312.0,-643.0,-1206.0,-388.0,400.0,-803.0,228.0,-471.0,502.0
19:41:22.223000,-2317.0,-676.0,-1164.0,-388.0,400.0,-803.0,250.0,-501.0,493.0
19:41:22.227000,-2321.0,-706.0,-1132.0,-388.0,292.0,-797.0,250.0,-501.0,493.0
19:41:22.231000,-2311.0,-734.0,-1115.0,-388.0,292.0,-797.0,250.0,-501.0,493.0
19:41:22.237000,-2305.0,-758.0,-1115.0,-370.0,230.0,-811.0,259.0,-517.0,489.0
19:41:22.241000,-2297.0,-785.0,-1139.0,-401.0,198.0,-803.0,259.0,-517.0,489.0
19:41:22.246000,-2281.0,-815.0,-1173.0,-401.0,198.0,-803.0,253.0,-525.0,492.0
19:41:22.251000,-2284.0,-845.0,-1200.0,-405.0,226.0,-811.0,253.0,-525.0,492.0
19:41:22.255000,-2298.0,-872.0,-1236.0,-423.0,262.0,-795.0,253.0,-525.0,492.0
19:41:22.260000,-2312.0,-907.0,-1281.0,-447.0,294.0,-799.0,280.0,-540.0,480.0
19:41:22.265000,-2331.0,-948.0,-1320.0,-489.0,358.0,-803.0,280.0,-540.0,480.0
19:41:22.270000,-2340.0,-1006.0,-1363.0,-518.0,342.0,-797.0,280.0,-550.0,474.0
19:41:22.274000,-2340.0,-1075.0,-1391.0,-532.0,312.0,-808.0,280.0,-550.0,474.0
19:41:22.278000,-2340.0,-1075.0,-1391.0,-505.0,225.0,-811.0,280.0,-550.0,474.0
19:41:22.284000,-2321.0,-1148.0,-1397.0,-463.0,120.0,-830.0,295.0,-559.0,469.0
19:41:22.288000,-2292.0,-1225.0,-1397.0,-458.0,95.0,-834.0,295.0,-559.0,469.0
19:41:22.293000,-2270.0,-1301.0,-1389.0,-456.0,80.0,-837.0,277.0,-576.0,456.0
19:41:22.298000,-2240.0,-1369.0,-1395.0,-474.0,108.0,-850.0,277.0,-576.0,456.0
19:41:22.302000,-2208.0,-1441.0,-1400.0,-488.0,138.0,-837.0,277.0,-576.0,456.0
19:41:22.307000,-2173.0,-1501.0,-1423.0,-538.0,187.0,-838.0,322.0,-597.0,439.0
19:41:22.312000,-2156.0,-1544.0,-1452.0,-620.0,240.0,-806.0,322.0,-597.0,439.0
19:41:22.317000,-2143.0,-1582.0,-1457.0,-665.0,248.0,-768.0,327.0,-601.0,426.0
19:41:22.321000,-2135.0,-1605.0,-1448.0,-739.0,274.0,-739.0,327.0,-601.0,426.0
19:41:22.325000,-2141.0,-1617.0,-1449.0,-813.0,268.0,-713.0,327.0,-601.0,426.0
19:41:22.331000,-2129.0,-1598.0,-1465.0,-918.0,270.0,-713.0,342.0,-607.0,433.0
19:41:22.335000,-2126.0,-1571.0,-1484.0,-1043.0,293.0,-680.0,342.0,-607.0,433.0
19:41:22.340000,-2119.0,-1537.0,-1510.0,-1043.0,293.0,-680.0,352.0,-613.0,400.0
19:41:22.345000,-2118.0,-1469.0,-1523.0,-1123.0,284.0,-662.0,352.0,-613.0,400.0
19:41:22.349000,-2110.0,-1404.0,-1509.0,-1212.0,287.0,-647.0,352.0,-613.0,400.0
19:41:22.354000,-2067.0,-1327.0,-1503.0,-1268.0,263.0,-628.0,370.0,-621.0,393.0
19:41:22.359000,-2020.0,-1259.0,-1458.0,-1267.0,202.0,-630.0,370.0,-621.0,393.0
19:41:22.363000,-1938.0,-1180.0,-1416.0,-1285.0,85.0,-632.0,394.0,-634.0,391.0
19:41:22.368000,-1843.0,-1120.0,-1355.0,-1254.0,72.0,-655.0,394.0,-634.0,391.0
19:41:22.372000,-1843.0,-1120.0,-1355.0,-1192.0,218.0,-656.0,394.0,-634.0,391.0
19:41:22.378000,-1754.0,-988.0,-1314.0,-1236.0,238.0,-656.0,400.0,-640.0,361.0
19:41:22.382000,-1703.0,-959.0,-1258.0,-1245.0,219.0,-662.0,400.0,-640.0,361.0
19:41:22.387000,-1703.0,-959.0,-1258.0,-1245.0,172.0,-648.0,405.0,-640.0,349.0
19:41:22.392000,-1666.0,-938.0,-1219.0,-1318.0,153.0,-668.0,405.0,-640.0,349.0
19:41:22.396000,-1633.0,-930.0,-1185.0,-1323.0,207.0,-681.0,405.0,-640.0,349.0
19:41:22.401000,-1568.0,-934.0,-1152.0,-1348.0,168.0,-704.0,418.0,-649.0,342.0
19:41:22.406000,-1501.0,-916.0,-1170.0,-1350.0,196.0,-758.0,418.0,-649.0,342.0
19:41:22.411000,-1438.0,-900.0,-1167.0,-1305.0,185.0,-751.0,408.0,-640.0,334.0
19:41:22.415000,-1388.0,-891.0,-1122.0,-1288.0,163.0,-754.0,408.0,-640.0,334.0
19:41:22.419000,-1322.0,-900.0,-1121.0,-1231.0,261.0,-779.0,408.0,-640.0,334.0
19:41:22.425000,-1322.0,-866.0,-1168.0,-1209.0,256.0,-747.0,433.0,-643.0,327.0
19:41:22.429000,-1325.0,-872.0,-1187.0,-1199.0,268.0,-758.0,433.0,-643.0,327.0
19:41:22.434000,-1260.0,-856.0,-1290.0,-1233.0,195.0,-762.0,438.0,-648.0,315.0
19:41:22.439000,-1207.0,-848.0,-1374.0,-1230.0,4.0,-738.0,438.0,-648.0,315.0
19:41:22.446000,-1158.0,-852.0,-1225.0,-1193.0,-21.0,-722.0,451.0,-648.0,316.0
19:41:22.448000,-1109.0,-838.0,-1197.0,-1193.0,-21.0,-722.0,451.0,-648.0,316.0
19:41:22.452000,-1079.0,-814.0,-1262.0,-1250.0,-64.0,-700.0,451.0,-648.0,316.0
19:41:22.458000,-1026.0,-816.0,-1236.0,-1103.0,-86.0,-697.0,456.0,-643.0,291.0
19:41:22.462000,-967.0,-833.0,-1308.0,-900.0,-160.0,-614.0,456.0,-643.0,291.0
19:41:22.467000,-934.0,-770.0,-1320.0,-830.0,-351.0,-608.0,465.0,-640.0,285.0
19:41:22.472000,-868.0,-784.0,-1219.0,-800.0,-457.0,-596.0,465.0,-640.0,285.0
19:41:22.476000,-734.0,-769.0,-1081.0,-870.0,-719.0,-518.0,465.0,-640.0,285.0
19:41:22.481000,-585.0,-681.0,-923.0,-849.0,-887.0,-573.0,480.0,-625.0,274.0
19:41:22.486000,-499.0,-683.0,-624.0,-698.0,-993.0,-530.0,480.0,-625.0,274.0
19:41:22.490000,-544.0,-685.0,-462.0,-590.0,-1154.0,-444.0,475.0,-631.0,270.0
19:41:22.495000,-544.0,-685.0,-462.0,-493.0,-991.0,-408.0,475.0,-631.0,270.0
19:41:22.499000,-567.0,-704.0,-493.0,-463.0,-975.0,-361.0,475.0,-631.0,270.0
19:41:22.505000,-483.0,-722.0,-631.0,-343.0,-1104.0,-426.0,484.0,-637.0,265.0
19:41:22.509000,-394.0,-711.0,-553.0,-94.0,-1113.0,-370.0,484.0,-637.0,265.0
19:41:22.514000,-489.0,-708.0,-305.0,-283.0,-1065.0,-323.0,481.0,-630.0,256.0
19:41:22.519000,-557.0,-675.0,-561.0,-603.0,-656.0,-439.0,481.0,-630.0,256.0
19:41:22.523000,-539.0,-608.0,-1136.0,-518.0,-672.0,-460.0,481.0,-630.0,256.0
19:41:22.528000,-478.0,-568.0,-1195.0,-355.0,-908.0,-507.0,492.0,-630.0,243.0
19:41:22.533000,-487.0,-441.0,-1173.0,-495.0,-719.0,-496.0,492.0,-630.0,243.0
19:41:22.537000,-532.0,-438.0,-1267.0,-638.0,-808.0,-498.0,495.0,-616.0,238.0
19:41:22.542000,-529.0,-482.0,-1154.0,-640.0,-788.0,-573.0,495.0,-616.0,238.0
19:41:22.546000,-573.0,-481.0,-1108.0,-822.0,-624.0,-618.0,495.0,-616.0,238.0
19:41:22.552000,-497.0,-425.0,-1193.0,-939.0,-600.0,-670.0,504.0,-627.0,241.0
19:41:22.556000,-550.0,-410.0,-1154.0,-939.0,-511.0,-561.0,504.0,-627.0,241.0
19:41:22.561000,-704.0,-450.0,-1185.0,-870.0,-511.0,-561.0,508.0,-615.0,243.0
19:41:22.566000,-770.0,-417.0,-1268.0,-758.0,-467.0,-528.0,508.0,-615.0,243.0
19:41:22.570000,-781.0,-373.0,-1278.0,-556.0,-654.0,-625.0,508.0,-615.0,243.0
19:41:22.575000,-717.0,-411.0,-1198.0,-556.0,-654.0,-625.0,513.0,-615.0,232.0
19:41:22.580000,-660.0,-450.0,-1135.0,-475.0,-726.0,-608.0,513.0,-615.0,232.0
19:41:22.584000,-622.0,-487.0,-1149.0,-498.0,-645.0,-595.0,522.0,-604.0,229.0
19:41:22.589000,-581.0,-467.0,-1127.0,-610.0,-587.0,-617.0,522.0,-604.0,229.0
19:41:22.593000,-581.0,-467.0,-1127.0,-695.0,-617.0,-646.0,522.0,-604.0,229.0
19:41:22.599000,-511.0,-506.0,-1050.0,-669.0,-626.0,-614.0,529.0,-592.0,219.0
19:41:22.603000,-483.0,-506.0,-1015.0,-647.0,-724.0,-630.0,529.0,-592.0,219.0
19:41:22.607000,-483.0,-499.0,-1015.0,-679.0,-815.0,-651.0,543.0,-592.0,213.0
19:41:22.613000,-453.0,-538.0,-928.0,-623.0,-691.0,-621.0,543.0,-592.0,213.0
19:41:22.617000,-456.0,-598.0,-830.0,-567.0,-625.0,-635.0,546.0,-586.0,207.0
19:41:22.622000,-465.0,-612.0,-770.0,-664.0,-608.0,-678.0,546.0,-586.0,207.0
19:41:22.626000,-381.0,-633.0,-833.0,-801.0,-706.0,-689.0,546.0,-586.0,207.0
19:41:22.631000,-318.0,-655.0,-858.0,-779.0,-724.0,-663.0,528.0,-591.0,199.0
19:41:22.636000,-297.0,-681.0,-828.0,-671.0,-664.0,-637.0,528.0,-591.0,199.0
19:41:22.641000,-289.0,-707.0,-703.0,-627.0,-602.0,-632.0,547.0,-579.0,199.0
19:41:22.646000,-314.0,-718.0,-591.0,-702.0,-427.0,-621.0,547.0,-579.0,199.0
19:41:22.650000,-333.0,-726.0,-735.0,-771.0,-256.0,-606.0,547.0,-579.0,199.0
19:41:22.655000,-286.0,-757.0,-962.0,-662.0,-273.0,-584.0,552.0,-583.0,187.0
19:41:22.660000,-311.0,-765.0,-1004.0,-515.0,-372.0,-573.0,552.0,-583.0,187.0
19:41:22.664000,-352.0,-758.0,-1040.0,-515.0,-372.0,-573.0,550.0,-580.0,192.0
19:41:22.669000,-336.0,-765.0,-966.0,-517.0,-434.0,-569.0,550.0,-580.0,192.0
19:41:22.673000,-356.0,-764.0,-732.0,-632.0,-595.0,-570.0,550.0,-580.0,192.0
19:41:22.678000,-377.0,-779.0,-693.0,-840.0,-632.0,-560.0,550.0,-570.0,189.0
19:41:22.683000,-360.0,-776.0,-802.0,-1003.0,-499.0,-567.0,550.0,-570.0,189.0
19:41:22.688000,-357.0,-753.0,-901.0,-960.0,-467.0,-568.0,553.0,-565.0,186.0
19:41:22.693000,-277.0,-747.0,-900.0,-825.0,-513.0,-561.0,553.0,-565.0,186.0
19:41:22.697000,-208.0,-739.0,-833.0,-724.0,-582.0,-552.0,553.0,-565.0,186.0
19:41:22.702000,-173.0,-735.0,-791.0,-717.0,-579.0,-516.0,541.0,-556.0,168.0
19:41:22.707000,-107.0,-739.0,-742.0,-773.0,-505.0,-494.0,541.0,-556.0,168.0
19:41:22.711000,-77.0,-726.0,-791.0,-843.0,-461.0,-492.0,562.0,-553.0,163.0
19:41:22.716000,-77.0,-726.0,-791.0,-911.0,-433.0,-481.0,562.0,-553.0,163.0
19:41:22.720000,-16.0,-741.0,-900.0,-865.0,-455.0,-471.0,562.0,-553.0,163.0
19:41:22.725000,39.0,-761.0,-799.0,-775.0,-458.0,-467.0,562.0,-552.0,171.0
19:41:22.730000,44.0,-752.0,-672.0,-808.0,-376.0,-461.0,562.0,-552.0,171.0
19:41:22.734000,39.0,-742.0,-603.0,-900.0,-322.0,-453.0,567.0,-541.0,163.0
19:41:22.740000,49.0,-744.0,-548.0,-965.0,-273.0,-439.0,567.0,-541.0,163.0
19:41:22.744000,25.0,-733.0,-536.0,-982.0,-214.0,-427.0,567.0,-541.0,163.0
19:41:22.749000,13.0,-732.0,-543.0,-945.0,-142.0,-418.0,567.0,-544.0,172.0
19:41:22.754000,-7.0,-727.0,-609.0,-875.0,-119.0,-402.0,567.0,-544.0,172.0
19:41:22.758000,-49.0,-714.0,-607.0,-824.0,-172.0,-390.0,567.0,-532.0,148.0
19:41:22.763000,-72.0,-707.0,-514.0,-850.0,-238.0,-382.0,567.0,-532.0,148.0
19:41:22.767000,-108.0,-697.0,-415.0,-950.0,-244.0,-375.0,567.0,-532.0,148.0
19:41:22.772000,-119.0,-706.0,-387.0,-1000.0,-218.0,-377.0,565.0,-535.0,147.0
19:41:22.777000,-147.0,-695.0,-384.0,-1000.0,-218.0,-377.0,565.0,-535.0,147.0
19:41:22.781000,-175.0,-681.0,-338.0,-938.0,-191.0,-365.0,580.0,-534.0,136.0
19:41:22.787000,-186.0,-679.0,-361.0,-938.0,-191.0,-365.0,580.0,-534.0,136.0
19:41:22.791000,-217.0,-667.0,-347.0,-937.0,-194.0,-353.0,580.0,-534.0,136.0
19:41:22.796000,-240.0,-654.0,-294.0,-949.0,-232.0,-345.0,571.0,-526.0,130.0
19:41:22.801000,-247.0,-644.0,-280.0,-974.0,-227.0,-342.0,571.0,-526.0,130.0
19:41:22.805000,-239.0,-625.0,-270.0,-985.0,-243.0,-338.0,580.0,-522.0,129.0
19:41:22.810000,-233.0,-615.0,-294.0,-1001.0,-255.0,-331.0,580.0,-522.0,129.0
19:41:22.814000,-233.0,-615.0,-294.0,-1006.0,-250.0,-329.0,580.0,-522.0,129.0
19:41:22.819000,-232.0,-574.0,-294.0,-964.0,-266.0,-331.0,562.0,-525.0,129.0
19:41:22.824000,-232.0,-574.0,-294.0,-968.0,-270.0,-328.0,562.0,-525.0,129.0
19:41:22.829000,-251.0,-545.0,-262.0,-1030.0,-237.0,-326.0,561.0,-525.0,123.0
19:41:22.834000,-248.0,-534.0,-270.0,-1064.0,-221.0,-319.0,561.0,-525.0,123.0
19:41:22.838000,-259.0,-512.0,-270.0,-1060.0,-236.0,-320.0,582.0,-525.0,118.0
19:41:22.843000,-271.0,-482.0,-287.0,-1044.0,-250.0,-312.0,582.0,-525.0,118.0
19:41:22.847000,-289.0,-464.0,-301.0,-1021.0,-265.0,-304.0,582.0,-525.0,118.0
19:41:22.852000,-306.0,-449.0,-283.0,-1008.0,-278.0,-309.0,582.0,-523.0,106.0
19:41:22.857000,-317.0,-438.0,-268.0,-1017.0,-290.0,-310.0,582.0,-523.0,106.0
19:41:22.861000,-308.0,-433.0,-227.0,-1041.0,-264.0,-308.0,574.0,-522.0,114.0
19:41:22.866000,-333.0,-422.0,-237.0,-1038.0,-224.0,-300.0,574.0,-522.0,114.0
19:41:22.871000,-343.0,-421.0,-253.0,-1017.0,-220.0,-296.0,574.0,-522.0,114.0
19:41:22.876000,-329.0,-417.0,-295.0,-1012.0,-234.0,-294.0,573.0,-511.0,102.0
19:41:22.881000,-321.0,-409.0,-346.0,-1008.0,-268.0,-284.0,573.0,-511.0,102.0
19:41:22.885000,-299.0,-413.0,-373.0,-1008.0,-268.0,-284.0,576.0,-510.0,102.0
19:41:22.890000,-282.0,-406.0,-363.0,-1009.0,-306.0,-283.0,576.0,-510.0,102.0
19:41:22.894000,-282.0,-414.0,-307.0,-1008.0,-308.0,-272.0,576.0,-510.0,102.0
19:41:22.899000,-277.0,-419.0,-262.0,-1006.0,-281.0,-257.0,571.0,-516.0,106.0
19:41:22.904000,-281.0,-420.0,-235.0,-1016.0,-246.0,-247.0,571.0,-516.0,106.0
19:41:22.909000,-275.0,-422.0,-252.0,-1016.0,-246.0,-247.0,559.0,-504.0,94.0
19:41:22.913000,-273.0,-429.0,-304.0,-1024.0,-196.0,-242.0,559.0,-504.0,94.0
19:41:22.918000,-273.0,-429.0,-304.0,-1018.0,-167.0,-232.0,559.0,-504.0,94.0
19:41:22.923000,-307.0,-443.0,-288.0,-985.0,-182.0,-220.0,583.0,-498.0,91.0
19:41:22.928000,-319.0,-443.0,-203.0,-971.0,-197.0,-214.0,583.0,-498.0,91.0
19:41:22.932000,-319.0,-443.0,-203.0,-1017.0,-155.0,-207.0,579.0,-507.0,90.0
19:41:22.937000,-343.0,-450.0,-227.0,-1049.0,-105.0,-192.0,579.0,-507.0,90.0
19:41:22.941000,-368.0,-457.0,-262.0,-1017.0,-122.0,-184.0,579.0,-507.0,90.0
19:41:22.946000,-404.0,-454.0,-215.0,-1017.0,-138.0,-179.0,571.0,-495.0,85.0
19:41:22.951000,-428.0,-450.0,-208.0,-1061.0,-104.0,-174.0,571.0,-495.0,85.0
19:41:22.956000,-448.0,-445.0,-237.0,-1065.0,-62.0,-164.0,559.0,-498.0,97.0
19:41:22.960000,-489.0,-441.0,-268.0,-1041.0,-39.0,-145.0,559.0,-498.0,97.0
19:41:22.965000,-543.0,-431.0,-272.0,-1031.0,-26.0,-129.0,559.0,-498.0,97.0
19:41:22.970000,-592.0,-429.0,-268.0,-1022.0,-19.0,-117.0,579.0,-501.0,78.0
19:41:22.975000,-653.0,-415.0,-224.0,-1023.0,-17.0,-112.0,579.0,-501.0,78.0
19:41:22.979000,-712.0,-401.0,-182.0,-1066.0,25.0,-100.0,577.0,-496.0,69.0
19:41:22.984000,-773.0,-394.0,-207.0,-1080.0,52.0,-84.0,577.0,-496.0,69.0
19:41:22.988000,-828.0,-389.0,-256.0,-1023.0,30.0,-74.0,577.0,-496.0,69.0
19:41:22.993000,-870.0,-392.0,-274.0,-960.0,-13.0,-72.0,574.0,-487.0,81.0
19:41:22.998000,-905.0,-396.0,-237.0,-961.0,-13.0,-72.0,574.0,-487.0,81.0
19:41:23.003000,-952.0,-399.0,-158.0,-945.0,-54.0,-70.0,571.0,-478.0,67.0
19:41:23.007000,-982.0,-408.0,-102.0,-974.0,-54.0,-64.0,571.0,-478.0,67.0
19:41:23.012000,-1022.0,-410.0,-151.0,-1035.0,0.0,-59.0,571.0,-478.0,67.0
19:41:23.017000,-1055.0,-426.0,-137.0,-1045.0,30.0,-51.0,571.0,-483.0,63.0
19:41:23.022000,-1099.0,-437.0,-68.0,-998.0,13.0,-38.0,571.0,-483.0,63.0
19:41:23.026000,-1163.0,-435.0,-65.0,-987.0,26.0,-26.0,576.0,-472.0,58.0
19:41:23.031000,-1216.0,-438.0,-46.0,-985.0,34.0,-18.0,576.0,-472.0,58.0
19:41:23.038000,-1264.0,-441.0,2.0,-978.0,28.0,-5.0,574.0,-478.0,55.0
19:41:23.040000,-1313.0,-446.0,19.0,-978.0,28.0,-5.0,574.0,-478.0,55.0
19:41:23.044000,-1313.0,-446.0,19.0,-1000.0,59.0,6.0,574.0,-478.0,55.0
19:41:23.050000,-1372.0,-452.0,11.0,-986.0,42.0,24.0,571.0,-469.0,55.0
19:41:23.054000,-1432.0,-469.0,49.0,-965.0,21.0,33.0,571.0,-469.0,55.0
19:41:23.059000,-1481.0,-489.0,53.0,-954.0,25.0,33.0,576.0,-463.0,43.0
19:41:23.064000,-1516.0,-506.0,35.0,-939.0,12.0,38.0,576.0,-463.0,43.0
19:41:23.068000,-1562.0,-522.0,51.0,-954.0,0.0,51.0,576.0,-463.0,43.0
19:41:23.073000,-1635.0,-531.0,80.0,-986.0,36.0,63.0,570.0,-463.0,34.0
19:41:23.078000,-1694.0,-560.0,50.0,-977.0,91.0,81.0,570.0,-463.0,34.0
19:41:23.082000,-1763.0,-596.0,-7.0,-917.0,73.0,97.0,576.0,-454.0,33.0
19:41:23.087000,-1835.0,-630.0,-2.0,-869.0,1.0,108.0,576.0,-454.0,33.0
19:41:23.091000,-1901.0,-670.0,41.0,-894.0,-12.0,121.0,576.0,-454.0,33.0
19:41:23.097000,-1968.0,-714.0,9.0,-925.0,24.0,136.0,576.0,-451.0,28.0
19:41:23.101000,-2021.0,-772.0,-11.0,-902.0,18.0,155.0,576.0,-451.0,28.0
19:41:23.106000,-2093.0,-824.0,11.0,-902.0,18.0,155.0,579.0,-439.0,19.0
19:41:23.111000,-2195.0,-875.0,-20.0,-880.0,35.0,184.0,579.0,-439.0,19.0
19:41:23.115000,-2279.0,-937.0,-65.0,-878.0,77.0,219.0,579.0,-439.0,19.0
19:41:23.120000,-2354.0,-998.0,-72.0,-871.0,66.0,243.0,562.0,-439.0,4.0
19:41:23.125000,-2424.0,-1063.0,-70.0,-864.0,29.0,273.0,562.0,-439.0,4.0
19:41:23.129000,-2495.0,-1128.0,-141.0,-877.0,37.0,306.0,571.0,-421.0,13.0
19:41:23.134000,-2564.0,-1195.0,-184.0,-859.0,63.0,341.0,571.0,-421.0,13.0
19:41:23.138000,-2564.0,-1195.0,-184.0,-816.0,55.0,376.0,571.0,-421.0,13.0
19:41:23.143000,-2653.0,-1239.0,-193.0,-844.0,87.0,413.0,559.0,-412.0,-3.0
19:41:23.148000,-2808.0,-1346.0,-303.0,-898.0,122.0,459.0,559.0,-412.0,-3.0
19:41:23.153000,-2808.0,-1346.0,-303.0,-905.0,96.0,502.0,559.0,-400.0,-19.0
19:41:23.158000,-2900.0,-1390.0,-289.0,-912.0,73.0,536.0,559.0,-400.0,-19.0
19:41:23.162000,-2971.0,-1431.0,-334.0,-930.0,72.0,565.0,559.0,-400.0,-19.0
19:41:23.167000,-3026.0,-1470.0,-406.0,-902.0,27.0,596.0,559.0,-390.0,-21.0
19:41:23.172000,-3098.0,-1502.0,-375.0,-894.0,13.0,627.0,559.0,-390.0,-21.0
19:41:23.177000,-3176.0,-1530.0,-378.0,-934.0,84.0,658.0,541.0,-372.0,-18.0
19:41:23.181000,-3249.0,-1555.0,-473.0,-923.0,77.0,691.0,541.0,-372.0,-18.0
19:41:23.185000,-3306.0,-1582.0,-488.0,-904.0,17.0,717.0,541.0,-372.0,-18.0
19:41:23.191000,-3373.0,-1596.0,-514.0,-921.0,23.0,747.0,540.0,-364.0,-33.0
19:41:23.195000,-3419.0,-1631.0,-599.0,-909.0,20.0,771.0,540.0,-364.0,-33.0
19:41:23.200000,-3447.0,-1659.0,-624.0,-909.0,20.0,771.0,520.0,-321.0,-39.0
19:41:23.205000,-3493.0,-1672.0,-651.0,-917.0,25.0,803.0,520.0,-321.0,-39.0
19:41:23.209000,-3529.0,-1690.0,-693.0,-930.0,16.0,825.0,520.0,-321.0,-39.0
19:41:23.214000,-3553.0,-1707.0,-674.0,-955.0,6.0,840.0,519.0,-301.0,-40.0
19:41:23.219000,-3593.0,-1714.0,-703.0,-955.0,6.0,840.0,519.0,-301.0,-40.0
19:41:23.224000,-3612.0,-1723.0,-751.0,-969.0,31.0,856.0,510.0,-292.0,-45.0
19:41:23.228000,-3617.0,-1729.0,-767.0,-949.0,20.0,867.0,510.0,-292.0,-45.0
19:41:23.232000,-3628.0,-1734.0,-793.0,-941.0,6.0,874.0,510.0,-292.0,-45.0
19:41:23.238000,-3626.0,-1749.0,-854.0,-935.0,27.0,885.0,493.0,-265.0,-37.0
19:41:23.242000,-3624.0,-1759.0,-913.0,-937.0,38.0,896.0,493.0,-265.0,-37.0
19:41:23.247000,-3606.0,-1759.0,-910.0,-924.0,28.0,893.0,495.0,-255.0,-39.0
19:41:23.252000,-3597.0,-1760.0,-938.0,-918.0,28.0,888.0,495.0,-255.0,-39.0
19:41:23.256000,-3597.0,-1760.0,-938.0,-941.0,44.0,894.0,495.0,-255.0,-39.0
19:41:23.261000,-3556.0,-1782.0,-989.0,-928.0,60.0,889.0,484.0,-231.0,-30.0
19:41:23.266000,-3539.0,-1768.0,-987.0,-896.0,29.0,882.0,484.0,-231.0,-30.0
19:41:23.271000,-3518.0,-1766.0,-891.0,-906.0,26.0,884.0,468.0,-216.0,-39.0
19:41:23.275000,-3490.0,-1765.0,-819.0,-958.0,96.0,877.0,468.0,-216.0,-39.0
19:41:23.279000,-3482.0,-1748.0,-820.0,-973.0,142.0,879.0,468.0,-216.0,-39.0
19:41:23.285000,-3473.0,-1743.0,-798.0,-946.0,139.0,885.0,445.0,-171.0,-21.0
19:41:23.289000,-3454.0,-1742.0,-735.0,-933.0,148.0,873.0,445.0,-171.0,-21.0
19:41:23.294000,-3430.0,-1731.0,-712.0,-923.0,176.0,864.0,432.0,-148.0,-16.0
19:41:23.298000,-3401.0,-1724.0,-731.0,-903.0,207.0,854.0,432.0,-148.0,-16.0
19:41:23.303000,-3362.0,-1715.0,-744.0,-868.0,203.0,839.0,432.0,-148.0,-16.0
19:41:23.308000,-3331.0,-1703.0,-689.0,-851.0,198.0,823.0,411.0,-144.0,3.0
19:41:23.313000,-3297.0,-1687.0,-646.0,-896.0,252.0,807.0,411.0,-144.0,3.0
19:41:23.318000,-3268.0,-1667.0,-643.0,-896.0,252.0,807.0,423.0,-115.0,-1.0
19:41:23.322000,-3228.0,-1658.0,-679.0,-952.0,350.0,799.0,423.0,-115.0,-1.0
19:41:23.326000,-3189.0,-1649.0,-716.0,-957.0,363.0,789.0,423.0,-115.0,-1.0
19:41:23.332000,-3145.0,-1645.0,-718.0,-908.0,359.0,776.0,417.0,-112.0,18.0
19:41:23.336000,-3094.0,-1632.0,-727.0,-858.0,328.0,758.0,417.0,-112.0,18.0
19:41:23.341000,-3039.0,-1622.0,-739.0,-832.0,301.0,740.0,403.0,-99.0,24.0
19:41:23.346000,-2984.0,-1607.0,-727.0,-821.0,285.0,723.0,403.0,-99.0,24.0
19:41:23.350000,-2932.0,-1579.0,-700.0,-824.0,281.0,697.0,403.0,-99.0,24.0
19:41:23.355000,-2882.0,-1551.0,-704.0,-843.0,328.0,672.0,390.0,-70.0,49.0
19:41:23.360000,-2845.0,-1533.0,-718.0,-852.0,405.0,666.0,390.0,-70.0,49.0
19:41:23.365000,-2812.0,-1518.0,-728.0,-835.0,453.0,664.0,388.0,-63.0,63.0
19:41:23.369000,-2812.0,-1518.0,-728.0,-813.0,484.0,647.0,388.0,-63.0,63.0
19:41:23.373000,-2773.0,-1498.0,-743.0,-799.0,494.0,634.0,388.0,-63.0,63.0
19:41:23.378000,-2730.0,-1487.0,-763.0,-779.0,486.0,622.0,375.0,-51.0,76.0
19:41:23.383000,-2676.0,-1474.0,-782.0,-759.0,471.0,599.0,375.0,-51.0,76.0
19:41:23.388000,-2608.0,-1460.0,-803.0,-750.0,452.0,576.0,370.0,-46.0,91.0
19:41:23.393000,-2534.0,-1444.0,-810.0,-739.0,447.0,562.0,370.0,-46.0,91.0
19:41:23.397000,-2472.0,-1435.0,-793.0,-710.0,453.0,546.0,370.0,-46.0,91.0
19:41:23.402000,-2403.0,-1417.0,-761.0,-696.0,475.0,522.0,354.0,-40.0,108.0
19:41:23.407000,-2335.0,-1388.0,-735.0,-714.0,509.0,510.0,354.0,-40.0,108.0
19:41:23.412000,-2279.0,-1357.0,-696.0,-718.0,520.0,499.0,351.0,-31.0,108.0
19:41:23.416000,-2233.0,-1318.0,-625.0,-717.0,528.0,485.0,351.0,-31.0,108.0
19:41:23.420000,-2188.0,-1281.0,-568.0,-734.0,549.0,477.0,351.0,-31.0,108.0
19:41:23.426000,-2146.0,-1249.0,-546.0,-738.0,553.0,466.0,343.0,-21.0,141.0
19:41:23.430000,-2105.0,-1217.0,-510.0,-722.0,541.0,447.0,343.0,-21.0,141.0
19:41:23.435000,-2066.0,-1176.0,-450.0,-722.0,541.0,447.0,313.0,-12.0,160.0
19:41:23.440000,-2023.0,-1134.0,-389.0,-710.0,528.0,424.0,313.0,-12.0,160.0
19:41:23.445000,-1974.0,-1096.0,-348.0,-712.0,518.0,402.0,331.0,-12.0,159.0
19:41:23.449000,-1925.0,-1059.0,-330.0,-721.0,517.0,382.0,331.0,-12.0,159.0
19:41:23.453000,-1878.0,-1020.0,-331.0,-729.0,531.0,361.0,331.0,-12.0,159.0
19:41:23.459000,-1831.0,-982.0,-348.0,-740.0,560.0,340.0,327.0,-4.0,171.0
19:41:23.463000,-1789.0,-942.0,-374.0,-737.0,579.0,325.0,327.0,-4.0,171.0
19:41:23.468000,-1747.0,-906.0,-385.0,-715.0,560.0,313.0,328.0,-1.0,184.0
19:41:23.473000,-1698.0,-867.0,-361.0,-685.0,512.0,296.0,328.0,-1.0,184.0
19:41:23.477000,-1698.0,-867.0,-361.0,-673.0,466.0,277.0,328.0,-1.0,184.0
19:41:23.482000,-1644.0,-828.0,-347.0,-683.0,458.0,263.0,318.0,0.0,202.0
19:41:23.487000,-1589.0,-797.0,-385.0,-679.0,490.0,250.0,318.0,0.0,202.0
19:41:23.492000,-1531.0,-770.0,-445.0,-648.0,538.0,239.0,313.0,-1.0,201.0
19:41:23.496000,-1487.0,-745.0,-495.0,-604.0,589.0,229.0,313.0,-1.0,201.0
19:41:23.500000,-1453.0,-721.0,-529.0,-566.0,618.0,221.0,313.0,-1.0,201.0
19:41:23.506000,-1420.0,-701.0,-551.0,-546.0,624.0,218.0,313.0,-1.0,211.0
19:41:23.510000,-1386.0,-687.0,-573.0,-540.0,624.0,212.0,313.0,-1.0,211.0
19:41:23.515000,-1351.0,-672.0,-600.0,-538.0,630.0,201.0,303.0,6.0,228.0
19:41:23.520000,-1319.0,-656.0,-625.0,-528.0,650.0,191.0,303.0,6.0,228.0
19:41:23.524000,-1293.0,-645.0,-642.0,-507.0,666.0,187.0,303.0,6.0,228.0
19:41:23.529000,-1269.0,-639.0,-643.0,-483.0,667.0,185.0,285.0,-4.0,237.0
19:41:23.534000,-1244.0,-634.0,-643.0,-462.0,662.0,179.0,285.0,-4.0,237.0
19:41:23.539000,-1216.0,-625.0,-645.0,-462.0,662.0,179.0,292.0,6.0,243.0
19:41:23.543000,-1188.0,-611.0,-655.0,-443.0,663.0,167.0,292.0,6.0,243.0
19:41:23.547000,-1166.0,-593.0,-673.0,-434.0,674.0,158.0,292.0,6.0,243.0
19:41:23.553000,-1144.0,-576.0,-686.0,-425.0,696.0,150.0,304.0,3.0,253.0
19:41:23.557000,-1124.0,-564.0,-693.0,-419.0,716.0,143.0,304.0,3.0,253.0
19:41:23.562000,-1109.0,-553.0,-700.0,-416.0,722.0,138.0,279.0,7.0,265.0
19:41:23.567000,-1087.0,-537.0,-707.0,-413.0,721.0,125.0,279.0,7.0,265.0
19:41:23.571000,-1061.0,-526.0,-712.0,-412.0,715.0,110.0,279.0,7.0,265.0
19:41:23.576000,-1031.0,-515.0,-711.0,-413.0,709.0,102.0,285.0,9.0,270.0
19:41:23.581000,-1000.0,-506.0,-710.0,-409.0,700.0,97.0,285.0,9.0,270.0
19:41:23.585000,-967.0,-498.0,-706.0,-398.0,691.0,95.0,279.0,4.0,274.0
19:41:23.590000,-967.0,-498.0,-706.0,-382.0,684.0,95.0,279.0,4.0,274.0
19:41:23.594000,-933.0,-498.0,-690.0,-364.0,675.0,96.0,279.0,4.0,274.0
19:41:23.600000,-901.0,-499.0,-666.0,-355.0,675.0,97.0,273.0,3.0,292.0
19:41:23.604000,-872.0,-493.0,-640.0,-363.0,693.0,97.0,273.0,3.0,292.0
19:41:23.609000,-846.0,-485.0,-620.0,-386.0,720.0,97.0,276.0,13.0,289.0
19:41:23.614000,-820.0,-473.0,-611.0,-413.0,737.0,98.0,276.0,13.0,289.0
19:41:23.618000,-799.0,-456.0,-605.0,-436.0,737.0,102.0,276.0,13.0,289.0
19:41:23.623000,-782.0,-434.0,-596.0,-457.0,720.0,105.0,267.0,-3.0,303.0
19:41:23.628000,-767.0,-408.0,-590.0,-471.0,694.0,101.0,267.0,-3.0,303.0
19:41:23.632000,-751.0,-380.0,-578.0,-479.0,665.0,92.0,264.0,1.0,307.0
19:41:23.637000,-730.0,-350.0,-559.0,-496.0,654.0,83.0,264.0,1.0,307.0
19:41:23.641000,-703.0,-320.0,-558.0,-519.0,670.0,81.0,264.0,1.0,307.0
19:41:23.647000,-678.0,-296.0,-581.0,-523.0,685.0,82.0,255.0,0.0,309.0
19:41:23.651000,-653.0,-278.0,-597.0,-523.0,685.0,82.0,255.0,0.0,309.0
19:41:23.655000,-630.0,-273.0,-595.0,-434.0,656.0,94.0,246.0,3.0,313.0
19:41:23.661000,-604.0,-269.0,-595.0,-434.0,656.0,94.0,246.0,3.0,313.0
