hh:mm:ss.ms,gyroX[mdps],gyroY[mdps],gyroZ[mdps],accX[mg],accY[mg],accZ[mg],magX[mG],magY[mG],magZ[mG]
19:37:00.081000,252.0,131.0,9.0,-1431.0,516.0,-63.0,0.0,0.0,0.0
19:37:00.085000,253.0,136.0,-70.0,-1431.0,516.0,-63.0,0.0,0.0,0.0
19:37:00.090000,211.0,165.0,165.0,-1390.0,490.0,-13.0,0.0,0.0,0.0
19:37:00.095000,84.0,102.0,130.0,-1390.0,490.0,-13.0,0.0,0.0,0.0
19:37:00.099000,-64.0,65.0,175.0,-1198.0,384.0,42.0,0.0,0.0,0.0
19:37:00.104000,-129.0,73.0,326.0,-1198.0,384.0,42.0,0.0,0.0,0.0
19:37:00.109000,-110.0,99.0,455.0,-1223.0,27.0,61.0,0.0,0.0,0.0
19:37:00.114000,-144.0,76.0,327.0,-1223.0,27.0,61.0,0.0,0.0,0.0
19:37:00.118000,-111.0,72.0,155.0,-1274.0,-330.0,95.0,0.0,0.0,0.0
19:37:00.123000,-128.0,90.0,286.0,-1274.0,-330.0,95.0,0.0,0.0,0.0
19:37:00.128000,-193.0,108.0,480.0,-1274.0,-330.0,95.0,0.0,0.0,0.0
19:37:00.132000,-196.0,83.0,585.0,-1061.0,-627.0,156.0,0.0,0.0,0.0
19:37:00.137000,-277.0,53.0,725.0,-1061.0,-627.0,156.0,0.0,0.0,0.0
19:37:00.142000,-257.0,106.0,868.0,-979.0,-826.0,184.0,0.0,0.0,0.0
19:37:00.146000,-118.0,77.0,675.0,-979.0,-826.0,184.0,0.0,0.0,0.0
19:37:00.151000,-120.0,57.0,278.0,-1158.0,-801.0,149.0,0.0,0.0,0.0
19:37:00.156000,-70.0,51.0,-42.0,-1158.0,-801.0,149.0,0.0,0.0,0.0
19:37:00.161000,149.0,54.0,-54.0,-984.0,-784.0,81.0,0.0,0.0,0.0
19:37:00.165000,177.0,40.0,-28.0,-984.0,-784.0,81.0,0.0,0.0,0.0
19:37:00.170000,177.0,40.0,-28.0,-836.0,-857.0,75.0,0.0,0.0,0.0
19:37:00.175000,214.0,17.0,-479.0,-836.0,-857.0,75.0,0.0,0.0,0.0
19:37:00.179000,92.0,49.0,-854.0,-996.0,-654.0,63.0,0.0,0.0,0.0
19:37:00.184000,88.0,123.0,-653.0,-996.0,-654.0,63.0,0.0,0.0,0.0
19:37:00.189000,108.0,115.0,-620.0,-1112.0,-431.0,15.0,0.0,0.0,0.0
19:37:00.193000,35.0,85.0,-847.0,-1112.0,-431.0,15.0,0.0,0.0,0.0
19:37:00.198000,69.0,78.0,-586.0,-1103.0,-372.0,-31.0,0.0,0.0,0.0
19:37:00.203000,61.0,45.0,-373.0,-1103.0,-372.0,-31.0,0.0,0.0,0.0
19:37:00.208000,58.0,29.0,-385.0,-935.0,-176.0,-67.0,0.0,0.0,0.0
19:37:00.212000,65.0,-10.0,-297.0,-935.0,-176.0,-67.0,0.0,0.0,0.0
19:37:00.217000,-55.0,-51.0,-217.0,-914.0,-142.0,-67.0,0.0,0.0,0.0
19:37:00.222000,-44.0,-106.0,-300.0,-914.0,-142.0,-67.0,0.0,0.0,0.0
19:37:00.226000,58.0,-133.0,-337.0,-869.0,-199.0,-48.0,0.0,0.0,0.0
19:37:00.231000,-19.0,-179.0,-347.0,-869.0,-199.0,-48.0,0.0,0.0,0.0
19:37:00.236000,-81.0,-196.0,-354.0,-869.0,-199.0,-48.0,0.0,0.0,0.0
19:37:00.240000,-79.0,-191.0,-153.0,-794.0,-249.0,-35.0,0.0,0.0,0.0
19:37:00.245000,-81.0,-210.0,-23.0,-794.0,-249.0,-35.0,0.0,0.0,0.0
19:37:00.250000,-35.0,-252.0,164.0,-887.0,-381.0,-54.0,0.0,0.0,0.0
19:37:00.255000,-53.0,-292.0,339.0,-887.0,-381.0,-54.0,0.0,0.0,0.0
19:37:00.259000,-135.0,-333.0,314.0,-898.0,-307.0,-43.0,0.0,0.0,0.0
19:37:00.264000,-175.0,-333.0,243.0,-898.0,-307.0,-43.0,0.0,0.0,0.0
19:37:00.269000,-128.0,-305.0,104.0,-883.0,-215.0,-6.0,0.0,0.0,0.0
19:37:00.273000,-23.0,-275.0,88.0,-883.0,-215.0,-6.0,0.0,0.0,0.0
19:37:00.278000,-23.0,-275.0,88.0,-979.0,-397.0,-3.0,0.0,0.0,0.0
19:37:00.283000,31.0,-269.0,165.0,-979.0,-397.0,-3.0,0.0,0.0,0.0
19:37:00.287000,-51.0,-291.0,16.0,-979.0,-439.0,33.0,0.0,0.0,0.0
19:37:00.292000,-102.0,-268.0,-215.0,-979.0,-439.0,33.0,0.0,0.0,0.0
19:37:00.297000,-106.0,-263.0,-186.0,-828.0,-333.0,56.0,0.0,0.0,0.0
19:37:00.302000,-219.0,-259.0,-19.0,-828.0,-333.0,56.0,0.0,0.0,0.0
19:37:00.306000,-287.0,-247.0,74.0,-882.0,-262.0,43.0,0.0,0.0,0.0
19:37:00.311000,-312.0,-261.0,-32.0,-882.0,-262.0,43.0,0.0,0.0,0.0
19:37:00.316000,-291.0,-226.0,-81.0,-1111.0,-330.0,36.0,0.0,0.0,0.0
19:37:00.320000,-233.0,-222.0,-86.0,-1111.0,-330.0,36.0,0.0,0.0,0.0
19:37:00.325000,-190.0,-202.0,-195.0,-1137.0,-401.0,47.0,0.0,0.0,0.0
19:37:00.330000,-154.0,-169.0,-369.0,-1137.0,-401.0,47.0,0.0,0.0,0.0
19:37:00.334000,-153.0,-136.0,-496.0,-1072.0,-304.0,95.0,0.0,0.0,0.0
19:37:00.339000,-177.0,-121.0,-611.0,-1072.0,-304.0,95.0,0.0,0.0,0.0
19:37:00.344000,-182.0,-96.0,-558.0,-1072.0,-304.0,95.0,0.0,0.0,0.0
19:37:00.349000,-177.0,-77.0,-382.0,-1066.0,-396.0,126.0,0.0,0.0,0.0
19:37:00.353000,-149.0,-49.0,-298.0,-1098.0,-466.0,103.0,0.0,0.0,0.0
19:37:00.358000,-70.0,-40.0,-246.0,-1098.0,-466.0,103.0,0.0,0.0,0.0
19:37:00.363000,-36.0,-13.0,-154.0,-1098.0,-466.0,103.0,0.0,0.0,0.0
19:37:00.367000,3.0,-11.0,-142.0,-1151.0,-342.0,84.0,0.0,0.0,0.0
19:37:00.372000,37.0,-18.0,-232.0,-1151.0,-342.0,84.0,0.0,0.0,0.0
19:37:00.377000,72.0,-8.0,-312.0,-1169.0,-284.0,103.0,0.0,0.0,0.0
19:37:00.381000,153.0,46.0,-378.0,-1169.0,-284.0,103.0,0.0,0.0,0.0
19:37:00.386000,153.0,46.0,-378.0,-1079.0,-263.0,100.0,0.0,0.0,0.0
19:37:00.391000,169.0,86.0,-455.0,-1079.0,-263.0,100.0,0.0,0.0,0.0
19:37:00.396000,119.0,65.0,-501.0,-1060.0,-301.0,121.0,0.0,0.0,0.0
19:37:00.400000,109.0,72.0,-337.0,-1060.0,-301.0,121.0,0.0,0.0,0.0
19:37:00.405000,72.0,74.0,-3.0,-1085.0,-342.0,132.0,0.0,0.0,0.0
19:37:00.410000,135.0,61.0,-67.0,-1085.0,-342.0,132.0,0.0,0.0,0.0
19:37:00.414000,149.0,79.0,-316.0,-1086.0,-223.0,117.0,0.0,0.0,0.0
19:37:00.419000,156.0,111.0,-473.0,-1086.0,-223.0,117.0,0.0,0.0,0.0
19:37:00.424000,163.0,113.0,-521.0,-1048.0,-228.0,144.0,0.0,0.0,0.0
19:37:00.428000,169.0,135.0,-469.0,-1048.0,-228.0,144.0,0.0,0.0,0.0
19:37:00.433000,163.0,179.0,-575.0,-1042.0,-295.0,158.0,0.0,0.0,0.0
19:37:00.438000,137.0,203.0,-658.0,-1042.0,-295.0,158.0,0.0,0.0,0.0
19:37:00.443000,147.0,208.0,-655.0,-1135.0,-266.0,156.0,0.0,0.0,0.0
19:37:00.447000,144.0,253.0,-570.0,-1135.0,-266.0,156.0,0.0,0.0,0.0
19:37:00.452000,184.0,296.0,-480.0,-1135.0,-266.0,156.0,0.0,0.0,0.0
19:37:00.457000,168.0,327.0,-503.0,-1198.0,-222.0,148.0,0.0,0.0,0.0
19:37:00.461000,191.0,349.0,-590.0,-1198.0,-222.0,148.0,0.0,0.0,0.0
19:37:00.466000,208.0,364.0,-711.0,-1146.0,-90.0,132.0,0.0,0.0,0.0
19:37:00.471000,184.0,347.0,-768.0,-1146.0,-90.0,132.0,0.0,0.0,0.0
19:37:00.475000,140.0,355.0,-758.0,-928.0,-87.0,126.0,0.0,0.0,0.0
19:37:00.480000,148.0,368.0,-636.0,-928.0,-87.0,126.0,0.0,0.0,0.0
19:37:00.485000,150.0,364.0,-581.0,-848.0,-107.0,99.0,0.0,0.0,0.0
19:37:00.490000,126.0,345.0,-636.0,-848.0,-107.0,99.0,0.0,0.0,0.0
19:37:00.494000,126.0,345.0,-636.0,-1011.0,-13.0,75.0,0.0,0.0,0.0
19:37:00.499000,105.0,345.0,-728.0,-1011.0,-13.0,75.0,0.0,0.0,0.0
19:37:00.504000,106.0,345.0,-774.0,-1037.0,-31.0,58.0,0.0,0.0,0.0
19:37:00.508000,117.0,353.0,-677.0,-1037.0,-31.0,58.0,0.0,0.0,0.0
19:37:00.513000,113.0,342.0,-433.0,-935.0,-103.0,48.0,0.0,0.0,0.0
19:37:00.518000,82.0,338.0,-427.0,-935.0,-103.0,48.0,0.0,0.0,0.0
19:37:00.522000,98.0,345.0,-478.0,-923.0,-36.0,46.0,0.0,0.0,0.0
19:37:00.527000,113.0,348.0,-446.0,-923.0,-36.0,46.0,0.0,0.0,0.0
19:37:00.531000,116.0,357.0,-419.0,-914.0,5.0,35.0,0.0,0.0,0.0
19:37:00.537000,133.0,349.0,-341.0,-914.0,5.0,35.0,0.0,0.0,0.0
19:37:00.541000,113.0,333.0,-291.0,-891.0,-52.0,43.0,0.0,0.0,0.0
19:37:00.546000,109.0,328.0,-210.0,-891.0,-52.0,43.0,0.0,0.0,0.0
19:37:00.551000,118.0,324.0,-197.0,-926.0,-59.0,40.0,0.0,0.0,0.0
19:37:00.555000,117.0,327.0,-251.0,-926.0,-59.0,40.0,0.0,0.0,0.0
19:37:00.560000,158.0,354.0,-265.0,-926.0,-59.0,40.0,0.0,0.0,0.0
19:37:00.565000,176.0,368.0,-253.0,-999.0,-77.0,10.0,0.0,0.0,0.0
19:37:00.569000,168.0,391.0,-218.0,-999.0,-77.0,10.0,0.0,0.0,0.0
19:37:00.574000,170.0,413.0,-184.0,-1032.0,-85.0,-2.0,0.0,0.0,0.0
19:37:00.579000,175.0,424.0,-170.0,-1032.0,-85.0,-2.0,0.0,0.0,0.0
19:37:00.584000,170.0,427.0,-320.0,-1056.0,-45.0,13.0,0.0,0.0,0.0
19:37:00.588000,158.0,429.0,-473.0,-1056.0,-45.0,13.0,0.0,0.0,0.0
19:37:00.593000,160.0,455.0,-273.0,-966.0,-34.0,16.0,0.0,0.0,0.0
19:37:00.598000,178.0,452.0,-17.0,-966.0,-34.0,16.0,0.0,0.0,0.0
19:37:00.602000,165.0,427.0,-71.0,-842.0,9.0,-10.0,0.0,0.0,0.0
19:37:00.607000,165.0,427.0,-71.0,-842.0,9.0,-10.0,0.0,0.0,0.0
19:37:00.612000,193.0,412.0,-210.0,-856.0,15.0,-45.0,0.0,0.0,0.0
19:37:00.616000,226.0,398.0,-290.0,-856.0,15.0,-45.0,0.0,0.0,0.0
19:37:00.621000,210.0,393.0,-255.0,-887.0,-59.0,-60.0,0.0,0.0,0.0
19:37:00.626000,198.0,386.0,-228.0,-887.0,-59.0,-60.0,0.0,0.0,0.0
19:37:00.631000,207.0,381.0,-224.0,-926.0,-38.0,-63.0,0.0,0.0,0.0
19:37:00.635000,186.0,389.0,-231.0,-926.0,-38.0,-63.0,0.0,0.0,0.0
19:37:00.640000,140.0,401.0,-252.0,-972.0,-1.0,-60.0,0.0,0.0,0.0
19:37:00.645000,115.0,420.0,-249.0,-972.0,-1.0,-60.0,0.0,0.0,0.0
19:37:00.649000,169.0,460.0,-193.0,-1025.0,-70.0,-87.0,0.0,0.0,0.0
19:37:00.654000,242.0,465.0,-149.0,-1025.0,-70.0,-87.0,0.0,0.0,0.0
19:37:00.659000,287.0,459.0,-135.0,-1026.0,-92.0,-101.0,0.0,0.0,0.0
19:37:00.663000,332.0,478.0,-196.0,-1026.0,-92.0,-101.0,0.0,0.0,0.0
19:37:00.668000,381.0,483.0,-344.0,-1026.0,-92.0,-101.0,0.0,0.0,0.0
19:37:00.673000,387.0,472.0,-369.0,-901.0,-53.0,-86.0,0.0,0.0,0.0
19:37:00.678000,404.0,466.0,-240.0,-901.0,-53.0,-86.0,0.0,0.0,0.0
19:37:00.682000,406.0,455.0,-217.0,-786.0,-44.0,-91.0,0.0,0.0,0.0
19:37:00.687000,392.0,443.0,-217.0,-786.0,-44.0,-91.0,0.0,0.0,0.0
19:37:00.692000,409.0,430.0,-105.0,-829.0,-33.0,-97.0,0.0,0.0,0.0
19:37:00.696000,447.0,439.0,-32.0,-829.0,-33.0,-97.0,0.0,0.0,0.0
19:37:00.701000,472.0,443.0,-17.0,-935.0,-35.0,-121.0,0.0,0.0,0.0
19:37:00.706000,483.0,455.0,-8.0,-935.0,-35.0,-121.0,0.0,0.0,0.0
19:37:00.710000,478.0,464.0,-2.0,-997.0,10.0,-127.0,0.0,0.0,0.0
19:37:00.715000,478.0,464.0,-2.0,-997.0,10.0,-127.0,0.0,0.0,0.0
19:37:00.720000,472.0,484.0,42.0,-1057.0,38.0,-113.0,0.0,0.0,0.0
19:37:00.725000,474.0,501.0,126.0,-1057.0,38.0,-113.0,0.0,0.0,0.0
19:37:00.729000,477.0,518.0,189.0,-1110.0,21.0,-103.0,0.0,0.0,0.0
19:37:00.734000,482.0,528.0,182.0,-1110.0,21.0,-103.0,0.0,0.0,0.0
19:37:00.739000,497.0,554.0,119.0,-1071.0,8.0,-123.0,0.0,0.0,0.0
19:37:00.743000,526.0,600.0,7.0,-1071.0,8.0,-123.0,0.0,0.0,0.0
19:37:00.748000,560.0,644.0,-42.0,-1032.0,5.0,-156.0,0.0,0.0,0.0
19:37:00.753000,577.0,676.0,58.0,-1032.0,5.0,-156.0,0.0,0.0,0.0
19:37:00.757000,581.0,694.0,233.0,-1104.0,28.0,-145.0,0.0,0.0,0.0
19:37:00.762000,615.0,728.0,261.0,-1104.0,28.0,-145.0,0.0,0.0,0.0
19:37:00.767000,662.0,762.0,152.0,-1222.0,-79.0,-140.0,0.0,0.0,0.0
19:37:00.772000,705.0,779.0,25.0,-1222.0,-79.0,-140.0,0.0,0.0,0.0
19:37:00.776000,721.0,793.0,37.0,-1165.0,-252.0,-143.0,0.0,0.0,0.0
19:37:00.781000,785.0,818.0,95.0,-1165.0,-252.0,-143.0,0.0,0.0,0.0
19:37:00.786000,809.0,831.0,95.0,-1165.0,-252.0,-143.0,0.0,0.0,0.0
19:37:00.790000,856.0,856.0,110.0,-963.0,-234.0,-154.0,0.0,0.0,0.0
19:37:00.795000,963.0,892.0,135.0,-963.0,-234.0,-154.0,0.0,0.0,0.0
19:37:00.800000,1031.0,916.0,193.0,-913.0,-112.0,-202.0,0.0,0.0,0.0
19:37:00.804000,1101.0,934.0,285.0,-913.0,-112.0,-202.0,0.0,0.0,0.0
19:37:00.809000,1165.0,974.0,305.0,-999.0,-92.0,-236.0,0.0,0.0,0.0
19:37:00.814000,1236.0,1020.0,259.0,-999.0,-92.0,-236.0,0.0,0.0,0.0
19:37:00.819000,1286.0,1069.0,245.0,-1075.0,-83.0,-247.0,0.0,0.0,0.0
19:37:00.823000,1286.0,1069.0,245.0,-1075.0,-83.0,-247.0,0.0,0.0,0.0
19:37:00.828000,1351.0,1117.0,277.0,-1077.0,-78.0,-243.0,0.0,0.0,0.0
19:37:00.833000,1427.0,1161.0,309.0,-1077.0,-78.0,-243.0,0.0,0.0,0.0
19:37:00.837000,1510.0,1208.0,367.0,-1089.0,-130.0,-213.0,0.0,0.0,0.0
19:37:00.842000,1603.0,1285.0,422.0,-1089.0,-130.0,-213.0,0.0,0.0,0.0
19:37:00.847000,1638.0,1337.0,443.0,-1268.0,-105.0,-196.0,0.0,0.0,0.0
19:37:00.851000,1657.0,1393.0,441.0,-1268.0,-105.0,-196.0,0.0,0.0,0.0
19:37:00.856000,1664.0,1464.0,429.0,-1395.0,-3.0,-217.0,0.0,0.0,0.0
19:37:00.861000,1698.0,1533.0,479.0,-1395.0,-3.0,-217.0,0.0,0.0,0.0
19:37:00.865000,1723.0,1600.0,543.0,-1287.0,37.0,-241.0,0.0,0.0,0.0
19:37:00.870000,1747.0,1674.0,618.0,-1287.0,37.0,-241.0,0.0,0.0,0.0
19:37:00.875000,1767.0,1722.0,668.0,-1193.0,34.0,-226.0,0.0,0.0,0.0
19:37:00.880000,1759.0,1787.0,690.0,-1193.0,34.0,-226.0,0.0,0.0,0.0
19:37:00.884000,1810.0,1830.0,657.0,-1193.0,140.0,-202.0,0.0,0.0,0.0
19:37:00.889000,1855.0,1895.0,563.0,-1193.0,140.0,-202.0,0.0,0.0,0.0
19:37:00.894000,1908.0,1931.0,595.0,-1193.0,140.0,-202.0,0.0,0.0,0.0
19:37:00.898000,1918.0,1953.0,739.0,-1191.0,161.0,-181.0,0.0,0.0,0.0
19:37:00.903000,1900.0,1974.0,924.0,-1191.0,161.0,-181.0,0.0,0.0,0.0
19:37:00.908000,1850.0,2000.0,1068.0,-1048.0,75.0,-199.0,0.0,0.0,0.0
19:37:00.912000,1863.0,2034.0,1005.0,-1048.0,75.0,-199.0,0.0,0.0,0.0
19:37:00.917000,1862.0,2090.0,826.0,-1036.0,188.0,-245.0,0.0,0.0,0.0
19:37:00.922000,1950.0,2084.0,756.0,-1036.0,188.0,-245.0,0.0,0.0,0.0
19:37:00.927000,1946.0,2143.0,741.0,-1060.0,278.0,-284.0,0.0,0.0,0.0
19:37:00.931000,1871.0,2177.0,711.0,-1060.0,278.0,-284.0,0.0,0.0,0.0
19:37:00.936000,1871.0,2177.0,711.0,-983.0,198.0,-303.0,0.0,0.0,0.0
19:37:00.941000,1841.0,2224.0,696.0,-983.0,198.0,-303.0,0.0,0.0,0.0
19:37:00.945000,1785.0,2261.0,767.0,-1048.0,68.0,-318.0,0.0,0.0,0.0
19:37:00.950000,1747.0,2265.0,905.0,-1048.0,68.0,-318.0,0.0,0.0,0.0
19:37:00.955000,1734.0,2270.0,874.0,-1121.0,39.0,-379.0,0.0,0.0,0.0
19:37:00.959000,1688.0,2305.0,711.0,-1121.0,39.0,-379.0,0.0,0.0,0.0
19:37:00.964000,1639.0,2322.0,575.0,-1092.0,148.0,-433.0,0.0,0.0,0.0
19:37:00.969000,1569.0,2324.0,495.0,-1092.0,148.0,-433.0,0.0,0.0,0.0
19:37:00.974000,1503.0,2337.0,472.0,-919.0,105.0,-469.0,0.0,0.0,0.0
19:37:00.978000,1539.0,2299.0,490.0,-919.0,105.0,-469.0,0.0,0.0,0.0
19:37:00.983000,1551.0,2280.0,521.0,-813.0,-53.0,-482.0,0.0,0.0,0.0
19:37:00.988000,1606.0,2263.0,305.0,-813.0,-53.0,-482.0,0.0,0.0,0.0
19:37:00.992000,1625.0,2271.0,79.0,-694.0,-97.0,-498.0,0.0,0.0,0.0
19:37:00.997000,1638.0,2305.0,14.0,-694.0,-97.0,-498.0,0.0,0.0,0.0
19:37:01.001000,1792.0,2157.0,7.0,-679.0,-77.0,-477.0,0.0,0.0,0.0
19:37:01.006000,1858.0,2075.0,-72.0,-679.0,-77.0,-477.0,0.0,0.0,0.0
19:37:01.011000,1900.0,2105.0,-82.0,-679.0,-77.0,-477.0,0.0,0.0,0.0
19:37:01.016000,1937.0,2111.0,-41.0,-650.0,-143.0,-476.0,0.0,0.0,0.0
19:37:01.021000,2000.0,2059.0,-55.0,-650.0,-143.0,-476.0,0.0,0.0,0.0
19:37:01.025000,2024.0,2016.0,-159.0,-561.0,-172.0,-490.0,0.0,0.0,0.0
19:37:01.030000,2041.0,1981.0,-259.0,-561.0,-172.0,-490.0,0.0,0.0,0.0
19:37:01.035000,2013.0,1935.0,-280.0,-561.0,-59.0,-464.0,0.0,0.0,0.0
19:37:01.039000,2007.0,1901.0,-249.0,-561.0,-59.0,-464.0,0.0,0.0,0.0
19:37:01.044000,2007.0,1901.0,-249.0,-429.0,44.0,-467.0,0.0,0.0,0.0
19:37:01.049000,2005.0,1873.0,-237.0,-429.0,44.0,-467.0,0.0,0.0,0.0
19:37:01.053000,2013.0,1850.0,-240.0,-356.0,148.0,-475.0,0.0,0.0,0.0
19:37:01.058000,1983.0,1837.0,-213.0,-356.0,148.0,-475.0,0.0,0.0,0.0
19:37:01.063000,1953.0,1832.0,-142.0,-363.0,279.0,-474.0,0.0,0.0,0.0
19:37:01.068000,1894.0,1808.0,-150.0,-363.0,279.0,-474.0,0.0,0.0,0.0
19:37:01.072000,1836.0,1790.0,-193.0,-397.0,380.0,-468.0,0.0,0.0,0.0
19:37:01.077000,1773.0,1774.0,-189.0,-397.0,380.0,-468.0,0.0,0.0,0.0
19:37:01.082000,1687.0,1769.0,-126.0,-408.0,442.0,-473.0,0.0,0.0,0.0
19:37:01.086000,1620.0,1764.0,-95.0,-408.0,442.0,-473.0,0.0,0.0,0.0
19:37:01.091000,1558.0,1769.0,-113.0,-430.0,485.0,-496.0,0.0,0.0,0.0
19:37:01.096000,1497.0,1771.0,-133.0,-430.0,485.0,-496.0,0.0,0.0,0.0
19:37:01.100000,1442.0,1759.0,-137.0,-466.0,538.0,-518.0,0.0,0.0,0.0
19:37:01.105000,1397.0,1748.0,-116.0,-466.0,538.0,-518.0,0.0,0.0,0.0
19:37:01.110000,1343.0,1736.0,-57.0,-466.0,538.0,-518.0,0.0,0.0,0.0
19:37:01.115000,1288.0,1721.0,10.0,-414.0,569.0,-531.0,0.0,0.0,0.0
19:37:01.119000,1232.0,1712.0,50.0,-414.0,569.0,-531.0,0.0,0.0,0.0
19:37:01.124000,1180.0,1698.0,63.0,-376.0,606.0,-548.0,0.0,0.0,0.0
19:37:01.129000,1131.0,1684.0,52.0,-376.0,606.0,-548.0,0.0,0.0,0.0
19:37:01.133000,1087.0,1671.0,21.0,-373.0,654.0,-563.0,0.0,0.0,0.0
19:37:01.138000,1040.0,1655.0,28.0,-373.0,654.0,-563.0,0.0,0.0,0.0
19:37:01.143000,996.0,1634.0,109.0,-317.0,677.0,-566.0,0.0,0.0,0.0
19:37:01.147000,954.0,1609.0,201.0,-317.0,677.0,-566.0,0.0,0.0,0.0
19:37:01.152000,954.0,1609.0,201.0,-250.0,665.0,-564.0,0.0,0.0,0.0
19:37:01.157000,909.0,1586.0,251.0,-250.0,665.0,-564.0,0.0,0.0,0.0
19:37:01.162000,881.0,1561.0,265.0,-223.0,638.0,-574.0,0.0,0.0,0.0
19:37:01.166000,859.0,1537.0,270.0,-223.0,638.0,-574.0,0.0,0.0,0.0
19:37:01.171000,831.0,1508.0,285.0,-191.0,631.0,-586.0,0.0,0.0,0.0
19:37:01.176000,806.0,1481.0,298.0,-191.0,631.0,-586.0,0.0,0.0,0.0
19:37:01.180000,769.0,1454.0,310.0,-157.0,665.0,-591.0,0.0,0.0,0.0
19:37:01.185000,730.0,1424.0,321.0,-157.0,665.0,-591.0,0.0,0.0,0.0
19:37:01.190000,693.0,1395.0,326.0,-148.0,722.0,-592.0,0.0,0.0,0.0
19:37:01.194000,639.0,1371.0,338.0,-148.0,722.0,-592.0,0.0,0.0,0.0
19:37:01.199000,590.0,1346.0,364.0,-146.0,742.0,-591.0,0.0,0.0,0.0
19:37:01.204000,548.0,1320.0,396.0,-146.0,742.0,-591.0,0.0,0.0,0.0
19:37:01.209000,504.0,1290.0,399.0,-141.0,717.0,-582.0,0.0,0.0,0.0
19:37:01.213000,463.0,1257.0,369.0,-141.0,717.0,-582.0,0.0,0.0,0.0
19:37:01.218000,422.0,1225.0,328.0,-141.0,717.0,-582.0,0.0,0.0,0.0
19:37:01.223000,389.0,1194.0,296.0,-114.0,691.0,-577.0,0.0,0.0,0.0
19:37:01.227000,368.0,1168.0,268.0,-114.0,691.0,-577.0,0.0,0.0,0.0
19:37:01.232000,345.0,1142.0,271.0,-88.0,669.0,-585.0,0.0,0.0,0.0
19:37:01.237000,315.0,1115.0,301.0,-88.0,669.0,-585.0,0.0,0.0,0.0
19:37:01.241000,296.0,1092.0,336.0,-119.0,654.0,-590.0,0.0,0.0,0.0
19:37:01.246000,284.0,1064.0,366.0,-119.0,654.0,-590.0,0.0,0.0,0.0
19:37:01.251000,266.0,1028.0,375.0,-179.0,636.0,-597.0,0.0,0.0,0.0
19:37:01.256000,243.0,988.0,385.0,-179.0,636.0,-597.0,0.0,0.0,0.0
19:37:01.260000,224.0,940.0,427.0,-181.0,609.0,-593.0,0.0,0.0,0.0
19:37:01.265000,224.0,940.0,427.0,-181.0,609.0,-593.0,0.0,0.0,0.0
19:37:01.270000,211.0,891.0,462.0,-106.0,585.0,-587.0,0.0,0.0,0.0
19:37:01.274000,196.0,835.0,472.0,-106.0,585.0,-587.0,0.0,0.0,0.0
19:37:01.279000,181.0,778.0,503.0,-34.0,601.0,-597.0,0.0,0.0,0.0
19:37:01.284000,164.0,722.0,527.0,-34.0,601.0,-597.0,0.0,0.0,0.0
19:37:01.288000,151.0,662.0,522.0,-11.0,595.0,-606.0,0.0,0.0,0.0
19:37:01.293000,149.0,601.0,509.0,-11.0,595.0,-606.0,0.0,0.0,0.0
19:37:01.298000,151.0,538.0,489.0,35.0,510.0,-616.0,0.0,0.0,0.0
19:37:01.303000,157.0,474.0,478.0,35.0,510.0,-616.0,0.0,0.0,0.0
19:37:01.307000,165.0,407.0,475.0,111.0,432.0,-629.0,0.0,0.0,0.0
19:37:01.312000,176.0,346.0,466.0,111.0,432.0,-629.0,0.0,0.0,0.0
19:37:01.317000,187.0,291.0,434.0,134.0,426.0,-642.0,0.0,0.0,0.0
19:37:01.321000,201.0,242.0,382.0,134.0,426.0,-642.0,0.0,0.0,0.0
19:37:01.326000,210.0,200.0,323.0,134.0,426.0,-642.0,0.0,0.0,0.0
19:37:01.331000,210.0,164.0,258.0,98.0,478.0,-649.0,0.0,0.0,0.0
19:37:01.335000,209.0,139.0,207.0,98.0,478.0,-649.0,0.0,0.0,0.0
19:37:01.340000,203.0,117.0,186.0,38.0,539.0,-650.0,0.0,0.0,0.0
19:37:01.345000,191.0,102.0,170.0,38.0,539.0,-650.0,0.0,0.0,0.0
19:37:01.350000,176.0,98.0,135.0,-44.0,582.0,-655.0,0.0,0.0,0.0
19:37:01.354000,156.0,94.0,100.0,-44.0,582.0,-655.0,0.0,0.0,0.0
19:37:01.359000,135.0,95.0,87.0,-104.0,620.0,-667.0,0.0,0.0,0.0
19:37:01.364000,114.0,100.0,96.0,-104.0,620.0,-667.0,0.0,0.0,0.0
19:37:01.368000,93.0,110.0,117.0,-103.0,633.0,-685.0,0.0,0.0,0.0
19:37:01.373000,93.0,110.0,117.0,-103.0,633.0,-685.0,0.0,0.0,0.0
19:37:01.378000,79.0,121.0,149.0,-97.0,594.0,-713.0,0.0,0.0,0.0
19:37:01.382000,72.0,129.0,186.0,-97.0,594.0,-713.0,0.0,0.0,0.0
19:37:01.387000,75.0,138.0,226.0,-87.0,533.0,-738.0,0.0,0.0,0.0
19:37:01.392000,84.0,147.0,261.0,-87.0,533.0,-738.0,0.0,0.0,0.0
19:37:01.397000,95.0,149.0,284.0,-64.0,492.0,-750.0,0.0,0.0,0.0
19:37:01.401000,113.0,151.0,308.0,-64.0,492.0,-750.0,0.0,0.0,0.0
19:37:01.406000,128.0,147.0,330.0,-65.0,474.0,-755.0,0.0,0.0,0.0
19:37:01.411000,147.0,147.0,346.0,-65.0,474.0,-755.0,0.0,0.0,0.0
19:37:01.415000,163.0,148.0,359.0,-73.0,462.0,-760.0,0.0,0.0,0.0
19:37:01.420000,172.0,146.0,365.0,-73.0,462.0,-760.0,0.0,0.0,0.0
19:37:01.425000,172.0,144.0,360.0,-78.0,491.0,-768.0,0.0,0.0,0.0
19:37:01.429000,167.0,140.0,356.0,-78.0,491.0,-768.0,0.0,0.0,0.0
19:37:01.434000,154.0,134.0,343.0,-78.0,491.0,-768.0,0.0,0.0,0.0
19:37:01.439000,131.0,128.0,324.0,-67.0,544.0,-775.0,0.0,0.0,0.0
19:37:01.444000,102.0,120.0,313.0,-67.0,544.0,-775.0,0.0,0.0,0.0
19:37:01.448000,81.0,107.0,316.0,-23.0,540.0,-776.0,0.0,0.0,0.0
19:37:01.453000,70.0,87.0,317.0,-23.0,540.0,-776.0,0.0,0.0,0.0
19:37:01.458000,67.0,63.0,303.0,42.0,458.0,-767.0,0.0,0.0,0.0
19:37:01.462000,71.0,38.0,270.0,42.0,458.0,-767.0,0.0,0.0,0.0
19:37:01.467000,77.0,14.0,224.0,96.0,407.0,-754.0,0.0,0.0,0.0
19:37:01.472000,84.0,-7.0,167.0,96.0,407.0,-754.0,0.0,0.0,0.0
19:37:01.476000,91.0,-26.0,100.0,100.0,437.0,-753.0,0.0,0.0,0.0
19:37:01.481000,91.0,-26.0,100.0,100.0,437.0,-753.0,0.0,0.0,0.0
19:37:01.486000,93.0,-38.0,28.0,35.0,517.0,-764.0,0.0,0.0,0.0
19:37:01.491000,87.0,-45.0,-35.0,35.0,517.0,-764.0,0.0,0.0,0.0
19:37:01.495000,72.0,-52.0,-84.0,-56.0,592.0,-769.0,0.0,0.0,0.0
19:37:01.500000,56.0,-54.0,-112.0,-56.0,592.0,-769.0,0.0,0.0,0.0
19:37:01.505000,39.0,-56.0,-126.0,-96.0,610.0,-776.0,0.0,0.0,0.0
19:37:01.509000,21.0,-55.0,-130.0,-96.0,610.0,-776.0,0.0,0.0,0.0
19:37:01.514000,-2.0,-51.0,-129.0,-90.0,611.0,-786.0,0.0,0.0,0.0
19:37:01.519000,-28.0,-46.0,-126.0,-90.0,611.0,-786.0,0.0,0.0,0.0
19:37:01.523000,-60.0,-40.0,-119.0,-67.0,625.0,-783.0,0.0,0.0,0.0
19:37:01.528000,-92.0,-32.0,-108.0,-67.0,625.0,-783.0,0.0,0.0,0.0
19:37:01.533000,-126.0,-20.0,-101.0,-60.0,634.0,-786.0,0.0,0.0,0.0
19:37:01.538000,-158.0,-7.0,-99.0,-60.0,634.0,-786.0,0.0,0.0,0.0
19:37:01.542000,-191.0,6.0,-98.0,-77.0,640.0,-800.0,0.0,0.0,0.0
19:37:01.547000,-226.0,22.0,-96.0,-77.0,640.0,-800.0,0.0,0.0,0.0
19:37:01.552000,-260.0,35.0,-95.0,-77.0,640.0,-800.0,0.0,0.0,0.0
19:37:01.556000,-294.0,47.0,-96.0,-75.0,643.0,-812.0,0.0,0.0,0.0
19:37:01.561000,-327.0,51.0,-94.0,-75.0,643.0,-812.0,0.0,0.0,0.0
19:37:01.566000,-355.0,49.0,-88.0,-34.0,630.0,-817.0,0.0,0.0,0.0
19:37:01.570000,-378.0,48.0,-85.0,-34.0,630.0,-817.0,0.0,0.0,0.0
19:37:01.575000,-396.0,45.0,-88.0,9.0,600.0,-821.0,0.0,0.0,0.0
19:37:01.580000,-410.0,42.0,-93.0,9.0,600.0,-821.0,0.0,0.0,0.0
19:37:01.585000,-420.0,42.0,-95.0,18.0,569.0,-828.0,0.0,0.0,0.0
19:37:01.589000,-420.0,42.0,-95.0,18.0,569.0,-828.0,0.0,0.0,0.0
19:37:01.594000,-429.0,43.0,-98.0,-4.0,559.0,-834.0,0.0,0.0,0.0
19:37:01.599000,-441.0,48.0,-102.0,-4.0,559.0,-834.0,0.0,0.0,0.0
19:37:01.603000,-456.0,53.0,-108.0,-45.0,574.0,-845.0,0.0,0.0,0.0
19:37:01.608000,-473.0,61.0,-113.0,-45.0,574.0,-845.0,0.0,0.0,0.0
19:37:01.612000,-488.0,71.0,-112.0,-74.0,574.0,-853.0,0.0,0.0,0.0
19:37:01.617000,-501.0,81.0,-102.0,-74.0,574.0,-853.0,0.0,0.0,0.0
19:37:01.622000,-513.0,91.0,-91.0,-75.0,545.0,-846.0,0.0,0.0,0.0
19:37:01.627000,-525.0,101.0,-84.0,-75.0,545.0,-846.0,0.0,0.0,0.0
19:37:01.632000,-537.0,110.0,-81.0,-68.0,525.0,-830.0,0.0,0.0,0.0
19:37:01.636000,-551.0,117.0,-86.0,-68.0,525.0,-830.0,0.0,0.0,0.0
19:37:01.641000,-566.0,122.0,-90.0,-53.0,513.0,-808.0,0.0,0.0,0.0
19:37:01.646000,-578.0,125.0,-92.0,-53.0,513.0,-808.0,0.0,0.0,0.0
19:37:01.650000,-588.0,124.0,-98.0,-32.0,497.0,-789.0,0.0,0.0,0.0
19:37:01.655000,-597.0,123.0,-110.0,-32.0,497.0,-789.0,0.0,0.0,0.0
19:37:01.660000,-609.0,123.0,-130.0,-32.0,497.0,-789.0,0.0,0.0,0.0
19:37:01.664000,-621.0,123.0,-155.0,-20.0,501.0,-776.0,0.0,0.0,0.0
19:37:01.669000,-637.0,121.0,-179.0,-29.0,524.0,-765.0,0.0,0.0,0.0
19:37:01.674000,-655.0,117.0,-196.0,-29.0,524.0,-765.0,0.0,0.0,0.0
19:37:01.679000,-673.0,115.0,-207.0,-29.0,524.0,-765.0,0.0,0.0,0.0
19:37:01.683000,-689.0,113.0,-211.0,-37.0,528.0,-760.0,0.0,0.0,0.0
19:37:01.688000,-707.0,112.0,-210.0,-37.0,528.0,-760.0,0.0,0.0,0.0
19:37:01.693000,-725.0,112.0,-207.0,-35.0,523.0,-759.0,0.0,0.0,0.0
19:37:01.697000,-742.0,110.0,-201.0,-35.0,523.0,-759.0,0.0,0.0,0.0
19:37:01.702000,-742.0,110.0,-201.0,-51.0,532.0,-763.0,0.0,0.0,0.0
19:37:01.707000,-758.0,108.0,-191.0,-51.0,532.0,-763.0,0.0,0.0,0.0
19:37:01.711000,-772.0,105.0,-179.0,-75.0,535.0,-767.0,0.0,0.0,0.0
19:37:01.716000,-786.0,102.0,-173.0,-75.0,535.0,-767.0,0.0,0.0,0.0
19:37:01.721000,-800.0,98.0,-177.0,-88.0,530.0,-767.0,0.0,0.0,0.0
19:37:01.726000,-813.0,94.0,-183.0,-88.0,530.0,-767.0,0.0,0.0,0.0
19:37:01.730000,-832.0,90.0,-188.0,-94.0,544.0,-762.0,0.0,0.0,0.0
19:37:01.735000,-857.0,82.0,-190.0,-94.0,544.0,-762.0,0.0,0.0,0.0
19:37:01.740000,-890.0,74.0,-193.0,-97.0,582.0,-755.0,0.0,0.0,0.0
19:37:01.744000,-928.0,63.0,-196.0,-97.0,582.0,-755.0,0.0,0.0,0.0
19:37:01.749000,-968.0,50.0,-201.0,-84.0,601.0,-756.0,0.0,0.0,0.0
19:37:01.754000,-1012.0,37.0,-210.0,-84.0,601.0,-756.0,0.0,0.0,0.0
19:37:01.758000,-1056.0,19.0,-214.0,-59.0,587.0,-771.0,0.0,0.0,0.0
19:37:01.763000,-1096.0,-2.0,-210.0,-59.0,587.0,-771.0,0.0,0.0,0.0
19:37:01.768000,-1135.0,-30.0,-203.0,-59.0,587.0,-771.0,0.0,0.0,0.0
19:37:01.773000,-1172.0,-60.0,-194.0,-43.0,561.0,-787.0,0.0,0.0,0.0
19:37:01.777000,-1201.0,-93.0,-182.0,-43.0,561.0,-787.0,0.0,0.0,0.0
19:37:01.782000,-1219.0,-132.0,-171.0,-22.0,504.0,-798.0,0.0,0.0,0.0
19:37:01.787000,-1230.0,-177.0,-170.0,-22.0,504.0,-798.0,0.0,0.0,0.0
19:37:01.791000,-1243.0,-228.0,-184.0,12.0,437.0,-803.0,0.0,0.0,0.0
19:37:01.796000,-1262.0,-282.0,-195.0,12.0,437.0,-803.0,0.0,0.0,0.0
19:37:01.801000,-1288.0,-341.0,-194.0,32.0,425.0,-792.0,0.0,0.0,0.0
19:37:01.805000,-1327.0,-406.0,-191.0,32.0,425.0,-792.0,0.0,0.0,0.0
19:37:01.810000,-1327.0,-406.0,-191.0,37.0,465.0,-770.0,0.0,0.0,0.0
19:37:01.815000,-1384.0,-476.0,-189.0,37.0,465.0,-770.0,0.0,0.0,0.0
19:37:01.820000,-1453.0,-550.0,-179.0,54.0,493.0,-745.0,0.0,0.0,0.0
19:37:01.824000,-1526.0,-627.0,-169.0,54.0,493.0,-745.0,0.0,0.0,0.0
19:37:01.829000,-1605.0,-709.0,-179.0,58.0,506.0,-722.0,0.0,0.0,0.0
19:37:01.834000,-1686.0,-799.0,-215.0,58.0,506.0,-722.0,0.0,0.0,0.0
19:37:01.838000,-1767.0,-891.0,-271.0,21.0,545.0,-707.0,0.0,0.0,0.0
19:37:01.843000,-1852.0,-982.0,-340.0,21.0,545.0,-707.0,0.0,0.0,0.0
19:37:01.848000,-1935.0,-1071.0,-413.0,-2.0,598.0,-692.0,0.0,0.0,0.0
19:37:01.852000,-2020.0,-1162.0,-491.0,-2.0,598.0,-692.0,0.0,0.0,0.0
19:37:01.857000,-2110.0,-1251.0,-580.0,-13.0,666.0,-672.0,0.0,0.0,0.0
19:37:01.862000,-2205.0,-1337.0,-676.0,-13.0,666.0,-672.0,0.0,0.0,0.0
19:37:01.867000,-2310.0,-1416.0,-774.0,-75.0,788.0,-657.0,0.0,0.0,0.0
19:37:01.871000,-2430.0,-1485.0,-867.0,-75.0,788.0,-657.0,0.0,0.0,0.0
19:37:01.876000,-2566.0,-1543.0,-951.0,-75.0,788.0,-657.0,0.0,0.0,0.0
19:37:01.881000,-2722.0,-1599.0,-1029.0,-224.0,978.0,-651.0,0.0,0.0,0.0
19:37:01.885000,-2891.0,-1653.0,-1090.0,-224.0,978.0,-651.0,0.0,0.0,0.0
19:37:01.890000,-3050.0,-1709.0,-1117.0,-406.0,1124.0,-625.0,0.0,0.0,0.0
19:37:01.895000,-3181.0,-1764.0,-1124.0,-406.0,1124.0,-625.0,0.0,0.0,0.0
19:37:01.899000,-3286.0,-1820.0,-1135.0,-484.0,1016.0,-594.0,0.0,0.0,0.0
19:37:01.904000,-3286.0,-1820.0,-1135.0,-484.0,1016.0,-594.0,0.0,0.0,0.0
19:37:01.909000,-3446.0,-1942.0,-1136.0,-432.0,723.0,-577.0,0.0,0.0,0.0
19:37:01.914000,-3485.0,-2010.0,-1106.0,-432.0,723.0,-577.0,0.0,0.0,0.0
19:37:01.918000,-3485.0,-2010.0,-1106.0,-314.0,395.0,-542.0,0.0,0.0,0.0
19:37:01.923000,-3485.0,-2074.0,-1067.0,-314.0,395.0,-542.0,0.0,0.0,0.0
19:37:01.928000,-3475.0,-2124.0,-1047.0,-231.0,83.0,-513.0,0.0,0.0,0.0
19:37:01.932000,-3456.0,-2170.0,-1043.0,-231.0,83.0,-513.0,0.0,0.0,0.0
19:37:01.937000,-3434.0,-2216.0,-1043.0,-280.0,-76.0,-518.0,0.0,0.0,0.0
19:37:01.942000,-3420.0,-2259.0,-1050.0,-280.0,-76.0,-518.0,0.0,0.0,0.0
19:37:01.946000,-3405.0,-2291.0,-1061.0,-429.0,-87.0,-534.0,0.0,0.0,0.0
19:37:01.951000,-3389.0,-2319.0,-1070.0,-429.0,-87.0,-534.0,0.0,0.0,0.0
19:37:01.956000,-3371.0,-2346.0,-1082.0,-605.0,-66.0,-545.0,0.0,0.0,0.0
19:37:01.961000,-3350.0,-2368.0,-1099.0,-605.0,-66.0,-545.0,0.0,0.0,0.0
19:37:01.965000,-3316.0,-2380.0,-1106.0,-720.0,-155.0,-548.0,0.0,0.0,0.0
19:37:01.970000,-3262.0,-2387.0,-1104.0,-720.0,-155.0,-548.0,0.0,0.0,0.0
19:37:01.975000,-3173.0,-2380.0,-1124.0,-795.0,-397.0,-548.0,0.0,0.0,0.0
19:37:01.979000,-3082.0,-2371.0,-1131.0,-795.0,-397.0,-548.0,0.0,0.0,0.0
19:37:01.984000,-2968.0,-2354.0,-1275.0,-795.0,-397.0,-548.0,0.0,0.0,0.0
19:37:01.989000,-2805.0,-2310.0,-1367.0,-977.0,-554.0,-583.0,0.0,0.0,0.0
19:37:01.993000,-2720.0,-2325.0,-1176.0,-977.0,-554.0,-583.0,0.0,0.0,0.0
19:37:01.998000,-2643.0,-2362.0,-962.0,-843.0,-608.0,-576.0,0.0,0.0,0.0
19:37:02.003000,-2552.0,-2419.0,-1061.0,-843.0,-608.0,-576.0,0.0,0.0,0.0
19:37:02.008000,-2479.0,-2447.0,-1208.0,-719.0,-715.0,-434.0,0.0,0.0,0.0
19:37:02.012000,-2478.0,-2331.0,-1236.0,-719.0,-715.0,-434.0,0.0,0.0,0.0
19:37:02.017000,-2368.0,-2307.0,-991.0,-1202.0,-811.0,-300.0,0.0,0.0,0.0
19:37:02.022000,-2249.0,-2318.0,-903.0,-1202.0,-811.0,-300.0,0.0,0.0,0.0
19:37:02.026000,-2114.0,-2279.0,-1165.0,-1235.0,-859.0,-266.0,0.0,0.0,0.0
19:37:02.031000,-2114.0,-2279.0,-1165.0,-1235.0,-859.0,-266.0,0.0,0.0,0.0
19:37:02.036000,-2006.0,-2244.0,-1369.0,-738.0,-954.0,-286.0,0.0,0.0,0.0
19:37:02.040000,-1919.0,-2243.0,-1414.0,-738.0,-954.0,-286.0,0.0,0.0,0.0
19:37:02.045000,-1861.0,-2230.0,-1336.0,-710.0,-935.0,-303.0,0.0,0.0,0.0
19:37:02.050000,-1804.0,-2207.0,-1236.0,-710.0,-935.0,-303.0,0.0,0.0,0.0
19:37:02.055000,-1757.0,-2175.0,-1357.0,-884.0,-789.0,-299.0,0.0,0.0,0.0
19:37:02.059000,-1691.0,-2143.0,-1349.0,-884.0,-789.0,-299.0,0.0,0.0,0.0
19:37:02.064000,-1626.0,-2118.0,-1284.0,-879.0,-772.0,-282.0,0.0,0.0,0.0
19:37:02.069000,-1557.0,-2085.0,-1298.0,-879.0,-772.0,-282.0,0.0,0.0,0.0
19:37:02.073000,-1501.0,-2053.0,-1376.0,-890.0,-707.0,-255.0,0.0,0.0,0.0
19:37:02.078000,-1461.0,-2026.0,-1437.0,-890.0,-707.0,-255.0,0.0,0.0,0.0
19:37:02.083000,-1423.0,-2000.0,-1430.0,-892.0,-575.0,-232.0,0.0,0.0,0.0
19:37:02.087000,-1384.0,-1978.0,-1374.0,-892.0,-575.0,-232.0,0.0,0.0,0.0
19:37:02.092000,-1345.0,-1961.0,-1318.0,-892.0,-575.0,-232.0,0.0,0.0,0.0
19:37:02.097000,-1299.0,-1943.0,-1279.0,-873.0,-533.0,-210.0,0.0,0.0,0.0
19:37:02.102000,-1253.0,-1916.0,-1241.0,-893.0,-515.0,-192.0,0.0,0.0,0.0
19:37:02.106000,-1218.0,-1882.0,-1186.0,-893.0,-515.0,-192.0,0.0,0.0,0.0
19:37:02.111000,-1190.0,-1842.0,-1120.0,-893.0,-515.0,-192.0,0.0,0.0,0.0
19:37:02.116000,-1166.0,-1797.0,-1061.0,-907.0,-472.0,-179.0,0.0,0.0,0.0
19:37:02.120000,-1142.0,-1755.0,-1004.0,-907.0,-472.0,-179.0,0.0,0.0,0.0
19:37:02.125000,-1112.0,-1719.0,-950.0,-925.0,-427.0,-165.0,0.0,0.0,0.0
19:37:02.130000,-1071.0,-1684.0,-910.0,-925.0,-427.0,-165.0,0.0,0.0,0.0
19:37:02.134000,-1024.0,-1649.0,-886.0,-966.0,-443.0,-157.0,0.0,0.0,0.0
19:37:02.139000,-1024.0,-1649.0,-886.0,-966.0,-443.0,-157.0,0.0,0.0,0.0
19:37:02.144000,-975.0,-1610.0,-851.0,-1016.0,-490.0,-147.0,0.0,0.0,0.0
19:37:02.149000,-927.0,-1565.0,-802.0,-1016.0,-490.0,-147.0,0.0,0.0,0.0
19:37:02.153000,-890.0,-1522.0,-760.0,-1045.0,-441.0,-123.0,0.0,0.0,0.0
19:37:02.158000,-859.0,-1474.0,-743.0,-1045.0,-441.0,-123.0,0.0,0.0,0.0
19:37:02.163000,-831.0,-1439.0,-728.0,-1023.0,-318.0,-93.0,0.0,0.0,0.0
19:37:02.167000,-800.0,-1412.0,-700.0,-1023.0,-318.0,-93.0,0.0,0.0,0.0
19:37:02.172000,-767.0,-1393.0,-653.0,-1010.0,-285.0,-81.0,0.0,0.0,0.0
19:37:02.177000,-648.0,-1330.0,-616.0,-1010.0,-285.0,-81.0,0.0,0.0,0.0
19:37:02.181000,-699.0,-1321.0,-583.0,-1041.0,-279.0,-30.0,0.0,0.0,0.0
19:37:02.186000,-684.0,-1293.0,-531.0,-1041.0,-279.0,-30.0,0.0,0.0,0.0
19:37:02.191000,-651.0,-1264.0,-491.0,-1059.0,-258.0,13.0,0.0,0.0,0.0
19:37:02.196000,-616.0,-1234.0,-460.0,-1059.0,-258.0,13.0,0.0,0.0,0.0
19:37:02.200000,-602.0,-1204.0,-444.0,-1059.0,-258.0,13.0,0.0,0.0,0.0
19:37:02.205000,-557.0,-1183.0,-448.0,-1046.0,-227.0,17.0,0.0,0.0,0.0
19:37:02.210000,-555.0,-1157.0,-424.0,-1017.0,-153.0,49.0,0.0,0.0,0.0
19:37:02.214000,-555.0,-1130.0,-422.0,-1017.0,-153.0,49.0,0.0,0.0,0.0
19:37:02.219000,-555.0,-1111.0,-400.0,-1017.0,-153.0,49.0,0.0,0.0,0.0
19:37:02.224000,-550.0,-1082.0,-325.0,-1046.0,-95.0,87.0,0.0,0.0,0.0
19:37:02.228000,-606.0,-1043.0,-288.0,-1046.0,-95.0,87.0,0.0,0.0,0.0
19:37:02.233000,-625.0,-989.0,-307.0,-1116.0,-157.0,126.0,0.0,0.0,0.0
19:37:02.238000,-611.0,-938.0,-467.0,-1116.0,-157.0,126.0,0.0,0.0,0.0
19:37:02.243000,-606.0,-897.0,-591.0,-1136.0,-242.0,131.0,0.0,0.0,0.0
19:37:02.247000,-606.0,-897.0,-591.0,-1136.0,-242.0,131.0,0.0,0.0,0.0
19:37:02.252000,-601.0,-861.0,-564.0,-1080.0,-194.0,127.0,0.0,0.0,0.0
19:37:02.257000,-618.0,-825.0,-451.0,-1080.0,-194.0,127.0,0.0,0.0,0.0
19:37:02.261000,-639.0,-778.0,-380.0,-1088.0,-160.0,137.0,0.0,0.0,0.0
19:37:02.266000,-641.0,-728.0,-450.0,-1088.0,-160.0,137.0,0.0,0.0,0.0
19:37:02.271000,-637.0,-679.0,-585.0,-1162.0,-144.0,135.0,0.0,0.0,0.0
19:37:02.275000,-647.0,-641.0,-632.0,-1162.0,-144.0,135.0,0.0,0.0,0.0
19:37:02.280000,-687.0,-612.0,-619.0,-1124.0,-91.0,145.0,0.0,0.0,0.0
19:37:02.285000,-730.0,-588.0,-585.0,-1124.0,-91.0,145.0,0.0,0.0,0.0
19:37:02.290000,-772.0,-578.0,-557.0,-1040.0,-46.0,164.0,0.0,0.0,0.0
19:37:02.294000,-821.0,-558.0,-589.0,-1040.0,-46.0,164.0,0.0,0.0,0.0
19:37:02.299000,-857.0,-537.0,-639.0,-1026.0,-38.0,175.0,0.0,0.0,0.0
19:37:02.304000,-908.0,-534.0,-627.0,-1026.0,-38.0,175.0,0.0,0.0,0.0
19:37:02.308000,-958.0,-536.0,-595.0,-1026.0,-5.0,175.0,0.0,0.0,0.0
19:37:02.313000,-994.0,-544.0,-624.0,-1030.0,-5.0,195.0,0.0,0.0,0.0
19:37:02.318000,-1075.0,-560.0,-640.0,-944.0,56.0,237.0,0.0,0.0,0.0
19:37:02.322000,-1152.0,-565.0,-599.0,-944.0,56.0,237.0,0.0,0.0,0.0
19:37:02.327000,-1218.0,-581.0,-570.0,-944.0,56.0,237.0,0.0,0.0,0.0
19:37:02.332000,-1285.0,-578.0,-581.0,-816.0,38.0,280.0,0.0,0.0,0.0
19:37:02.337000,-1299.0,-590.0,-618.0,-816.0,38.0,280.0,0.0,0.0,0.0
19:37:02.341000,-1311.0,-608.0,-624.0,-788.0,23.0,310.0,0.0,0.0,0.0
19:37:02.346000,-1335.0,-603.0,-543.0,-788.0,23.0,310.0,0.0,0.0,0.0
19:37:02.351000,-1390.0,-612.0,-416.0,-894.0,20.0,347.0,0.0,0.0,0.0
19:37:02.355000,-1390.0,-612.0,-416.0,-894.0,20.0,347.0,0.0,0.0,0.0
19:37:02.360000,-1395.0,-599.0,-374.0,-1011.0,-27.0,378.0,0.0,0.0,0.0
19:37:02.365000,-1347.0,-589.0,-435.0,-1011.0,-27.0,378.0,0.0,0.0,0.0
19:37:02.369000,-1372.0,-564.0,-491.0,-995.0,-62.0,401.0,0.0,0.0,0.0
19:37:02.373000,-1346.0,-553.0,-466.0,-995.0,-62.0,401.0,0.0,0.0,0.0
19:37:02.379000,-1331.0,-539.0,-404.0,-915.0,-116.0,427.0,0.0,0.0,0.0
19:37:02.384000,-1285.0,-521.0,-389.0,-915.0,-116.0,427.0,0.0,0.0,0.0
19:37:02.388000,-1242.0,-494.0,-371.0,-925.0,-199.0,441.0,0.0,0.0,0.0
19:37:02.393000,-1204.0,-465.0,-356.0,-925.0,-199.0,441.0,0.0,0.0,0.0
19:37:02.398000,-1157.0,-430.0,-397.0,-992.0,-249.0,438.0,0.0,0.0,0.0
19:37:02.402000,-1080.0,-403.0,-439.0,-992.0,-249.0,438.0,0.0,0.0,0.0
19:37:02.407000,-1019.0,-373.0,-396.0,-1017.0,-268.0,422.0,0.0,0.0,0.0
19:37:02.412000,-961.0,-340.0,-356.0,-1017.0,-268.0,422.0,0.0,0.0,0.0
19:37:02.416000,-890.0,-301.0,-366.0,-1007.0,-248.0,391.0,0.0,0.0,0.0
19:37:02.421000,-815.0,-256.0,-392.0,-1007.0,-248.0,391.0,0.0,0.0,0.0
19:37:02.426000,-722.0,-219.0,-410.0,-1007.0,-248.0,391.0,0.0,0.0,0.0
19:37:02.430000,-689.0,-189.0,-434.0,-1009.0,-146.0,365.0,0.0,0.0,0.0
19:37:02.435000,-641.0,-158.0,-427.0,-1009.0,-146.0,365.0,0.0,0.0,0.0
19:37:02.440000,-606.0,-135.0,-396.0,-1004.0,-77.0,354.0,0.0,0.0,0.0
19:37:02.445000,-566.0,-117.0,-345.0,-1004.0,-77.0,354.0,0.0,0.0,0.0
19:37:02.449000,-534.0,-105.0,-289.0,-990.0,-69.0,347.0,0.0,0.0,0.0
19:37:02.454000,-487.0,-91.0,-257.0,-990.0,-69.0,347.0,0.0,0.0,0.0
19:37:02.459000,-431.0,-79.0,-212.0,-969.0,-54.0,336.0,0.0,0.0,0.0
19:37:02.463000,-366.0,-64.0,-153.0,-969.0,-54.0,336.0,0.0,0.0,0.0
19:37:02.468000,-366.0,-64.0,-153.0,-912.0,-49.0,315.0,0.0,0.0,0.0
19:37:02.473000,-302.0,-52.0,-117.0,-912.0,-49.0,315.0,0.0,0.0,0.0
19:37:02.477000,-247.0,-35.0,-82.0,-866.0,-11.0,298.0,0.0,0.0,0.0
19:37:02.482000,-208.0,-18.0,-16.0,-866.0,-11.0,298.0,0.0,0.0,0.0
19:37:02.487000,-172.0,-4.0,39.0,-883.0,66.0,293.0,0.0,0.0,0.0
19:37:02.492000,-137.0,14.0,82.0,-883.0,66.0,293.0,0.0,0.0,0.0
19:37:02.496000,-103.0,33.0,154.0,-926.0,106.0,295.0,0.0,0.0,0.0
19:37:02.501000,-74.0,52.0,226.0,-926.0,106.0,295.0,0.0,0.0,0.0
19:37:02.506000,-40.0,73.0,253.0,-956.0,93.0,305.0,0.0,0.0,0.0
19:37:02.510000,-22.0,96.0,285.0,-956.0,93.0,305.0,0.0,0.0,0.0
19:37:02.515000,21.0,121.0,350.0,-964.0,66.0,325.0,0.0,0.0,0.0
19:37:02.520000,67.0,151.0,399.0,-964.0,66.0,325.0,0.0,0.0,0.0
19:37:02.524000,112.0,182.0,415.0,-964.0,39.0,342.0,0.0,0.0,0.0
19:37:02.529000,154.0,226.0,443.0,-964.0,39.0,342.0,0.0,0.0,0.0
19:37:02.534000,197.0,268.0,484.0,-964.0,39.0,342.0,0.0,0.0,0.0
19:37:02.539000,238.0,314.0,517.0,-970.0,1.0,355.0,0.0,0.0,0.0
19:37:02.543000,289.0,352.0,571.0,-970.0,1.0,355.0,0.0,0.0,0.0
19:37:02.548000,347.0,400.0,620.0,-992.0,-2.0,364.0,0.0,0.0,0.0
19:37:02.553000,389.0,445.0,640.0,-992.0,-2.0,364.0,0.0,0.0,0.0
19:37:02.557000,422.0,500.0,619.0,-1025.0,9.0,375.0,0.0,0.0,0.0
19:37:02.562000,475.0,553.0,595.0,-1025.0,9.0,375.0,0.0,0.0,0.0
19:37:02.567000,538.0,597.0,630.0,-1050.0,-6.0,378.0,0.0,0.0,0.0
19:37:02.571000,584.0,638.0,714.0,-1050.0,-6.0,378.0,0.0,0.0,0.0
19:37:02.576000,584.0,638.0,714.0,-1049.0,-41.0,372.0,0.0,0.0,0.0
19:37:02.581000,652.0,676.0,785.0,-1049.0,-41.0,372.0,0.0,0.0,0.0
19:37:02.586000,724.0,716.0,782.0,-1047.0,-60.0,368.0,0.0,0.0,0.0
19:37:02.590000,787.0,763.0,759.0,-1047.0,-60.0,368.0,0.0,0.0,0.0
19:37:02.595000,856.0,810.0,759.0,-1014.0,-43.0,365.0,0.0,0.0,0.0
19:37:02.600000,912.0,861.0,821.0,-1014.0,-43.0,365.0,0.0,0.0,0.0
19:37:02.604000,970.0,907.0,875.0,-948.0,-30.0,370.0,0.0,0.0,0.0
19:37:02.608000,1023.0,956.0,904.0,-948.0,-30.0,370.0,0.0,0.0,0.0
19:37:02.614000,1092.0,1003.0,903.0,-965.0,-19.0,366.0,0.0,0.0,0.0
19:37:02.618000,1156.0,1063.0,907.0,-965.0,-19.0,366.0,0.0,0.0,0.0
19:37:02.623000,1218.0,1125.0,931.0,-1020.0,-2.0,351.0,0.0,0.0,0.0
19:37:02.628000,1276.0,1187.0,973.0,-1020.0,-2.0,351.0,0.0,0.0,0.0
19:37:02.633000,1325.0,1258.0,994.0,-1042.0,3.0,341.0,0.0,0.0,0.0
19:37:02.637000,1367.0,1318.0,1036.0,-1042.0,3.0,341.0,0.0,0.0,0.0
19:37:02.642000,1407.0,1391.0,1106.0,-1042.0,3.0,341.0,0.0,0.0,0.0
19:37:02.647000,1435.0,1429.0,1169.0,-1082.0,0.0,345.0,0.0,0.0,0.0
19:37:02.651000,1525.0,1551.0,1220.0,-1082.0,0.0,345.0,0.0,0.0,0.0
19:37:02.656000,1507.0,1589.0,1251.0,-1136.0,23.0,327.0,0.0,0.0,0.0
19:37:02.661000,1548.0,1665.0,1265.0,-1136.0,23.0,327.0,0.0,0.0,0.0
19:37:02.665000,1560.0,1723.0,1299.0,-1146.0,68.0,302.0,0.0,0.0,0.0
19:37:02.670000,1587.0,1775.0,1346.0,-1146.0,68.0,302.0,0.0,0.0,0.0
19:37:02.675000,1608.0,1829.0,1381.0,-1102.0,79.0,300.0,0.0,0.0,0.0
19:37:02.680000,1615.0,1876.0,1426.0,-1102.0,79.0,300.0,0.0,0.0,0.0
19:37:02.684000,1615.0,1876.0,1426.0,-1063.0,32.0,283.0,0.0,0.0,0.0
19:37:02.689000,1643.0,1926.0,1471.0,-1063.0,32.0,283.0,0.0,0.0,0.0
19:37:02.694000,1661.0,1961.0,1500.0,-1050.0,-29.0,248.0,0.0,0.0,0.0
19:37:02.698000,1687.0,1983.0,1531.0,-1050.0,-29.0,248.0,0.0,0.0,0.0
19:37:02.703000,1711.0,2009.0,1546.0,-1040.0,-66.0,202.0,0.0,0.0,0.0
19:37:02.708000,1725.0,2033.0,1544.0,-1040.0,-66.0,202.0,0.0,0.0,0.0
19:37:02.712000,1739.0,2058.0,1544.0,-1033.0,-76.0,142.0,0.0,0.0,0.0
19:37:02.717000,1722.0,2078.0,1544.0,-1033.0,-76.0,142.0,0.0,0.0,0.0
19:37:02.722000,1689.0,2086.0,1561.0,-1025.0,-75.0,84.0,0.0,0.0,0.0
19:37:02.727000,1650.0,2089.0,1565.0,-1025.0,-75.0,84.0,0.0,0.0,0.0
19:37:02.731000,1586.0,2079.0,1530.0,-992.0,-79.0,10.0,0.0,0.0,0.0
19:37:02.736000,1535.0,2074.0,1512.0,-992.0,-79.0,10.0,0.0,0.0,0.0
19:37:02.741000,1494.0,2043.0,1465.0,-884.0,-93.0,-96.0,0.0,0.0,0.0
19:37:02.745000,1452.0,2002.0,1409.0,-884.0,-93.0,-96.0,0.0,0.0,0.0
19:37:02.750000,1406.0,1957.0,1367.0,-884.0,-93.0,-96.0,0.0,0.0,0.0
19:37:02.755000,1358.0,1897.0,1309.0,-745.0,-130.0,-241.0,0.0,0.0,0.0
19:37:02.759000,1302.0,1822.0,1239.0,-745.0,-130.0,-241.0,0.0,0.0,0.0
19:37:02.764000,1249.0,1747.0,1174.0,-692.0,-183.0,-392.0,0.0,0.0,0.0
19:37:02.769000,1196.0,1661.0,1132.0,-692.0,-183.0,-392.0,0.0,0.0,0.0
19:37:02.774000,1139.0,1568.0,1081.0,-656.0,-222.0,-494.0,0.0,0.0,0.0
19:37:02.778000,1075.0,1472.0,998.0,-656.0,-222.0,-494.0,0.0,0.0,0.0
19:37:02.783000,1012.0,1383.0,903.0,-562.0,-215.0,-530.0,0.0,0.0,0.0
19:37:02.788000,960.0,1309.0,821.0,-562.0,-215.0,-530.0,0.0,0.0,0.0
19:37:02.792000,912.0,1233.0,801.0,-477.0,-208.0,-532.0,0.0,0.0,0.0
19:37:02.797000,912.0,1233.0,801.0,-477.0,-208.0,-532.0,0.0,0.0,0.0
19:37:02.802000,861.0,1155.0,862.0,-449.0,-248.0,-510.0,0.0,0.0,0.0
19:37:02.806000,809.0,1086.0,917.0,-449.0,-248.0,-510.0,0.0,0.0,0.0
19:37:02.811000,751.0,1049.0,864.0,-573.0,-232.0,-476.0,0.0,0.0,0.0
19:37:02.816000,686.0,1026.0,763.0,-573.0,-232.0,-476.0,0.0,0.0,0.0
19:37:02.821000,601.0,1003.0,694.0,-772.0,-175.0,-451.0,0.0,0.0,0.0
19:37:02.825000,508.0,982.0,659.0,-772.0,-175.0,-451.0,0.0,0.0,0.0
19:37:02.830000,414.0,956.0,625.0,-903.0,-124.0,-428.0,0.0,0.0,0.0
19:37:02.835000,318.0,927.0,587.0,-903.0,-124.0,-428.0,0.0,0.0,0.0
19:37:02.839000,219.0,898.0,562.0,-960.0,-65.0,-411.0,0.0,0.0,0.0
19:37:02.843000,122.0,875.0,538.0,-960.0,-65.0,-411.0,0.0,0.0,0.0
19:37:02.849000,21.0,849.0,517.0,-942.0,-41.0,-405.0,0.0,0.0,0.0
19:37:02.853000,-88.0,819.0,499.0,-942.0,-41.0,-405.0,0.0,0.0,0.0
19:37:02.858000,-210.0,786.0,490.0,-942.0,-41.0,-405.0,0.0,0.0,0.0
19:37:02.863000,-343.0,745.0,477.0,-903.0,-38.0,-404.0,0.0,0.0,0.0
19:37:02.868000,-477.0,702.0,452.0,-903.0,-38.0,-404.0,0.0,0.0,0.0
19:37:02.872000,-610.0,660.0,442.0,-845.0,-28.0,-404.0,0.0,0.0,0.0
19:37:02.877000,-720.0,620.0,435.0,-845.0,-28.0,-404.0,0.0,0.0,0.0
19:37:02.882000,-818.0,581.0,400.0,-778.0,-77.0,-411.0,0.0,0.0,0.0
19:37:02.886000,-904.0,539.0,366.0,-778.0,-77.0,-411.0,0.0,0.0,0.0
19:37:02.891000,-977.0,499.0,327.0,-753.0,-205.0,-409.0,0.0,0.0,0.0
19:37:02.896000,-1034.0,456.0,288.0,-753.0,-205.0,-409.0,0.0,0.0,0.0
19:37:02.900000,-1078.0,412.0,247.0,-757.0,-334.0,-395.0,0.0,0.0,0.0
19:37:02.905000,-1078.0,412.0,247.0,-757.0,-334.0,-395.0,0.0,0.0,0.0
19:37:02.910000,-1110.0,361.0,206.0,-741.0,-458.0,-379.0,0.0,0.0,0.0
19:37:02.915000,-1126.0,301.0,172.0,-741.0,-458.0,-379.0,0.0,0.0,0.0
19:37:02.919000,-1123.0,237.0,136.0,-697.0,-564.0,-361.0,0.0,0.0,0.0
19:37:02.924000,-1117.0,171.0,94.0,-697.0,-564.0,-361.0,0.0,0.0,0.0
19:37:02.929000,-1103.0,126.0,57.0,-634.0,-623.0,-352.0,0.0,0.0,0.0
19:37:02.933000,-1089.0,82.0,25.0,-634.0,-623.0,-352.0,0.0,0.0,0.0
19:37:02.938000,-1077.0,32.0,-7.0,-627.0,-599.0,-338.0,0.0,0.0,0.0
19:37:02.943000,-1064.0,-23.0,-48.0,-627.0,-599.0,-338.0,0.0,0.0,0.0
19:37:02.947000,-1035.0,-68.0,-93.0,-661.0,-603.0,-317.0,0.0,0.0,0.0
19:37:02.952000,-985.0,-107.0,-120.0,-661.0,-603.0,-317.0,0.0,0.0,0.0
19:37:02.957000,-931.0,-146.0,-130.0,-677.0,-689.0,-301.0,0.0,0.0,0.0
19:37:02.962000,-884.0,-177.0,-143.0,-677.0,-689.0,-301.0,0.0,0.0,0.0
19:37:02.966000,-846.0,-204.0,-182.0,-677.0,-689.0,-301.0,0.0,0.0,0.0
19:37:02.971000,-819.0,-228.0,-231.0,-706.0,-691.0,-283.0,0.0,0.0,0.0
19:37:02.976000,-796.0,-247.0,-280.0,-706.0,-691.0,-283.0,0.0,0.0,0.0
19:37:02.980000,-777.0,-261.0,-319.0,-726.0,-612.0,-261.0,0.0,0.0,0.0
19:37:02.985000,-769.0,-274.0,-346.0,-726.0,-612.0,-261.0,0.0,0.0,0.0
19:37:02.990000,-774.0,-287.0,-378.0,-710.0,-529.0,-238.0,0.0,0.0,0.0
19:37:02.994000,-792.0,-297.0,-429.0,-710.0,-529.0,-238.0,0.0,0.0,0.0
19:37:02.999000,-811.0,-303.0,-474.0,-695.0,-429.0,-223.0,0.0,0.0,0.0
19:37:03.004000,-829.0,-305.0,-504.0,-695.0,-429.0,-223.0,0.0,0.0,0.0
19:37:03.009000,-844.0,-313.0,-520.0,-686.0,-358.0,-220.0,0.0,0.0,0.0
19:37:03.013000,-844.0,-313.0,-520.0,-686.0,-358.0,-220.0,0.0,0.0,0.0
19:37:03.018000,-844.0,-325.0,-531.0,-641.0,-380.0,-233.0,0.0,0.0,0.0
19:37:03.023000,-827.0,-342.0,-535.0,-641.0,-380.0,-233.0,0.0,0.0,0.0
19:37:03.027000,-794.0,-361.0,-522.0,-599.0,-489.0,-258.0,0.0,0.0,0.0
19:37:03.032000,-749.0,-376.0,-503.0,-599.0,-489.0,-258.0,0.0,0.0,0.0
19:37:03.037000,-686.0,-386.0,-492.0,-628.0,-601.0,-281.0,0.0,0.0,0.0
19:37:03.041000,-616.0,-399.0,-486.0,-628.0,-601.0,-281.0,0.0,0.0,0.0
19:37:03.046000,-559.0,-424.0,-489.0,-633.0,-642.0,-296.0,0.0,0.0,0.0
19:37:03.051000,-508.0,-456.0,-513.0,-633.0,-642.0,-296.0,0.0,0.0,0.0
19:37:03.056000,-454.0,-483.0,-558.0,-580.0,-636.0,-301.0,0.0,0.0,0.0
19:37:03.060000,-400.0,-510.0,-592.0,-580.0,-636.0,-301.0,0.0,0.0,0.0
19:37:03.065000,-351.0,-532.0,-597.0,-516.0,-639.0,-301.0,0.0,0.0,0.0
19:37:03.070000,-312.0,-552.0,-560.0,-516.0,-639.0,-301.0,0.0,0.0,0.0
19:37:03.074000,-276.0,-571.0,-523.0,-516.0,-639.0,-301.0,0.0,0.0,0.0
19:37:03.078000,-249.0,-581.0,-537.0,-513.0,-650.0,-292.0,0.0,0.0,0.0
19:37:03.084000,-231.0,-580.0,-570.0,-513.0,-650.0,-292.0,0.0,0.0,0.0
19:37:03.088000,-222.0,-571.0,-589.0,-563.0,-626.0,-283.0,0.0,0.0,0.0
19:37:03.093000,-220.0,-562.0,-602.0,-563.0,-626.0,-283.0,0.0,0.0,0.0
19:37:03.098000,-214.0,-559.0,-607.0,-581.0,-565.0,-278.0,0.0,0.0,0.0
19:37:03.103000,-207.0,-552.0,-630.0,-581.0,-565.0,-278.0,0.0,0.0,0.0
19:37:03.107000,-205.0,-540.0,-697.0,-573.0,-518.0,-281.0,0.0,0.0,0.0
19:37:03.112000,-182.0,-530.0,-804.0,-573.0,-518.0,-281.0,0.0,0.0,0.0
19:37:03.117000,-149.0,-527.0,-785.0,-524.0,-549.0,-302.0,0.0,0.0,0.0
19:37:03.121000,-149.0,-527.0,-785.0,-524.0,-549.0,-302.0,0.0,0.0,0.0
19:37:03.126000,-150.0,-528.0,-704.0,-571.0,-603.0,-314.0,0.0,0.0,0.0
19:37:03.131000,-137.0,-520.0,-732.0,-571.0,-603.0,-314.0,0.0,0.0,0.0
19:37:03.135000,-116.0,-497.0,-751.0,-707.0,-612.0,-318.0,0.0,0.0,0.0
19:37:03.140000,-101.0,-485.0,-737.0,-707.0,-612.0,-318.0,0.0,0.0,0.0
19:37:03.145000,-89.0,-486.0,-700.0,-704.0,-566.0,-310.0,0.0,0.0,0.0
19:37:03.150000,-89.0,-501.0,-683.0,-704.0,-566.0,-310.0,0.0,0.0,0.0
19:37:03.154000,-86.0,-524.0,-672.0,-624.0,-494.0,-273.0,0.0,0.0,0.0
19:37:03.159000,-70.0,-544.0,-640.0,-624.0,-494.0,-273.0,0.0,0.0,0.0
