hh:mm:ss.ms,gyroX[mdps],gyroY[mdps],gyroZ[mdps],accX[mg],accY[mg],accZ[mg],magX[mG],magY[mG],magZ[mG]
19:45:21.673000,67.0,366.0,37.0,-1451.0,309.0,-271.0,0.0,0.0,0.0
19:45:21.678000,204.0,382.0,-109.0,-1451.0,309.0,-271.0,0.0,0.0,0.0
19:45:21.683000,284.0,369.0,-132.0,-1467.0,162.0,-321.0,0.0,0.0,0.0
19:45:21.687000,365.0,349.0,-186.0,-1467.0,162.0,-321.0,0.0,0.0,0.0
19:45:21.692000,275.0,316.0,-376.0,-1342.0,132.0,-312.0,0.0,0.0,0.0
19:45:21.697000,116.0,310.0,-475.0,-1342.0,132.0,-312.0,0.0,0.0,0.0
19:45:21.701000,75.0,319.0,-268.0,-1342.0,132.0,-312.0,0.0,0.0,0.0
19:45:21.706000,91.0,291.0,-175.0,-1170.0,314.0,-305.0,0.0,0.0,0.0
19:45:21.711000,81.0,214.0,-128.0,-1170.0,314.0,-305.0,0.0,0.0,0.0
19:45:21.716000,109.0,165.0,-36.0,-1069.0,329.0,-358.0,0.0,0.0,0.0
19:45:21.720000,133.0,112.0,-128.0,-1069.0,329.0,-358.0,0.0,0.0,0.0
19:45:21.725000,168.0,22.0,-429.0,-1168.0,224.0,-392.0,0.0,0.0,0.0
19:45:21.730000,120.0,-23.0,-418.0,-1168.0,224.0,-392.0,0.0,0.0,0.0
19:45:21.734000,90.0,-62.0,-215.0,-1148.0,115.0,-423.0,0.0,0.0,0.0
19:45:21.739000,39.0,-102.0,-270.0,-1148.0,115.0,-423.0,0.0,0.0,0.0
19:45:21.744000,-13.0,-210.0,-641.0,-1130.0,63.0,-411.0,0.0,0.0,0.0
19:45:21.748000,-13.0,-210.0,-641.0,-1130.0,63.0,-411.0,0.0,0.0,0.0
19:45:21.753000,-198.0,-200.0,-578.0,-1088.0,239.0,-318.0,0.0,0.0,0.0
19:45:21.758000,-423.0,-203.0,-534.0,-1088.0,239.0,-318.0,0.0,0.0,0.0
19:45:21.763000,-361.0,-219.0,-437.0,-888.0,44.0,-270.0,0.0,0.0,0.0
19:45:21.767000,-334.0,-295.0,-343.0,-888.0,44.0,-270.0,0.0,0.0,0.0
19:45:21.772000,-296.0,-299.0,-343.0,-924.0,-430.0,-257.0,0.0,0.0,0.0
19:45:21.777000,-316.0,-317.0,-239.0,-924.0,-430.0,-257.0,0.0,0.0,0.0
19:45:21.781000,-380.0,-297.0,-36.0,-905.0,-723.0,-222.0,0.0,0.0,0.0
19:45:21.786000,-199.0,-313.0,72.0,-905.0,-723.0,-222.0,0.0,0.0,0.0
19:45:21.791000,-172.0,-352.0,113.0,-658.0,-1002.0,-197.0,0.0,0.0,0.0
19:45:21.795000,-175.0,-357.0,298.0,-658.0,-1002.0,-197.0,0.0,0.0,0.0
19:45:21.800000,-122.0,-331.0,214.0,-504.0,-1043.0,-142.0,0.0,0.0,0.0
19:45:21.805000,0.0,-365.0,0.0,-504.0,-1043.0,-142.0,0.0,0.0,0.0
19:45:21.810000,64.0,-394.0,89.0,-504.0,-1043.0,-142.0,0.0,0.0,0.0
19:45:21.814000,89.0,-384.0,293.0,-510.0,-1133.0,-110.0,0.0,0.0,0.0
19:45:21.819000,-107.0,-377.0,49.0,-510.0,-1133.0,-110.0,0.0,0.0,0.0
19:45:21.824000,-287.0,-368.0,-196.0,-537.0,-912.0,-60.0,0.0,0.0,0.0
19:45:21.828000,-239.0,-326.0,-42.0,-537.0,-912.0,-60.0,0.0,0.0,0.0
19:45:21.833000,-154.0,-349.0,-103.0,-531.0,-661.0,-38.0,0.0,0.0,0.0
19:45:21.838000,63.0,-327.0,-161.0,-531.0,-661.0,-38.0,0.0,0.0,0.0
19:45:21.842000,153.0,-346.0,-375.0,-749.0,-841.0,-112.0,0.0,0.0,0.0
19:45:21.847000,121.0,-368.0,-312.0,-749.0,-841.0,-112.0,0.0,0.0,0.0
19:45:21.852000,-18.0,-370.0,-156.0,-823.0,-691.0,-124.0,0.0,0.0,0.0
19:45:21.857000,-18.0,-370.0,-156.0,-823.0,-691.0,-124.0,0.0,0.0,0.0
19:45:21.861000,-24.0,-325.0,-144.0,-663.0,-391.0,-77.0,0.0,0.0,0.0
19:45:21.866000,-2.0,-394.0,-345.0,-663.0,-391.0,-77.0,0.0,0.0,0.0
19:45:21.871000,-121.0,-345.0,-491.0,-763.0,-437.0,-49.0,0.0,0.0,0.0
19:45:21.875000,-175.0,-322.0,-376.0,-763.0,-437.0,-49.0,0.0,0.0,0.0
19:45:21.880000,-242.0,-305.0,-356.0,-795.0,-463.0,-11.0,0.0,0.0,0.0
19:45:21.885000,-266.0,-296.0,-348.0,-795.0,-463.0,-11.0,0.0,0.0,0.0
19:45:21.889000,-175.0,-286.0,57.0,-711.0,-585.0,-34.0,0.0,0.0,0.0
19:45:21.894000,-130.0,-293.0,224.0,-711.0,-585.0,-34.0,0.0,0.0,0.0
19:45:21.899000,-150.0,-336.0,15.0,-733.0,-592.0,-61.0,0.0,0.0,0.0
19:45:21.904000,-221.0,-310.0,18.0,-733.0,-592.0,-61.0,0.0,0.0,0.0
19:45:21.908000,-260.0,-292.0,174.0,-797.0,-387.0,-50.0,0.0,0.0,0.0
19:45:21.913000,-323.0,-216.0,252.0,-797.0,-387.0,-50.0,0.0,0.0,0.0
19:45:21.918000,-214.0,-263.0,340.0,-797.0,-387.0,-50.0,0.0,0.0,0.0
19:45:21.922000,-140.0,-253.0,565.0,-920.0,-583.0,-36.0,0.0,0.0,0.0
19:45:21.927000,75.0,-303.0,616.0,-920.0,-583.0,-36.0,0.0,0.0,0.0
19:45:21.932000,235.0,-378.0,250.0,-967.0,-678.0,7.0,0.0,0.0,0.0
19:45:21.936000,186.0,-318.0,7.0,-967.0,-678.0,7.0,0.0,0.0,0.0
19:45:21.941000,249.0,-337.0,40.0,-747.0,-613.0,44.0,0.0,0.0,0.0
19:45:21.946000,164.0,-266.0,208.0,-747.0,-613.0,44.0,0.0,0.0,0.0
19:45:21.951000,155.0,-175.0,389.0,-687.0,-649.0,33.0,0.0,0.0,0.0
19:45:21.955000,161.0,-172.0,312.0,-687.0,-649.0,33.0,0.0,0.0,0.0
19:45:21.960000,177.0,-160.0,265.0,-875.0,-636.0,21.0,0.0,0.0,0.0
19:45:21.965000,177.0,-160.0,265.0,-875.0,-636.0,21.0,0.0,0.0,0.0
19:45:21.969000,238.0,-175.0,371.0,-866.0,-541.0,37.0,0.0,0.0,0.0
19:45:21.974000,207.0,-163.0,257.0,-866.0,-541.0,37.0,0.0,0.0,0.0
19:45:21.979000,276.0,-148.0,42.0,-858.0,-537.0,34.0,0.0,0.0,0.0
19:45:21.983000,289.0,-170.0,-35.0,-858.0,-537.0,34.0,0.0,0.0,0.0
19:45:21.988000,163.0,-185.0,73.0,-850.0,-573.0,41.0,0.0,0.0,0.0
19:45:21.993000,94.0,-144.0,182.0,-850.0,-573.0,41.0,0.0,0.0,0.0
19:45:21.998000,118.0,-106.0,253.0,-743.0,-550.0,30.0,0.0,0.0,0.0
19:45:22.002000,139.0,-72.0,252.0,-743.0,-550.0,30.0,0.0,0.0,0.0
19:45:22.007000,176.0,-85.0,88.0,-813.0,-540.0,1.0,0.0,0.0,0.0
19:45:22.012000,147.0,-84.0,14.0,-813.0,-540.0,1.0,0.0,0.0,0.0
19:45:22.016000,81.0,-42.0,-37.0,-890.0,-506.0,3.0,0.0,0.0,0.0
19:45:22.021000,4.0,-57.0,-368.0,-890.0,-506.0,3.0,0.0,0.0,0.0
19:45:22.026000,-44.0,-16.0,-441.0,-890.0,-521.0,3.0,0.0,0.0,0.0
19:45:22.030000,-142.0,16.0,-277.0,-805.0,-521.0,13.0,0.0,0.0,0.0
19:45:22.035000,-121.0,40.0,-51.0,-805.0,-521.0,13.0,0.0,0.0,0.0
19:45:22.040000,-90.0,28.0,102.0,-746.0,-638.0,-4.0,0.0,0.0,0.0
19:45:22.045000,-30.0,42.0,89.0,-746.0,-638.0,-4.0,0.0,0.0,0.0
19:45:22.049000,51.0,68.0,166.0,-883.0,-622.0,-45.0,0.0,0.0,0.0
19:45:22.054000,78.0,112.0,396.0,-883.0,-622.0,-45.0,0.0,0.0,0.0
19:45:22.059000,210.0,83.0,236.0,-1018.0,-676.0,-76.0,0.0,0.0,0.0
19:45:22.063000,236.0,63.0,-68.0,-1018.0,-676.0,-76.0,0.0,0.0,0.0
19:45:22.068000,145.0,81.0,-139.0,-1030.0,-682.0,-76.0,0.0,0.0,0.0
19:45:22.073000,145.0,81.0,-139.0,-1030.0,-682.0,-76.0,0.0,0.0,0.0
19:45:22.077000,137.0,105.0,-36.0,-822.0,-533.0,-71.0,0.0,0.0,0.0
19:45:22.082000,112.0,99.0,60.0,-822.0,-533.0,-71.0,0.0,0.0,0.0
19:45:22.087000,112.0,84.0,158.0,-637.0,-542.0,-85.0,0.0,0.0,0.0
19:45:22.092000,130.0,70.0,19.0,-637.0,-542.0,-85.0,0.0,0.0,0.0
19:45:22.096000,123.0,75.0,-28.0,-728.0,-623.0,-87.0,0.0,0.0,0.0
19:45:22.101000,42.0,58.0,258.0,-728.0,-623.0,-87.0,0.0,0.0,0.0
19:45:22.106000,5.0,59.0,356.0,-900.0,-552.0,-91.0,0.0,0.0,0.0
19:45:22.110000,21.0,58.0,130.0,-900.0,-552.0,-91.0,0.0,0.0,0.0
19:45:22.115000,-58.0,79.0,-24.0,-861.0,-506.0,-81.0,0.0,0.0,0.0
19:45:22.120000,-71.0,72.0,-22.0,-861.0,-506.0,-81.0,0.0,0.0,0.0
19:45:22.124000,-66.0,51.0,2.0,-816.0,-606.0,-69.0,0.0,0.0,0.0
19:45:22.129000,-98.0,51.0,-94.0,-816.0,-606.0,-69.0,0.0,0.0,0.0
19:45:22.134000,-87.0,34.0,-63.0,-818.0,-649.0,-76.0,0.0,0.0,0.0
19:45:22.139000,-37.0,32.0,-76.0,-818.0,-649.0,-76.0,0.0,0.0,0.0
19:45:22.143000,-27.0,35.0,-145.0,-818.0,-649.0,-76.0,0.0,0.0,0.0
19:45:22.147000,-13.0,25.0,-249.0,-763.0,-701.0,-70.0,0.0,0.0,0.0
19:45:22.153000,7.0,18.0,-409.0,-763.0,-701.0,-70.0,0.0,0.0,0.0
19:45:22.157000,53.0,33.0,-506.0,-790.0,-651.0,-68.0,0.0,0.0,0.0
19:45:22.162000,31.0,55.0,-251.0,-790.0,-651.0,-68.0,0.0,0.0,0.0
19:45:22.167000,14.0,42.0,-44.0,-794.0,-611.0,-71.0,0.0,0.0,0.0
19:45:22.171000,-56.0,44.0,-150.0,-794.0,-611.0,-71.0,0.0,0.0,0.0
19:45:22.176000,-78.0,42.0,-253.0,-838.0,-540.0,-53.0,0.0,0.0,0.0
19:45:22.181000,-86.0,29.0,-245.0,-838.0,-540.0,-53.0,0.0,0.0,0.0
19:45:22.186000,-86.0,29.0,-245.0,-783.0,-478.0,-38.0,0.0,0.0,0.0
19:45:22.190000,-140.0,42.0,-154.0,-783.0,-478.0,-38.0,0.0,0.0,0.0
19:45:22.195000,-90.0,39.0,-215.0,-736.0,-554.0,-65.0,0.0,0.0,0.0
19:45:22.200000,-40.0,18.0,-331.0,-736.0,-554.0,-65.0,0.0,0.0,0.0
19:45:22.204000,-28.0,9.0,-540.0,-790.0,-549.0,-82.0,0.0,0.0,0.0
19:45:22.209000,-13.0,-6.0,-622.0,-790.0,-549.0,-82.0,0.0,0.0,0.0
19:45:22.214000,-32.0,-10.0,-531.0,-720.0,-446.0,-59.0,0.0,0.0,0.0
19:45:22.218000,-42.0,-15.0,-540.0,-720.0,-446.0,-59.0,0.0,0.0,0.0
19:45:22.223000,-57.0,-46.0,-606.0,-714.0,-465.0,-44.0,0.0,0.0,0.0
19:45:22.228000,-113.0,-37.0,-600.0,-714.0,-465.0,-44.0,0.0,0.0,0.0
19:45:22.233000,32.0,-71.0,-631.0,-800.0,-514.0,-57.0,0.0,0.0,0.0
19:45:22.237000,-47.0,-69.0,-554.0,-800.0,-514.0,-57.0,0.0,0.0,0.0
19:45:22.242000,-30.0,-63.0,-291.0,-842.0,-593.0,-84.0,0.0,0.0,0.0
19:45:22.247000,32.0,-79.0,-165.0,-842.0,-593.0,-84.0,0.0,0.0,0.0
19:45:22.251000,32.0,-72.0,-102.0,-842.0,-593.0,-84.0,0.0,0.0,0.0
19:45:22.255000,46.0,-93.0,-16.0,-873.0,-577.0,-80.0,0.0,0.0,0.0
19:45:22.261000,75.0,-118.0,21.0,-873.0,-577.0,-80.0,0.0,0.0,0.0
19:45:22.265000,91.0,-114.0,59.0,-849.0,-367.0,-56.0,0.0,0.0,0.0
19:45:22.270000,133.0,-108.0,-4.0,-849.0,-367.0,-56.0,0.0,0.0,0.0
19:45:22.275000,137.0,-101.0,-90.0,-853.0,-372.0,-58.0,0.0,0.0,0.0
19:45:22.280000,121.0,-100.0,-94.0,-853.0,-372.0,-58.0,0.0,0.0,0.0
19:45:22.284000,111.0,-94.0,-53.0,-831.0,-517.0,-55.0,0.0,0.0,0.0
19:45:22.289000,158.0,-95.0,-90.0,-831.0,-517.0,-55.0,0.0,0.0,0.0
19:45:22.294000,158.0,-95.0,-90.0,-798.0,-472.0,-41.0,0.0,0.0,0.0
19:45:22.298000,119.0,-78.0,-168.0,-798.0,-472.0,-41.0,0.0,0.0,0.0
19:45:22.303000,137.0,-68.0,-252.0,-840.0,-388.0,-33.0,0.0,0.0,0.0
19:45:22.308000,133.0,-62.0,-368.0,-840.0,-388.0,-33.0,0.0,0.0,0.0
19:45:22.312000,100.0,-56.0,-434.0,-857.0,-432.0,-15.0,0.0,0.0,0.0
19:45:22.317000,73.0,-51.0,-449.0,-857.0,-432.0,-15.0,0.0,0.0,0.0
19:45:22.322000,30.0,-37.0,-398.0,-859.0,-420.0,-9.0,0.0,0.0,0.0
19:45:22.327000,-13.0,-30.0,-303.0,-859.0,-420.0,-9.0,0.0,0.0,0.0
19:45:22.331000,-60.0,-11.0,-213.0,-863.0,-394.0,-14.0,0.0,0.0,0.0
19:45:22.336000,-86.0,-7.0,-125.0,-863.0,-394.0,-14.0,0.0,0.0,0.0
19:45:22.341000,-49.0,5.0,-148.0,-898.0,-383.0,-28.0,0.0,0.0,0.0
19:45:22.345000,17.0,31.0,-343.0,-898.0,-383.0,-28.0,0.0,0.0,0.0
19:45:22.350000,44.0,46.0,-451.0,-932.0,-445.0,-33.0,0.0,0.0,0.0
19:45:22.355000,46.0,66.0,-343.0,-932.0,-445.0,-33.0,0.0,0.0,0.0
19:45:22.359000,83.0,65.0,-172.0,-932.0,-445.0,-33.0,0.0,0.0,0.0
19:45:22.364000,87.0,59.0,-137.0,-936.0,-502.0,-22.0,0.0,0.0,0.0
19:45:22.369000,49.0,74.0,-235.0,-936.0,-502.0,-22.0,0.0,0.0,0.0
19:45:22.374000,51.0,77.0,-296.0,-906.0,-429.0,-15.0,0.0,0.0,0.0
19:45:22.378000,50.0,75.0,-279.0,-906.0,-429.0,-15.0,0.0,0.0,0.0
19:45:22.383000,41.0,75.0,-273.0,-859.0,-434.0,-23.0,0.0,0.0,0.0
19:45:22.388000,40.0,67.0,-256.0,-859.0,-434.0,-23.0,0.0,0.0,0.0
19:45:22.392000,32.0,66.0,-235.0,-862.0,-482.0,-40.0,0.0,0.0,0.0
19:45:22.397000,12.0,66.0,-211.0,-862.0,-482.0,-40.0,0.0,0.0,0.0
19:45:22.402000,12.0,66.0,-211.0,-889.0,-498.0,-49.0,0.0,0.0,0.0
19:45:22.406000,13.0,58.0,-190.0,-889.0,-498.0,-49.0,0.0,0.0,0.0
19:45:22.411000,28.0,51.0,-188.0,-872.0,-479.0,-65.0,0.0,0.0,0.0
19:45:22.416000,26.0,49.0,-198.0,-872.0,-479.0,-65.0,0.0,0.0,0.0
19:45:22.421000,18.0,41.0,-272.0,-872.0,-386.0,-80.0,0.0,0.0,0.0
19:45:22.425000,-10.0,36.0,-340.0,-872.0,-386.0,-80.0,0.0,0.0,0.0
19:45:22.430000,-15.0,20.0,-381.0,-841.0,-281.0,-79.0,0.0,0.0,0.0
19:45:22.435000,-14.0,4.0,-421.0,-841.0,-281.0,-79.0,0.0,0.0,0.0
19:45:22.439000,-49.0,10.0,-419.0,-848.0,-239.0,-68.0,0.0,0.0,0.0
19:45:22.444000,-58.0,13.0,-486.0,-848.0,-239.0,-68.0,0.0,0.0,0.0
19:45:22.449000,-71.0,7.0,-598.0,-978.0,-356.0,-67.0,0.0,0.0,0.0
19:45:22.453000,-67.0,11.0,-578.0,-978.0,-356.0,-67.0,0.0,0.0,0.0
19:45:22.458000,-33.0,15.0,-469.0,-1042.0,-464.0,-78.0,0.0,0.0,0.0
19:45:22.463000,-34.0,13.0,-416.0,-1042.0,-464.0,-78.0,0.0,0.0,0.0
19:45:22.468000,-32.0,19.0,-365.0,-1042.0,-464.0,-78.0,0.0,0.0,0.0
19:45:22.472000,-3.0,18.0,-336.0,-1049.0,-430.0,-77.0,0.0,0.0,0.0
19:45:22.477000,-17.0,11.0,-412.0,-1049.0,-430.0,-77.0,0.0,0.0,0.0
19:45:22.482000,-13.0,5.0,-459.0,-1057.0,-399.0,-63.0,0.0,0.0,0.0
19:45:22.486000,-4.0,6.0,-385.0,-1057.0,-399.0,-63.0,0.0,0.0,0.0
19:45:22.490000,9.0,18.0,-387.0,-1020.0,-448.0,-65.0,0.0,0.0,0.0
19:45:22.496000,47.0,18.0,-534.0,-1020.0,-448.0,-65.0,0.0,0.0,0.0
19:45:22.500000,58.0,27.0,-610.0,-1061.0,-427.0,-79.0,0.0,0.0,0.0
19:45:22.505000,67.0,33.0,-542.0,-1061.0,-427.0,-79.0,0.0,0.0,0.0
19:45:22.510000,67.0,33.0,-542.0,-1089.0,-420.0,-86.0,0.0,0.0,0.0
19:45:22.515000,56.0,46.0,-504.0,-1089.0,-420.0,-86.0,0.0,0.0,0.0
19:45:22.519000,60.0,58.0,-571.0,-1081.0,-418.0,-97.0,0.0,0.0,0.0
19:45:22.524000,77.0,64.0,-648.0,-1081.0,-418.0,-97.0,0.0,0.0,0.0
19:45:22.529000,79.0,67.0,-678.0,-1077.0,-359.0,-100.0,0.0,0.0,0.0
19:45:22.533000,82.0,69.0,-658.0,-1077.0,-359.0,-100.0,0.0,0.0,0.0
19:45:22.538000,85.0,72.0,-674.0,-1048.0,-343.0,-95.0,0.0,0.0,0.0
19:45:22.543000,86.0,72.0,-732.0,-1048.0,-343.0,-95.0,0.0,0.0,0.0
19:45:22.547000,97.0,68.0,-788.0,-1044.0,-331.0,-98.0,0.0,0.0,0.0
19:45:22.552000,104.0,70.0,-802.0,-1044.0,-331.0,-98.0,0.0,0.0,0.0
19:45:22.557000,100.0,76.0,-797.0,-1040.0,-333.0,-103.0,0.0,0.0,0.0
19:45:22.562000,96.0,86.0,-788.0,-1040.0,-333.0,-103.0,0.0,0.0,0.0
19:45:22.566000,86.0,101.0,-795.0,-1079.0,-313.0,-106.0,0.0,0.0,0.0
19:45:22.571000,83.0,119.0,-798.0,-1079.0,-313.0,-106.0,0.0,0.0,0.0
19:45:22.576000,90.0,135.0,-792.0,-1079.0,-313.0,-106.0,0.0,0.0,0.0
19:45:22.580000,95.0,149.0,-795.0,-1136.0,-329.0,-111.0,0.0,0.0,0.0
19:45:22.585000,105.0,163.0,-822.0,-1136.0,-329.0,-111.0,0.0,0.0,0.0
19:45:22.590000,112.0,179.0,-854.0,-1148.0,-364.0,-118.0,0.0,0.0,0.0
19:45:22.594000,121.0,189.0,-852.0,-1148.0,-364.0,-118.0,0.0,0.0,0.0
19:45:22.599000,132.0,198.0,-855.0,-1113.0,-355.0,-118.0,0.0,0.0,0.0
19:45:22.604000,130.0,212.0,-874.0,-1113.0,-355.0,-118.0,0.0,0.0,0.0
19:45:22.609000,140.0,219.0,-894.0,-1084.0,-322.0,-112.0,0.0,0.0,0.0
19:45:22.613000,161.0,226.0,-940.0,-1084.0,-322.0,-112.0,0.0,0.0,0.0
19:45:22.618000,179.0,231.0,-978.0,-1072.0,-282.0,-108.0,0.0,0.0,0.0
19:45:22.622000,179.0,231.0,-978.0,-1072.0,-282.0,-108.0,0.0,0.0,0.0
19:45:22.627000,198.0,235.0,-991.0,-1047.0,-300.0,-116.0,0.0,0.0,0.0
19:45:22.632000,219.0,237.0,-977.0,-1047.0,-300.0,-116.0,0.0,0.0,0.0
19:45:22.637000,242.0,235.0,-939.0,-1047.0,-330.0,-124.0,0.0,0.0,0.0
19:45:22.641000,253.0,229.0,-926.0,-1047.0,-330.0,-124.0,0.0,0.0,0.0
19:45:22.646000,263.0,226.0,-930.0,-1062.0,-297.0,-123.0,0.0,0.0,0.0
19:45:22.651000,276.0,225.0,-928.0,-1062.0,-297.0,-123.0,0.0,0.0,0.0
19:45:22.656000,284.0,221.0,-936.0,-1051.0,-246.0,-125.0,0.0,0.0,0.0
19:45:22.660000,288.0,217.0,-943.0,-1051.0,-246.0,-125.0,0.0,0.0,0.0
19:45:22.665000,284.0,210.0,-928.0,-1035.0,-199.0,-128.0,0.0,0.0,0.0
19:45:22.670000,284.0,198.0,-925.0,-1035.0,-199.0,-128.0,0.0,0.0,0.0
19:45:22.674000,279.0,190.0,-974.0,-1028.0,-137.0,-131.0,0.0,0.0,0.0
19:45:22.679000,272.0,188.0,-989.0,-1028.0,-137.0,-131.0,0.0,0.0,0.0
19:45:22.684000,265.0,185.0,-936.0,-1028.0,-137.0,-131.0,0.0,0.0,0.0
19:45:22.688000,256.0,184.0,-906.0,-1023.0,-114.0,-140.0,0.0,0.0,0.0
19:45:22.693000,240.0,187.0,-912.0,-1023.0,-114.0,-140.0,0.0,0.0,0.0
19:45:22.698000,217.0,187.0,-933.0,-1048.0,-80.0,-146.0,0.0,0.0,0.0
19:45:22.703000,198.0,187.0,-945.0,-1048.0,-80.0,-146.0,0.0,0.0,0.0
19:45:22.707000,183.0,187.0,-942.0,-1059.0,-24.0,-145.0,0.0,0.0,0.0
19:45:22.712000,175.0,189.0,-948.0,-1059.0,-24.0,-145.0,0.0,0.0,0.0
19:45:22.717000,171.0,194.0,-965.0,-1039.0,-23.0,-151.0,0.0,0.0,0.0
19:45:22.721000,165.0,196.0,-977.0,-1039.0,-23.0,-151.0,0.0,0.0,0.0
19:45:22.725000,165.0,196.0,-977.0,-1050.0,-25.0,-157.0,0.0,0.0,0.0
19:45:22.731000,160.0,196.0,-984.0,-1050.0,-25.0,-157.0,0.0,0.0,0.0
19:45:22.735000,154.0,196.0,-968.0,-1048.0,-4.0,-158.0,0.0,0.0,0.0
19:45:22.740000,151.0,193.0,-948.0,-1048.0,-4.0,-158.0,0.0,0.0,0.0
19:45:22.745000,155.0,193.0,-931.0,-1032.0,6.0,-164.0,0.0,0.0,0.0
19:45:22.750000,161.0,190.0,-905.0,-1032.0,6.0,-164.0,0.0,0.0,0.0
19:45:22.754000,174.0,184.0,-889.0,-1036.0,0.0,-172.0,0.0,0.0,0.0
19:45:22.759000,196.0,174.0,-900.0,-1036.0,0.0,-172.0,0.0,0.0,0.0
19:45:22.764000,210.0,164.0,-928.0,-1020.0,16.0,-175.0,0.0,0.0,0.0
19:45:22.768000,217.0,157.0,-917.0,-1020.0,16.0,-175.0,0.0,0.0,0.0
19:45:22.773000,226.0,143.0,-872.0,-978.0,41.0,-179.0,0.0,0.0,0.0
19:45:22.778000,238.0,128.0,-860.0,-978.0,41.0,-179.0,0.0,0.0,0.0
19:45:22.782000,247.0,112.0,-868.0,-954.0,86.0,-185.0,0.0,0.0,0.0
19:45:22.787000,245.0,103.0,-840.0,-954.0,86.0,-185.0,0.0,0.0,0.0
19:45:22.792000,248.0,93.0,-793.0,-954.0,86.0,-185.0,0.0,0.0,0.0
19:45:22.796000,252.0,86.0,-784.0,-960.0,139.0,-193.0,0.0,0.0,0.0
19:45:22.801000,248.0,81.0,-795.0,-960.0,139.0,-193.0,0.0,0.0,0.0
19:45:22.806000,236.0,80.0,-779.0,-975.0,174.0,-200.0,0.0,0.0,0.0
19:45:22.811000,223.0,79.0,-748.0,-975.0,174.0,-200.0,0.0,0.0,0.0
19:45:22.815000,207.0,76.0,-743.0,-996.0,207.0,-207.0,0.0,0.0,0.0
19:45:22.820000,191.0,77.0,-756.0,-996.0,207.0,-207.0,0.0,0.0,0.0
19:45:22.825000,177.0,79.0,-767.0,-1002.0,241.0,-213.0,0.0,0.0,0.0
19:45:22.829000,164.0,81.0,-746.0,-1002.0,241.0,-213.0,0.0,0.0,0.0
19:45:22.834000,147.0,79.0,-709.0,-995.0,247.0,-217.0,0.0,0.0,0.0
19:45:22.839000,147.0,79.0,-709.0,-995.0,247.0,-217.0,0.0,0.0,0.0
19:45:22.843000,134.0,76.0,-683.0,-990.0,235.0,-218.0,0.0,0.0,0.0
19:45:22.848000,131.0,71.0,-662.0,-990.0,235.0,-218.0,0.0,0.0,0.0
19:45:22.853000,123.0,68.0,-663.0,-970.0,254.0,-219.0,0.0,0.0,0.0
19:45:22.858000,117.0,69.0,-672.0,-970.0,254.0,-219.0,0.0,0.0,0.0
19:45:22.862000,120.0,64.0,-665.0,-929.0,264.0,-224.0,0.0,0.0,0.0
19:45:22.867000,126.0,55.0,-629.0,-929.0,264.0,-224.0,0.0,0.0,0.0
19:45:22.872000,128.0,49.0,-602.0,-899.0,285.0,-226.0,0.0,0.0,0.0
19:45:22.876000,124.0,39.0,-601.0,-899.0,285.0,-226.0,0.0,0.0,0.0
19:45:22.881000,111.0,35.0,-578.0,-903.0,328.0,-219.0,0.0,0.0,0.0
19:45:22.886000,107.0,28.0,-542.0,-903.0,328.0,-219.0,0.0,0.0,0.0
19:45:22.890000,105.0,15.0,-511.0,-910.0,334.0,-208.0,0.0,0.0,0.0
19:45:22.895000,105.0,-2.0,-488.0,-910.0,334.0,-208.0,0.0,0.0,0.0
19:45:22.900000,105.0,-19.0,-478.0,-910.0,330.0,-196.0,0.0,0.0,0.0
19:45:22.905000,109.0,-34.0,-457.0,-915.0,330.0,-196.0,0.0,0.0,0.0
19:45:22.909000,113.0,-48.0,-409.0,-915.0,330.0,-196.0,0.0,0.0,0.0
19:45:22.914000,109.0,-58.0,-360.0,-895.0,330.0,-178.0,0.0,0.0,0.0
19:45:22.919000,105.0,-60.0,-319.0,-895.0,315.0,-165.0,0.0,0.0,0.0
19:45:22.923000,95.0,-63.0,-314.0,-885.0,315.0,-165.0,0.0,0.0,0.0
19:45:22.928000,95.0,-66.0,-324.0,-885.0,315.0,-165.0,0.0,0.0,0.0
19:45:22.933000,88.0,-77.0,-291.0,-927.0,334.0,-152.0,0.0,0.0,0.0
19:45:22.937000,81.0,-87.0,-271.0,-927.0,334.0,-152.0,0.0,0.0,0.0
19:45:22.942000,67.0,-79.0,-365.0,-916.0,349.0,-142.0,0.0,0.0,0.0
19:45:22.947000,40.0,-79.0,-186.0,-916.0,349.0,-142.0,0.0,0.0,0.0
19:45:22.952000,40.0,-75.0,-324.0,-862.0,324.0,-141.0,0.0,0.0,0.0
19:45:22.956000,35.0,-86.0,-212.0,-862.0,324.0,-141.0,0.0,0.0,0.0
19:45:22.960000,4.0,-85.0,-142.0,-907.0,325.0,-134.0,0.0,0.0,0.0
19:45:22.966000,4.0,-100.0,-154.0,-907.0,325.0,-134.0,0.0,0.0,0.0
19:45:22.970000,11.0,-103.0,-259.0,-961.0,379.0,-128.0,0.0,0.0,0.0
19:45:22.975000,13.0,-104.0,-282.0,-961.0,379.0,-128.0,0.0,0.0,0.0
19:45:22.980000,1.0,-105.0,-221.0,-922.0,386.0,-121.0,0.0,0.0,0.0
19:45:22.984000,-18.0,-102.0,-179.0,-922.0,386.0,-121.0,0.0,0.0,0.0
19:45:22.989000,-17.0,-97.0,-207.0,-893.0,379.0,-126.0,0.0,0.0,0.0
19:45:22.994000,-25.0,-84.0,-215.0,-893.0,379.0,-126.0,0.0,0.0,0.0
19:45:22.999000,-25.0,-88.0,-191.0,-907.0,397.0,-139.0,0.0,0.0,0.0
19:45:23.003000,-24.0,-94.0,-140.0,-907.0,397.0,-139.0,0.0,0.0,0.0
19:45:23.008000,-35.0,-100.0,-97.0,-949.0,404.0,-140.0,0.0,0.0,0.0
19:45:23.013000,-49.0,-105.0,-88.0,-949.0,404.0,-140.0,0.0,0.0,0.0
19:45:23.017000,-56.0,-109.0,-79.0,-949.0,404.0,-140.0,0.0,0.0,0.0
19:45:23.022000,-55.0,-116.0,-56.0,-958.0,415.0,-141.0,0.0,0.0,0.0
19:45:23.027000,-64.0,-122.0,-13.0,-958.0,415.0,-141.0,0.0,0.0,0.0
19:45:23.031000,-71.0,-124.0,42.0,-902.0,395.0,-141.0,0.0,0.0,0.0
19:45:23.036000,-78.0,-127.0,103.0,-902.0,395.0,-141.0,0.0,0.0,0.0
19:45:23.041000,-83.0,-137.0,163.0,-869.0,369.0,-134.0,0.0,0.0,0.0
19:45:23.046000,-80.0,-147.0,210.0,-869.0,369.0,-134.0,0.0,0.0,0.0
19:45:23.050000,-70.0,-158.0,236.0,-845.0,351.0,-123.0,0.0,0.0,0.0
19:45:23.055000,-58.0,-170.0,265.0,-845.0,351.0,-123.0,0.0,0.0,0.0
19:45:23.060000,-58.0,-170.0,265.0,-777.0,314.0,-108.0,0.0,0.0,0.0
19:45:23.064000,-46.0,-180.0,275.0,-777.0,314.0,-108.0,0.0,0.0,0.0
19:45:23.069000,-35.0,-189.0,305.0,-717.0,284.0,-99.0,0.0,0.0,0.0
19:45:23.074000,-31.0,-192.0,317.0,-717.0,284.0,-99.0,0.0,0.0,0.0
19:45:23.078000,-31.0,-191.0,320.0,-730.0,300.0,-95.0,0.0,0.0,0.0
19:45:23.083000,-33.0,-189.0,298.0,-730.0,300.0,-95.0,0.0,0.0,0.0
19:45:23.088000,-51.0,-182.0,295.0,-765.0,319.0,-91.0,0.0,0.0,0.0
19:45:23.092000,-66.0,-170.0,317.0,-765.0,319.0,-91.0,0.0,0.0,0.0
19:45:23.097000,-81.0,-158.0,326.0,-787.0,313.0,-89.0,0.0,0.0,0.0
19:45:23.102000,-95.0,-144.0,326.0,-787.0,313.0,-89.0,0.0,0.0,0.0
19:45:23.107000,-114.0,-128.0,336.0,-804.0,298.0,-89.0,0.0,0.0,0.0
19:45:23.111000,-135.0,-109.0,349.0,-804.0,298.0,-89.0,0.0,0.0,0.0
19:45:23.116000,-150.0,-89.0,354.0,-800.0,287.0,-86.0,0.0,0.0,0.0
19:45:23.121000,-168.0,-68.0,354.0,-800.0,287.0,-86.0,0.0,0.0,0.0
19:45:23.125000,-184.0,-48.0,347.0,-800.0,287.0,-86.0,0.0,0.0,0.0
19:45:23.130000,-195.0,-30.0,341.0,-792.0,281.0,-82.0,0.0,0.0,0.0
19:45:23.135000,-198.0,-12.0,327.0,-792.0,281.0,-82.0,0.0,0.0,0.0
19:45:23.140000,-193.0,4.0,308.0,-787.0,253.0,-85.0,0.0,0.0,0.0
19:45:23.144000,-186.0,22.0,284.0,-787.0,253.0,-85.0,0.0,0.0,0.0
19:45:23.149000,-179.0,37.0,264.0,-782.0,209.0,-95.0,0.0,0.0,0.0
19:45:23.154000,-176.0,49.0,269.0,-782.0,209.0,-95.0,0.0,0.0,0.0
19:45:23.158000,-167.0,60.0,279.0,-769.0,173.0,-104.0,0.0,0.0,0.0
19:45:23.163000,-160.0,69.0,277.0,-769.0,173.0,-104.0,0.0,0.0,0.0
19:45:23.168000,-160.0,69.0,277.0,-752.0,168.0,-109.0,0.0,0.0,0.0
19:45:23.172000,-161.0,77.0,284.0,-752.0,168.0,-109.0,0.0,0.0,0.0
19:45:23.177000,-155.0,82.0,293.0,-730.0,179.0,-114.0,0.0,0.0,0.0
19:45:23.182000,-153.0,87.0,296.0,-730.0,179.0,-114.0,0.0,0.0,0.0
19:45:23.187000,-145.0,91.0,284.0,-701.0,182.0,-121.0,0.0,0.0,0.0
19:45:23.191000,-142.0,91.0,296.0,-701.0,182.0,-121.0,0.0,0.0,0.0
19:45:23.195000,-136.0,90.0,315.0,-676.0,163.0,-126.0,0.0,0.0,0.0
19:45:23.201000,-125.0,86.0,317.0,-676.0,163.0,-126.0,0.0,0.0,0.0
19:45:23.205000,-114.0,80.0,315.0,-650.0,135.0,-123.0,0.0,0.0,0.0
19:45:23.209000,-105.0,72.0,328.0,-650.0,135.0,-123.0,0.0,0.0,0.0
19:45:23.215000,-91.0,62.0,346.0,-606.0,109.0,-114.0,0.0,0.0,0.0
19:45:23.219000,-77.0,51.0,363.0,-606.0,109.0,-114.0,0.0,0.0,0.0
19:45:23.224000,-60.0,38.0,376.0,-571.0,82.0,-105.0,0.0,0.0,0.0
19:45:23.229000,-44.0,24.0,382.0,-571.0,82.0,-105.0,0.0,0.0,0.0
19:45:23.234000,-28.0,11.0,387.0,-571.0,82.0,-105.0,0.0,0.0,0.0
19:45:23.238000,-11.0,1.0,392.0,-558.0,62.0,-95.0,0.0,0.0,0.0
19:45:23.243000,4.0,-5.0,391.0,-558.0,62.0,-95.0,0.0,0.0,0.0
19:45:23.248000,19.0,-9.0,385.0,-549.0,51.0,-89.0,0.0,0.0,0.0
19:45:23.252000,30.0,-8.0,373.0,-549.0,51.0,-89.0,0.0,0.0,0.0
19:45:23.257000,37.0,-4.0,365.0,-554.0,57.0,-88.0,0.0,0.0,0.0
19:45:23.262000,42.0,2.0,364.0,-554.0,57.0,-88.0,0.0,0.0,0.0
19:45:23.266000,44.0,11.0,361.0,-564.0,61.0,-89.0,0.0,0.0,0.0
19:45:23.271000,49.0,23.0,349.0,-564.0,61.0,-89.0,0.0,0.0,0.0
19:45:23.276000,49.0,23.0,349.0,-574.0,54.0,-90.0,0.0,0.0,0.0
19:45:23.281000,50.0,35.0,337.0,-574.0,54.0,-90.0,0.0,0.0,0.0
19:45:23.285000,50.0,46.0,332.0,-586.0,52.0,-92.0,0.0,0.0,0.0
19:45:23.290000,51.0,54.0,330.0,-586.0,52.0,-92.0,0.0,0.0,0.0
19:45:23.295000,51.0,60.0,324.0,-590.0,56.0,-92.0,0.0,0.0,0.0
19:45:23.299000,51.0,64.0,317.0,-590.0,56.0,-92.0,0.0,0.0,0.0
19:45:23.304000,53.0,63.0,310.0,-574.0,62.0,-90.0,0.0,0.0,0.0
19:45:23.309000,53.0,61.0,305.0,-574.0,62.0,-90.0,0.0,0.0,0.0
19:45:23.313000,53.0,54.0,301.0,-547.0,62.0,-86.0,0.0,0.0,0.0
19:45:23.318000,54.0,46.0,296.0,-547.0,62.0,-86.0,0.0,0.0,0.0
19:45:23.323000,55.0,39.0,282.0,-524.0,62.0,-85.0,0.0,0.0,0.0
19:45:23.328000,51.0,30.0,264.0,-524.0,62.0,-85.0,0.0,0.0,0.0
19:45:23.332000,43.0,22.0,260.0,-519.0,68.0,-89.0,0.0,0.0,0.0
19:45:23.337000,32.0,13.0,272.0,-519.0,68.0,-89.0,0.0,0.0,0.0
19:45:23.342000,20.0,6.0,279.0,-519.0,68.0,-89.0,0.0,0.0,0.0
19:45:23.346000,7.0,1.0,277.0,-532.0,74.0,-95.0,0.0,0.0,0.0
19:45:23.351000,-6.0,-2.0,270.0,-532.0,74.0,-95.0,0.0,0.0,0.0
19:45:23.356000,-23.0,-8.0,266.0,-557.0,88.0,-103.0,0.0,0.0,0.0
19:45:23.360000,-39.0,-17.0,264.0,-557.0,88.0,-103.0,0.0,0.0,0.0
19:45:23.365000,-48.0,-28.0,263.0,-589.0,103.0,-103.0,0.0,0.0,0.0
19:45:23.370000,-53.0,-42.0,264.0,-589.0,103.0,-103.0,0.0,0.0,0.0
19:45:23.375000,-54.0,-56.0,273.0,-604.0,90.0,-97.0,0.0,0.0,0.0
19:45:23.379000,-50.0,-70.0,289.0,-604.0,90.0,-97.0,0.0,0.0,0.0
19:45:23.384000,-45.0,-80.0,310.0,-599.0,49.0,-96.0,0.0,0.0,0.0
19:45:23.389000,-45.0,-80.0,310.0,-599.0,49.0,-96.0,0.0,0.0,0.0
19:45:23.393000,-44.0,-87.0,333.0,-608.0,14.0,-96.0,0.0,0.0,0.0
19:45:23.398000,-46.0,-90.0,350.0,-608.0,14.0,-96.0,0.0,0.0,0.0
19:45:23.403000,-53.0,-89.0,355.0,-650.0,2.0,-93.0,0.0,0.0,0.0
19:45:23.407000,-61.0,-86.0,355.0,-650.0,2.0,-93.0,0.0,0.0,0.0
19:45:23.412000,-70.0,-79.0,349.0,-701.0,-13.0,-91.0,0.0,0.0,0.0
19:45:23.417000,-79.0,-74.0,333.0,-701.0,-13.0,-91.0,0.0,0.0,0.0
19:45:23.422000,-84.0,-68.0,312.0,-727.0,-40.0,-90.0,0.0,0.0,0.0
19:45:23.426000,-86.0,-63.0,290.0,-727.0,-40.0,-90.0,0.0,0.0,0.0
19:45:23.430000,-83.0,-61.0,263.0,-723.0,-59.0,-89.0,0.0,0.0,0.0
19:45:23.436000,-74.0,-60.0,229.0,-723.0,-59.0,-89.0,0.0,0.0,0.0
19:45:23.440000,-61.0,-58.0,194.0,-713.0,-61.0,-87.0,0.0,0.0,0.0
19:45:23.445000,-46.0,-60.0,161.0,-713.0,-61.0,-87.0,0.0,0.0,0.0
19:45:23.450000,-31.0,-58.0,133.0,-713.0,-61.0,-87.0,0.0,0.0,0.0
19:45:23.454000,-17.0,-56.0,121.0,-709.0,-53.0,-90.0,0.0,0.0,0.0
19:45:23.459000,-7.0,-53.0,116.0,-709.0,-53.0,-90.0,0.0,0.0,0.0
19:45:23.464000,-2.0,-51.0,119.0,-715.0,-37.0,-94.0,0.0,0.0,0.0
19:45:23.469000,0.0,-47.0,128.0,-715.0,-37.0,-94.0,0.0,0.0,0.0
19:45:23.473000,0.0,-39.0,132.0,-724.0,-17.0,-97.0,0.0,0.0,0.0
19:45:23.478000,-2.0,-28.0,123.0,-724.0,-17.0,-97.0,0.0,0.0,0.0
19:45:23.483000,-7.0,-18.0,114.0,-744.0,11.0,-104.0,0.0,0.0,0.0
19:45:23.487000,-16.0,-10.0,108.0,-744.0,11.0,-104.0,0.0,0.0,0.0
19:45:23.492000,-25.0,0.0,108.0,-777.0,44.0,-108.0,0.0,0.0,0.0
19:45:23.497000,-25.0,0.0,108.0,-777.0,44.0,-108.0,0.0,0.0,0.0
19:45:23.501000,-30.0,14.0,108.0,-785.0,63.0,-112.0,0.0,0.0,0.0
19:45:23.506000,-39.0,28.0,108.0,-785.0,63.0,-112.0,0.0,0.0,0.0
19:45:23.511000,-50.0,37.0,112.0,-772.0,87.0,-120.0,0.0,0.0,0.0
19:45:23.516000,-60.0,45.0,121.0,-772.0,87.0,-120.0,0.0,0.0,0.0
19:45:23.520000,-71.0,51.0,133.0,-755.0,123.0,-129.0,0.0,0.0,0.0
19:45:23.525000,-79.0,54.0,145.0,-755.0,123.0,-129.0,0.0,0.0,0.0
19:45:23.530000,-85.0,55.0,161.0,-741.0,140.0,-142.0,0.0,0.0,0.0
19:45:23.534000,-88.0,52.0,177.0,-741.0,140.0,-142.0,0.0,0.0,0.0
19:45:23.539000,-86.0,45.0,193.0,-729.0,131.0,-152.0,0.0,0.0,0.0
19:45:23.544000,-80.0,42.0,207.0,-729.0,131.0,-152.0,0.0,0.0,0.0
19:45:23.548000,-72.0,39.0,213.0,-722.0,125.0,-161.0,0.0,0.0,0.0
19:45:23.553000,-65.0,35.0,218.0,-722.0,125.0,-161.0,0.0,0.0,0.0
19:45:23.558000,-56.0,30.0,225.0,-722.0,125.0,-161.0,0.0,0.0,0.0
19:45:23.563000,-47.0,25.0,227.0,-730.0,130.0,-168.0,0.0,0.0,0.0
19:45:23.567000,-39.0,19.0,226.0,-730.0,130.0,-168.0,0.0,0.0,0.0
19:45:23.572000,-31.0,14.0,229.0,-744.0,134.0,-174.0,0.0,0.0,0.0
19:45:23.577000,-27.0,11.0,236.0,-744.0,134.0,-174.0,0.0,0.0,0.0
19:45:23.581000,-26.0,10.0,245.0,-765.0,143.0,-183.0,0.0,0.0,0.0
19:45:23.586000,-32.0,14.0,254.0,-765.0,143.0,-183.0,0.0,0.0,0.0
19:45:23.591000,-45.0,17.0,266.0,-806.0,173.0,-193.0,0.0,0.0,0.0
19:45:23.595000,-63.0,21.0,290.0,-806.0,173.0,-193.0,0.0,0.0,0.0
19:45:23.600000,-63.0,21.0,290.0,-852.0,202.0,-202.0,0.0,0.0,0.0
19:45:23.605000,-84.0,28.0,321.0,-852.0,202.0,-202.0,0.0,0.0,0.0
19:45:23.610000,-105.0,36.0,349.0,-877.0,212.0,-211.0,0.0,0.0,0.0
19:45:23.614000,-128.0,46.0,366.0,-877.0,212.0,-211.0,0.0,0.0,0.0
19:45:23.619000,-150.0,53.0,381.0,-892.0,206.0,-220.0,0.0,0.0,0.0
19:45:23.624000,-171.0,56.0,401.0,-892.0,206.0,-220.0,0.0,0.0,0.0
19:45:23.628000,-189.0,58.0,419.0,-907.0,180.0,-227.0,0.0,0.0,0.0
19:45:23.633000,-202.0,58.0,429.0,-907.0,180.0,-227.0,0.0,0.0,0.0
19:45:23.638000,-210.0,56.0,435.0,-932.0,142.0,-232.0,0.0,0.0,0.0
19:45:23.642000,-217.0,53.0,445.0,-932.0,142.0,-232.0,0.0,0.0,0.0
19:45:23.647000,-219.0,43.0,460.0,-949.0,102.0,-231.0,0.0,0.0,0.0
19:45:23.652000,-221.0,27.0,480.0,-949.0,102.0,-231.0,0.0,0.0,0.0
19:45:23.657000,-220.0,15.0,499.0,-926.0,67.0,-228.0,0.0,0.0,0.0
19:45:23.661000,-217.0,6.0,511.0,-926.0,67.0,-228.0,0.0,0.0,0.0
19:45:23.665000,-210.0,-7.0,514.0,-926.0,67.0,-228.0,0.0,0.0,0.0
19:45:23.671000,-204.0,-19.0,503.0,-898.0,44.0,-233.0,0.0,0.0,0.0
19:45:23.675000,-199.0,-28.0,478.0,-898.0,44.0,-233.0,0.0,0.0,0.0
19:45:23.680000,-199.0,-35.0,450.0,-924.0,52.0,-241.0,0.0,0.0,0.0
19:45:23.685000,-203.0,-37.0,426.0,-924.0,52.0,-241.0,0.0,0.0,0.0
19:45:23.689000,-204.0,-30.0,410.0,-969.0,75.0,-241.0,0.0,0.0,0.0
19:45:23.694000,-194.0,-12.0,405.0,-969.0,75.0,-241.0,0.0,0.0,0.0
19:45:23.699000,-186.0,0.0,377.0,-980.0,75.0,-259.0,0.0,0.0,0.0
19:45:23.704000,-183.0,14.0,326.0,-980.0,75.0,-259.0,0.0,0.0,0.0
19:45:23.708000,-190.0,17.0,301.0,-1018.0,121.0,-280.0,0.0,0.0,0.0
19:45:23.713000,-190.0,17.0,301.0,-1018.0,121.0,-280.0,0.0,0.0,0.0
19:45:23.718000,-198.0,11.0,309.0,-1015.0,216.0,-269.0,0.0,0.0,0.0
19:45:23.722000,-205.0,7.0,299.0,-1015.0,216.0,-269.0,0.0,0.0,0.0
19:45:23.727000,-210.0,3.0,259.0,-963.0,297.0,-252.0,0.0,0.0,0.0
19:45:23.732000,-220.0,-3.0,221.0,-963.0,297.0,-252.0,0.0,0.0,0.0
19:45:23.736000,-221.0,-11.0,227.0,-950.0,308.0,-250.0,0.0,0.0,0.0
19:45:23.741000,-216.0,-22.0,226.0,-950.0,308.0,-250.0,0.0,0.0,0.0
19:45:23.746000,-204.0,-24.0,191.0,-975.0,312.0,-255.0,0.0,0.0,0.0
19:45:23.751000,-203.0,-46.0,130.0,-975.0,312.0,-255.0,0.0,0.0,0.0
19:45:23.755000,-221.0,-65.0,86.0,-1089.0,379.0,-252.0,0.0,0.0,0.0
19:45:23.760000,-195.0,-58.0,113.0,-1089.0,379.0,-252.0,0.0,0.0,0.0
19:45:23.765000,-182.0,-65.0,232.0,-1150.0,385.0,-257.0,0.0,0.0,0.0
19:45:23.769000,-154.0,-78.0,197.0,-1150.0,385.0,-257.0,0.0,0.0,0.0
19:45:23.774000,-124.0,-91.0,61.0,-1231.0,319.0,-266.0,0.0,0.0,0.0
19:45:23.779000,-47.0,-62.0,31.0,-1231.0,319.0,-266.0,0.0,0.0,0.0
19:45:23.783000,12.0,-51.0,260.0,-1231.0,319.0,-266.0,0.0,0.0,0.0
19:45:23.788000,56.0,-45.0,301.0,-1131.0,354.0,-249.0,0.0,0.0,0.0
19:45:23.793000,75.0,-32.0,194.0,-1131.0,354.0,-249.0,0.0,0.0,0.0
19:45:23.798000,67.0,-12.0,138.0,-1034.0,530.0,-222.0,0.0,0.0,0.0
19:45:23.802000,93.0,-4.0,148.0,-1034.0,530.0,-222.0,0.0,0.0,0.0
19:45:23.807000,112.0,-3.0,178.0,-1221.0,562.0,-227.0,0.0,0.0,0.0
19:45:23.812000,109.0,4.0,227.0,-1221.0,562.0,-227.0,0.0,0.0,0.0
19:45:23.816000,111.0,7.0,240.0,-1320.0,499.0,-238.0,0.0,0.0,0.0
19:45:23.821000,121.0,11.0,214.0,-1320.0,499.0,-238.0,0.0,0.0,0.0
19:45:23.826000,121.0,11.0,214.0,-1309.0,528.0,-236.0,0.0,0.0,0.0
19:45:23.830000,124.0,24.0,219.0,-1309.0,528.0,-236.0,0.0,0.0,0.0
19:45:23.835000,114.0,41.0,245.0,-1236.0,514.0,-229.0,0.0,0.0,0.0
19:45:23.840000,121.0,42.0,257.0,-1236.0,514.0,-229.0,0.0,0.0,0.0
19:45:23.845000,122.0,44.0,251.0,-1221.0,462.0,-220.0,0.0,0.0,0.0
19:45:23.849000,113.0,48.0,238.0,-1221.0,462.0,-220.0,0.0,0.0,0.0
19:45:23.854000,117.0,45.0,207.0,-1254.0,405.0,-223.0,0.0,0.0,0.0
19:45:23.859000,120.0,43.0,215.0,-1254.0,405.0,-223.0,0.0,0.0,0.0
19:45:23.863000,117.0,41.0,199.0,-1252.0,354.0,-229.0,0.0,0.0,0.0
19:45:23.868000,112.0,41.0,154.0,-1252.0,354.0,-229.0,0.0,0.0,0.0
19:45:23.873000,93.0,48.0,137.0,-1242.0,337.0,-230.0,0.0,0.0,0.0
19:45:23.877000,71.0,49.0,154.0,-1242.0,337.0,-230.0,0.0,0.0,0.0
19:45:23.882000,72.0,42.0,157.0,-1244.0,290.0,-226.0,0.0,0.0,0.0
19:45:23.887000,66.0,43.0,151.0,-1244.0,290.0,-226.0,0.0,0.0,0.0
19:45:23.892000,56.0,49.0,91.0,-1244.0,290.0,-226.0,0.0,0.0,0.0
19:45:23.896000,66.0,44.0,12.0,-1288.0,226.0,-221.0,0.0,0.0,0.0
19:45:23.901000,74.0,38.0,4.0,-1261.0,151.0,-214.0,0.0,0.0,0.0
19:45:23.906000,74.0,38.0,28.0,-1261.0,151.0,-214.0,0.0,0.0,0.0
19:45:23.910000,72.0,38.0,53.0,-1261.0,151.0,-214.0,0.0,0.0,0.0
19:45:23.915000,71.0,27.0,49.0,-1164.0,58.0,-201.0,0.0,0.0,0.0
19:45:23.920000,81.0,7.0,29.0,-1164.0,58.0,-201.0,0.0,0.0,0.0
19:45:23.924000,67.0,1.0,38.0,-1117.0,-2.0,-180.0,0.0,0.0,0.0
19:45:23.929000,58.0,-12.0,108.0,-1117.0,-2.0,-180.0,0.0,0.0,0.0
19:45:23.934000,58.0,-12.0,108.0,-1029.0,-71.0,-167.0,0.0,0.0,0.0
19:45:23.939000,58.0,-31.0,187.0,-1029.0,-71.0,-167.0,0.0,0.0,0.0
19:45:23.943000,61.0,-49.0,191.0,-935.0,-132.0,-169.0,0.0,0.0,0.0
19:45:23.948000,57.0,-58.0,182.0,-935.0,-132.0,-169.0,0.0,0.0,0.0
19:45:23.953000,61.0,-68.0,196.0,-915.0,-178.0,-169.0,0.0,0.0,0.0
19:45:23.957000,67.0,-76.0,211.0,-915.0,-178.0,-169.0,0.0,0.0,0.0
19:45:23.962000,74.0,-83.0,223.0,-926.0,-232.0,-169.0,0.0,0.0,0.0
19:45:23.967000,81.0,-88.0,232.0,-926.0,-232.0,-169.0,0.0,0.0,0.0
19:45:23.971000,106.0,-100.0,228.0,-938.0,-275.0,-177.0,0.0,0.0,0.0
19:45:23.976000,118.0,-102.0,192.0,-938.0,-275.0,-177.0,0.0,0.0,0.0
19:45:23.981000,136.0,-108.0,140.0,-927.0,-292.0,-176.0,0.0,0.0,0.0
19:45:23.986000,155.0,-119.0,90.0,-927.0,-292.0,-176.0,0.0,0.0,0.0
19:45:23.990000,175.0,-124.0,65.0,-896.0,-258.0,-172.0,0.0,0.0,0.0
19:45:23.995000,182.0,-130.0,14.0,-896.0,-258.0,-172.0,0.0,0.0,0.0
19:45:24.000000,196.0,-138.0,-65.0,-896.0,-258.0,-172.0,0.0,0.0,0.0
19:45:24.004000,198.0,-143.0,-151.0,-933.0,-187.0,-184.0,0.0,0.0,0.0
19:45:24.009000,202.0,-149.0,-206.0,-933.0,-187.0,-184.0,0.0,0.0,0.0
19:45:24.014000,201.0,-143.0,-255.0,-1016.0,-116.0,-197.0,0.0,0.0,0.0
19:45:24.018000,195.0,-136.0,-287.0,-1016.0,-116.0,-197.0,0.0,0.0,0.0
19:45:24.023000,182.0,-130.0,-329.0,-1085.0,-84.0,-195.0,0.0,0.0,0.0
19:45:24.028000,173.0,-119.0,-394.0,-1085.0,-84.0,-195.0,0.0,0.0,0.0
19:45:24.033000,168.0,-114.0,-429.0,-1161.0,-42.0,-188.0,0.0,0.0,0.0
19:45:24.037000,168.0,-112.0,-422.0,-1161.0,-42.0,-188.0,0.0,0.0,0.0
19:45:24.042000,168.0,-112.0,-422.0,-1151.0,4.0,-179.0,0.0,0.0,0.0
19:45:24.047000,145.0,-100.0,-380.0,-1151.0,4.0,-179.0,0.0,0.0,0.0
19:45:24.051000,132.0,-89.0,-396.0,-1071.0,91.0,-151.0,0.0,0.0,0.0
19:45:24.056000,116.0,-86.0,-427.0,-1071.0,91.0,-151.0,0.0,0.0,0.0
19:45:24.061000,76.0,-73.0,-390.0,-1082.0,91.0,-137.0,0.0,0.0,0.0
19:45:24.065000,58.0,-65.0,-271.0,-1082.0,91.0,-137.0,0.0,0.0,0.0
19:45:24.070000,70.0,-71.0,-175.0,-1134.0,45.0,-141.0,0.0,0.0,0.0
19:45:24.075000,70.0,-59.0,-184.0,-1134.0,45.0,-141.0,0.0,0.0,0.0
19:45:24.079000,13.0,-31.0,-231.0,-1103.0,59.0,-127.0,0.0,0.0,0.0
19:45:24.084000,-16.0,-30.0,-128.0,-1103.0,59.0,-127.0,0.0,0.0,0.0
19:45:24.089000,-46.0,-23.0,-11.0,-1054.0,-7.0,-135.0,0.0,0.0,0.0
19:45:24.094000,-7.0,-16.0,-23.0,-1054.0,-7.0,-135.0,0.0,0.0,0.0
19:45:24.098000,6.0,-6.0,-67.0,-1051.0,-28.0,-161.0,0.0,0.0,0.0
19:45:24.103000,-19.0,3.0,-76.0,-1051.0,-28.0,-161.0,0.0,0.0,0.0
19:45:24.108000,-41.0,-7.0,-77.0,-1051.0,-28.0,-161.0,0.0,0.0,0.0
19:45:24.112000,-41.0,-13.0,-32.0,-1036.0,1.0,-160.0,0.0,0.0,0.0
19:45:24.117000,-44.0,-18.0,37.0,-1036.0,1.0,-160.0,0.0,0.0,0.0
19:45:24.121000,-52.0,-23.0,51.0,-970.0,37.0,-156.0,0.0,0.0,0.0
19:45:24.127000,-106.0,-16.0,74.0,-970.0,37.0,-156.0,0.0,0.0,0.0
19:45:24.131000,-99.0,-19.0,87.0,-963.0,13.0,-149.0,0.0,0.0,0.0
19:45:24.135000,-72.0,-19.0,79.0,-963.0,13.0,-149.0,0.0,0.0,0.0
19:45:24.141000,-107.0,-37.0,107.0,-1036.0,-22.0,-151.0,0.0,0.0,0.0
19:45:24.145000,-101.0,-35.0,120.0,-1036.0,-22.0,-151.0,0.0,0.0,0.0
19:45:24.150000,-101.0,-35.0,120.0,-1060.0,-62.0,-173.0,0.0,0.0,0.0
19:45:24.155000,-67.0,-43.0,49.0,-1060.0,-62.0,-173.0,0.0,0.0,0.0
19:45:24.159000,-62.0,-55.0,25.0,-1015.0,-100.0,-179.0,0.0,0.0,0.0
19:45:24.164000,-65.0,-60.0,50.0,-1015.0,-100.0,-179.0,0.0,0.0,0.0
19:45:24.169000,-64.0,-73.0,45.0,-941.0,-38.0,-164.0,0.0,0.0,0.0
19:45:24.174000,-52.0,-81.0,53.0,-941.0,-38.0,-164.0,0.0,0.0,0.0
19:45:24.178000,-49.0,-74.0,73.0,-939.0,-29.0,-149.0,0.0,0.0,0.0
19:45:24.183000,-39.0,-70.0,97.0,-939.0,-29.0,-149.0,0.0,0.0,0.0
19:45:24.188000,-46.0,-70.0,116.0,-1052.0,-84.0,-139.0,0.0,0.0,0.0
19:45:24.192000,-53.0,-72.0,119.0,-1052.0,-84.0,-139.0,0.0,0.0,0.0
19:45:24.197000,-66.0,-63.0,101.0,-1126.0,-69.0,-139.0,0.0,0.0,0.0
19:45:24.202000,-90.0,-44.0,65.0,-1126.0,-69.0,-139.0,0.0,0.0,0.0
19:45:24.206000,-98.0,-35.0,18.0,-1098.0,-31.0,-148.0,0.0,0.0,0.0
19:45:24.211000,-101.0,-23.0,2.0,-1098.0,-31.0,-148.0,0.0,0.0,0.0
19:45:24.216000,-112.0,-9.0,44.0,-1098.0,-31.0,-148.0,0.0,0.0,0.0
19:45:24.221000,-125.0,6.0,89.0,-1083.0,-77.0,-151.0,0.0,0.0,0.0
19:45:24.225000,-140.0,17.0,100.0,-1083.0,-77.0,-151.0,0.0,0.0,0.0
19:45:24.230000,-144.0,21.0,99.0,-1098.0,-85.0,-159.0,0.0,0.0,0.0
19:45:24.235000,-163.0,30.0,103.0,-1098.0,-85.0,-159.0,0.0,0.0,0.0
19:45:24.239000,-186.0,39.0,114.0,-1064.0,-48.0,-168.0,0.0,0.0,0.0
19:45:24.244000,-193.0,38.0,101.0,-1064.0,-48.0,-168.0,0.0,0.0,0.0
19:45:24.249000,-189.0,35.0,56.0,-1020.0,-51.0,-173.0,0.0,0.0,0.0
19:45:24.253000,-212.0,41.0,58.0,-1020.0,-51.0,-173.0,0.0,0.0,0.0
19:45:24.258000,-226.0,39.0,107.0,-1019.0,-57.0,-181.0,0.0,0.0,0.0
19:45:24.263000,-226.0,39.0,107.0,-1019.0,-57.0,-181.0,0.0,0.0,0.0
19:45:24.268000,-243.0,34.0,124.0,-1063.0,-56.0,-191.0,0.0,0.0,0.0
19:45:24.272000,-251.0,35.0,75.0,-1063.0,-56.0,-191.0,0.0,0.0,0.0
19:45:24.277000,-235.0,27.0,52.0,-1072.0,-70.0,-208.0,0.0,0.0,0.0
19:45:24.282000,-228.0,21.0,77.0,-1072.0,-70.0,-208.0,0.0,0.0,0.0
19:45:24.286000,-235.0,16.0,93.0,-1019.0,-85.0,-216.0,0.0,0.0,0.0
19:45:24.291000,-210.0,2.0,96.0,-1019.0,-85.0,-216.0,0.0,0.0,0.0
19:45:24.296000,-209.0,-7.0,69.0,-1007.0,-76.0,-207.0,0.0,0.0,0.0
19:45:24.300000,-256.0,-4.0,72.0,-1007.0,-76.0,-207.0,0.0,0.0,0.0
19:45:24.305000,-262.0,-7.0,143.0,-997.0,-111.0,-207.0,0.0,0.0,0.0
19:45:24.310000,-225.0,-31.0,139.0,-997.0,-111.0,-207.0,0.0,0.0,0.0
19:45:24.315000,-233.0,-35.0,84.0,-996.0,-87.0,-208.0,0.0,0.0,0.0
19:45:24.319000,-251.0,-49.0,53.0,-996.0,-87.0,-208.0,0.0,0.0,0.0
19:45:24.324000,-257.0,-64.0,56.0,-996.0,-87.0,-208.0,0.0,0.0,0.0
19:45:24.329000,-285.0,-77.0,60.0,-985.0,-47.0,-198.0,0.0,0.0,0.0
19:45:24.333000,-318.0,-88.0,110.0,-985.0,-47.0,-198.0,0.0,0.0,0.0
19:45:24.338000,-310.0,-98.0,158.0,-961.0,-97.0,-196.0,0.0,0.0,0.0
19:45:24.343000,-324.0,-110.0,105.0,-961.0,-97.0,-196.0,0.0,0.0,0.0
19:45:24.347000,-345.0,-128.0,22.0,-985.0,-59.0,-191.0,0.0,0.0,0.0
19:45:24.352000,-366.0,-139.0,-18.0,-985.0,-59.0,-191.0,0.0,0.0,0.0
19:45:24.357000,-378.0,-156.0,-24.0,-988.0,-43.0,-184.0,0.0,0.0,0.0
19:45:24.361000,-388.0,-165.0,-29.0,-988.0,-43.0,-184.0,0.0,0.0,0.0
19:45:24.366000,-400.0,-177.0,-28.0,-965.0,-90.0,-180.0,0.0,0.0,0.0
19:45:24.370000,-400.0,-177.0,-28.0,-965.0,-90.0,-180.0,0.0,0.0,0.0
19:45:24.376000,-410.0,-186.0,-16.0,-941.0,-116.0,-178.0,0.0,0.0,0.0
19:45:24.380000,-406.0,-200.0,-32.0,-941.0,-116.0,-178.0,0.0,0.0,0.0
19:45:24.385000,-404.0,-216.0,-53.0,-936.0,-108.0,-175.0,0.0,0.0,0.0
19:45:24.390000,-412.0,-233.0,-69.0,-936.0,-108.0,-175.0,0.0,0.0,0.0
19:45:24.394000,-436.0,-241.0,-97.0,-937.0,-75.0,-164.0,0.0,0.0,0.0
19:45:24.399000,-431.0,-258.0,-129.0,-937.0,-75.0,-164.0,0.0,0.0,0.0
19:45:24.404000,-431.0,-270.0,-168.0,-929.0,-80.0,-146.0,0.0,0.0,0.0
19:45:24.408000,-427.0,-280.0,-187.0,-929.0,-80.0,-146.0,0.0,0.0,0.0
19:45:24.413000,-410.0,-293.0,-189.0,-923.0,-119.0,-134.0,0.0,0.0,0.0
19:45:24.418000,-389.0,-301.0,-184.0,-923.0,-119.0,-134.0,0.0,0.0,0.0
19:45:24.423000,-376.0,-303.0,-171.0,-945.0,-132.0,-127.0,0.0,0.0,0.0
19:45:24.427000,-380.0,-292.0,-164.0,-945.0,-132.0,-127.0,0.0,0.0,0.0
19:45:24.432000,-373.0,-282.0,-172.0,-984.0,-99.0,-121.0,0.0,0.0,0.0
19:45:24.437000,-366.0,-271.0,-164.0,-984.0,-99.0,-121.0,0.0,0.0,0.0
19:45:24.441000,-355.0,-258.0,-165.0,-984.0,-99.0,-121.0,0.0,0.0,0.0
19:45:24.446000,-342.0,-247.0,-171.0,-1001.0,-65.0,-116.0,0.0,0.0,0.0
19:45:24.451000,-338.0,-238.0,-172.0,-1001.0,-65.0,-116.0,0.0,0.0,0.0
19:45:24.455000,-338.0,-229.0,-161.0,-1027.0,-42.0,-109.0,0.0,0.0,0.0
19:45:24.460000,-339.0,-221.0,-146.0,-1027.0,-42.0,-109.0,0.0,0.0,0.0
19:45:24.465000,-343.0,-212.0,-135.0,-1042.0,-27.0,-106.0,0.0,0.0,0.0
19:45:24.470000,-336.0,-210.0,-143.0,-1042.0,-27.0,-106.0,0.0,0.0,0.0
19:45:24.474000,-339.0,-207.0,-144.0,-1013.0,-4.0,-103.0,0.0,0.0,0.0
19:45:24.479000,-339.0,-207.0,-144.0,-1013.0,-4.0,-103.0,0.0,0.0,0.0
19:45:24.484000,-352.0,-200.0,-137.0,-991.0,-1.0,-93.0,0.0,0.0,0.0
19:45:24.488000,-338.0,-202.0,-135.0,-991.0,-1.0,-93.0,0.0,0.0,0.0
19:45:24.493000,-342.0,-201.0,-133.0,-992.0,-3.0,-82.0,0.0,0.0,0.0
19:45:24.498000,-353.0,-202.0,-103.0,-992.0,-3.0,-82.0,0.0,0.0,0.0
19:45:24.502000,-351.0,-205.0,-69.0,-983.0,-1.0,-73.0,0.0,0.0,0.0
19:45:24.507000,-356.0,-208.0,-65.0,-983.0,-1.0,-73.0,0.0,0.0,0.0
19:45:24.512000,-362.0,-213.0,-65.0,-973.0,0.0,-63.0,0.0,0.0,0.0
19:45:24.517000,-368.0,-214.0,-51.0,-973.0,0.0,-63.0,0.0,0.0,0.0
19:45:24.521000,-381.0,-212.0,-56.0,-974.0,0.0,-56.0,0.0,0.0,0.0
19:45:24.526000,-382.0,-209.0,-71.0,-974.0,0.0,-56.0,0.0,0.0,0.0
19:45:24.531000,-389.0,-205.0,-72.0,-976.0,-6.0,-51.0,0.0,0.0,0.0
19:45:24.535000,-401.0,-197.0,-58.0,-976.0,-6.0,-51.0,0.0,0.0,0.0
19:45:24.540000,-399.0,-191.0,-53.0,-976.0,-10.0,-51.0,0.0,0.0,0.0
19:45:24.545000,-406.0,-186.0,-74.0,-992.0,-10.0,-48.0,0.0,0.0,0.0
19:45:24.549000,-422.0,-182.0,-93.0,-1018.0,-18.0,-49.0,0.0,0.0,0.0
19:45:24.554000,-431.0,-177.0,-102.0,-1018.0,-18.0,-49.0,0.0,0.0,0.0
19:45:24.559000,-427.0,-177.0,-120.0,-1018.0,-18.0,-49.0,0.0,0.0,0.0
19:45:24.564000,-420.0,-177.0,-141.0,-1015.0,-44.0,-36.0,0.0,0.0,0.0
19:45:24.568000,-415.0,-177.0,-169.0,-1015.0,-44.0,-36.0,0.0,0.0,0.0
19:45:24.573000,-403.0,-184.0,-196.0,-1003.0,-64.0,-34.0,0.0,0.0,0.0
19:45:24.578000,-394.0,-193.0,-215.0,-1003.0,-64.0,-34.0,0.0,0.0,0.0
19:45:24.582000,-384.0,-205.0,-234.0,-958.0,-71.0,-28.0,0.0,0.0,0.0
19:45:24.587000,-384.0,-205.0,-234.0,-958.0,-71.0,-28.0,0.0,0.0,0.0
19:45:24.592000,-392.0,-215.0,-246.0,-930.0,-45.0,-21.0,0.0,0.0,0.0
19:45:24.596000,-401.0,-224.0,-263.0,-930.0,-45.0,-21.0,0.0,0.0,0.0
19:45:24.601000,-406.0,-228.0,-281.0,-939.0,-17.0,-39.0,0.0,0.0,0.0
19:45:24.606000,-412.0,-235.0,-287.0,-939.0,-17.0,-39.0,0.0,0.0,0.0
19:45:24.611000,-419.0,-234.0,-273.0,-942.0,-24.0,-49.0,0.0,0.0,0.0
19:45:24.615000,-431.0,-243.0,-257.0,-942.0,-24.0,-49.0,0.0,0.0,0.0
19:45:24.620000,-451.0,-251.0,-247.0,-1000.0,8.0,-42.0,0.0,0.0,0.0
19:45:24.625000,-479.0,-249.0,-248.0,-1000.0,8.0,-42.0,0.0,0.0,0.0
19:45:24.629000,-506.0,-242.0,-254.0,-1056.0,44.0,-52.0,0.0,0.0,0.0
19:45:24.634000,-522.0,-235.0,-244.0,-1056.0,44.0,-52.0,0.0,0.0,0.0
19:45:24.639000,-530.0,-231.0,-228.0,-1070.0,29.0,-72.0,0.0,0.0,0.0
19:45:24.643000,-538.0,-234.0,-224.0,-1070.0,29.0,-72.0,0.0,0.0,0.0
19:45:24.648000,-545.0,-241.0,-237.0,-1071.0,1.0,-74.0,0.0,0.0,0.0
19:45:24.653000,-557.0,-253.0,-255.0,-1071.0,1.0,-74.0,0.0,0.0,0.0
19:45:24.658000,-563.0,-275.0,-256.0,-1071.0,1.0,-74.0,0.0,0.0,0.0
19:45:24.662000,-574.0,-300.0,-256.0,-1028.0,-18.0,-70.0,0.0,0.0,0.0
19:45:24.667000,-585.0,-333.0,-269.0,-1028.0,-18.0,-70.0,0.0,0.0,0.0
19:45:24.672000,-605.0,-377.0,-297.0,-961.0,-10.0,-61.0,0.0,0.0,0.0
19:45:24.676000,-634.0,-443.0,-334.0,-961.0,-10.0,-61.0,0.0,0.0,0.0
19:45:24.681000,-668.0,-508.0,-383.0,-880.0,51.0,-22.0,0.0,0.0,0.0
19:45:24.686000,-703.0,-574.0,-413.0,-880.0,51.0,-22.0,0.0,0.0,0.0
19:45:24.690000,-757.0,-636.0,-411.0,-805.0,115.0,59.0,0.0,0.0,0.0
19:45:24.695000,-825.0,-679.0,-410.0,-805.0,115.0,59.0,0.0,0.0,0.0
19:45:24.700000,-825.0,-679.0,-410.0,-840.0,191.0,110.0,0.0,0.0,0.0
19:45:24.705000,-911.0,-699.0,-433.0,-840.0,191.0,110.0,0.0,0.0,0.0
19:45:24.709000,-982.0,-721.0,-462.0,-919.0,238.0,113.0,0.0,0.0,0.0
19:45:24.714000,-1045.0,-749.0,-481.0,-919.0,238.0,113.0,0.0,0.0,0.0
19:45:24.719000,-1125.0,-770.0,-513.0,-950.0,257.0,116.0,0.0,0.0,0.0
19:45:24.723000,-1208.0,-795.0,-557.0,-950.0,257.0,116.0,0.0,0.0,0.0
19:45:24.728000,-1299.0,-827.0,-594.0,-959.0,350.0,154.0,0.0,0.0,0.0
19:45:24.733000,-1402.0,-865.0,-622.0,-959.0,350.0,154.0,0.0,0.0,0.0
19:45:24.737000,-1491.0,-910.0,-633.0,-945.0,381.0,221.0,0.0,0.0,0.0
19:45:24.742000,-1563.0,-963.0,-631.0,-945.0,381.0,221.0,0.0,0.0,0.0
19:45:24.747000,-1636.0,-1010.0,-631.0,-942.0,327.0,294.0,0.0,0.0,0.0
19:45:24.752000,-1717.0,-1050.0,-646.0,-942.0,327.0,294.0,0.0,0.0,0.0
