hh:mm:ss.ms,gyroX[mdps],gyroY[mdps],gyroZ[mdps],accX[mg],accY[mg],accZ[mg],magX[mG],magY[mG],magZ[mG]
19:41:58.359000,-352.0,-672.0,-1383.0,-729.0,63.0,-884.0,418.0,-622.0,337.0
19:41:58.363000,-280.0,-690.0,-1310.0,-696.0,-24.0,-881.0,418.0,-622.0,337.0
19:41:58.367000,-231.0,-730.0,-1230.0,-745.0,11.0,-887.0,418.0,-622.0,337.0
19:41:58.373000,-146.0,-789.0,-1338.0,-674.0,-68.0,-930.0,415.0,-622.0,346.0
19:41:58.377000,-54.0,-843.0,-1290.0,-597.0,-255.0,-973.0,415.0,-622.0,346.0
19:41:58.382000,-42.0,-835.0,-1157.0,-657.0,-258.0,-1011.0,433.0,-624.0,337.0
19:41:58.387000,14.0,-847.0,-1074.0,-750.0,-157.0,-1024.0,433.0,-624.0,337.0
19:41:58.391000,63.0,-863.0,-1160.0,-755.0,-195.0,-1025.0,433.0,-624.0,337.0
19:41:58.396000,101.0,-870.0,-1207.0,-684.0,-379.0,-1031.0,442.0,-613.0,333.0
19:41:58.400000,128.0,-899.0,-1026.0,-642.0,-454.0,-999.0,442.0,-613.0,333.0
19:41:58.406000,51.0,-952.0,-811.0,-575.0,-391.0,-961.0,450.0,-616.0,345.0
19:41:58.410000,-8.0,-1024.0,-774.0,-424.0,-380.0,-1000.0,450.0,-616.0,345.0
19:41:58.415000,5.0,-1029.0,-819.0,-424.0,-380.0,-1000.0,463.0,-607.0,336.0
19:41:58.420000,21.0,-1085.0,-836.0,-139.0,-563.0,-986.0,463.0,-607.0,336.0
19:41:58.424000,5.0,-1157.0,-834.0,-139.0,-563.0,-986.0,463.0,-607.0,336.0
19:41:58.429000,-27.0,-1234.0,-779.0,-64.0,-829.0,-924.0,462.0,-604.0,330.0
19:41:58.434000,-39.0,-1251.0,-648.0,9.0,-1011.0,-893.0,462.0,-604.0,330.0
19:41:58.439000,-42.0,-1274.0,-557.0,52.0,-991.0,-900.0,474.0,-603.0,316.0
19:41:58.443000,-112.0,-1270.0,-492.0,51.0,-919.0,-855.0,474.0,-603.0,316.0
19:41:58.447000,-186.0,-1236.0,-445.0,-7.0,-1062.0,-849.0,474.0,-603.0,316.0
19:41:58.453000,-233.0,-1190.0,-473.0,-127.0,-1187.0,-872.0,471.0,-600.0,316.0
19:41:58.457000,-210.0,-1138.0,-589.0,-220.0,-1024.0,-910.0,471.0,-600.0,316.0
19:41:58.462000,-151.0,-1134.0,-828.0,-373.0,-716.0,-933.0,480.0,-606.0,309.0
19:41:58.467000,-137.0,-1110.0,-811.0,-396.0,-532.0,-931.0,480.0,-606.0,309.0
19:41:58.471000,-137.0,-1110.0,-811.0,-435.0,-454.0,-879.0,480.0,-606.0,309.0
19:41:58.476000,-288.0,-1106.0,-780.0,-682.0,-446.0,-852.0,487.0,-601.0,300.0
19:41:58.481000,-355.0,-1128.0,-1001.0,-668.0,-525.0,-971.0,487.0,-601.0,300.0
19:41:58.486000,-268.0,-1141.0,-1242.0,-542.0,-484.0,-1003.0,487.0,-589.0,295.0
19:41:58.490000,-310.0,-1137.0,-1231.0,-622.0,-505.0,-982.0,487.0,-589.0,295.0
19:41:58.494000,-216.0,-1176.0,-1229.0,-763.0,-350.0,-989.0,487.0,-589.0,295.0
19:41:58.500000,-214.0,-1194.0,-1408.0,-748.0,-161.0,-959.0,499.0,-594.0,285.0
19:41:58.504000,-271.0,-1193.0,-1415.0,-628.0,-333.0,-930.0,499.0,-594.0,285.0
19:41:58.509000,-329.0,-1226.0,-1147.0,-612.0,-568.0,-941.0,510.0,-576.0,291.0
19:41:58.514000,-431.0,-1198.0,-895.0,-720.0,-622.0,-988.0,510.0,-576.0,291.0
19:41:58.518000,-441.0,-1185.0,-769.0,-779.0,-600.0,-999.0,510.0,-576.0,291.0
19:41:58.523000,-403.0,-1175.0,-763.0,-700.0,-670.0,-983.0,511.0,-574.0,285.0
19:41:58.528000,-329.0,-1178.0,-651.0,-690.0,-769.0,-979.0,511.0,-574.0,285.0
19:41:58.533000,-263.0,-1153.0,-620.0,-690.0,-769.0,-979.0,519.0,-580.0,265.0
19:41:58.537000,-259.0,-1127.0,-641.0,-775.0,-765.0,-971.0,519.0,-580.0,265.0
19:41:58.541000,-219.0,-1100.0,-886.0,-768.0,-588.0,-924.0,519.0,-580.0,265.0
19:41:58.547000,-181.0,-1083.0,-1090.0,-645.0,-543.0,-899.0,522.0,-573.0,262.0
19:41:58.551000,-142.0,-1087.0,-1077.0,-537.0,-524.0,-893.0,522.0,-573.0,262.0
19:41:58.556000,-88.0,-1089.0,-1024.0,-556.0,-522.0,-865.0,525.0,-564.0,264.0
19:41:58.561000,-74.0,-1110.0,-1061.0,-646.0,-581.0,-827.0,525.0,-564.0,264.0
19:41:58.565000,-74.0,-1110.0,-1061.0,-671.0,-502.0,-814.0,525.0,-564.0,264.0
19:41:58.570000,-37.0,-1099.0,-1099.0,-623.0,-446.0,-798.0,525.0,-559.0,258.0
19:41:58.575000,-12.0,-1093.0,-1007.0,-579.0,-414.0,-754.0,525.0,-559.0,258.0
19:41:58.580000,-12.0,-1093.0,-1007.0,-577.0,-402.0,-720.0,528.0,-561.0,244.0
19:41:58.584000,9.0,-1103.0,-935.0,-618.0,-395.0,-698.0,528.0,-561.0,244.0
19:41:58.588000,39.0,-1105.0,-929.0,-697.0,-360.0,-668.0,528.0,-561.0,244.0
19:41:58.594000,24.0,-1103.0,-940.0,-747.0,-315.0,-650.0,546.0,-546.0,244.0
19:41:58.598000,14.0,-1085.0,-890.0,-775.0,-296.0,-644.0,546.0,-546.0,244.0
19:41:58.603000,-4.0,-1072.0,-751.0,-841.0,-309.0,-636.0,538.0,-549.0,237.0
19:41:58.607000,4.0,-1048.0,-721.0,-912.0,-233.0,-627.0,538.0,-549.0,237.0
19:41:58.612000,-9.0,-1024.0,-782.0,-926.0,-208.0,-617.0,538.0,-549.0,237.0
19:41:58.617000,-9.0,-989.0,-706.0,-914.0,-260.0,-604.0,547.0,-538.0,222.0
19:41:58.622000,-20.0,-962.0,-628.0,-929.0,-235.0,-594.0,547.0,-538.0,222.0
19:41:58.627000,-36.0,-910.0,-664.0,-929.0,-213.0,-583.0,553.0,-534.0,231.0
19:41:58.631000,-31.0,-883.0,-614.0,-867.0,-245.0,-567.0,553.0,-534.0,231.0
19:41:58.635000,-15.0,-858.0,-469.0,-923.0,-251.0,-556.0,553.0,-534.0,231.0
19:41:58.641000,-21.0,-828.0,-466.0,-923.0,-251.0,-556.0,564.0,-543.0,213.0
19:41:58.645000,-1.0,-789.0,-600.0,-999.0,-235.0,-558.0,564.0,-543.0,213.0
19:41:58.649000,50.0,-781.0,-632.0,-927.0,-372.0,-568.0,553.0,-531.0,205.0
19:41:58.655000,71.0,-747.0,-501.0,-927.0,-372.0,-568.0,553.0,-531.0,205.0
19:41:58.659000,106.0,-756.0,-335.0,-906.0,-441.0,-559.0,553.0,-531.0,205.0
19:41:58.664000,73.0,-746.0,-343.0,-928.0,-373.0,-536.0,538.0,-531.0,207.0
19:41:58.669000,79.0,-749.0,-407.0,-934.0,-206.0,-536.0,538.0,-531.0,207.0
19:41:58.674000,58.0,-725.0,-296.0,-854.0,-144.0,-533.0,561.0,-529.0,205.0
19:41:58.678000,42.0,-704.0,-274.0,-824.0,-136.0,-526.0,561.0,-529.0,205.0
19:41:58.682000,42.0,-704.0,-274.0,-874.0,-155.0,-516.0,561.0,-529.0,205.0
19:41:58.688000,51.0,-708.0,-259.0,-851.0,-215.0,-501.0,556.0,-535.0,198.0
19:41:58.692000,23.0,-696.0,-191.0,-790.0,-192.0,-489.0,556.0,-535.0,198.0
19:41:58.696000,20.0,-688.0,-139.0,-823.0,-151.0,-474.0,562.0,-538.0,199.0
19:41:58.702000,-10.0,-669.0,-157.0,-906.0,-153.0,-454.0,562.0,-538.0,199.0
19:41:58.706000,-28.0,-674.0,-215.0,-916.0,-184.0,-441.0,562.0,-538.0,199.0
19:41:58.711000,-46.0,-675.0,-235.0,-894.0,-241.0,-440.0,565.0,-528.0,183.0
19:41:58.716000,-70.0,-661.0,-196.0,-914.0,-235.0,-428.0,565.0,-528.0,183.0
19:41:58.721000,-108.0,-649.0,-191.0,-908.0,-215.0,-407.0,559.0,-526.0,184.0
19:41:58.725000,-129.0,-647.0,-161.0,-867.0,-252.0,-413.0,559.0,-526.0,184.0
19:41:58.729000,-112.0,-641.0,-121.0,-890.0,-292.0,-408.0,559.0,-526.0,184.0
19:41:58.735000,-111.0,-633.0,-126.0,-950.0,-312.0,-394.0,564.0,-523.0,183.0
19:41:58.739000,-112.0,-620.0,-148.0,-955.0,-315.0,-388.0,564.0,-523.0,183.0
19:41:58.744000,-102.0,-625.0,-170.0,-901.0,-264.0,-386.0,550.0,-525.0,186.0
19:41:58.749000,-63.0,-610.0,-254.0,-901.0,-231.0,-386.0,550.0,-525.0,186.0
19:41:58.753000,-20.0,-581.0,-284.0,-851.0,-231.0,-395.0,565.0,-520.0,178.0
19:41:58.758000,21.0,-574.0,-228.0,-840.0,-262.0,-390.0,565.0,-520.0,178.0
19:41:58.762000,3.0,-570.0,-140.0,-868.0,-295.0,-365.0,565.0,-520.0,178.0
19:41:58.768000,-30.0,-576.0,-58.0,-907.0,-313.0,-345.0,564.0,-520.0,171.0
19:41:58.772000,-17.0,-577.0,-125.0,-951.0,-252.0,-357.0,564.0,-520.0,171.0
19:41:58.777000,-4.0,-564.0,-227.0,-955.0,-180.0,-366.0,555.0,-523.0,159.0
19:41:58.782000,2.0,-555.0,-130.0,-894.0,-221.0,-357.0,555.0,-523.0,159.0
19:41:58.786000,2.0,-555.0,-130.0,-874.0,-297.0,-350.0,555.0,-523.0,159.0
19:41:58.791000,-51.0,-532.0,-67.0,-964.0,-240.0,-337.0,562.0,-532.0,163.0
19:41:58.796000,-51.0,-532.0,-67.0,-1012.0,-120.0,-321.0,562.0,-532.0,163.0
19:41:58.800000,-79.0,-523.0,-168.0,-930.0,-110.0,-318.0,550.0,-522.0,151.0
19:41:58.805000,-95.0,-511.0,-133.0,-862.0,-188.0,-316.0,550.0,-522.0,151.0
19:41:58.809000,-101.0,-518.0,-29.0,-914.0,-218.0,-298.0,550.0,-522.0,151.0
19:41:58.815000,-146.0,-501.0,-25.0,-1021.0,-130.0,-298.0,571.0,-517.0,157.0
19:41:58.819000,-156.0,-487.0,-109.0,-1007.0,-111.0,-298.0,571.0,-517.0,157.0
19:41:58.823000,-175.0,-487.0,-86.0,-932.0,-160.0,-279.0,559.0,-525.0,171.0
19:41:58.829000,-204.0,-475.0,-84.0,-924.0,-183.0,-275.0,559.0,-525.0,171.0
19:41:58.833000,-190.0,-475.0,-121.0,-929.0,-229.0,-277.0,559.0,-525.0,171.0
19:41:58.838000,-168.0,-474.0,-128.0,-935.0,-257.0,-272.0,568.0,-531.0,142.0
19:41:58.843000,-171.0,-469.0,-89.0,-965.0,-212.0,-269.0,568.0,-531.0,142.0
19:41:58.847000,-165.0,-462.0,-101.0,-965.0,-212.0,-269.0,579.0,-520.0,144.0
19:41:58.852000,-155.0,-452.0,-114.0,-965.0,-188.0,-276.0,579.0,-520.0,144.0
19:41:58.856000,-147.0,-441.0,-129.0,-958.0,-200.0,-274.0,579.0,-520.0,144.0
19:41:58.861000,-136.0,-429.0,-146.0,-958.0,-200.0,-274.0,571.0,-523.0,145.0
19:41:58.866000,-104.0,-425.0,-107.0,-963.0,-224.0,-274.0,571.0,-523.0,145.0
19:41:58.871000,-94.0,-410.0,-55.0,-963.0,-224.0,-274.0,564.0,-523.0,144.0
19:41:58.876000,-102.0,-397.0,-30.0,-953.0,-180.0,-265.0,564.0,-523.0,144.0
19:41:58.880000,-106.0,-382.0,-41.0,-962.0,-125.0,-263.0,568.0,-525.0,142.0
19:41:58.885000,-112.0,-361.0,-9.0,-993.0,-140.0,-269.0,568.0,-525.0,142.0
19:41:58.889000,-114.0,-354.0,-1.0,-1021.0,-180.0,-274.0,568.0,-525.0,142.0
19:41:58.894000,-119.0,-345.0,11.0,-1006.0,-186.0,-274.0,562.0,-526.0,133.0
19:41:58.899000,-133.0,-319.0,70.0,-964.0,-188.0,-281.0,562.0,-526.0,133.0
19:41:58.904000,-143.0,-310.0,93.0,-974.0,-187.0,-289.0,561.0,-529.0,135.0
19:41:58.908000,-143.0,-310.0,93.0,-1020.0,-195.0,-289.0,561.0,-529.0,135.0
19:41:58.913000,-141.0,-314.0,74.0,-1014.0,-215.0,-295.0,561.0,-529.0,135.0
19:41:58.918000,-151.0,-302.0,91.0,-955.0,-223.0,-303.0,568.0,-520.0,136.0
19:41:58.923000,-155.0,-290.0,154.0,-916.0,-205.0,-303.0,568.0,-520.0,136.0
19:41:58.927000,-163.0,-287.0,206.0,-915.0,-159.0,-296.0,561.0,-522.0,136.0
19:41:58.932000,-171.0,-301.0,182.0,-910.0,-126.0,-297.0,561.0,-522.0,136.0
19:41:58.936000,-182.0,-301.0,146.0,-906.0,-127.0,-305.0,561.0,-522.0,136.0
19:41:58.941000,-188.0,-299.0,102.0,-905.0,-182.0,-303.0,568.0,-525.0,126.0
19:41:58.946000,-182.0,-310.0,114.0,-880.0,-269.0,-301.0,568.0,-525.0,126.0
19:41:58.951000,-168.0,-318.0,195.0,-871.0,-300.0,-300.0,568.0,-526.0,120.0
19:41:58.955000,-158.0,-324.0,245.0,-909.0,-270.0,-301.0,568.0,-526.0,120.0
19:41:58.960000,-151.0,-317.0,230.0,-973.0,-245.0,-304.0,568.0,-526.0,120.0
19:41:58.965000,-158.0,-313.0,213.0,-993.0,-240.0,-290.0,555.0,-522.0,144.0
19:41:58.970000,-180.0,-317.0,232.0,-993.0,-240.0,-290.0,555.0,-522.0,144.0
19:41:58.974000,-200.0,-312.0,277.0,-957.0,-237.0,-276.0,570.0,-526.0,121.0
19:41:58.979000,-197.0,-302.0,253.0,-949.0,-223.0,-277.0,570.0,-526.0,121.0
19:41:58.983000,-194.0,-303.0,205.0,-954.0,-206.0,-266.0,570.0,-526.0,121.0
19:41:58.988000,-200.0,-300.0,250.0,-916.0,-228.0,-248.0,576.0,-540.0,124.0
19:41:58.993000,-218.0,-291.0,329.0,-905.0,-268.0,-238.0,576.0,-540.0,124.0
19:41:58.997000,-226.0,-283.0,336.0,-973.0,-269.0,-231.0,564.0,-531.0,120.0
19:41:59.002000,-226.0,-278.0,307.0,-1020.0,-255.0,-225.0,564.0,-531.0,120.0
19:41:59.007000,-226.0,-278.0,307.0,-987.0,-260.0,-217.0,564.0,-531.0,120.0
19:41:59.012000,-236.0,-261.0,303.0,-943.0,-253.0,-207.0,565.0,-534.0,108.0
19:41:59.017000,-236.0,-261.0,303.0,-933.0,-216.0,-194.0,565.0,-534.0,108.0
19:41:59.021000,-241.0,-260.0,258.0,-928.0,-188.0,-185.0,565.0,-538.0,109.0
19:41:59.026000,-250.0,-254.0,207.0,-900.0,-198.0,-175.0,565.0,-538.0,109.0
19:41:59.030000,-261.0,-254.0,195.0,-888.0,-226.0,-167.0,565.0,-538.0,109.0
19:41:59.035000,-265.0,-256.0,214.0,-910.0,-268.0,-166.0,559.0,-534.0,103.0
19:41:59.040000,-263.0,-261.0,241.0,-960.0,-293.0,-166.0,559.0,-534.0,103.0
19:41:59.045000,-260.0,-263.0,221.0,-999.0,-291.0,-169.0,561.0,-538.0,108.0
19:41:59.049000,-254.0,-257.0,221.0,-1001.0,-298.0,-171.0,561.0,-538.0,108.0
19:41:59.054000,-266.0,-247.0,270.0,-1000.0,-268.0,-166.0,561.0,-538.0,108.0
19:41:59.059000,-282.0,-242.0,280.0,-1000.0,-202.0,-163.0,562.0,-531.0,103.0
19:41:59.064000,-297.0,-231.0,252.0,-984.0,-171.0,-162.0,562.0,-531.0,103.0
19:41:59.068000,-323.0,-211.0,226.0,-984.0,-171.0,-162.0,555.0,-538.0,91.0
19:41:59.073000,-357.0,-200.0,271.0,-942.0,-252.0,-156.0,555.0,-538.0,91.0
19:41:59.077000,-390.0,-186.0,310.0,-942.0,-252.0,-156.0,555.0,-538.0,91.0
19:41:59.082000,-420.0,-172.0,294.0,-973.0,-204.0,-161.0,559.0,-549.0,99.0
19:41:59.087000,-443.0,-156.0,275.0,-973.0,-204.0,-161.0,559.0,-549.0,99.0
19:41:59.092000,-457.0,-137.0,261.0,-970.0,-210.0,-169.0,565.0,-538.0,102.0
19:41:59.096000,-457.0,-128.0,261.0,-977.0,-249.0,-175.0,565.0,-538.0,102.0
19:41:59.101000,-450.0,-121.0,265.0,-986.0,-297.0,-180.0,565.0,-538.0,102.0
19:41:59.106000,-439.0,-113.0,256.0,-986.0,-326.0,-188.0,552.0,-538.0,90.0
19:41:59.111000,-422.0,-98.0,232.0,-987.0,-337.0,-201.0,552.0,-538.0,90.0
19:41:59.115000,-406.0,-92.0,227.0,-989.0,-340.0,-211.0,553.0,-546.0,88.0
19:41:59.120000,-391.0,-89.0,238.0,-987.0,-339.0,-214.0,553.0,-546.0,88.0
19:41:59.124000,-391.0,-89.0,238.0,-980.0,-334.0,-218.0,553.0,-546.0,88.0
19:41:59.129000,-370.0,-91.0,252.0,-977.0,-327.0,-223.0,549.0,-538.0,88.0
19:41:59.134000,-349.0,-91.0,237.0,-980.0,-325.0,-225.0,549.0,-538.0,88.0
19:41:59.139000,-339.0,-91.0,231.0,-984.0,-322.0,-224.0,553.0,-544.0,84.0
19:41:59.143000,-327.0,-98.0,230.0,-994.0,-298.0,-227.0,553.0,-544.0,84.0
19:41:59.148000,-316.0,-100.0,197.0,-988.0,-288.0,-227.0,553.0,-544.0,84.0
19:41:59.153000,-307.0,-102.0,200.0,-951.0,-314.0,-218.0,559.0,-553.0,70.0
19:41:59.158000,-305.0,-117.0,260.0,-937.0,-305.0,-211.0,559.0,-553.0,70.0
19:41:59.162000,-312.0,-123.0,265.0,-962.0,-255.0,-208.0,561.0,-556.0,84.0
19:41:59.167000,-315.0,-127.0,224.0,-976.0,-240.0,-200.0,561.0,-556.0,84.0
19:41:59.174000,-323.0,-154.0,207.0,-969.0,-254.0,-172.0,552.0,-550.0,84.0
19:41:59.176000,-323.0,-154.0,207.0,-969.0,-254.0,-172.0,552.0,-550.0,84.0
19:41:59.180000,-321.0,-172.0,166.0,-945.0,-256.0,-159.0,552.0,-550.0,84.0
19:41:59.186000,-319.0,-189.0,156.0,-945.0,-279.0,-149.0,559.0,-552.0,70.0
19:41:59.190000,-323.0,-202.0,163.0,-910.0,-279.0,-149.0,559.0,-552.0,70.0
19:41:59.195000,-317.0,-225.0,134.0,-905.0,-277.0,-135.0,562.0,-549.0,73.0
19:41:59.200000,-310.0,-247.0,107.0,-903.0,-266.0,-120.0,562.0,-549.0,73.0
19:41:59.204000,-305.0,-266.0,93.0,-889.0,-270.0,-108.0,562.0,-549.0,73.0
19:41:59.209000,-294.0,-287.0,92.0,-899.0,-283.0,-96.0,552.0,-549.0,67.0
19:41:59.214000,-279.0,-307.0,81.0,-925.0,-288.0,-84.0,552.0,-549.0,67.0
19:41:59.219000,-265.0,-320.0,65.0,-941.0,-287.0,-72.0,555.0,-556.0,67.0
19:41:59.223000,-245.0,-325.0,36.0,-957.0,-282.0,-65.0,555.0,-556.0,67.0
19:41:59.227000,-245.0,-325.0,36.0,-981.0,-268.0,-59.0,555.0,-556.0,67.0
19:41:59.233000,-230.0,-326.0,0.0,-996.0,-251.0,-46.0,552.0,-558.0,64.0
19:41:59.237000,-225.0,-326.0,-18.0,-1005.0,-229.0,-31.0,552.0,-558.0,64.0
19:41:59.242000,-212.0,-329.0,-32.0,-1019.0,-209.0,-18.0,549.0,-550.0,55.0
19:41:59.247000,-204.0,-326.0,-47.0,-1042.0,-199.0,-7.0,549.0,-550.0,55.0
19:41:59.251000,-200.0,-322.0,-62.0,-1058.0,-184.0,5.0,549.0,-550.0,55.0
19:41:59.256000,-194.0,-322.0,-94.0,-1058.0,-159.0,23.0,559.0,-553.0,54.0
19:41:59.261000,-198.0,-326.0,-133.0,-1030.0,-141.0,47.0,559.0,-553.0,54.0
19:41:59.266000,-209.0,-339.0,-124.0,-988.0,-154.0,55.0,558.0,-544.0,52.0
19:41:59.270000,-219.0,-346.0,-110.0,-994.0,-119.0,59.0,558.0,-544.0,52.0
19:41:59.274000,-245.0,-343.0,-141.0,-1035.0,-60.0,80.0,558.0,-544.0,52.0
19:41:59.280000,-251.0,-357.0,-154.0,-1054.0,-40.0,101.0,552.0,-544.0,54.0
19:41:59.284000,-282.0,-361.0,-172.0,-1034.0,-39.0,120.0,552.0,-544.0,54.0
19:41:59.289000,-317.0,-371.0,-177.0,-1034.0,-39.0,120.0,553.0,-549.0,40.0
19:41:59.294000,-347.0,-365.0,-203.0,-1047.0,-27.0,131.0,553.0,-549.0,40.0
19:41:59.298000,-389.0,-366.0,-220.0,-1047.0,-27.0,131.0,553.0,-549.0,40.0
19:41:59.303000,-436.0,-376.0,-184.0,-1056.0,-12.0,154.0,553.0,-535.0,49.0
19:41:59.308000,-493.0,-373.0,-192.0,-1056.0,-12.0,154.0,553.0,-535.0,49.0
19:41:59.313000,-553.0,-357.0,-177.0,-1063.0,-6.0,151.0,547.0,-555.0,42.0
19:41:59.317000,-624.0,-350.0,-147.0,-1054.0,-39.0,153.0,547.0,-555.0,42.0
19:41:59.321000,-683.0,-348.0,-167.0,-1056.0,-22.0,162.0,547.0,-555.0,42.0
19:41:59.327000,-741.0,-333.0,-231.0,-1065.0,28.0,160.0,553.0,-540.0,42.0
19:41:59.331000,-805.0,-333.0,-221.0,-1041.0,1.0,165.0,553.0,-540.0,42.0
19:41:59.336000,-872.0,-333.0,-192.0,-986.0,-55.0,171.0,553.0,-538.0,25.0
19:41:59.341000,-927.0,-324.0,-209.0,-975.0,-40.0,158.0,553.0,-538.0,25.0
19:41:59.345000,-927.0,-324.0,-209.0,-999.0,-4.0,152.0,553.0,-538.0,25.0
19:41:59.350000,-994.0,-320.0,-219.0,-1005.0,24.0,153.0,550.0,-537.0,34.0
19:41:59.355000,-1053.0,-324.0,-233.0,-1001.0,46.0,149.0,550.0,-537.0,34.0
19:41:59.360000,-1133.0,-317.0,-249.0,-974.0,26.0,157.0,537.0,-528.0,24.0
19:41:59.364000,-1204.0,-339.0,-195.0,-961.0,16.0,157.0,537.0,-528.0,24.0
19:41:59.368000,-1278.0,-340.0,-192.0,-982.0,24.0,155.0,537.0,-528.0,24.0
19:41:59.374000,-1336.0,-361.0,-209.0,-968.0,18.0,157.0,550.0,-516.0,21.0
19:41:59.378000,-1387.0,-383.0,-224.0,-933.0,1.0,155.0,550.0,-516.0,21.0
19:41:59.383000,-1458.0,-401.0,-210.0,-909.0,-15.0,170.0,553.0,-514.0,6.0
19:41:59.388000,-1526.0,-437.0,-156.0,-904.0,6.0,171.0,553.0,-514.0,6.0
19:41:59.395000,-1678.0,-473.0,-165.0,-930.0,19.0,190.0,556.0,-511.0,3.0
19:41:59.397000,-1678.0,-473.0,-165.0,-930.0,19.0,190.0,556.0,-511.0,3.0
19:41:59.401000,-1745.0,-506.0,-196.0,-914.0,-11.0,194.0,556.0,-511.0,3.0
19:41:59.407000,-1801.0,-528.0,-186.0,-914.0,-11.0,194.0,552.0,-502.0,3.0
19:41:59.411000,-1866.0,-539.0,-130.0,-900.0,-66.0,197.0,552.0,-502.0,3.0
19:41:59.416000,-1928.0,-555.0,-128.0,-927.0,-97.0,212.0,546.0,-496.0,7.0
19:41:59.421000,-1964.0,-583.0,-230.0,-970.0,-63.0,227.0,546.0,-496.0,7.0
19:41:59.425000,-2021.0,-593.0,-282.0,-949.0,-43.0,241.0,546.0,-496.0,7.0
19:41:59.430000,-2090.0,-612.0,-247.0,-869.0,-103.0,266.0,550.0,-481.0,-12.0
19:41:59.435000,-2144.0,-629.0,-241.0,-832.0,-141.0,288.0,550.0,-481.0,-12.0
19:41:59.440000,-2186.0,-660.0,-273.0,-865.0,-148.0,310.0,552.0,-457.0,-19.0
19:41:59.444000,-2226.0,-681.0,-355.0,-901.0,-142.0,329.0,552.0,-457.0,-19.0
19:41:59.448000,-2226.0,-681.0,-355.0,-911.0,-133.0,341.0,552.0,-457.0,-19.0
19:41:59.454000,-2279.0,-693.0,-432.0,-910.0,-130.0,367.0,547.0,-451.0,-39.0
19:41:59.458000,-2310.0,-726.0,-525.0,-876.0,-139.0,388.0,547.0,-451.0,-39.0
19:41:59.463000,-2352.0,-749.0,-559.0,-827.0,-163.0,405.0,556.0,-442.0,-33.0
19:41:59.468000,-2383.0,-782.0,-529.0,-848.0,-155.0,421.0,556.0,-442.0,-33.0
19:41:59.472000,-2429.0,-799.0,-550.0,-942.0,-96.0,437.0,556.0,-442.0,-33.0
19:41:59.477000,-2466.0,-827.0,-641.0,-984.0,-81.0,453.0,538.0,-424.0,-39.0
19:41:59.482000,-2505.0,-855.0,-652.0,-956.0,-93.0,467.0,538.0,-424.0,-39.0
19:41:59.487000,-2551.0,-881.0,-652.0,-936.0,-62.0,481.0,537.0,-409.0,-45.0
19:41:59.491000,-2597.0,-900.0,-681.0,-935.0,-28.0,497.0,537.0,-409.0,-45.0
19:41:59.495000,-2632.0,-933.0,-741.0,-940.0,12.0,519.0,537.0,-409.0,-45.0
19:41:59.500000,-2683.0,-952.0,-799.0,-917.0,-2.0,551.0,537.0,-400.0,-51.0
19:41:59.505000,-2740.0,-992.0,-779.0,-880.0,-49.0,575.0,537.0,-400.0,-51.0
19:41:59.510000,-2777.0,-1034.0,-725.0,-880.0,-49.0,575.0,526.0,-385.0,-49.0
19:41:59.515000,-2807.0,-1059.0,-729.0,-873.0,-47.0,575.0,526.0,-385.0,-49.0
19:41:59.519000,-2820.0,-1108.0,-785.0,-881.0,-10.0,588.0,526.0,-385.0,-49.0
19:41:59.524000,-2848.0,-1148.0,-789.0,-846.0,-13.0,604.0,522.0,-343.0,-58.0
19:41:59.529000,-2863.0,-1204.0,-739.0,-793.0,-43.0,624.0,522.0,-343.0,-58.0
19:41:59.534000,-2881.0,-1249.0,-728.0,-778.0,-20.0,636.0,531.0,-336.0,-70.0
19:41:59.538000,-2913.0,-1305.0,-747.0,-782.0,24.0,655.0,531.0,-336.0,-70.0
19:41:59.542000,-2933.0,-1358.0,-718.0,-768.0,34.0,681.0,531.0,-336.0,-70.0
19:41:59.548000,-2968.0,-1397.0,-649.0,-770.0,17.0,688.0,511.0,-306.0,-58.0
19:41:59.552000,-2981.0,-1454.0,-632.0,-817.0,47.0,703.0,511.0,-306.0,-58.0
19:41:59.557000,-2998.0,-1489.0,-637.0,-848.0,108.0,713.0,513.0,-286.0,-54.0
19:41:59.562000,-2998.0,-1489.0,-637.0,-834.0,134.0,725.0,513.0,-286.0,-54.0
19:41:59.566000,-3038.0,-1514.0,-627.0,-814.0,133.0,748.0,513.0,-286.0,-54.0
19:41:59.571000,-3047.0,-1565.0,-603.0,-823.0,151.0,755.0,502.0,-283.0,-69.0
19:41:59.576000,-3056.0,-1593.0,-616.0,-852.0,169.0,773.0,502.0,-283.0,-69.0
19:41:59.581000,-3074.0,-1626.0,-619.0,-857.0,154.0,797.0,489.0,-258.0,-64.0
19:41:59.585000,-3088.0,-1650.0,-573.0,-833.0,108.0,811.0,489.0,-258.0,-64.0
19:41:59.589000,-3119.0,-1673.0,-478.0,-806.0,96.0,829.0,489.0,-258.0,-64.0
19:41:59.595000,-3115.0,-1711.0,-441.0,-792.0,145.0,824.0,471.0,-219.0,-60.0
19:41:59.599000,-3111.0,-1712.0,-496.0,-780.0,173.0,824.0,471.0,-219.0,-60.0
19:41:59.604000,-3102.0,-1726.0,-532.0,-736.0,159.0,846.0,471.0,-211.0,-55.0
19:41:59.609000,-3099.0,-1752.0,-466.0,-701.0,172.0,864.0,471.0,-211.0,-55.0
19:41:59.613000,-3110.0,-1766.0,-431.0,-725.0,244.0,875.0,471.0,-211.0,-55.0
19:41:59.618000,-3110.0,-1774.0,-453.0,-769.0,292.0,880.0,436.0,-177.0,-39.0
19:41:59.623000,-3114.0,-1767.0,-478.0,-769.0,308.0,881.0,436.0,-177.0,-39.0
19:41:59.628000,-3127.0,-1749.0,-492.0,-798.0,308.0,881.0,442.0,-174.0,-40.0
19:41:59.632000,-3145.0,-1738.0,-509.0,-818.0,323.0,889.0,442.0,-174.0,-40.0
19:41:59.636000,-3147.0,-1731.0,-557.0,-836.0,362.0,895.0,442.0,-174.0,-40.0
19:41:59.642000,-3152.0,-1715.0,-586.0,-842.0,401.0,896.0,438.0,-150.0,-30.0
19:41:59.646000,-3157.0,-1697.0,-581.0,-837.0,388.0,899.0,438.0,-150.0,-30.0
19:41:59.651000,-3158.0,-1678.0,-557.0,-836.0,325.0,890.0,403.0,-136.0,4.0
19:41:59.656000,-3154.0,-1667.0,-527.0,-838.0,325.0,890.0,403.0,-136.0,4.0
19:41:59.660000,-3141.0,-1652.0,-502.0,-830.0,314.0,884.0,403.0,-136.0,4.0
19:41:59.665000,-3116.0,-1637.0,-492.0,-808.0,310.0,869.0,403.0,-136.0,4.0
19:41:59.669000,-3116.0,-1637.0,-492.0,-779.0,316.0,857.0,403.0,-136.0,4.0
19:41:59.675000,-3080.0,-1625.0,-500.0,-737.0,324.0,841.0,402.0,-91.0,-4.0
19:41:59.679000,-3037.0,-1613.0,-509.0,-691.0,338.0,824.0,402.0,-91.0,-4.0
19:41:59.684000,-3001.0,-1597.0,-502.0,-666.0,351.0,806.0,390.0,-75.0,10.0
19:41:59.689000,-2964.0,-1568.0,-472.0,-684.0,352.0,780.0,390.0,-75.0,10.0
19:41:59.693000,-2926.0,-1533.0,-431.0,-727.0,352.0,764.0,390.0,-75.0,10.0
19:41:59.698000,-2883.0,-1505.0,-410.0,-756.0,361.0,745.0,375.0,-64.0,33.0
19:41:59.703000,-2840.0,-1460.0,-403.0,-765.0,372.0,720.0,375.0,-64.0,33.0
19:41:59.707000,-2797.0,-1415.0,-402.0,-762.0,374.0,706.0,369.0,-58.0,45.0
19:41:59.712000,-2746.0,-1386.0,-400.0,-753.0,368.0,686.0,369.0,-58.0,45.0
19:41:59.716000,-2688.0,-1347.0,-405.0,-752.0,363.0,659.0,369.0,-58.0,45.0
19:41:59.722000,-2618.0,-1313.0,-437.0,-743.0,352.0,640.0,366.0,-45.0,67.0
19:41:59.726000,-2536.0,-1297.0,-480.0,-702.0,329.0,616.0,366.0,-45.0,67.0
19:41:59.731000,-2445.0,-1282.0,-493.0,-702.0,329.0,616.0,360.0,-40.0,70.0
19:41:59.736000,-2352.0,-1260.0,-500.0,-658.0,354.0,559.0,360.0,-40.0,70.0
19:41:59.740000,-2265.0,-1241.0,-526.0,-658.0,354.0,559.0,360.0,-40.0,70.0
19:41:59.745000,-2188.0,-1218.0,-540.0,-670.0,411.0,541.0,354.0,-24.0,103.0
19:41:59.750000,-2123.0,-1190.0,-513.0,-666.0,445.0,519.0,354.0,-24.0,103.0
19:41:59.754000,-2067.0,-1175.0,-457.0,-654.0,450.0,506.0,351.0,-7.0,109.0
19:41:59.759000,-2009.0,-1158.0,-399.0,-638.0,452.0,492.0,351.0,-7.0,109.0
19:41:59.763000,-1961.0,-1139.0,-370.0,-635.0,479.0,472.0,351.0,-7.0,109.0
19:41:59.769000,-1916.0,-1131.0,-354.0,-642.0,514.0,460.0,333.0,-19.0,120.0
19:41:59.773000,-1869.0,-1120.0,-335.0,-632.0,525.0,448.0,333.0,-19.0,120.0
19:41:59.777000,-1869.0,-1120.0,-335.0,-605.0,499.0,429.0,333.0,-10.0,133.0
19:41:59.783000,-1819.0,-1102.0,-288.0,-582.0,465.0,408.0,333.0,-10.0,133.0
19:41:59.787000,-1768.0,-1086.0,-227.0,-576.0,462.0,390.0,333.0,-10.0,133.0
19:41:59.792000,-1724.0,-1067.0,-179.0,-587.0,484.0,368.0,325.0,-1.0,148.0
19:41:59.797000,-1679.0,-1039.0,-154.0,-609.0,504.0,343.0,325.0,-1.0,148.0
19:41:59.801000,-1636.0,-1008.0,-140.0,-630.0,512.0,322.0,325.0,-3.0,147.0
19:41:59.806000,-1601.0,-971.0,-132.0,-636.0,511.0,295.0,325.0,-3.0,147.0
19:41:59.810000,-1561.0,-931.0,-109.0,-627.0,497.0,273.0,325.0,-3.0,147.0
19:41:59.816000,-1521.0,-897.0,-77.0,-621.0,488.0,257.0,319.0,0.0,159.0
19:41:59.820000,-1483.0,-864.0,-62.0,-616.0,487.0,234.0,319.0,0.0,159.0
19:41:59.824000,-1439.0,-833.0,-52.0,-604.0,480.0,210.0,321.0,13.0,189.0
19:41:59.830000,-1393.0,-800.0,-30.0,-591.0,473.0,196.0,321.0,13.0,189.0
19:41:59.834000,-1350.0,-772.0,-19.0,-591.0,473.0,184.0,321.0,13.0,189.0
19:41:59.839000,-1308.0,-739.0,-37.0,-595.0,478.0,169.0,321.0,3.0,189.0
19:41:59.844000,-1260.0,-709.0,-70.0,-595.0,478.0,169.0,321.0,3.0,189.0
19:41:59.848000,-1215.0,-688.0,-91.0,-582.0,483.0,159.0,327.0,10.0,190.0
19:41:59.853000,-1171.0,-661.0,-91.0,-564.0,483.0,146.0,327.0,10.0,190.0
19:41:59.857000,-1124.0,-642.0,-99.0,-567.0,487.0,133.0,327.0,10.0,190.0
19:41:59.863000,-1075.0,-639.0,-138.0,-585.0,508.0,130.0,316.0,9.0,205.0
19:41:59.867000,-1026.0,-641.0,-161.0,-569.0,515.0,128.0,316.0,9.0,205.0
19:41:59.871000,-976.0,-636.0,-142.0,-520.0,489.0,125.0,324.0,6.0,205.0
19:41:59.877000,-930.0,-633.0,-116.0,-479.0,463.0,124.0,324.0,6.0,205.0
19:41:59.881000,-930.0,-633.0,-116.0,-469.0,474.0,126.0,324.0,6.0,205.0
19:41:59.886000,-846.0,-613.0,-151.0,-482.0,517.0,125.0,304.0,10.0,234.0
19:41:59.891000,-846.0,-613.0,-151.0,-499.0,576.0,125.0,304.0,10.0,234.0
19:41:59.895000,-815.0,-594.0,-186.0,-511.0,625.0,130.0,312.0,13.0,231.0
19:41:59.900000,-800.0,-576.0,-203.0,-523.0,650.0,135.0,312.0,13.0,231.0
19:41:59.904000,-794.0,-555.0,-200.0,-548.0,666.0,141.0,312.0,13.0,231.0
19:41:59.910000,-795.0,-535.0,-204.0,-570.0,685.0,150.0,315.0,3.0,240.0
19:41:59.914000,-791.0,-520.0,-219.0,-579.0,698.0,154.0,315.0,3.0,240.0
19:41:59.919000,-784.0,-499.0,-240.0,-581.0,700.0,154.0,321.0,15.0,255.0
19:41:59.924000,-772.0,-476.0,-266.0,-579.0,697.0,153.0,321.0,15.0,255.0
19:41:59.928000,-756.0,-455.0,-298.0,-568.0,681.0,155.0,322.0,12.0,238.0
19:41:59.933000,-739.0,-437.0,-300.0,-559.0,647.0,157.0,322.0,12.0,238.0
19:41:59.937000,-717.0,-420.0,-270.0,-571.0,626.0,159.0,322.0,12.0,238.0
19:41:59.942000,-693.0,-404.0,-254.0,-597.0,633.0,163.0,313.0,15.0,244.0
19:41:59.947000,-660.0,-395.0,-266.0,-606.0,649.0,166.0,313.0,15.0,244.0
19:41:59.952000,-628.0,-380.0,-280.0,-606.0,649.0,166.0,303.0,19.0,253.0
19:41:59.957000,-600.0,-365.0,-280.0,-588.0,659.0,170.0,303.0,19.0,253.0
19:41:59.961000,-580.0,-351.0,-280.0,-558.0,670.0,181.0,303.0,19.0,253.0
19:41:59.965000,-560.0,-334.0,-288.0,-558.0,670.0,181.0,307.0,7.0,252.0
19:41:59.971000,-539.0,-317.0,-296.0,-557.0,681.0,177.0,307.0,7.0,252.0
19:41:59.975000,-518.0,-298.0,-312.0,-560.0,704.0,175.0,303.0,13.0,264.0
19:41:59.980000,-496.0,-277.0,-326.0,-567.0,724.0,177.0,303.0,13.0,264.0
19:41:59.984000,-496.0,-277.0,-326.0,-559.0,719.0,182.0,303.0,13.0,264.0
19:41:59.989000,-452.0,-243.0,-326.0,-537.0,701.0,182.0,312.0,21.0,271.0
19:41:59.994000,-424.0,-227.0,-343.0,-524.0,695.0,178.0,312.0,21.0,271.0
19:41:59.999000,-424.0,-227.0,-343.0,-522.0,697.0,177.0,298.0,15.0,270.0
19:42:00.004000,-406.0,-209.0,-349.0,-525.0,699.0,178.0,298.0,15.0,270.0
19:42:00.008000,-400.0,-190.0,-345.0,-535.0,719.0,168.0,300.0,27.0,273.0
19:42:00.013000,-387.0,-165.0,-342.0,-544.0,747.0,151.0,300.0,27.0,273.0
19:42:00.017000,-369.0,-142.0,-335.0,-543.0,762.0,147.0,300.0,27.0,273.0
19:42:00.022000,-364.0,-128.0,-321.0,-527.0,763.0,152.0,300.0,18.0,273.0
19:42:00.027000,-359.0,-116.0,-310.0,-497.0,760.0,148.0,300.0,18.0,273.0
19:42:00.032000,-345.0,-103.0,-313.0,-462.0,751.0,150.0,283.0,16.0,271.0
19:42:00.036000,-331.0,-98.0,-324.0,-424.0,696.0,156.0,283.0,16.0,271.0
19:42:00.041000,-312.0,-98.0,-301.0,-392.0,631.0,156.0,283.0,16.0,271.0
19:42:00.046000,-282.0,-110.0,-270.0,-369.0,632.0,154.0,289.0,15.0,276.0
19:42:00.051000,-246.0,-116.0,-273.0,-353.0,668.0,150.0,289.0,15.0,276.0
19:42:00.055000,-218.0,-118.0,-277.0,-353.0,668.0,150.0,292.0,7.0,291.0
19:42:00.060000,-202.0,-130.0,-280.0,-344.0,756.0,174.0,292.0,7.0,291.0
19:42:00.064000,-189.0,-144.0,-291.0,-330.0,756.0,174.0,292.0,7.0,291.0
19:42:00.069000,-164.0,-158.0,-298.0,-313.0,760.0,180.0,291.0,27.0,285.0
19:42:00.074000,-148.0,-170.0,-296.0,-302.0,748.0,184.0,291.0,27.0,285.0
19:42:00.079000,-135.0,-180.0,-287.0,-294.0,742.0,189.0,286.0,19.0,288.0
19:42:00.083000,-128.0,-184.0,-275.0,-291.0,751.0,185.0,286.0,19.0,288.0
19:42:00.088000,-129.0,-191.0,-265.0,-302.0,771.0,184.0,286.0,19.0,288.0
19:42:00.093000,-129.0,-196.0,-263.0,-320.0,804.0,185.0,277.0,18.0,289.0
19:42:00.098000,-128.0,-198.0,-255.0,-317.0,800.0,188.0,277.0,18.0,289.0
19:42:00.102000,-120.0,-196.0,-236.0,-287.0,742.0,183.0,280.0,16.0,292.0
19:42:00.107000,-107.0,-196.0,-214.0,-263.0,699.0,175.0,280.0,16.0,292.0
19:42:00.111000,-107.0,-196.0,-214.0,-265.0,713.0,170.0,280.0,16.0,292.0
19:42:00.116000,-96.0,-192.0,-219.0,-278.0,757.0,167.0,271.0,13.0,289.0
19:42:00.121000,-81.0,-195.0,-233.0,-274.0,781.0,167.0,271.0,13.0,289.0
19:42:00.126000,-71.0,-198.0,-247.0,-248.0,770.0,166.0,273.0,16.0,295.0
19:42:00.130000,-56.0,-200.0,-251.0,-217.0,746.0,163.0,273.0,16.0,295.0
19:42:00.135000,-35.0,-205.0,-237.0,-201.0,720.0,155.0,273.0,16.0,295.0
19:42:00.140000,-10.0,-205.0,-221.0,-210.0,719.0,142.0,273.0,21.0,286.0
19:42:00.145000,14.0,-203.0,-228.0,-227.0,746.0,130.0,273.0,21.0,286.0
19:42:00.149000,37.0,-199.0,-249.0,-234.0,771.0,124.0,259.0,21.0,309.0
19:42:00.154000,58.0,-200.0,-266.0,-232.0,782.0,117.0,259.0,21.0,309.0
19:42:00.158000,76.0,-199.0,-275.0,-225.0,784.0,108.0,259.0,21.0,309.0
19:42:00.163000,91.0,-196.0,-284.0,-218.0,790.0,101.0,267.0,18.0,294.0
19:42:00.168000,107.0,-193.0,-295.0,-218.0,804.0,100.0,267.0,18.0,294.0
19:42:00.173000,123.0,-192.0,-311.0,-218.0,804.0,100.0,268.0,21.0,288.0
19:42:00.177000,140.0,-192.0,-325.0,-219.0,822.0,101.0,268.0,21.0,288.0
19:42:00.182000,151.0,-195.0,-329.0,-214.0,831.0,105.0,268.0,21.0,288.0
19:42:00.187000,165.0,-198.0,-332.0,-205.0,834.0,106.0,276.0,25.0,297.0
19:42:00.192000,179.0,-198.0,-338.0,-202.0,842.0,104.0,276.0,25.0,297.0
19:42:00.196000,188.0,-201.0,-340.0,-205.0,854.0,102.0,265.0,9.0,286.0
19:42:00.201000,194.0,-205.0,-340.0,-209.0,870.0,105.0,265.0,9.0,286.0
19:42:00.205000,194.0,-205.0,-340.0,-206.0,884.0,106.0,265.0,9.0,286.0
19:42:00.210000,209.0,-219.0,-345.0,-192.0,883.0,104.0,258.0,22.0,288.0
19:42:00.215000,219.0,-231.0,-336.0,-177.0,866.0,104.0,258.0,22.0,288.0
19:42:00.220000,219.0,-231.0,-336.0,-165.0,848.0,107.0,258.0,16.0,286.0
19:42:00.224000,231.0,-242.0,-324.0,-149.0,836.0,106.0,258.0,16.0,286.0
19:42:00.229000,246.0,-253.0,-315.0,-135.0,831.0,103.0,258.0,16.0,286.0
19:42:00.234000,265.0,-261.0,-306.0,-133.0,830.0,100.0,265.0,18.0,295.0
19:42:00.239000,284.0,-269.0,-286.0,-148.0,830.0,100.0,265.0,18.0,295.0
19:42:00.243000,303.0,-275.0,-259.0,-175.0,831.0,102.0,255.0,15.0,282.0
19:42:00.248000,326.0,-282.0,-245.0,-193.0,827.0,107.0,255.0,15.0,282.0
19:42:00.252000,352.0,-287.0,-242.0,-188.0,817.0,110.0,255.0,15.0,282.0
19:42:00.257000,380.0,-291.0,-237.0,-166.0,863.0,115.0,246.0,15.0,282.0
19:42:00.262000,424.0,-298.0,-244.0,-158.0,844.0,126.0,246.0,15.0,282.0
19:42:00.267000,443.0,-303.0,-226.0,-158.0,844.0,126.0,252.0,19.0,277.0
19:42:00.271000,480.0,-307.0,-157.0,-191.0,754.0,118.0,252.0,19.0,277.0
19:42:00.276000,512.0,-306.0,-121.0,-235.0,774.0,127.0,252.0,19.0,277.0
19:42:00.281000,539.0,-312.0,-114.0,-235.0,774.0,127.0,241.0,27.0,274.0
19:42:00.286000,549.0,-315.0,-116.0,-255.0,894.0,134.0,241.0,27.0,274.0
19:42:00.290000,597.0,-325.0,-114.0,-255.0,894.0,134.0,238.0,24.0,277.0
19:42:00.295000,624.0,-340.0,-102.0,-242.0,869.0,142.0,238.0,24.0,277.0
19:42:00.299000,662.0,-344.0,-77.0,-217.0,778.0,150.0,238.0,24.0,277.0
19:42:00.304000,709.0,-350.0,-59.0,-197.0,766.0,148.0,243.0,18.0,264.0
19:42:00.309000,749.0,-352.0,-52.0,-212.0,776.0,161.0,243.0,18.0,264.0
19:42:00.314000,789.0,-352.0,-50.0,-243.0,776.0,176.0,249.0,25.0,256.0
19:42:00.318000,830.0,-347.0,-52.0,-260.0,780.0,190.0,249.0,25.0,256.0
19:42:00.322000,830.0,-347.0,-52.0,-265.0,785.0,204.0,249.0,25.0,256.0
19:42:00.328000,882.0,-336.0,-60.0,-273.0,781.0,224.0,252.0,21.0,247.0
19:42:00.333000,930.0,-326.0,-72.0,-276.0,762.0,247.0,252.0,21.0,247.0
19:42:00.337000,975.0,-315.0,-56.0,-276.0,737.0,258.0,244.0,16.0,243.0
19:42:00.342000,1018.0,-297.0,-35.0,-296.0,737.0,262.0,244.0,16.0,243.0
19:42:00.346000,1064.0,-268.0,-49.0,-333.0,763.0,265.0,244.0,16.0,243.0
19:42:00.351000,1111.0,-233.0,-81.0,-359.0,781.0,273.0,247.0,27.0,232.0
19:42:00.356000,1160.0,-197.0,-91.0,-372.0,768.0,288.0,247.0,27.0,232.0
19:42:00.361000,1212.0,-163.0,-81.0,-389.0,754.0,300.0,244.0,19.0,220.0
19:42:00.365000,1271.0,-130.0,-108.0,-400.0,768.0,311.0,244.0,19.0,220.0
19:42:00.369000,1337.0,-103.0,-156.0,-379.0,767.0,325.0,244.0,19.0,220.0
19:42:00.375000,1397.0,-74.0,-161.0,-342.0,737.0,346.0,241.0,28.0,226.0
19:42:00.380000,1451.0,-49.0,-140.0,-314.0,718.0,369.0,241.0,28.0,226.0
19:42:00.384000,1514.0,-26.0,-140.0,-314.0,718.0,369.0,234.0,16.0,213.0
19:42:00.389000,1581.0,0.0,-153.0,-292.0,698.0,384.0,234.0,16.0,213.0
19:42:00.393000,1650.0,30.0,-163.0,-283.0,701.0,391.0,234.0,16.0,213.0
19:42:00.398000,1713.0,61.0,-157.0,-304.0,729.0,403.0,244.0,18.0,201.0
19:42:00.403000,1778.0,99.0,-139.0,-352.0,726.0,414.0,244.0,18.0,201.0
19:42:00.408000,1862.0,134.0,-132.0,-400.0,716.0,424.0,238.0,18.0,175.0
19:42:00.412000,1948.0,173.0,-110.0,-427.0,670.0,438.0,238.0,18.0,175.0
19:42:00.416000,2039.0,217.0,-66.0,-440.0,594.0,454.0,238.0,18.0,175.0
19:42:00.422000,2136.0,263.0,-20.0,-453.0,547.0,478.0,229.0,12.0,160.0
19:42:00.427000,2233.0,302.0,23.0,-462.0,526.0,512.0,229.0,12.0,160.0
19:42:00.431000,2328.0,329.0,80.0,-465.0,515.0,558.0,241.0,15.0,139.0
19:42:00.436000,2328.0,329.0,80.0,-463.0,494.0,607.0,241.0,15.0,139.0
19:42:00.440000,2426.0,347.0,156.0,-454.0,475.0,644.0,241.0,15.0,139.0
19:42:00.445000,2521.0,373.0,238.0,-450.0,478.0,672.0,235.0,1.0,124.0
19:42:00.450000,2608.0,398.0,305.0,-465.0,508.0,694.0,235.0,1.0,124.0
19:42:00.455000,2683.0,426.0,342.0,-487.0,551.0,711.0,253.0,1.0,114.0
19:42:00.459000,2738.0,461.0,379.0,-510.0,580.0,732.0,253.0,1.0,114.0
19:42:00.463000,2773.0,498.0,431.0,-548.0,603.0,759.0,253.0,1.0,114.0
19:42:00.469000,2796.0,529.0,450.0,-579.0,618.0,788.0,249.0,-7.0,88.0
19:42:00.473000,2809.0,556.0,429.0,-567.0,617.0,818.0,249.0,-7.0,88.0
19:42:00.478000,2823.0,580.0,401.0,-535.0,604.0,850.0,253.0,-24.0,69.0
19:42:00.483000,2829.0,599.0,373.0,-511.0,590.0,888.0,253.0,-24.0,69.0
19:42:00.487000,2817.0,611.0,340.0,-486.0,591.0,926.0,253.0,-24.0,69.0
19:42:00.492000,2793.0,620.0,308.0,-451.0,607.0,956.0,267.0,-28.0,37.0
19:42:00.497000,2762.0,626.0,273.0,-415.0,620.0,973.0,267.0,-28.0,37.0
19:42:00.502000,2719.0,637.0,214.0,-415.0,620.0,973.0,262.0,-34.0,15.0
19:42:00.506000,2676.0,651.0,142.0,-393.0,641.0,972.0,262.0,-34.0,15.0
19:42:00.510000,2626.0,676.0,91.0,-399.0,664.0,954.0,262.0,-34.0,15.0
19:42:00.516000,2566.0,710.0,63.0,-435.0,674.0,929.0,268.0,-54.0,0.0
19:42:00.520000,2513.0,749.0,37.0,-505.0,690.0,892.0,268.0,-54.0,0.0
19:42:00.525000,2461.0,784.0,37.0,-583.0,676.0,853.0,279.0,-63.0,-7.0
19:42:00.530000,2425.0,823.0,58.0,-638.0,606.0,810.0,279.0,-63.0,-7.0
19:42:00.534000,2425.0,823.0,58.0,-663.0,507.0,760.0,279.0,-63.0,-7.0
19:42:00.539000,2408.0,891.0,137.0,-648.0,382.0,724.0,279.0,-66.0,-27.0
19:42:00.544000,2424.0,912.0,231.0,-604.0,261.0,703.0,279.0,-66.0,-27.0
19:42:00.549000,2424.0,912.0,231.0,-568.0,187.0,691.0,285.0,-90.0,-48.0
19:42:00.553000,2451.0,929.0,296.0,-562.0,178.0,687.0,285.0,-90.0,-48.0
19:42:00.557000,2498.0,945.0,303.0,-571.0,195.0,698.0,285.0,-90.0,-48.0
19:42:00.563000,2537.0,937.0,254.0,-639.0,164.0,734.0,282.0,-96.0,-61.0
19:42:00.567000,2529.0,905.0,177.0,-489.0,55.0,802.0,282.0,-96.0,-61.0
19:42:00.572000,2498.0,868.0,296.0,-174.0,95.0,793.0,286.0,-115.0,-63.0
19:42:00.577000,2483.0,876.0,440.0,-109.0,286.0,749.0,286.0,-115.0,-63.0
19:42:00.581000,2455.0,871.0,374.0,-213.0,343.0,781.0,286.0,-115.0,-63.0
19:42:00.586000,2408.0,859.0,221.0,-267.0,336.0,762.0,306.0,-123.0,-82.0
19:42:00.591000,2392.0,872.0,151.0,-302.0,296.0,722.0,306.0,-123.0,-82.0
19:42:00.596000,2377.0,877.0,137.0,-302.0,296.0,722.0,315.0,-144.0,-88.0
19:42:00.600000,2362.0,889.0,140.0,-461.0,138.0,693.0,315.0,-144.0,-88.0
19:42:00.604000,2355.0,904.0,158.0,-541.0,102.0,686.0,315.0,-144.0,-88.0
19:42:00.610000,2342.0,904.0,165.0,-597.0,75.0,692.0,327.0,-172.0,-100.0
19:42:00.614000,2331.0,898.0,165.0,-597.0,75.0,692.0,327.0,-172.0,-100.0
19:42:00.619000,2325.0,906.0,182.0,-610.0,47.0,686.0,327.0,-184.0,-121.0
19:42:00.624000,2314.0,905.0,230.0,-603.0,5.0,687.0,327.0,-184.0,-121.0
19:42:00.628000,2300.0,898.0,295.0,-586.0,-47.0,703.0,327.0,-184.0,-121.0
19:42:00.633000,2293.0,892.0,351.0,-572.0,-85.0,717.0,333.0,-198.0,-129.0
19:42:00.638000,2286.0,890.0,397.0,-565.0,-102.0,736.0,333.0,-198.0,-129.0
19:42:00.643000,2288.0,898.0,413.0,-572.0,-107.0,756.0,351.0,-205.0,-133.0
19:42:00.647000,2290.0,913.0,405.0,-585.0,-111.0,775.0,351.0,-205.0,-133.0
19:42:00.651000,2290.0,913.0,405.0,-594.0,-120.0,805.0,351.0,-205.0,-133.0
19:42:00.657000,2293.0,933.0,380.0,-599.0,-118.0,841.0,352.0,-231.0,-133.0
19:42:00.661000,2291.0,949.0,338.0,-599.0,-115.0,876.0,352.0,-231.0,-133.0
19:42:00.666000,2288.0,964.0,282.0,-594.0,-121.0,903.0,345.0,-244.0,-145.0
19:42:00.671000,2279.0,979.0,228.0,-579.0,-140.0,927.0,345.0,-244.0,-145.0
19:42:00.675000,2268.0,1001.0,203.0,-580.0,-161.0,949.0,345.0,-244.0,-145.0
19:42:00.680000,2265.0,1017.0,168.0,-594.0,-155.0,965.0,369.0,-256.0,-148.0
19:42:00.685000,2269.0,1027.0,96.0,-587.0,-146.0,971.0,369.0,-256.0,-148.0
19:42:00.690000,2273.0,1036.0,25.0,-563.0,-158.0,975.0,366.0,-265.0,-147.0
19:42:00.694000,2276.0,1043.0,-18.0,-553.0,-175.0,973.0,366.0,-265.0,-147.0
19:42:00.698000,2284.0,1049.0,-60.0,-553.0,-183.0,969.0,366.0,-265.0,-147.0
19:42:00.704000,2293.0,1056.0,-105.0,-546.0,-184.0,966.0,367.0,-301.0,-139.0
19:42:00.708000,2302.0,1067.0,-140.0,-547.0,-187.0,972.0,367.0,-301.0,-139.0
19:42:00.713000,2300.0,1079.0,-163.0,-547.0,-187.0,972.0,397.0,-319.0,-159.0
19:42:00.718000,2288.0,1092.0,-177.0,-559.0,-176.0,986.0,397.0,-319.0,-159.0
19:42:00.722000,2270.0,1102.0,-196.0,-575.0,-138.0,988.0,397.0,-319.0,-159.0
19:42:00.727000,2242.0,1106.0,-213.0,-588.0,-107.0,986.0,402.0,-327.0,-151.0
19:42:00.732000,2204.0,1109.0,-224.0,-581.0,-94.0,987.0,402.0,-327.0,-151.0
19:42:00.737000,2168.0,1110.0,-241.0,-569.0,-85.0,986.0,409.0,-337.0,-160.0
19:42:00.741000,2134.0,1110.0,-278.0,-574.0,-67.0,984.0,409.0,-337.0,-160.0
19:42:00.745000,2102.0,1103.0,-331.0,-574.0,-67.0,984.0,409.0,-337.0,-160.0
19:42:00.751000,2072.0,1107.0,-365.0,-568.0,-75.0,980.0,414.0,-355.0,-144.0
19:42:00.755000,2039.0,1113.0,-381.0,-553.0,-98.0,968.0,414.0,-355.0,-144.0
19:42:00.760000,2007.0,1121.0,-384.0,-556.0,-130.0,960.0,421.0,-370.0,-150.0
19:42:00.765000,2007.0,1121.0,-384.0,-580.0,-172.0,944.0,421.0,-370.0,-150.0
19:42:00.769000,1974.0,1143.0,-371.0,-622.0,-219.0,916.0,421.0,-370.0,-150.0
19:42:00.774000,1954.0,1165.0,-358.0,-681.0,-268.0,892.0,433.0,-394.0,-145.0
19:42:00.779000,1934.0,1184.0,-354.0,-729.0,-332.0,865.0,433.0,-394.0,-145.0
19:42:00.783000,1927.0,1206.0,-336.0,-759.0,-408.0,840.0,439.0,-414.0,-141.0
19:42:00.788000,1929.0,1222.0,-322.0,-786.0,-466.0,827.0,439.0,-414.0,-141.0
19:42:00.792000,1936.0,1233.0,-318.0,-792.0,-496.0,822.0,439.0,-414.0,-141.0
19:42:00.798000,1937.0,1239.0,-322.0,-770.0,-484.0,822.0,451.0,-420.0,-133.0
19:42:00.802000,1932.0,1241.0,-331.0,-734.0,-446.0,818.0,451.0,-420.0,-133.0
19:42:00.807000,1920.0,1241.0,-350.0,-700.0,-420.0,811.0,465.0,-433.0,-141.0
19:42:00.812000,1899.0,1236.0,-373.0,-672.0,-411.0,798.0,465.0,-433.0,-141.0
19:42:00.816000,1876.0,1232.0,-394.0,-663.0,-416.0,777.0,465.0,-433.0,-141.0
19:42:00.821000,1852.0,1229.0,-420.0,-679.0,-420.0,760.0,477.0,-439.0,-130.0
19:42:00.825000,1824.0,1224.0,-461.0,-706.0,-415.0,747.0,477.0,-439.0,-130.0
19:42:00.831000,1794.0,1220.0,-497.0,-706.0,-415.0,747.0,471.0,-450.0,-126.0
19:42:00.835000,1757.0,1217.0,-524.0,-724.0,-415.0,737.0,471.0,-450.0,-126.0
19:42:00.840000,1717.0,1216.0,-564.0,-735.0,-416.0,723.0,475.0,-454.0,-115.0
19:42:00.845000,1679.0,1215.0,-602.0,-742.0,-412.0,705.0,475.0,-454.0,-115.0
19:42:00.849000,1640.0,1212.0,-638.0,-740.0,-414.0,692.0,475.0,-454.0,-115.0
19:42:00.854000,1599.0,1204.0,-669.0,-736.0,-412.0,677.0,510.0,-466.0,-103.0
19:42:00.859000,1555.0,1194.0,-697.0,-737.0,-405.0,661.0,510.0,-466.0,-103.0
19:42:00.864000,1506.0,1185.0,-723.0,-749.0,-391.0,645.0,511.0,-463.0,-97.0
19:42:00.868000,1451.0,1172.0,-741.0,-767.0,-370.0,630.0,511.0,-463.0,-97.0
19:42:00.872000,1451.0,1172.0,-741.0,-785.0,-353.0,612.0,511.0,-463.0,-97.0
19:42:00.878000,1396.0,1157.0,-749.0,-805.0,-345.0,592.0,502.0,-478.0,-94.0
19:42:00.882000,1341.0,1140.0,-752.0,-823.0,-345.0,575.0,502.0,-478.0,-94.0
19:42:00.887000,1285.0,1121.0,-751.0,-838.0,-348.0,558.0,523.0,-483.0,-88.0
19:42:00.892000,1229.0,1100.0,-746.0,-853.0,-349.0,540.0,523.0,-483.0,-88.0
19:42:00.896000,1169.0,1078.0,-730.0,-869.0,-347.0,524.0,523.0,-483.0,-88.0
19:42:00.901000,1108.0,1051.0,-709.0,-878.0,-335.0,509.0,531.0,-483.0,-78.0
19:42:00.906000,1045.0,1022.0,-688.0,-882.0,-318.0,498.0,531.0,-483.0,-78.0
19:42:00.910000,980.0,992.0,-674.0,-882.0,-308.0,485.0,534.0,-478.0,-73.0
19:42:00.915000,916.0,963.0,-666.0,-871.0,-306.0,468.0,534.0,-478.0,-73.0
19:42:00.919000,851.0,933.0,-647.0,-861.0,-312.0,452.0,534.0,-478.0,-73.0
19:42:00.925000,786.0,905.0,-613.0,-864.0,-314.0,435.0,553.0,-483.0,-58.0
19:42:00.929000,721.0,875.0,-563.0,-882.0,-306.0,417.0,553.0,-483.0,-58.0
19:42:00.934000,651.0,847.0,-541.0,-882.0,-306.0,417.0,547.0,-490.0,-46.0
19:42:00.939000,584.0,819.0,-552.0,-909.0,-283.0,397.0,547.0,-490.0,-46.0
19:42:00.943000,519.0,791.0,-555.0,-933.0,-258.0,382.0,547.0,-490.0,-46.0
19:42:00.948000,447.0,771.0,-553.0,-946.0,-247.0,367.0,549.0,-498.0,-52.0
19:42:00.953000,370.0,746.0,-541.0,-949.0,-248.0,357.0,549.0,-498.0,-52.0
19:42:00.957000,295.0,719.0,-508.0,-948.0,-257.0,348.0,568.0,-475.0,-49.0
19:42:00.962000,221.0,694.0,-479.0,-957.0,-267.0,331.0,568.0,-475.0,-49.0
19:42:00.966000,156.0,665.0,-462.0,-971.0,-272.0,321.0,568.0,-475.0,-49.0
19:42:00.972000,97.0,634.0,-453.0,-972.0,-285.0,318.0,570.0,-487.0,-40.0
19:42:00.976000,44.0,606.0,-444.0,-956.0,-315.0,305.0,570.0,-487.0,-40.0
19:42:00.981000,-3.0,581.0,-428.0,-933.0,-353.0,293.0,577.0,-484.0,-36.0
19:42:00.986000,-3.0,581.0,-428.0,-909.0,-385.0,284.0,577.0,-484.0,-36.0
19:42:00.990000,-46.0,553.0,-401.0,-890.0,-392.0,274.0,577.0,-484.0,-36.0
19:42:00.995000,-88.0,529.0,-375.0,-882.0,-378.0,264.0,576.0,-469.0,-28.0
19:42:01.000000,-130.0,509.0,-352.0,-889.0,-359.0,255.0,576.0,-469.0,-28.0
19:42:01.005000,-168.0,492.0,-338.0,-912.0,-345.0,245.0,571.0,-475.0,-24.0
19:42:01.009000,-203.0,478.0,-333.0,-945.0,-337.0,234.0,571.0,-475.0,-24.0
19:42:01.013000,-235.0,465.0,-338.0,-972.0,-335.0,225.0,571.0,-475.0,-24.0
19:42:01.019000,-265.0,451.0,-343.0,-981.0,-345.0,216.0,589.0,-471.0,-18.0
19:42:01.023000,-294.0,441.0,-343.0,-975.0,-364.0,206.0,589.0,-471.0,-18.0
19:42:01.028000,-317.0,436.0,-334.0,-964.0,-383.0,200.0,586.0,-466.0,-28.0
19:42:01.033000,-339.0,434.0,-320.0,-954.0,-392.0,196.0,586.0,-466.0,-28.0
19:42:01.037000,-354.0,431.0,-306.0,-955.0,-388.0,190.0,586.0,-466.0,-28.0
19:42:01.042000,-361.0,429.0,-303.0,-961.0,-382.0,187.0,589.0,-472.0,-10.0
19:42:01.047000,-361.0,422.0,-307.0,-965.0,-383.0,185.0,589.0,-472.0,-10.0
19:42:01.052000,-357.0,410.0,-311.0,-965.0,-383.0,185.0,588.0,-466.0,-16.0
19:42:01.056000,-347.0,394.0,-305.0,-961.0,-388.0,184.0,588.0,-466.0,-16.0
19:42:01.060000,-334.0,375.0,-283.0,-956.0,-393.0,180.0,588.0,-466.0,-16.0
19:42:01.066000,-318.0,354.0,-253.0,-953.0,-392.0,177.0,586.0,-450.0,-9.0
19:42:01.070000,-301.0,333.0,-219.0,-952.0,-382.0,172.0,586.0,-450.0,-9.0
19:42:01.075000,-282.0,311.0,-182.0,-951.0,-368.0,167.0,598.0,-448.0,-13.0
19:42:01.080000,-261.0,290.0,-137.0,-951.0,-357.0,161.0,598.0,-448.0,-13.0
19:42:01.084000,-261.0,290.0,-137.0,-956.0,-351.0,156.0,598.0,-448.0,-13.0
19:42:01.089000,-228.0,253.0,-23.0,-967.0,-349.0,151.0,594.0,-453.0,-9.0
19:42:01.094000,-228.0,253.0,-23.0,-979.0,-350.0,143.0,594.0,-453.0,-9.0
19:42:01.099000,-215.0,240.0,37.0,-990.0,-348.0,134.0,594.0,-460.0,-7.0
19:42:01.103000,-203.0,231.0,93.0,-996.0,-341.0,125.0,594.0,-460.0,-7.0
19:42:01.107000,-195.0,224.0,144.0,-999.0,-325.0,120.0,594.0,-460.0,-7.0
19:42:01.113000,-191.0,222.0,191.0,-1001.0,-305.0,113.0,594.0,-444.0,-3.0
19:42:01.117000,-192.0,223.0,228.0,-998.0,-292.0,107.0,594.0,-444.0,-3.0
19:42:01.122000,-196.0,226.0,259.0,-989.0,-289.0,104.0,589.0,-450.0,-1.0
19:42:01.127000,-201.0,233.0,284.0,-982.0,-293.0,101.0,589.0,-450.0,-1.0
19:42:01.131000,-204.0,240.0,301.0,-982.0,-305.0,100.0,589.0,-450.0,-1.0
19:42:01.136000,-200.0,245.0,312.0,-978.0,-326.0,98.0,601.0,-454.0,1.0
19:42:01.141000,-193.0,256.0,324.0,-967.0,-355.0,94.0,601.0,-454.0,1.0
19:42:01.146000,-182.0,264.0,333.0,-967.0,-355.0,94.0,598.0,-450.0,-6.0
19:42:01.150000,-157.0,269.0,341.0,-961.0,-417.0,86.0,598.0,-450.0,-6.0
19:42:01.154000,-126.0,271.0,350.0,-961.0,-417.0,86.0,598.0,-450.0,-6.0
19:42:01.160000,-81.0,273.0,355.0,-968.0,-445.0,79.0,606.0,-456.0,6.0
19:42:01.164000,-36.0,270.0,362.0,-973.0,-468.0,75.0,606.0,-456.0,6.0
19:42:01.169000,11.0,269.0,375.0,-979.0,-483.0,68.0,616.0,-459.0,6.0
19:42:01.174000,60.0,268.0,392.0,-991.0,-485.0,55.0,616.0,-459.0,6.0
19:42:01.178000,108.0,263.0,422.0,-1003.0,-481.0,46.0,616.0,-459.0,6.0
19:42:01.183000,151.0,260.0,464.0,-1005.0,-469.0,38.0,609.0,-454.0,3.0
19:42:01.188000,193.0,251.0,515.0,-994.0,-448.0,35.0,609.0,-454.0,3.0
19:42:01.193000,231.0,242.0,572.0,-975.0,-431.0,30.0,594.0,-451.0,15.0
19:42:01.197000,265.0,229.0,630.0,-955.0,-422.0,29.0,594.0,-451.0,15.0
19:42:01.201000,265.0,229.0,630.0,-934.0,-414.0,35.0,594.0,-451.0,15.0
19:42:01.207000,296.0,213.0,688.0,-910.0,-421.0,41.0,600.0,-469.0,10.0
19:42:01.211000,326.0,198.0,746.0,-876.0,-442.0,42.0,600.0,-469.0,10.0
19:42:01.216000,357.0,187.0,805.0,-848.0,-459.0,41.0,607.0,-477.0,9.0
19:42:01.221000,389.0,182.0,851.0,-849.0,-475.0,39.0,607.0,-477.0,9.0
19:42:01.225000,421.0,182.0,877.0,-872.0,-486.0,35.0,607.0,-477.0,9.0
19:42:01.230000,457.0,186.0,884.0,-904.0,-488.0,30.0,606.0,-475.0,3.0
19:42:01.235000,492.0,193.0,874.0,-934.0,-489.0,26.0,606.0,-475.0,3.0
19:42:01.240000,527.0,199.0,858.0,-950.0,-496.0,22.0,610.0,-481.0,15.0
19:42:01.244000,560.0,208.0,852.0,-952.0,-513.0,20.0,610.0,-481.0,15.0
19:42:01.248000,588.0,216.0,865.0,-952.0,-524.0,20.0,610.0,-481.0,15.0
19:42:01.254000,615.0,222.0,888.0,-954.0,-528.0,20.0,606.0,-480.0,15.0
19:42:01.258000,638.0,226.0,917.0,-951.0,-528.0,19.0,606.0,-480.0,15.0
19:42:01.263000,659.0,231.0,959.0,-951.0,-528.0,19.0,606.0,-508.0,13.0
19:42:01.268000,678.0,233.0,1012.0,-944.0,-528.0,19.0,606.0,-508.0,13.0
19:42:01.272000,694.0,232.0,1060.0,-939.0,-530.0,24.0,606.0,-508.0,13.0
19:42:01.277000,704.0,239.0,1102.0,-929.0,-536.0,27.0,600.0,-522.0,22.0
19:42:01.282000,706.0,247.0,1145.0,-903.0,-562.0,31.0,600.0,-522.0,22.0
19:42:01.287000,705.0,256.0,1171.0,-870.0,-600.0,38.0,603.0,-532.0,21.0
19:42:01.291000,702.0,267.0,1171.0,-850.0,-639.0,43.0,603.0,-532.0,21.0
19:42:01.295000,698.0,279.0,1141.0,-861.0,-681.0,44.0,603.0,-532.0,21.0
19:42:01.301000,697.0,292.0,1072.0,-892.0,-719.0,44.0,597.0,-540.0,27.0
19:42:01.305000,704.0,309.0,961.0,-930.0,-733.0,31.0,597.0,-540.0,27.0
19:42:01.310000,704.0,309.0,961.0,-961.0,-726.0,15.0,600.0,-544.0,34.0
19:42:01.315000,711.0,324.0,847.0,-975.0,-707.0,11.0,600.0,-544.0,34.0
19:42:01.319000,711.0,333.0,736.0,-974.0,-677.0,5.0,600.0,-544.0,34.0
19:42:01.324000,706.0,345.0,621.0,-954.0,-646.0,-7.0,591.0,-553.0,36.0
19:42:01.329000,691.0,357.0,530.0,-933.0,-613.0,-14.0,591.0,-553.0,36.0
19:42:01.334000,674.0,359.0,469.0,-913.0,-586.0,-17.0,588.0,-559.0,42.0
19:42:01.338000,653.0,358.0,428.0,-896.0,-564.0,-21.0,588.0,-559.0,42.0
19:42:01.342000,632.0,353.0,382.0,-883.0,-543.0,-28.0,588.0,-559.0,42.0
19:42:01.348000,606.0,351.0,340.0,-854.0,-536.0,-35.0,585.0,-559.0,36.0
19:42:01.352000,581.0,348.0,324.0,-822.0,-549.0,-39.0,585.0,-559.0,36.0
19:42:01.357000,557.0,347.0,331.0,-795.0,-563.0,-41.0,601.0,-574.0,49.0
19:42:01.362000,536.0,350.0,338.0,-777.0,-578.0,-41.0,601.0,-574.0,49.0
19:42:01.366000,512.0,352.0,322.0,-767.0,-590.0,-47.0,601.0,-574.0,49.0
19:42:01.371000,496.0,357.0,290.0,-773.0,-587.0,-55.0,595.0,-580.0,49.0
19:42:01.376000,480.0,359.0,244.0,-773.0,-587.0,-55.0,595.0,-580.0,49.0
19:42:01.381000,462.0,368.0,180.0,-804.0,-575.0,-61.0,594.0,-588.0,49.0
19:42:01.385000,441.0,373.0,99.0,-834.0,-553.0,-66.0,594.0,-588.0,49.0
19:42:01.389000,413.0,373.0,11.0,-855.0,-526.0,-64.0,594.0,-588.0,49.0
19:42:01.395000,385.0,376.0,-69.0,-865.0,-509.0,-68.0,601.0,-565.0,48.0
19:42:01.399000,353.0,375.0,-137.0,-863.0,-503.0,-74.0,601.0,-565.0,48.0
19:42:01.404000,318.0,373.0,-186.0,-847.0,-494.0,-78.0,594.0,-582.0,55.0
19:42:01.409000,282.0,370.0,-225.0,-832.0,-477.0,-87.0,594.0,-582.0,55.0
19:42:01.413000,282.0,370.0,-225.0,-835.0,-466.0,-95.0,594.0,-582.0,55.0
19:42:01.418000,207.0,353.0,-289.0,-821.0,-458.0,-95.0,600.0,-580.0,72.0
19:42:01.423000,207.0,353.0,-289.0,-798.0,-433.0,-99.0,600.0,-580.0,72.0
19:42:01.428000,171.0,337.0,-315.0,-772.0,-397.0,-107.0,606.0,-586.0,72.0
19:42:01.432000,127.0,326.0,-323.0,-746.0,-357.0,-111.0,606.0,-586.0,72.0
19:42:01.436000,76.0,315.0,-326.0,-737.0,-319.0,-116.0,606.0,-586.0,72.0
