hh:mm:ss.ms,gyroX[mdps],gyroY[mdps],gyroZ[mdps],accX[mg],accY[mg],accZ[mg],magX[mG],magY[mG],magZ[mG]
19:41:33.323000,-1485.0,-970.0,-1502.0,-1011.0,471.0,-1164.0,288.0,-585.0,468.0
19:41:33.328000,-1513.0,-1032.0,-1371.0,-935.0,377.0,-1169.0,289.0,-597.0,453.0
19:41:33.333000,-1515.0,-1064.0,-1246.0,-959.0,427.0,-1179.0,289.0,-597.0,453.0
19:41:33.337000,-1527.0,-1103.0,-1233.0,-965.0,407.0,-1229.0,298.0,-600.0,438.0
19:41:33.342000,-1437.0,-1057.0,-1231.0,-971.0,418.0,-1280.0,298.0,-600.0,438.0
19:41:33.346000,-1320.0,-1075.0,-1380.0,-968.0,527.0,-1206.0,298.0,-600.0,438.0
19:41:33.351000,-1261.0,-1118.0,-1439.0,-876.0,442.0,-1147.0,322.0,-604.0,427.0
19:41:33.356000,-1243.0,-1157.0,-1321.0,-871.0,344.0,-1134.0,322.0,-604.0,427.0
19:41:33.361000,-1192.0,-1177.0,-1221.0,-873.0,210.0,-1109.0,330.0,-616.0,429.0
19:41:33.366000,-1173.0,-1219.0,-1143.0,-790.0,126.0,-1073.0,330.0,-616.0,429.0
19:41:33.370000,-1184.0,-1241.0,-1103.0,-775.0,111.0,-1037.0,330.0,-616.0,429.0
19:41:33.375000,-1199.0,-1238.0,-1101.0,-660.0,31.0,-1001.0,346.0,-621.0,420.0
19:41:33.380000,-1210.0,-1232.0,-937.0,-444.0,-99.0,-914.0,346.0,-621.0,420.0
19:41:33.384000,-1232.0,-1300.0,-752.0,-444.0,-99.0,-914.0,348.0,-628.0,420.0
19:41:33.389000,-1220.0,-1327.0,-686.0,-175.0,-380.0,-853.0,348.0,-628.0,420.0
19:41:33.393000,-1180.0,-1307.0,-825.0,-175.0,-380.0,-853.0,348.0,-628.0,420.0
19:41:33.398000,-1132.0,-1315.0,-854.0,-167.0,-533.0,-797.0,363.0,-621.0,415.0
19:41:33.403000,-1101.0,-1313.0,-769.0,-51.0,-671.0,-750.0,363.0,-621.0,415.0
19:41:33.408000,-1113.0,-1311.0,-801.0,74.0,-768.0,-695.0,366.0,-631.0,393.0
19:41:33.413000,-1078.0,-1305.0,-867.0,6.0,-879.0,-675.0,366.0,-631.0,393.0
19:41:33.417000,-1078.0,-1305.0,-867.0,-1.0,-899.0,-735.0,366.0,-631.0,393.0
19:41:33.422000,-996.0,-1246.0,-991.0,94.0,-859.0,-727.0,391.0,-633.0,385.0
19:41:33.427000,-1015.0,-1200.0,-1087.0,-101.0,-916.0,-726.0,391.0,-633.0,385.0
19:41:33.431000,-1015.0,-1200.0,-1087.0,-313.0,-868.0,-774.0,391.0,-639.0,375.0
19:41:33.436000,-1061.0,-1186.0,-1155.0,-275.0,-736.0,-778.0,391.0,-639.0,375.0
19:41:33.440000,-1043.0,-1211.0,-1248.0,-318.0,-742.0,-833.0,391.0,-639.0,375.0
19:41:33.445000,-1068.0,-1148.0,-1397.0,-354.0,-736.0,-933.0,399.0,-645.0,366.0
19:41:33.450000,-1120.0,-1072.0,-1292.0,-335.0,-666.0,-923.0,399.0,-645.0,366.0
19:41:33.455000,-1169.0,-1054.0,-1184.0,-447.0,-683.0,-914.0,418.0,-639.0,358.0
19:41:33.460000,-1198.0,-1061.0,-1222.0,-447.0,-667.0,-993.0,418.0,-639.0,358.0
19:41:33.464000,-1205.0,-1038.0,-1374.0,-275.0,-565.0,-1029.0,418.0,-639.0,358.0
19:41:33.469000,-1185.0,-1003.0,-1527.0,-264.0,-637.0,-990.0,421.0,-643.0,346.0
19:41:33.474000,-1117.0,-1069.0,-1451.0,-343.0,-678.0,-1013.0,421.0,-643.0,346.0
19:41:33.478000,-1112.0,-1080.0,-1313.0,-343.0,-678.0,-1013.0,424.0,-634.0,343.0
19:41:33.483000,-1093.0,-1088.0,-1358.0,-432.0,-492.0,-1025.0,424.0,-634.0,343.0
19:41:33.487000,-1022.0,-1081.0,-1502.0,-349.0,-626.0,-1079.0,424.0,-634.0,343.0
19:41:33.492000,-910.0,-1092.0,-1540.0,-349.0,-626.0,-1079.0,460.0,-645.0,331.0
19:41:33.497000,-811.0,-1138.0,-1428.0,-216.0,-733.0,-1041.0,460.0,-645.0,331.0
19:41:33.502000,-756.0,-1201.0,-1283.0,-212.0,-866.0,-1009.0,454.0,-634.0,313.0
19:41:33.507000,-707.0,-1244.0,-1254.0,-232.0,-898.0,-1000.0,454.0,-634.0,313.0
19:41:33.511000,-602.0,-1243.0,-1306.0,-266.0,-797.0,-1026.0,454.0,-634.0,313.0
19:41:33.516000,-487.0,-1278.0,-1358.0,-266.0,-797.0,-1023.0,463.0,-634.0,316.0
19:41:33.521000,-425.0,-1286.0,-1313.0,-275.0,-855.0,-991.0,463.0,-634.0,316.0
19:41:33.525000,-434.0,-1276.0,-1173.0,-259.0,-846.0,-964.0,480.0,-624.0,316.0
19:41:33.530000,-490.0,-1276.0,-1104.0,-237.0,-802.0,-908.0,480.0,-624.0,316.0
19:41:33.534000,-490.0,-1276.0,-1104.0,-333.0,-698.0,-908.0,480.0,-624.0,316.0
19:41:33.539000,-509.0,-1261.0,-1119.0,-562.0,-517.0,-907.0,483.0,-619.0,297.0
19:41:33.544000,-492.0,-1264.0,-1129.0,-624.0,-473.0,-900.0,483.0,-619.0,297.0
19:41:33.549000,-436.0,-1269.0,-1278.0,-441.0,-627.0,-892.0,492.0,-612.0,282.0
19:41:33.554000,-438.0,-1247.0,-1268.0,-358.0,-702.0,-841.0,492.0,-612.0,282.0
19:41:33.558000,-460.0,-1233.0,-1203.0,-510.0,-584.0,-816.0,492.0,-612.0,282.0
19:41:33.563000,-426.0,-1228.0,-1266.0,-612.0,-579.0,-800.0,507.0,-615.0,283.0
19:41:33.568000,-416.0,-1220.0,-1267.0,-562.0,-655.0,-777.0,507.0,-615.0,283.0
19:41:33.572000,-420.0,-1190.0,-1155.0,-541.0,-678.0,-767.0,510.0,-609.0,271.0
19:41:33.577000,-369.0,-1186.0,-1130.0,-587.0,-638.0,-756.0,510.0,-609.0,271.0
19:41:33.581000,-308.0,-1165.0,-1266.0,-570.0,-524.0,-730.0,510.0,-609.0,271.0
19:41:33.586000,-311.0,-1136.0,-1332.0,-541.0,-425.0,-701.0,525.0,-615.0,268.0
19:41:33.591000,-294.0,-1127.0,-1406.0,-598.0,-418.0,-664.0,525.0,-615.0,268.0
19:41:33.595000,-280.0,-1157.0,-1395.0,-680.0,-476.0,-644.0,525.0,-591.0,261.0
19:41:33.601000,-270.0,-1146.0,-1299.0,-680.0,-513.0,-675.0,525.0,-591.0,261.0
19:41:33.605000,-242.0,-1126.0,-1273.0,-730.0,-513.0,-659.0,538.0,-589.0,244.0
19:41:33.610000,-198.0,-1123.0,-1312.0,-713.0,-486.0,-653.0,538.0,-589.0,244.0
19:41:33.614000,-261.0,-1115.0,-1314.0,-730.0,-461.0,-587.0,538.0,-589.0,244.0
19:41:33.619000,-319.0,-1088.0,-1236.0,-752.0,-422.0,-544.0,534.0,-588.0,244.0
19:41:33.624000,-332.0,-1075.0,-1279.0,-811.0,-342.0,-563.0,534.0,-588.0,244.0
19:41:33.629000,-319.0,-1056.0,-1247.0,-812.0,-284.0,-564.0,547.0,-579.0,231.0
19:41:33.633000,-329.0,-1029.0,-1116.0,-745.0,-335.0,-546.0,547.0,-579.0,231.0
19:41:33.638000,-329.0,-1029.0,-1116.0,-784.0,-423.0,-519.0,547.0,-579.0,231.0
19:41:33.643000,-310.0,-1005.0,-1008.0,-842.0,-443.0,-505.0,547.0,-573.0,234.0
19:41:33.648000,-310.0,-1005.0,-1008.0,-839.0,-389.0,-499.0,547.0,-573.0,234.0
19:41:33.652000,-298.0,-994.0,-1017.0,-809.0,-273.0,-492.0,558.0,-568.0,219.0
19:41:33.657000,-268.0,-987.0,-1072.0,-764.0,-212.0,-491.0,558.0,-568.0,219.0
19:41:33.661000,-239.0,-968.0,-1117.0,-716.0,-254.0,-484.0,558.0,-568.0,219.0
19:41:33.666000,-226.0,-938.0,-1103.0,-735.0,-325.0,-472.0,565.0,-559.0,210.0
19:41:33.671000,-214.0,-912.0,-1046.0,-841.0,-339.0,-475.0,565.0,-559.0,210.0
19:41:33.675000,-190.0,-889.0,-1053.0,-920.0,-333.0,-486.0,562.0,-552.0,201.0
19:41:33.680000,-174.0,-858.0,-1051.0,-901.0,-350.0,-492.0,562.0,-552.0,201.0
19:41:33.685000,-142.0,-840.0,-961.0,-880.0,-357.0,-497.0,562.0,-552.0,201.0
19:41:33.690000,-126.0,-800.0,-850.0,-927.0,-306.0,-507.0,574.0,-552.0,196.0
19:41:33.695000,-119.0,-744.0,-850.0,-986.0,-227.0,-512.0,574.0,-552.0,196.0
19:41:33.699000,-77.0,-713.0,-884.0,-986.0,-227.0,-512.0,577.0,-540.0,195.0
19:41:33.704000,-63.0,-686.0,-793.0,-836.0,-227.0,-502.0,577.0,-540.0,195.0
19:41:33.708000,-114.0,-644.0,-642.0,-795.0,-199.0,-498.0,577.0,-540.0,195.0
19:41:33.713000,-147.0,-611.0,-574.0,-795.0,-199.0,-498.0,580.0,-538.0,180.0
19:41:33.718000,-143.0,-578.0,-577.0,-884.0,-190.0,-528.0,580.0,-538.0,180.0
19:41:33.723000,-144.0,-548.0,-557.0,-884.0,-190.0,-528.0,579.0,-538.0,186.0
19:41:33.727000,-150.0,-525.0,-539.0,-867.0,-182.0,-532.0,579.0,-538.0,186.0
19:41:33.732000,-152.0,-516.0,-511.0,-810.0,-141.0,-533.0,579.0,-538.0,186.0
19:41:33.737000,-146.0,-505.0,-484.0,-756.0,-151.0,-546.0,586.0,-532.0,183.0
19:41:33.742000,-127.0,-510.0,-434.0,-740.0,-180.0,-560.0,586.0,-532.0,183.0
19:41:33.746000,-98.0,-514.0,-336.0,-758.0,-213.0,-573.0,592.0,-526.0,187.0
19:41:33.751000,-102.0,-508.0,-329.0,-800.0,-207.0,-588.0,592.0,-526.0,187.0
19:41:33.755000,-102.0,-508.0,-329.0,-815.0,-171.0,-593.0,592.0,-526.0,187.0
19:41:33.760000,-93.0,-508.0,-318.0,-794.0,-202.0,-590.0,586.0,-528.0,171.0
19:41:33.765000,-61.0,-525.0,-211.0,-803.0,-246.0,-591.0,586.0,-528.0,171.0
19:41:33.770000,-60.0,-521.0,-156.0,-843.0,-239.0,-595.0,577.0,-517.0,177.0
19:41:33.774000,-40.0,-521.0,-189.0,-846.0,-217.0,-597.0,577.0,-517.0,177.0
19:41:33.779000,-24.0,-515.0,-218.0,-792.0,-210.0,-597.0,577.0,-517.0,177.0
19:41:33.784000,-27.0,-514.0,-144.0,-736.0,-185.0,-585.0,585.0,-525.0,174.0
19:41:33.789000,-31.0,-525.0,-54.0,-734.0,-148.0,-572.0,585.0,-525.0,174.0
19:41:33.793000,-40.0,-527.0,-38.0,-788.0,-132.0,-570.0,597.0,-520.0,165.0
19:41:33.798000,-51.0,-515.0,-122.0,-826.0,-160.0,-568.0,597.0,-520.0,165.0
19:41:33.802000,-22.0,-525.0,-172.0,-804.0,-223.0,-555.0,597.0,-520.0,165.0
19:41:33.807000,-11.0,-536.0,-128.0,-778.0,-244.0,-542.0,597.0,-525.0,172.0
19:41:33.812000,-28.0,-537.0,-81.0,-786.0,-191.0,-536.0,597.0,-525.0,172.0
19:41:33.817000,-18.0,-554.0,-63.0,-786.0,-191.0,-536.0,586.0,-523.0,160.0
19:41:33.821000,-35.0,-561.0,-16.0,-778.0,-157.0,-527.0,586.0,-523.0,160.0
19:41:33.826000,-51.0,-563.0,5.0,-773.0,-158.0,-517.0,586.0,-523.0,160.0
19:41:33.831000,-61.0,-555.0,-75.0,-829.0,-133.0,-511.0,586.0,-523.0,160.0
19:41:33.836000,-62.0,-560.0,-78.0,-872.0,-161.0,-501.0,586.0,-523.0,160.0
19:41:33.840000,-71.0,-572.0,44.0,-835.0,-234.0,-482.0,589.0,-526.0,153.0
19:41:33.845000,-95.0,-562.0,77.0,-811.0,-231.0,-470.0,589.0,-526.0,153.0
19:41:33.849000,-99.0,-557.0,-27.0,-851.0,-153.0,-465.0,589.0,-526.0,153.0
19:41:33.854000,-114.0,-543.0,-78.0,-869.0,-118.0,-454.0,595.0,-525.0,154.0
19:41:33.859000,-136.0,-534.0,-54.0,-844.0,-135.0,-436.0,595.0,-525.0,154.0
19:41:33.864000,-140.0,-536.0,-35.0,-833.0,-137.0,-417.0,583.0,-522.0,154.0
19:41:33.868000,-140.0,-536.0,-35.0,-829.0,-124.0,-403.0,583.0,-522.0,154.0
19:41:33.873000,-158.0,-534.0,-27.0,-807.0,-110.0,-388.0,583.0,-522.0,154.0
19:41:33.878000,-187.0,-527.0,4.0,-812.0,-96.0,-375.0,595.0,-525.0,138.0
19:41:33.883000,-200.0,-531.0,40.0,-856.0,-72.0,-363.0,595.0,-525.0,138.0
19:41:33.887000,-234.0,-520.0,23.0,-893.0,-43.0,-349.0,588.0,-522.0,126.0
19:41:33.892000,-252.0,-513.0,-18.0,-887.0,-43.0,-333.0,588.0,-522.0,126.0
19:41:33.896000,-259.0,-515.0,2.0,-861.0,-80.0,-307.0,588.0,-522.0,126.0
19:41:33.901000,-288.0,-529.0,54.0,-865.0,-76.0,-287.0,580.0,-531.0,142.0
19:41:33.906000,-324.0,-527.0,55.0,-865.0,-41.0,-275.0,580.0,-531.0,142.0
19:41:33.911000,-358.0,-530.0,38.0,-852.0,-36.0,-261.0,589.0,-520.0,130.0
19:41:33.915000,-392.0,-528.0,46.0,-856.0,-65.0,-258.0,589.0,-520.0,130.0
19:41:33.920000,-415.0,-520.0,70.0,-885.0,-76.0,-249.0,589.0,-520.0,130.0
19:41:33.925000,-429.0,-518.0,87.0,-903.0,-78.0,-233.0,595.0,-520.0,121.0
19:41:33.930000,-443.0,-514.0,113.0,-903.0,-78.0,-233.0,595.0,-520.0,121.0
19:41:33.934000,-468.0,-502.0,84.0,-939.0,-27.0,-207.0,591.0,-519.0,126.0
19:41:33.939000,-504.0,-485.0,32.0,-939.0,-27.0,-207.0,591.0,-519.0,126.0
19:41:33.944000,-536.0,-468.0,51.0,-942.0,-40.0,-194.0,603.0,-526.0,112.0
19:41:33.948000,-555.0,-450.0,70.0,-955.0,-73.0,-186.0,603.0,-526.0,112.0
19:41:33.952000,-577.0,-432.0,51.0,-998.0,-91.0,-180.0,603.0,-526.0,112.0
19:41:33.958000,-579.0,-427.0,45.0,-1008.0,-116.0,-176.0,588.0,-520.0,112.0
19:41:33.962000,-594.0,-407.0,60.0,-961.0,-157.0,-171.0,588.0,-520.0,112.0
19:41:33.967000,-592.0,-398.0,54.0,-942.0,-175.0,-172.0,597.0,-517.0,102.0
19:41:33.972000,-592.0,-387.0,30.0,-968.0,-158.0,-173.0,597.0,-517.0,102.0
19:41:33.976000,-592.0,-387.0,30.0,-967.0,-147.0,-170.0,597.0,-517.0,102.0
19:41:33.981000,-602.0,-377.0,32.0,-954.0,-147.0,-165.0,588.0,-525.0,97.0
19:41:33.986000,-611.0,-375.0,46.0,-970.0,-127.0,-167.0,588.0,-525.0,97.0
19:41:33.991000,-624.0,-358.0,25.0,-1006.0,-115.0,-164.0,582.0,-528.0,96.0
19:41:33.995000,-639.0,-356.0,40.0,-1018.0,-148.0,-150.0,582.0,-528.0,96.0
19:41:33.999000,-669.0,-365.0,99.0,-1027.0,-152.0,-150.0,582.0,-528.0,96.0
19:41:34.005000,-711.0,-361.0,80.0,-1027.0,-95.0,-149.0,585.0,-516.0,90.0
19:41:34.009000,-713.0,-382.0,31.0,-993.0,-61.0,-142.0,585.0,-516.0,90.0
19:41:34.014000,-753.0,-375.0,-6.0,-946.0,-63.0,-132.0,589.0,-517.0,99.0
19:41:34.019000,-794.0,-379.0,24.0,-937.0,-49.0,-118.0,589.0,-517.0,99.0
19:41:34.023000,-835.0,-393.0,48.0,-975.0,-24.0,-109.0,589.0,-517.0,99.0
19:41:34.028000,-896.0,-389.0,32.0,-1012.0,-24.0,-104.0,582.0,-517.0,102.0
19:41:34.033000,-942.0,-403.0,32.0,-1040.0,-19.0,-89.0,582.0,-517.0,102.0
19:41:34.038000,-1021.0,-417.0,-3.0,-1040.0,-19.0,-89.0,595.0,-516.0,76.0
19:41:34.042000,-1074.0,-457.0,-32.0,-1026.0,34.0,-67.0,595.0,-516.0,76.0
19:41:34.046000,-1149.0,-476.0,-61.0,-974.0,79.0,-58.0,595.0,-516.0,76.0
19:41:34.052000,-1233.0,-496.0,-25.0,-944.0,66.0,-46.0,591.0,-508.0,79.0
19:41:34.056000,-1331.0,-508.0,22.0,-960.0,36.0,-32.0,591.0,-508.0,79.0
19:41:34.061000,-1411.0,-532.0,18.0,-1019.0,42.0,-26.0,589.0,-504.0,67.0
19:41:34.066000,-1509.0,-567.0,0.0,-1060.0,50.0,-5.0,589.0,-504.0,67.0
19:41:34.073000,-1609.0,-606.0,-67.0,-1005.0,99.0,35.0,598.0,-502.0,64.0
19:41:34.075000,-1698.0,-641.0,-69.0,-1005.0,99.0,35.0,598.0,-502.0,64.0
19:41:34.079000,-1698.0,-641.0,-69.0,-931.0,37.0,49.0,598.0,-502.0,64.0
19:41:34.085000,-1936.0,-670.0,-30.0,-948.0,45.0,76.0,580.0,-495.0,54.0
19:41:34.089000,-1936.0,-715.0,-30.0,-1006.0,140.0,106.0,580.0,-495.0,54.0
19:41:34.094000,-2044.0,-772.0,-132.0,-986.0,136.0,122.0,585.0,-502.0,55.0
19:41:34.099000,-2165.0,-808.0,-114.0,-953.0,77.0,142.0,585.0,-502.0,55.0
19:41:34.103000,-2293.0,-851.0,-79.0,-978.0,114.0,176.0,585.0,-502.0,55.0
19:41:34.108000,-2412.0,-914.0,-149.0,-970.0,135.0,208.0,577.0,-481.0,42.0
19:41:34.113000,-2541.0,-970.0,-191.0,-936.0,83.0,242.0,577.0,-481.0,42.0
19:41:34.118000,-2665.0,-1032.0,-187.0,-928.0,69.0,279.0,567.0,-469.0,28.0
19:41:34.122000,-2805.0,-1088.0,-202.0,-897.0,86.0,315.0,567.0,-469.0,28.0
19:41:34.126000,-2942.0,-1151.0,-219.0,-867.0,70.0,356.0,567.0,-469.0,28.0
19:41:34.132000,-3067.0,-1224.0,-239.0,-860.0,29.0,397.0,580.0,-457.0,10.0
19:41:34.136000,-3173.0,-1316.0,-294.0,-874.0,42.0,421.0,580.0,-457.0,10.0
19:41:34.141000,-3252.0,-1384.0,-427.0,-874.0,42.0,421.0,570.0,-451.0,1.0
19:41:34.146000,-3364.0,-1434.0,-462.0,-860.0,-50.0,490.0,570.0,-451.0,1.0
19:41:34.150000,-3454.0,-1525.0,-420.0,-860.0,-50.0,490.0,570.0,-451.0,1.0
19:41:34.155000,-3584.0,-1579.0,-487.0,-868.0,-12.0,536.0,565.0,-444.0,-7.0
19:41:34.160000,-3690.0,-1638.0,-575.0,-834.0,-5.0,626.0,565.0,-444.0,-7.0
19:41:34.165000,-3770.0,-1703.0,-612.0,-834.0,-5.0,626.0,559.0,-427.0,-15.0
19:41:34.169000,-3864.0,-1757.0,-635.0,-870.0,-70.0,671.0,559.0,-427.0,-15.0
19:41:34.173000,-3923.0,-1806.0,-728.0,-898.0,-55.0,704.0,559.0,-427.0,-15.0
19:41:34.179000,-3985.0,-1855.0,-802.0,-880.0,-44.0,739.0,553.0,-388.0,-27.0
19:41:34.183000,-4041.0,-1887.0,-889.0,-849.0,-48.0,775.0,553.0,-388.0,-27.0
19:41:34.188000,-4096.0,-1908.0,-1034.0,-850.0,18.0,805.0,543.0,-370.0,-39.0
19:41:34.193000,-4125.0,-1947.0,-1113.0,-855.0,35.0,849.0,543.0,-370.0,-39.0
19:41:34.197000,-4125.0,-1947.0,-1113.0,-868.0,7.0,885.0,543.0,-370.0,-39.0
19:41:34.202000,-4181.0,-1960.0,-1157.0,-935.0,22.0,907.0,532.0,-339.0,-40.0
19:41:34.207000,-4195.0,-1985.0,-1214.0,-1007.0,31.0,925.0,532.0,-339.0,-40.0
19:41:34.212000,-4202.0,-2009.0,-1277.0,-1040.0,-4.0,940.0,520.0,-327.0,-49.0
19:41:34.216000,-4220.0,-2022.0,-1299.0,-1026.0,7.0,964.0,520.0,-327.0,-49.0
19:41:34.220000,-4223.0,-2062.0,-1330.0,-972.0,59.0,979.0,520.0,-327.0,-49.0
19:41:34.226000,-4219.0,-2073.0,-1381.0,-940.0,81.0,986.0,508.0,-294.0,-43.0
19:41:34.230000,-4211.0,-2082.0,-1371.0,-951.0,102.0,1011.0,508.0,-294.0,-43.0
19:41:34.235000,-4200.0,-2104.0,-1371.0,-980.0,134.0,1023.0,501.0,-268.0,-55.0
19:41:34.240000,-4185.0,-2112.0,-1439.0,-979.0,116.0,1028.0,501.0,-268.0,-55.0
19:41:34.244000,-4157.0,-2132.0,-1426.0,-935.0,78.0,1043.0,501.0,-268.0,-55.0
19:41:34.249000,-4129.0,-2163.0,-1367.0,-911.0,112.0,1045.0,477.0,-217.0,-36.0
19:41:34.254000,-4099.0,-2173.0,-1384.0,-902.0,145.0,1041.0,477.0,-217.0,-36.0
19:41:34.259000,-4041.0,-2202.0,-1391.0,-902.0,145.0,1041.0,459.0,-198.0,-37.0
19:41:34.263000,-3997.0,-2216.0,-1365.0,-882.0,129.0,1044.0,459.0,-198.0,-37.0
19:41:34.267000,-3948.0,-2227.0,-1332.0,-869.0,136.0,1044.0,459.0,-198.0,-37.0
19:41:34.273000,-3876.0,-2243.0,-1321.0,-870.0,170.0,1039.0,447.0,-175.0,-31.0
19:41:34.277000,-3822.0,-2245.0,-1290.0,-847.0,174.0,1031.0,447.0,-175.0,-31.0
19:41:34.281000,-3761.0,-2249.0,-1215.0,-788.0,179.0,1007.0,438.0,-150.0,-24.0
19:41:34.287000,-3689.0,-2240.0,-1165.0,-788.0,179.0,1007.0,438.0,-150.0,-24.0
19:41:34.291000,-3689.0,-2240.0,-1165.0,-833.0,238.0,988.0,438.0,-150.0,-24.0
19:41:34.296000,-3556.0,-2206.0,-1204.0,-861.0,282.0,981.0,418.0,-132.0,-16.0
19:41:34.301000,-3504.0,-2172.0,-1153.0,-845.0,280.0,976.0,418.0,-132.0,-16.0
19:41:34.306000,-3504.0,-2172.0,-1153.0,-821.0,260.0,968.0,396.0,-114.0,-1.0
19:41:34.310000,-3437.0,-2150.0,-1067.0,-801.0,251.0,957.0,396.0,-114.0,-1.0
19:41:34.314000,-3383.0,-2116.0,-998.0,-787.0,276.0,938.0,396.0,-114.0,-1.0
19:41:34.320000,-3331.0,-2078.0,-954.0,-770.0,315.0,915.0,384.0,-91.0,27.0
19:41:34.324000,-3281.0,-2026.0,-896.0,-776.0,353.0,891.0,384.0,-91.0,27.0
19:41:34.328000,-3234.0,-1971.0,-866.0,-797.0,375.0,876.0,352.0,-69.0,55.0
19:41:34.334000,-3189.0,-1920.0,-834.0,-795.0,367.0,856.0,352.0,-69.0,55.0
19:41:34.338000,-3138.0,-1874.0,-784.0,-801.0,370.0,825.0,357.0,-58.0,51.0
19:41:34.343000,-3087.0,-1811.0,-742.0,-808.0,391.0,792.0,357.0,-58.0,51.0
19:41:34.347000,-3040.0,-1745.0,-693.0,-803.0,409.0,765.0,357.0,-58.0,51.0
19:41:34.353000,-2992.0,-1682.0,-639.0,-801.0,428.0,739.0,349.0,-45.0,64.0
19:41:34.357000,-2940.0,-1626.0,-595.0,-800.0,442.0,720.0,349.0,-45.0,64.0
19:41:34.362000,-2885.0,-1581.0,-568.0,-800.0,442.0,720.0,336.0,-40.0,79.0
19:41:34.367000,-2822.0,-1536.0,-552.0,-745.0,422.0,671.0,336.0,-40.0,79.0
19:41:34.371000,-2746.0,-1493.0,-549.0,-745.0,422.0,671.0,336.0,-40.0,79.0
19:41:34.376000,-2664.0,-1455.0,-559.0,-719.0,412.0,644.0,342.0,-27.0,115.0
19:41:34.381000,-2583.0,-1414.0,-531.0,-691.0,397.0,612.0,342.0,-27.0,115.0
19:41:34.385000,-2507.0,-1379.0,-497.0,-669.0,380.0,581.0,324.0,-24.0,114.0
19:41:34.390000,-2429.0,-1350.0,-483.0,-675.0,398.0,550.0,324.0,-24.0,114.0
19:41:34.394000,-2349.0,-1318.0,-485.0,-682.0,442.0,512.0,324.0,-24.0,114.0
19:41:34.400000,-2282.0,-1285.0,-488.0,-685.0,486.0,478.0,310.0,-19.0,138.0
19:41:34.404000,-2221.0,-1255.0,-490.0,-686.0,524.0,454.0,310.0,-19.0,138.0
19:41:34.409000,-2165.0,-1229.0,-475.0,-682.0,550.0,432.0,319.0,0.0,148.0
19:41:34.414000,-2165.0,-1229.0,-475.0,-673.0,554.0,413.0,319.0,0.0,148.0
19:41:34.418000,-2111.0,-1201.0,-450.0,-670.0,554.0,395.0,319.0,0.0,148.0
19:41:34.423000,-2058.0,-1177.0,-433.0,-667.0,561.0,378.0,303.0,1.0,166.0
19:41:34.428000,-2006.0,-1151.0,-426.0,-658.0,577.0,361.0,303.0,1.0,166.0
19:41:34.432000,-1956.0,-1122.0,-428.0,-648.0,588.0,351.0,304.0,3.0,166.0
19:41:34.437000,-1914.0,-1100.0,-424.0,-629.0,584.0,342.0,304.0,3.0,166.0
19:41:34.441000,-1870.0,-1079.0,-413.0,-606.0,570.0,325.0,304.0,3.0,166.0
19:41:34.447000,-1820.0,-1056.0,-409.0,-586.0,559.0,308.0,298.0,0.0,183.0
19:41:34.451000,-1768.0,-1033.0,-414.0,-570.0,552.0,294.0,298.0,0.0,183.0
19:41:34.455000,-1714.0,-1010.0,-419.0,-561.0,549.0,278.0,292.0,1.0,192.0
19:41:34.461000,-1660.0,-984.0,-420.0,-561.0,551.0,259.0,292.0,1.0,192.0
19:41:34.465000,-1607.0,-958.0,-417.0,-564.0,555.0,242.0,292.0,1.0,192.0
19:41:34.470000,-1558.0,-931.0,-410.0,-564.0,558.0,234.0,292.0,6.0,220.0
19:41:34.475000,-1512.0,-912.0,-401.0,-564.0,564.0,229.0,292.0,6.0,220.0
19:41:34.479000,-1471.0,-892.0,-392.0,-559.0,564.0,229.0,279.0,7.0,231.0
19:41:34.484000,-1435.0,-867.0,-391.0,-551.0,581.0,217.0,279.0,7.0,231.0
19:41:34.488000,-1403.0,-842.0,-401.0,-544.0,609.0,207.0,279.0,7.0,231.0
19:41:34.494000,-1376.0,-813.0,-408.0,-536.0,636.0,197.0,277.0,4.0,234.0
19:41:34.498000,-1348.0,-781.0,-410.0,-533.0,660.0,184.0,277.0,4.0,234.0
19:41:34.502000,-1321.0,-749.0,-416.0,-538.0,681.0,169.0,285.0,10.0,244.0
19:41:34.508000,-1297.0,-718.0,-428.0,-550.0,693.0,157.0,285.0,10.0,244.0
19:41:34.512000,-1297.0,-718.0,-428.0,-561.0,691.0,148.0,285.0,10.0,244.0
19:41:34.517000,-1224.0,-665.0,-452.0,-566.0,679.0,139.0,288.0,7.0,250.0
19:41:34.522000,-1176.0,-641.0,-476.0,-559.0,660.0,127.0,288.0,7.0,250.0
19:41:34.526000,-1176.0,-641.0,-476.0,-538.0,636.0,114.0,271.0,9.0,265.0
19:41:34.531000,-1124.0,-621.0,-493.0,-514.0,616.0,106.0,271.0,9.0,265.0
19:41:34.535000,-1071.0,-597.0,-496.0,-494.0,609.0,101.0,271.0,9.0,265.0
19:41:34.541000,-1020.0,-575.0,-485.0,-480.0,622.0,101.0,262.0,10.0,277.0
19:41:34.545000,-975.0,-555.0,-476.0,-472.0,651.0,102.0,262.0,10.0,277.0
19:41:34.550000,-935.0,-538.0,-482.0,-464.0,684.0,102.0,253.0,12.0,279.0
19:41:34.555000,-900.0,-521.0,-499.0,-448.0,710.0,100.0,253.0,12.0,279.0
19:41:34.559000,-867.0,-502.0,-505.0,-423.0,719.0,97.0,253.0,12.0,279.0
19:41:34.563000,-839.0,-485.0,-492.0,-402.0,715.0,94.0,268.0,6.0,289.0
19:41:34.569000,-815.0,-466.0,-478.0,-394.0,705.0,91.0,268.0,6.0,289.0
19:41:34.573000,-793.0,-455.0,-471.0,-394.0,705.0,91.0,256.0,6.0,297.0
19:41:34.578000,-771.0,-445.0,-466.0,-386.0,689.0,85.0,256.0,6.0,297.0
19:41:34.582000,-746.0,-430.0,-451.0,-366.0,689.0,70.0,256.0,6.0,297.0
19:41:34.588000,-714.0,-410.0,-420.0,-366.0,689.0,70.0,255.0,6.0,301.0
19:41:34.592000,-686.0,-392.0,-397.0,-383.0,704.0,69.0,255.0,6.0,301.0
19:41:34.597000,-674.0,-374.0,-380.0,-383.0,704.0,69.0,256.0,6.0,303.0
19:41:34.602000,-660.0,-358.0,-339.0,-380.0,701.0,71.0,256.0,6.0,303.0
19:41:34.606000,-646.0,-345.0,-288.0,-368.0,704.0,74.0,256.0,6.0,303.0
19:41:34.611000,-636.0,-329.0,-259.0,-370.0,727.0,77.0,253.0,7.0,315.0
19:41:34.616000,-630.0,-319.0,-236.0,-370.0,758.0,82.0,253.0,7.0,315.0
19:41:34.620000,-637.0,-310.0,-201.0,-360.0,773.0,92.0,247.0,10.0,318.0
19:41:34.625000,-639.0,-305.0,-163.0,-351.0,771.0,98.0,247.0,10.0,318.0
19:41:34.629000,-639.0,-305.0,-163.0,-346.0,768.0,101.0,247.0,10.0,318.0
19:41:34.635000,-634.0,-301.0,-141.0,-339.0,761.0,106.0,246.0,3.0,318.0
19:41:34.639000,-627.0,-300.0,-137.0,-315.0,734.0,113.0,246.0,3.0,318.0
19:41:34.644000,-612.0,-303.0,-114.0,-278.0,690.0,122.0,249.0,9.0,334.0
19:41:34.649000,-597.0,-305.0,-70.0,-253.0,650.0,131.0,249.0,9.0,334.0
19:41:34.653000,-576.0,-310.0,-38.0,-244.0,626.0,131.0,249.0,9.0,334.0
19:41:34.658000,-539.0,-304.0,-21.0,-243.0,611.0,121.0,249.0,0.0,324.0
19:41:34.663000,-499.0,-291.0,-6.0,-253.0,599.0,112.0,249.0,0.0,324.0
19:41:34.667000,-466.0,-271.0,18.0,-286.0,602.0,105.0,255.0,10.0,339.0
19:41:34.672000,-437.0,-249.0,42.0,-341.0,622.0,101.0,255.0,10.0,339.0
19:41:34.676000,-410.0,-223.0,50.0,-387.0,658.0,101.0,255.0,10.0,339.0
19:41:34.682000,-383.0,-200.0,31.0,-394.0,681.0,105.0,258.0,-3.0,342.0
19:41:34.686000,-350.0,-182.0,-7.0,-353.0,650.0,111.0,258.0,-3.0,342.0
19:41:34.691000,-312.0,-163.0,-34.0,-353.0,650.0,111.0,243.0,-6.0,340.0
19:41:34.696000,-273.0,-148.0,-39.0,-298.0,593.0,116.0,243.0,-6.0,340.0
19:41:34.700000,-228.0,-133.0,-49.0,-273.0,568.0,116.0,243.0,-6.0,340.0
19:41:34.705000,-189.0,-119.0,-74.0,-280.0,582.0,111.0,261.0,3.0,346.0
19:41:34.710000,-151.0,-101.0,-96.0,-304.0,609.0,102.0,261.0,3.0,346.0
19:41:34.714000,-116.0,-84.0,-123.0,-334.0,639.0,89.0,249.0,-1.0,337.0
19:41:34.719000,-86.0,-70.0,-139.0,-359.0,652.0,79.0,249.0,-1.0,337.0
19:41:34.723000,-53.0,-60.0,-144.0,-363.0,645.0,71.0,249.0,-1.0,337.0
19:41:34.729000,-15.0,-54.0,-151.0,-348.0,632.0,60.0,243.0,-1.0,346.0
19:41:34.733000,22.0,-53.0,-157.0,-319.0,619.0,54.0,243.0,-1.0,346.0
19:41:34.738000,52.0,-63.0,-163.0,-285.0,629.0,58.0,252.0,0.0,343.0
19:41:34.743000,52.0,-63.0,-163.0,-249.0,672.0,68.0,252.0,0.0,343.0
19:41:34.747000,91.0,-76.0,-189.0,-208.0,698.0,80.0,252.0,0.0,343.0
19:41:34.752000,135.0,-86.0,-203.0,-181.0,658.0,85.0,247.0,-4.0,342.0
19:41:34.757000,170.0,-94.0,-152.0,-195.0,645.0,86.0,247.0,-4.0,342.0
19:41:34.761000,183.0,-100.0,-70.0,-243.0,714.0,94.0,253.0,-6.0,342.0
19:41:34.766000,186.0,-106.0,-60.0,-270.0,782.0,101.0,253.0,-6.0,342.0
19:41:34.770000,187.0,-112.0,-77.0,-251.0,805.0,109.0,253.0,-6.0,342.0
19:41:34.776000,186.0,-120.0,-75.0,-213.0,798.0,115.0,247.0,0.0,339.0
19:41:34.780000,189.0,-129.0,-65.0,-175.0,787.0,115.0,247.0,0.0,339.0
19:41:34.785000,201.0,-138.0,-67.0,-161.0,779.0,113.0,247.0,7.0,351.0
19:41:34.790000,210.0,-144.0,-103.0,-158.0,790.0,109.0,247.0,7.0,351.0
19:41:34.794000,228.0,-153.0,-152.0,-148.0,807.0,108.0,247.0,7.0,351.0
19:41:34.798000,245.0,-162.0,-184.0,-133.0,824.0,114.0,243.0,-9.0,334.0
19:41:34.804000,263.0,-173.0,-210.0,-133.0,824.0,114.0,243.0,-9.0,334.0
19:41:34.808000,280.0,-182.0,-223.0,-117.0,829.0,116.0,255.0,-1.0,333.0
19:41:34.813000,301.0,-189.0,-225.0,-105.0,812.0,109.0,255.0,-1.0,333.0
19:41:34.817000,323.0,-199.0,-240.0,-117.0,806.0,106.0,255.0,-1.0,333.0
19:41:34.822000,348.0,-210.0,-256.0,-141.0,825.0,108.0,252.0,-3.0,334.0
19:41:34.827000,374.0,-221.0,-252.0,-149.0,842.0,112.0,252.0,-3.0,334.0
19:41:34.832000,394.0,-238.0,-268.0,-150.0,861.0,122.0,234.0,-4.0,331.0
19:41:34.837000,416.0,-252.0,-281.0,-142.0,895.0,137.0,234.0,-4.0,331.0
19:41:34.841000,416.0,-252.0,-281.0,-124.0,900.0,150.0,234.0,-4.0,331.0
19:41:34.846000,455.0,-271.0,-241.0,-127.0,896.0,156.0,244.0,4.0,327.0
19:41:34.851000,455.0,-271.0,-241.0,-154.0,912.0,159.0,244.0,4.0,327.0
19:41:34.855000,474.0,-273.0,-245.0,-183.0,926.0,161.0,234.0,6.0,324.0
19:41:34.860000,498.0,-272.0,-245.0,-204.0,916.0,161.0,234.0,6.0,324.0
19:41:34.864000,517.0,-263.0,-219.0,-225.0,894.0,156.0,234.0,6.0,324.0
19:41:34.869000,542.0,-251.0,-190.0,-260.0,886.0,149.0,232.0,12.0,318.0
19:41:34.874000,575.0,-238.0,-189.0,-284.0,884.0,150.0,232.0,12.0,318.0
19:41:34.879000,609.0,-230.0,-199.0,-273.0,875.0,154.0,243.0,0.0,307.0
19:41:34.884000,651.0,-224.0,-191.0,-246.0,855.0,156.0,243.0,0.0,307.0
19:41:34.888000,698.0,-221.0,-168.0,-227.0,841.0,159.0,243.0,0.0,307.0
19:41:34.893000,751.0,-221.0,-159.0,-215.0,861.0,160.0,237.0,10.0,306.0
19:41:34.898000,805.0,-225.0,-165.0,-226.0,849.0,170.0,237.0,10.0,306.0
19:41:34.902000,821.0,-231.0,-133.0,-226.0,849.0,170.0,235.0,13.0,310.0
19:41:34.907000,870.0,-235.0,-102.0,-291.0,865.0,152.0,235.0,13.0,310.0
19:41:34.911000,910.0,-239.0,-121.0,-294.0,901.0,156.0,235.0,13.0,310.0
19:41:34.916000,946.0,-247.0,-151.0,-294.0,901.0,156.0,240.0,9.0,286.0
19:41:34.921000,983.0,-254.0,-161.0,-257.0,878.0,169.0,240.0,9.0,286.0
19:41:34.926000,1018.0,-262.0,-163.0,-257.0,878.0,169.0,231.0,10.0,304.0
19:41:34.931000,1054.0,-271.0,-170.0,-251.0,855.0,178.0,231.0,10.0,304.0
19:41:34.935000,1096.0,-284.0,-181.0,-260.0,847.0,190.0,231.0,10.0,304.0
19:41:34.940000,1141.0,-301.0,-197.0,-264.0,837.0,205.0,235.0,12.0,274.0
19:41:34.945000,1194.0,-317.0,-211.0,-245.0,805.0,217.0,235.0,12.0,274.0
19:41:34.949000,1257.0,-336.0,-219.0,-216.0,766.0,228.0,237.0,12.0,264.0
19:41:34.954000,1321.0,-350.0,-224.0,-201.0,744.0,240.0,237.0,12.0,264.0
19:41:34.958000,1321.0,-350.0,-224.0,-220.0,743.0,252.0,237.0,12.0,264.0
19:41:34.963000,1383.0,-362.0,-233.0,-256.0,758.0,267.0,232.0,12.0,264.0
19:41:34.968000,1440.0,-368.0,-248.0,-273.0,761.0,281.0,232.0,12.0,264.0
19:41:34.973000,1495.0,-366.0,-249.0,-272.0,741.0,289.0,208.0,3.0,261.0
19:41:34.978000,1550.0,-359.0,-238.0,-284.0,728.0,301.0,208.0,3.0,261.0
19:41:34.982000,1605.0,-354.0,-230.0,-309.0,723.0,316.0,208.0,3.0,261.0
19:41:34.987000,1672.0,-345.0,-232.0,-316.0,689.0,324.0,231.0,15.0,241.0
19:41:34.992000,1747.0,-338.0,-221.0,-306.0,617.0,325.0,231.0,15.0,241.0
19:41:34.996000,1836.0,-326.0,-188.0,-314.0,552.0,325.0,222.0,10.0,223.0
19:41:35.001000,1935.0,-313.0,-156.0,-340.0,520.0,331.0,222.0,10.0,223.0
19:41:35.005000,2037.0,-294.0,-148.0,-362.0,506.0,340.0,222.0,10.0,223.0
19:41:35.010000,2142.0,-270.0,-151.0,-362.0,501.0,352.0,222.0,10.0,207.0
19:41:35.015000,2240.0,-240.0,-142.0,-350.0,506.0,365.0,222.0,10.0,207.0
19:41:35.020000,2338.0,-207.0,-128.0,-350.0,506.0,365.0,223.0,15.0,195.0
19:41:35.025000,2425.0,-182.0,-130.0,-346.0,527.0,386.0,223.0,15.0,195.0
19:41:35.029000,2510.0,-158.0,-144.0,-347.0,556.0,414.0,223.0,15.0,195.0
19:41:35.033000,2590.0,-134.0,-179.0,-346.0,585.0,440.0,234.0,12.0,184.0
19:41:35.039000,2664.0,-119.0,-212.0,-340.0,599.0,475.0,234.0,12.0,184.0
19:41:35.043000,2740.0,-93.0,-215.0,-315.0,577.0,502.0,211.0,7.0,139.0
19:41:35.048000,2828.0,-76.0,-205.0,-294.0,531.0,524.0,211.0,7.0,139.0
19:41:35.052000,2909.0,-60.0,-196.0,-289.0,489.0,554.0,211.0,7.0,139.0
19:41:35.057000,2985.0,-42.0,-179.0,-297.0,467.0,585.0,210.0,6.0,121.0
19:41:35.062000,3062.0,-25.0,-156.0,-319.0,465.0,618.0,210.0,6.0,121.0
19:41:35.067000,3136.0,-8.0,-141.0,-338.0,470.0,648.0,220.0,-3.0,112.0
19:41:35.072000,3136.0,-8.0,-141.0,-353.0,462.0,673.0,220.0,-3.0,112.0
19:41:35.076000,3206.0,16.0,-109.0,-375.0,439.0,694.0,220.0,-3.0,112.0
19:41:35.081000,3268.0,47.0,-62.0,-409.0,433.0,723.0,208.0,-3.0,87.0
19:41:35.086000,3313.0,77.0,-37.0,-443.0,457.0,756.0,208.0,-3.0,87.0
19:41:35.090000,3346.0,112.0,-22.0,-469.0,490.0,793.0,217.0,-25.0,60.0
19:41:35.095000,3359.0,154.0,-14.0,-477.0,509.0,836.0,217.0,-25.0,60.0
19:41:35.099000,3353.0,196.0,-3.0,-466.0,508.0,873.0,217.0,-25.0,60.0
19:41:35.104000,3336.0,236.0,23.0,-486.0,523.0,889.0,204.0,-30.0,42.0
19:41:35.109000,3319.0,282.0,29.0,-495.0,499.0,921.0,204.0,-30.0,42.0
19:41:35.114000,3266.0,320.0,46.0,-503.0,486.0,935.0,205.0,-54.0,1.0
19:41:35.119000,3235.0,367.0,53.0,-549.0,515.0,928.0,205.0,-54.0,1.0
19:41:35.123000,3196.0,410.0,49.0,-603.0,513.0,929.0,205.0,-54.0,1.0
19:41:35.128000,3163.0,461.0,14.0,-670.0,497.0,916.0,216.0,-64.0,-16.0
19:41:35.133000,3129.0,509.0,-11.0,-670.0,497.0,916.0,216.0,-64.0,-16.0
19:41:35.137000,3103.0,553.0,-10.0,-711.0,451.0,910.0,214.0,-91.0,-34.0
19:41:35.142000,3089.0,605.0,11.0,-724.0,388.0,901.0,214.0,-91.0,-34.0
19:41:35.146000,3082.0,642.0,27.0,-735.0,307.0,906.0,214.0,-91.0,-34.0
19:41:35.151000,3092.0,688.0,-43.0,-792.0,217.0,921.0,214.0,-91.0,-57.0
19:41:35.156000,3124.0,708.0,-185.0,-1026.0,1.0,982.0,214.0,-91.0,-57.0
19:41:35.161000,3167.0,732.0,-48.0,-895.0,-81.0,1028.0,226.0,-114.0,-64.0
19:41:35.166000,3210.0,761.0,63.0,-509.0,-64.0,1061.0,226.0,-114.0,-64.0
19:41:35.170000,3210.0,761.0,63.0,-478.0,-106.0,1119.0,226.0,-114.0,-64.0
19:41:35.175000,3258.0,809.0,-81.0,-524.0,-53.0,1172.0,220.0,-132.0,-87.0
19:41:35.180000,3258.0,809.0,-81.0,-560.0,-54.0,1222.0,220.0,-132.0,-87.0
19:41:35.184000,3278.0,837.0,-158.0,-575.0,-67.0,1236.0,234.0,-165.0,-112.0
19:41:35.189000,3296.0,880.0,-179.0,-597.0,-69.0,1258.0,234.0,-165.0,-112.0
19:41:35.193000,3301.0,929.0,-216.0,-675.0,-75.0,1275.0,234.0,-165.0,-112.0
19:41:35.198000,3305.0,991.0,-270.0,-712.0,-56.0,1276.0,232.0,-180.0,-124.0
19:41:35.203000,3308.0,1052.0,-289.0,-722.0,-45.0,1278.0,232.0,-180.0,-124.0
19:41:35.208000,3313.0,1119.0,-316.0,-742.0,-30.0,1281.0,244.0,-207.0,-136.0
19:41:35.213000,3301.0,1177.0,-358.0,-758.0,-19.0,1288.0,244.0,-207.0,-136.0
19:41:35.217000,3285.0,1232.0,-397.0,-733.0,-9.0,1270.0,244.0,-207.0,-136.0
19:41:35.222000,3280.0,1303.0,-417.0,-673.0,-17.0,1247.0,252.0,-219.0,-156.0
19:41:35.227000,3278.0,1383.0,-415.0,-648.0,-68.0,1240.0,252.0,-219.0,-156.0
19:41:35.231000,3269.0,1451.0,-403.0,-648.0,-68.0,1240.0,268.0,-240.0,-157.0
19:41:35.236000,3255.0,1508.0,-361.0,-642.0,-157.0,1249.0,268.0,-240.0,-157.0
19:41:35.240000,3232.0,1566.0,-284.0,-629.0,-172.0,1253.0,268.0,-240.0,-157.0
19:41:35.245000,3213.0,1603.0,-207.0,-629.0,-172.0,1253.0,264.0,-262.0,-160.0
19:41:35.250000,3187.0,1655.0,-154.0,-624.0,-173.0,1255.0,264.0,-262.0,-160.0
19:41:35.255000,3147.0,1706.0,-106.0,-627.0,-163.0,1243.0,285.0,-307.0,-172.0
19:41:35.260000,3097.0,1731.0,-84.0,-639.0,-167.0,1253.0,285.0,-307.0,-172.0
19:41:35.264000,3048.0,1785.0,-46.0,-650.0,-176.0,1245.0,285.0,-307.0,-172.0
19:41:35.268000,3003.0,1835.0,12.0,-619.0,-175.0,1208.0,307.0,-325.0,-175.0
19:41:35.274000,2942.0,1849.0,9.0,-636.0,-202.0,1212.0,307.0,-325.0,-175.0
19:41:35.278000,2872.0,1855.0,-18.0,-663.0,-193.0,1221.0,310.0,-343.0,-180.0
19:41:35.283000,2837.0,1866.0,-38.0,-625.0,-189.0,1198.0,310.0,-343.0,-180.0
19:41:35.287000,2837.0,1866.0,-38.0,-536.0,-255.0,1201.0,310.0,-343.0,-180.0
19:41:35.292000,2786.0,1860.0,-11.0,-466.0,-297.0,1203.0,313.0,-363.0,-169.0
19:41:35.297000,2719.0,1873.0,2.0,-458.0,-327.0,1182.0,313.0,-363.0,-169.0
19:41:35.302000,2659.0,1881.0,28.0,-467.0,-349.0,1163.0,340.0,-381.0,-183.0
19:41:35.307000,2597.0,1892.0,52.0,-527.0,-391.0,1132.0,340.0,-381.0,-183.0
19:41:35.311000,2541.0,1902.0,70.0,-543.0,-456.0,1113.0,340.0,-381.0,-183.0
19:41:35.316000,2506.0,1878.0,108.0,-549.0,-508.0,1104.0,354.0,-399.0,-178.0
19:41:35.321000,2485.0,1839.0,143.0,-558.0,-588.0,1092.0,354.0,-399.0,-178.0
19:41:35.325000,2485.0,1782.0,157.0,-512.0,-660.0,1079.0,387.0,-438.0,-172.0
19:41:35.330000,2494.0,1729.0,153.0,-458.0,-663.0,1066.0,387.0,-438.0,-172.0
19:41:35.334000,2494.0,1673.0,151.0,-423.0,-596.0,1059.0,387.0,-438.0,-172.0
19:41:35.339000,2468.0,1628.0,168.0,-419.0,-477.0,1054.0,391.0,-450.0,-166.0
19:41:35.344000,2417.0,1578.0,196.0,-426.0,-369.0,1050.0,391.0,-450.0,-166.0
19:41:35.349000,2348.0,1531.0,221.0,-426.0,-369.0,1050.0,408.0,-466.0,-150.0
19:41:35.354000,2263.0,1482.0,254.0,-452.0,-303.0,1042.0,408.0,-466.0,-150.0
19:41:35.358000,2173.0,1443.0,261.0,-505.0,-242.0,1025.0,408.0,-466.0,-150.0
19:41:35.363000,2070.0,1407.0,254.0,-579.0,-192.0,1004.0,412.0,-483.0,-151.0
19:41:35.367000,1955.0,1377.0,263.0,-676.0,-225.0,979.0,412.0,-483.0,-151.0
19:41:35.372000,1848.0,1348.0,292.0,-676.0,-225.0,979.0,424.0,-492.0,-153.0
19:41:35.377000,1754.0,1331.0,308.0,-700.0,-249.0,955.0,424.0,-492.0,-153.0
19:41:35.382000,1674.0,1324.0,309.0,-698.0,-283.0,915.0,424.0,-507.0,-138.0
19:41:35.386000,1598.0,1323.0,289.0,-712.0,-294.0,883.0,424.0,-507.0,-138.0
19:41:35.391000,1598.0,1323.0,289.0,-745.0,-276.0,864.0,424.0,-507.0,-138.0
19:41:35.396000,1446.0,1317.0,316.0,-752.0,-276.0,843.0,436.0,-513.0,-136.0
19:41:35.401000,1446.0,1317.0,316.0,-750.0,-284.0,815.0,436.0,-513.0,-136.0
19:41:35.405000,1376.0,1318.0,325.0,-749.0,-293.0,791.0,454.0,-532.0,-117.0
19:41:35.410000,1313.0,1311.0,308.0,-736.0,-298.0,763.0,454.0,-532.0,-117.0
19:41:35.414000,1255.0,1309.0,280.0,-721.0,-292.0,737.0,454.0,-532.0,-117.0
19:41:35.419000,1197.0,1299.0,257.0,-702.0,-288.0,715.0,465.0,-540.0,-106.0
19:41:35.424000,1134.0,1283.0,225.0,-666.0,-281.0,688.0,465.0,-540.0,-106.0
19:41:35.429000,1068.0,1265.0,186.0,-629.0,-274.0,655.0,465.0,-547.0,-108.0
19:41:35.433000,999.0,1250.0,155.0,-609.0,-284.0,613.0,465.0,-547.0,-108.0
19:41:35.438000,937.0,1230.0,142.0,-605.0,-302.0,566.0,465.0,-547.0,-108.0
19:41:35.443000,875.0,1210.0,144.0,-616.0,-330.0,533.0,474.0,-559.0,-97.0
19:41:35.448000,821.0,1185.0,132.0,-617.0,-369.0,512.0,474.0,-559.0,-97.0
19:41:35.452000,770.0,1156.0,137.0,-617.0,-369.0,512.0,486.0,-552.0,-85.0
19:41:35.457000,715.0,1129.0,155.0,-590.0,-428.0,469.0,486.0,-552.0,-85.0
19:41:35.461000,667.0,1095.0,151.0,-590.0,-428.0,469.0,486.0,-552.0,-85.0
19:41:35.466000,622.0,1061.0,147.0,-575.0,-421.0,449.0,483.0,-562.0,-73.0
19:41:35.471000,571.0,1036.0,149.0,-568.0,-435.0,423.0,483.0,-562.0,-73.0
19:41:35.476000,537.0,1009.0,157.0,-582.0,-454.0,396.0,501.0,-579.0,-76.0
19:41:35.480000,506.0,989.0,145.0,-615.0,-468.0,369.0,501.0,-579.0,-76.0
19:41:35.485000,483.0,966.0,100.0,-658.0,-469.0,348.0,501.0,-579.0,-76.0
19:41:35.490000,457.0,942.0,49.0,-696.0,-462.0,333.0,495.0,-579.0,-66.0
19:41:35.495000,431.0,924.0,14.0,-706.0,-472.0,319.0,495.0,-579.0,-66.0
19:41:35.499000,411.0,909.0,-13.0,-700.0,-490.0,298.0,508.0,-580.0,-61.0
19:41:35.504000,391.0,896.0,-18.0,-698.0,-511.0,281.0,508.0,-580.0,-61.0
19:41:35.508000,391.0,896.0,-18.0,-706.0,-541.0,266.0,508.0,-580.0,-61.0
19:41:35.513000,361.0,893.0,-1.0,-728.0,-569.0,251.0,514.0,-583.0,-58.0
19:41:35.518000,334.0,884.0,23.0,-753.0,-587.0,239.0,514.0,-583.0,-58.0
19:41:35.523000,310.0,867.0,39.0,-760.0,-584.0,221.0,514.0,-577.0,-52.0
19:41:35.527000,297.0,847.0,9.0,-735.0,-569.0,205.0,514.0,-577.0,-52.0
19:41:35.532000,274.0,825.0,-54.0,-683.0,-586.0,189.0,514.0,-577.0,-52.0
19:41:35.537000,251.0,808.0,-87.0,-632.0,-621.0,176.0,514.0,-577.0,-48.0
19:41:35.542000,222.0,786.0,-88.0,-613.0,-646.0,158.0,514.0,-577.0,-48.0
19:41:35.546000,193.0,761.0,-98.0,-627.0,-660.0,131.0,528.0,-592.0,-19.0
19:41:35.551000,177.0,730.0,-143.0,-645.0,-660.0,109.0,528.0,-592.0,-19.0
19:41:35.555000,166.0,697.0,-211.0,-643.0,-671.0,82.0,528.0,-592.0,-19.0
19:41:35.560000,160.0,665.0,-278.0,-629.0,-703.0,56.0,538.0,-585.0,-30.0
19:41:35.565000,158.0,631.0,-320.0,-614.0,-752.0,26.0,538.0,-585.0,-30.0
19:41:35.570000,167.0,597.0,-340.0,-614.0,-752.0,26.0,543.0,-589.0,-24.0
19:41:35.574000,177.0,560.0,-359.0,-618.0,-801.0,0.0,543.0,-589.0,-24.0
19:41:35.579000,191.0,532.0,-375.0,-631.0,-839.0,-24.0,543.0,-589.0,-24.0
19:41:35.584000,207.0,494.0,-385.0,-641.0,-858.0,-47.0,550.0,-577.0,-24.0
19:41:35.589000,222.0,453.0,-403.0,-662.0,-847.0,-61.0,550.0,-577.0,-24.0
19:41:35.593000,231.0,407.0,-408.0,-666.0,-831.0,-72.0,544.0,-580.0,-22.0
19:41:35.598000,238.0,364.0,-410.0,-647.0,-823.0,-77.0,544.0,-580.0,-22.0
19:41:35.602000,238.0,364.0,-410.0,-628.0,-810.0,-82.0,544.0,-580.0,-22.0
19:41:35.607000,254.0,277.0,-484.0,-613.0,-788.0,-86.0,544.0,-579.0,-33.0
19:41:35.612000,267.0,238.0,-519.0,-597.0,-772.0,-92.0,544.0,-579.0,-33.0
19:41:35.617000,267.0,238.0,-519.0,-589.0,-778.0,-94.0,562.0,-577.0,-13.0
19:41:35.621000,279.0,199.0,-532.0,-604.0,-786.0,-95.0,562.0,-577.0,-13.0
19:41:35.626000,296.0,160.0,-532.0,-641.0,-789.0,-93.0,562.0,-577.0,-13.0
19:41:35.631000,316.0,119.0,-523.0,-676.0,-799.0,-87.0,550.0,-573.0,-4.0
19:41:35.636000,328.0,85.0,-492.0,-706.0,-802.0,-85.0,550.0,-573.0,-4.0
19:41:35.640000,340.0,56.0,-446.0,-740.0,-789.0,-82.0,546.0,-562.0,-4.0
19:41:35.645000,351.0,25.0,-415.0,-758.0,-768.0,-75.0,546.0,-562.0,-4.0
19:41:35.649000,361.0,0.0,-394.0,-763.0,-751.0,-71.0,546.0,-562.0,-4.0
19:41:35.654000,375.0,-23.0,-393.0,-770.0,-746.0,-75.0,559.0,-571.0,-12.0
19:41:35.659000,385.0,-44.0,-403.0,-768.0,-743.0,-85.0,559.0,-571.0,-12.0
19:41:35.664000,397.0,-63.0,-410.0,-762.0,-725.0,-91.0,567.0,-559.0,0.0
19:41:35.668000,400.0,-77.0,-415.0,-762.0,-679.0,-90.0,567.0,-559.0,0.0
19:41:35.673000,391.0,-91.0,-417.0,-768.0,-634.0,-83.0,567.0,-559.0,0.0
19:41:35.678000,373.0,-109.0,-403.0,-768.0,-609.0,-79.0,564.0,-568.0,-4.0
19:41:35.683000,355.0,-128.0,-381.0,-789.0,-598.0,-78.0,564.0,-568.0,-4.0
19:41:35.687000,336.0,-144.0,-374.0,-789.0,-598.0,-78.0,562.0,-574.0,-4.0
19:41:35.692000,323.0,-167.0,-367.0,-789.0,-599.0,-76.0,562.0,-574.0,-4.0
19:41:35.696000,312.0,-184.0,-349.0,-772.0,-608.0,-75.0,562.0,-574.0,-4.0
19:41:35.701000,303.0,-201.0,-328.0,-752.0,-619.0,-73.0,559.0,-573.0,-13.0
19:41:35.706000,296.0,-217.0,-306.0,-748.0,-631.0,-69.0,559.0,-573.0,-13.0
19:41:35.711000,293.0,-238.0,-286.0,-748.0,-638.0,-66.0,570.0,-565.0,-3.0
19:41:35.715000,288.0,-259.0,-283.0,-747.0,-629.0,-62.0,570.0,-565.0,-3.0
19:41:35.720000,288.0,-259.0,-283.0,-747.0,-613.0,-58.0,570.0,-565.0,-3.0
19:41:35.725000,279.0,-271.0,-286.0,-754.0,-604.0,-50.0,562.0,-562.0,-10.0
19:41:35.730000,267.0,-280.0,-282.0,-777.0,-597.0,-45.0,562.0,-562.0,-10.0
19:41:35.734000,253.0,-285.0,-273.0,-814.0,-579.0,-44.0,553.0,-567.0,-10.0
19:41:35.739000,234.0,-282.0,-276.0,-854.0,-552.0,-37.0,553.0,-567.0,-10.0
19:41:35.743000,212.0,-277.0,-284.0,-870.0,-528.0,-29.0,553.0,-567.0,-10.0
19:41:35.748000,187.0,-268.0,-280.0,-862.0,-521.0,-27.0,558.0,-565.0,-6.0
19:41:35.753000,163.0,-260.0,-280.0,-846.0,-522.0,-26.0,558.0,-565.0,-6.0
19:41:35.758000,148.0,-256.0,-295.0,-821.0,-524.0,-29.0,582.0,-568.0,-4.0
19:41:35.762000,144.0,-257.0,-303.0,-798.0,-531.0,-31.0,582.0,-568.0,-4.0
19:41:35.767000,135.0,-259.0,-282.0,-803.0,-518.0,-30.0,582.0,-568.0,-4.0
19:41:35.772000,126.0,-266.0,-262.0,-827.0,-483.0,-33.0,565.0,-556.0,-6.0
19:41:35.777000,117.0,-275.0,-249.0,-842.0,-460.0,-31.0,565.0,-556.0,-6.0
19:41:35.781000,109.0,-289.0,-228.0,-842.0,-460.0,-31.0,570.0,-558.0,-21.0
19:41:35.786000,101.0,-304.0,-195.0,-831.0,-449.0,-17.0,570.0,-558.0,-21.0
19:41:35.790000,91.0,-318.0,-150.0,-831.0,-449.0,-17.0,570.0,-558.0,-21.0
19:41:35.795000,77.0,-329.0,-97.0,-807.0,-452.0,-4.0,567.0,-570.0,-7.0
19:41:35.800000,62.0,-344.0,-63.0,-788.0,-450.0,12.0,567.0,-570.0,-7.0
19:41:35.805000,55.0,-358.0,-58.0,-771.0,-437.0,26.0,571.0,-567.0,-12.0
19:41:35.809000,50.0,-371.0,-38.0,-745.0,-446.0,38.0,571.0,-567.0,-12.0
19:41:35.814000,44.0,-381.0,6.0,-714.0,-485.0,52.0,571.0,-567.0,-12.0
19:41:35.819000,44.0,-391.0,30.0,-704.0,-511.0,61.0,564.0,-561.0,-16.0
19:41:35.824000,37.0,-389.0,30.0,-725.0,-514.0,65.0,564.0,-561.0,-16.0
19:41:35.828000,35.0,-392.0,24.0,-756.0,-501.0,71.0,567.0,-561.0,-21.0
19:41:35.833000,35.0,-392.0,11.0,-790.0,-479.0,77.0,567.0,-561.0,-21.0
19:41:35.837000,35.0,-392.0,11.0,-816.0,-476.0,82.0,567.0,-561.0,-21.0
19:41:35.842000,32.0,-392.0,0.0,-823.0,-496.0,82.0,556.0,-549.0,-16.0
19:41:35.847000,36.0,-387.0,4.0,-827.0,-521.0,79.0,556.0,-549.0,-16.0
19:41:35.852000,48.0,-390.0,10.0,-837.0,-535.0,78.0,564.0,-555.0,-24.0
19:41:35.856000,61.0,-397.0,15.0,-842.0,-539.0,73.0,564.0,-555.0,-24.0
19:41:35.864000,100.0,-421.0,32.0,-801.0,-525.0,60.0,568.0,-561.0,-24.0
19:41:35.866000,100.0,-421.0,32.0,-801.0,-525.0,60.0,568.0,-561.0,-24.0
19:41:35.870000,120.0,-433.0,43.0,-779.0,-508.0,63.0,568.0,-561.0,-24.0
19:41:35.875000,132.0,-447.0,61.0,-761.0,-497.0,66.0,552.0,-555.0,-24.0
19:41:35.880000,136.0,-459.0,77.0,-751.0,-488.0,69.0,552.0,-555.0,-24.0
19:41:35.885000,140.0,-472.0,89.0,-751.0,-488.0,69.0,550.0,-565.0,-24.0
19:41:35.889000,139.0,-480.0,91.0,-750.0,-476.0,73.0,550.0,-565.0,-24.0
19:41:35.893000,136.0,-487.0,95.0,-746.0,-482.0,77.0,550.0,-565.0,-24.0
19:41:35.899000,134.0,-489.0,95.0,-746.0,-482.0,77.0,549.0,-561.0,-34.0
19:41:35.903000,130.0,-484.0,77.0,-745.0,-482.0,71.0,549.0,-561.0,-34.0
19:41:35.908000,124.0,-476.0,45.0,-794.0,-448.0,63.0,535.0,-570.0,-22.0
19:41:35.913000,112.0,-466.0,9.0,-794.0,-448.0,63.0,535.0,-570.0,-22.0
19:41:35.917000,91.0,-460.0,-13.0,-819.0,-425.0,64.0,535.0,-570.0,-22.0
19:41:35.922000,71.0,-450.0,-29.0,-837.0,-414.0,63.0,543.0,-564.0,-34.0
19:41:35.927000,52.0,-444.0,-35.0,-845.0,-421.0,59.0,543.0,-564.0,-34.0
19:41:35.932000,38.0,-438.0,-30.0,-834.0,-446.0,50.0,540.0,-559.0,-39.0
19:41:35.936000,31.0,-431.0,-32.0,-831.0,-468.0,36.0,540.0,-559.0,-39.0
19:41:35.940000,31.0,-431.0,-32.0,-842.0,-482.0,27.0,540.0,-559.0,-39.0
19:41:35.946000,23.0,-424.0,-36.0,-835.0,-492.0,21.0,543.0,-564.0,-39.0
19:41:35.950000,14.0,-412.0,-23.0,-832.0,-497.0,11.0,543.0,-564.0,-39.0
19:41:35.955000,4.0,-401.0,-11.0,-846.0,-484.0,2.0,540.0,-568.0,-42.0
19:41:35.960000,-11.0,-392.0,-13.0,-856.0,-461.0,-7.0,540.0,-568.0,-42.0
19:41:35.964000,-31.0,-382.0,-34.0,-862.0,-441.0,-15.0,540.0,-568.0,-42.0
19:41:35.969000,-52.0,-377.0,-72.0,-843.0,-430.0,-17.0,538.0,-570.0,-46.0
19:41:35.974000,-77.0,-375.0,-113.0,-791.0,-425.0,-14.0,538.0,-570.0,-46.0
19:41:35.979000,-106.0,-380.0,-149.0,-738.0,-425.0,-17.0,532.0,-567.0,-48.0
19:41:35.983000,-133.0,-386.0,-186.0,-706.0,-424.0,-27.0,532.0,-567.0,-48.0
19:41:35.987000,-155.0,-401.0,-224.0,-700.0,-404.0,-29.0,532.0,-567.0,-48.0
19:41:35.993000,-179.0,-427.0,-273.0,-713.0,-365.0,-26.0,534.0,-562.0,-49.0
19:41:35.997000,-203.0,-462.0,-331.0,-718.0,-334.0,-23.0,534.0,-562.0,-49.0
19:41:36.002000,-221.0,-501.0,-382.0,-704.0,-330.0,-19.0,543.0,-561.0,-52.0
19:41:36.007000,-240.0,-536.0,-412.0,-704.0,-330.0,-19.0,543.0,-561.0,-52.0
19:41:36.011000,-263.0,-574.0,-420.0,-697.0,-333.0,-9.0,543.0,-561.0,-52.0
19:41:36.016000,-282.0,-616.0,-420.0,-705.0,-310.0,0.0,523.0,-550.0,-49.0
19:41:36.021000,-316.0,-646.0,-409.0,-724.0,-283.0,13.0,523.0,-550.0,-49.0
19:41:36.026000,-350.0,-667.0,-387.0,-749.0,-267.0,26.0,522.0,-562.0,-61.0
19:41:36.030000,-389.0,-680.0,-372.0,-781.0,-238.0,37.0,522.0,-562.0,-61.0
19:41:36.034000,-438.0,-685.0,-367.0,-825.0,-195.0,55.0,522.0,-562.0,-61.0
19:41:36.040000,-482.0,-689.0,-347.0,-880.0,-151.0,73.0,526.0,-562.0,-60.0
19:41:36.044000,-535.0,-695.0,-313.0,-960.0,-125.0,103.0,526.0,-562.0,-60.0
19:41:36.049000,-578.0,-697.0,-315.0,-1030.0,-109.0,125.0,526.0,-547.0,-70.0
19:41:36.054000,-578.0,-697.0,-315.0,-1082.0,-81.0,153.0,526.0,-547.0,-70.0
19:41:36.058000,-638.0,-707.0,-317.0,-1111.0,-76.0,201.0,526.0,-547.0,-70.0
19:41:36.063000,-721.0,-704.0,-246.0,-1142.0,-56.0,244.0,525.0,-535.0,-70.0
19:41:36.068000,-802.0,-718.0,-203.0,-1193.0,0.0,279.0,525.0,-535.0,-70.0
19:41:36.073000,-877.0,-720.0,-207.0,-1183.0,38.0,322.0,522.0,-534.0,-69.0
19:41:36.077000,-969.0,-726.0,-197.0,-1121.0,60.0,360.0,522.0,-534.0,-69.0
19:41:36.081000,-1075.0,-712.0,-219.0,-1072.0,79.0,386.0,522.0,-534.0,-69.0
19:41:36.087000,-1173.0,-704.0,-274.0,-1006.0,28.0,410.0,514.0,-529.0,-91.0
19:41:36.091000,-1277.0,-680.0,-280.0,-940.0,-62.0,433.0,514.0,-529.0,-91.0
19:41:36.096000,-1403.0,-648.0,-249.0,-934.0,-93.0,459.0,513.0,-525.0,-88.0
19:41:36.101000,-1533.0,-616.0,-243.0,-981.0,-66.0,481.0,513.0,-525.0,-88.0
19:41:36.105000,-1649.0,-595.0,-268.0,-1044.0,-37.0,513.0,513.0,-525.0,-88.0
19:41:36.110000,-1776.0,-577.0,-335.0,-1075.0,-76.0,537.0,507.0,-505.0,-99.0
19:41:36.115000,-1899.0,-561.0,-386.0,-1075.0,-162.0,537.0,507.0,-505.0,-99.0
19:41:36.120000,-1995.0,-543.0,-430.0,-1070.0,-162.0,537.0,504.0,-502.0,-97.0
19:41:36.124000,-2082.0,-520.0,-490.0,-1070.0,-235.0,530.0,504.0,-502.0,-97.0
19:41:36.128000,-2146.0,-506.0,-594.0,-1131.0,-220.0,526.0,504.0,-502.0,-97.0
19:41:36.134000,-2218.0,-498.0,-697.0,-1131.0,-220.0,526.0,495.0,-471.0,-100.0
19:41:36.138000,-2297.0,-506.0,-783.0,-1143.0,-176.0,546.0,495.0,-471.0,-100.0
19:41:36.143000,-2372.0,-536.0,-852.0,-1128.0,-139.0,571.0,505.0,-457.0,-109.0
19:41:36.148000,-2440.0,-576.0,-910.0,-1082.0,-141.0,594.0,505.0,-457.0,-109.0
19:41:36.152000,-2440.0,-576.0,-910.0,-999.0,-157.0,621.0,505.0,-457.0,-109.0
19:41:36.157000,-2568.0,-676.0,-961.0,-903.0,-167.0,641.0,498.0,-442.0,-124.0
19:41:36.162000,-2625.0,-734.0,-995.0,-824.0,-167.0,663.0,498.0,-442.0,-124.0
19:41:36.167000,-2625.0,-734.0,-995.0,-754.0,-155.0,684.0,492.0,-426.0,-117.0
19:41:36.171000,-2673.0,-800.0,-1035.0,-711.0,-161.0,702.0,492.0,-426.0,-117.0
19:41:36.175000,-2722.0,-865.0,-1070.0,-684.0,-166.0,716.0,492.0,-426.0,-117.0
19:41:36.181000,-2769.0,-934.0,-1099.0,-668.0,-157.0,732.0,489.0,-400.0,-109.0
19:41:36.185000,-2808.0,-1013.0,-1136.0,-668.0,-147.0,747.0,489.0,-400.0,-109.0
19:41:36.190000,-2851.0,-1081.0,-1172.0,-660.0,-108.0,766.0,493.0,-370.0,-127.0
19:41:36.195000,-2905.0,-1150.0,-1197.0,-651.0,-50.0,796.0,493.0,-370.0,-127.0
19:41:36.199000,-2965.0,-1220.0,-1212.0,-637.0,3.0,820.0,493.0,-370.0,-127.0
19:41:36.204000,-3033.0,-1278.0,-1217.0,-623.0,51.0,835.0,478.0,-328.0,-124.0
19:41:36.209000,-3101.0,-1328.0,-1231.0,-631.0,99.0,850.0,478.0,-328.0,-124.0
19:41:36.213000,-3171.0,-1373.0,-1236.0,-648.0,152.0,869.0,459.0,-310.0,-127.0
19:41:36.218000,-3244.0,-1414.0,-1211.0,-677.0,212.0,894.0,459.0,-310.0,-127.0
19:41:36.222000,-3327.0,-1447.0,-1178.0,-711.0,264.0,923.0,459.0,-310.0,-127.0
19:41:36.228000,-3409.0,-1480.0,-1143.0,-711.0,264.0,923.0,453.0,-288.0,-126.0
19:41:36.232000,-3481.0,-1507.0,-1115.0,-736.0,289.0,950.0,453.0,-288.0,-126.0
19:41:36.237000,-3544.0,-1525.0,-1089.0,-760.0,291.0,972.0,429.0,-270.0,-123.0
19:41:36.242000,-3595.0,-1537.0,-1054.0,-783.0,267.0,993.0,429.0,-270.0,-123.0
19:41:36.246000,-3647.0,-1543.0,-999.0,-805.0,225.0,1016.0,429.0,-270.0,-123.0
19:41:36.251000,-3686.0,-1535.0,-933.0,-816.0,190.0,1027.0,429.0,-243.0,-118.0
19:41:36.256000,-3707.0,-1523.0,-877.0,-829.0,164.0,1025.0,429.0,-243.0,-118.0
19:41:36.261000,-3713.0,-1507.0,-833.0,-852.0,135.0,1024.0,399.0,-223.0,-90.0
19:41:36.265000,-3703.0,-1485.0,-789.0,-868.0,122.0,1023.0,399.0,-223.0,-90.0
19:41:36.269000,-3703.0,-1485.0,-789.0,-881.0,113.0,1022.0,399.0,-223.0,-90.0
19:41:36.275000,-3681.0,-1450.0,-733.0,-895.0,71.0,1017.0,400.0,-163.0,-84.0
19:41:36.279000,-3642.0,-1406.0,-678.0,-897.0,-4.0,1008.0,400.0,-163.0,-84.0
19:41:36.284000,-3580.0,-1356.0,-625.0,-879.0,-89.0,989.0,394.0,-147.0,-82.0
19:41:36.289000,-3493.0,-1302.0,-576.0,-876.0,-142.0,963.0,394.0,-147.0,-82.0
19:41:36.296000,-3257.0,-1176.0,-534.0,-896.0,-163.0,895.0,367.0,-124.0,-57.0
19:41:36.298000,-3257.0,-1176.0,-534.0,-896.0,-163.0,895.0,367.0,-124.0,-57.0
19:41:36.302000,-3127.0,-1106.0,-523.0,-902.0,-148.0,863.0,367.0,-124.0,-57.0
19:41:36.308000,-2996.0,-1037.0,-520.0,-914.0,-102.0,839.0,370.0,-120.0,-58.0
19:41:36.312000,-2866.0,-973.0,-530.0,-900.0,-52.0,817.0,370.0,-120.0,-58.0
19:41:36.317000,-2747.0,-909.0,-532.0,-839.0,-30.0,791.0,360.0,-96.0,-34.0
19:41:36.322000,-2649.0,-830.0,-528.0,-808.0,-1.0,744.0,360.0,-96.0,-34.0
19:41:36.326000,-2555.0,-747.0,-520.0,-868.0,77.0,700.0,360.0,-96.0,-34.0
19:41:36.331000,-2481.0,-672.0,-495.0,-929.0,183.0,663.0,357.0,-85.0,-33.0
19:41:36.336000,-2426.0,-581.0,-466.0,-947.0,272.0,631.0,357.0,-85.0,-33.0
19:41:36.341000,-2367.0,-498.0,-449.0,-947.0,272.0,631.0,334.0,-79.0,-13.0
19:41:36.345000,-2326.0,-412.0,-419.0,-918.0,352.0,618.0,334.0,-79.0,-13.0
19:41:36.349000,-2306.0,-351.0,-315.0,-841.0,347.0,627.0,334.0,-79.0,-13.0
19:41:36.355000,-2244.0,-287.0,-231.0,-761.0,279.0,618.0,336.0,-63.0,13.0
19:41:36.359000,-2191.0,-235.0,-201.0,-689.0,247.0,592.0,336.0,-63.0,13.0
19:41:36.364000,-2118.0,-176.0,-179.0,-634.0,214.0,568.0,336.0,-37.0,19.0
19:41:36.369000,-2032.0,-115.0,-161.0,-614.0,192.0,536.0,336.0,-37.0,19.0
19:41:36.373000,-2032.0,-115.0,-161.0,-626.0,213.0,506.0,336.0,-37.0,19.0
19:41:36.378000,-1864.0,-10.0,-105.0,-642.0,259.0,484.0,333.0,-34.0,33.0
19:41:36.383000,-1864.0,-10.0,-105.0,-640.0,306.0,468.0,333.0,-34.0,33.0
19:41:36.388000,-1809.0,44.0,-89.0,-607.0,332.0,447.0,339.0,-24.0,55.0
19:41:36.392000,-1759.0,84.0,-70.0,-566.0,353.0,434.0,339.0,-24.0,55.0
19:41:36.396000,-1710.0,125.0,-40.0,-554.0,392.0,416.0,339.0,-24.0,55.0
19:41:36.402000,-1656.0,165.0,-26.0,-559.0,425.0,399.0,333.0,-30.0,63.0
