hh:mm:ss.ms,gyroX[mdps],gyroY[mdps],gyroZ[mdps],accX[mg],accY[mg],accZ[mg],magX[mG],magY[mG],magZ[mG]
19:44:12.996000,-84.0,0.0,-324.0,-1444.0,-39.0,-259.0,0.0,0.0,0.0
19:44:13.001000,2.0,-9.0,-518.0,-1441.0,-151.0,-289.0,0.0,0.0,0.0
19:44:13.005000,50.0,-24.0,-445.0,-1441.0,-151.0,-289.0,0.0,0.0,0.0
19:44:13.011000,56.0,9.0,-389.0,-1442.0,-259.0,-306.0,0.0,0.0,0.0
19:44:13.015000,53.0,-5.0,-373.0,-1442.0,-259.0,-306.0,0.0,0.0,0.0
19:44:13.020000,81.0,3.0,-318.0,-1402.0,-254.0,-304.0,0.0,0.0,0.0
19:44:13.025000,48.0,-25.0,-574.0,-1402.0,-254.0,-304.0,0.0,0.0,0.0
19:44:13.029000,-35.0,-35.0,-663.0,-1218.0,-268.0,-292.0,0.0,0.0,0.0
19:44:13.034000,-14.0,-49.0,-414.0,-1218.0,-268.0,-292.0,0.0,0.0,0.0
19:44:13.039000,-32.0,-66.0,-299.0,-1151.0,-362.0,-283.0,0.0,0.0,0.0
19:44:13.043000,-50.0,-82.0,-219.0,-1151.0,-362.0,-283.0,0.0,0.0,0.0
19:44:13.048000,-123.0,-109.0,-371.0,-1151.0,-362.0,-283.0,0.0,0.0,0.0
19:44:13.053000,-79.0,-147.0,-403.0,-1022.0,-525.0,-236.0,0.0,0.0,0.0
19:44:13.058000,-90.0,-165.0,-133.0,-1022.0,-525.0,-236.0,0.0,0.0,0.0
19:44:13.062000,-7.0,-204.0,52.0,-613.0,-818.0,-139.0,0.0,0.0,0.0
19:44:13.067000,33.0,-228.0,342.0,-613.0,-818.0,-139.0,0.0,0.0,0.0
19:44:13.072000,-67.0,-217.0,651.0,-421.0,-1226.0,-69.0,0.0,0.0,0.0
19:44:13.076000,-175.0,-186.0,651.0,-421.0,-1226.0,-69.0,0.0,0.0,0.0
19:44:13.081000,-150.0,-186.0,485.0,-476.0,-1206.0,-1.0,0.0,0.0,0.0
19:44:13.086000,-122.0,-198.0,352.0,-476.0,-1206.0,-1.0,0.0,0.0,0.0
19:44:13.090000,-122.0,-198.0,352.0,-369.0,-1149.0,59.0,0.0,0.0,0.0
19:44:13.095000,-151.0,-158.0,289.0,-369.0,-1149.0,59.0,0.0,0.0,0.0
19:44:13.100000,-178.0,-174.0,277.0,-343.0,-1147.0,87.0,0.0,0.0,0.0
19:44:13.105000,-151.0,-189.0,16.0,-343.0,-1147.0,87.0,0.0,0.0,0.0
19:44:13.109000,-162.0,-174.0,-270.0,-534.0,-834.0,100.0,0.0,0.0,0.0
19:44:13.114000,-171.0,-128.0,-378.0,-534.0,-834.0,100.0,0.0,0.0,0.0
19:44:13.119000,-123.0,-132.0,-597.0,-643.0,-719.0,101.0,0.0,0.0,0.0
19:44:13.123000,-44.0,-117.0,-802.0,-643.0,-719.0,101.0,0.0,0.0,0.0
19:44:13.128000,-60.0,-134.0,-811.0,-631.0,-846.0,111.0,0.0,0.0,0.0
19:44:13.133000,-140.0,-120.0,-826.0,-631.0,-846.0,111.0,0.0,0.0,0.0
19:44:13.137000,-160.0,-111.0,-855.0,-605.0,-771.0,126.0,0.0,0.0,0.0
19:44:13.142000,-91.0,-165.0,-784.0,-605.0,-771.0,126.0,0.0,0.0,0.0
19:44:13.147000,-61.0,-166.0,-623.0,-664.0,-839.0,115.0,0.0,0.0,0.0
19:44:13.152000,-54.0,-184.0,-389.0,-664.0,-839.0,115.0,0.0,0.0,0.0
19:44:13.156000,-45.0,-129.0,-222.0,-664.0,-839.0,115.0,0.0,0.0,0.0
19:44:13.161000,-15.0,-172.0,-427.0,-768.0,-861.0,98.0,0.0,0.0,0.0
19:44:13.166000,-11.0,-177.0,-485.0,-768.0,-861.0,98.0,0.0,0.0,0.0
19:44:13.170000,9.0,-166.0,-353.0,-671.0,-687.0,108.0,0.0,0.0,0.0
19:44:13.175000,49.0,-186.0,-266.0,-671.0,-687.0,108.0,0.0,0.0,0.0
19:44:13.180000,89.0,-182.0,-205.0,-631.0,-811.0,112.0,0.0,0.0,0.0
19:44:13.184000,106.0,-186.0,-17.0,-631.0,-811.0,112.0,0.0,0.0,0.0
19:44:13.189000,69.0,-166.0,-17.0,-710.0,-867.0,107.0,0.0,0.0,0.0
19:44:13.194000,76.0,-164.0,-110.0,-710.0,-867.0,107.0,0.0,0.0,0.0
19:44:13.199000,76.0,-164.0,-110.0,-683.0,-875.0,98.0,0.0,0.0,0.0
19:44:13.203000,152.0,-160.0,-71.0,-683.0,-875.0,98.0,0.0,0.0,0.0
19:44:13.208000,199.0,-170.0,18.0,-732.0,-892.0,89.0,0.0,0.0,0.0
19:44:13.213000,133.0,-107.0,147.0,-732.0,-892.0,89.0,0.0,0.0,0.0
19:44:13.217000,154.0,-109.0,102.0,-817.0,-751.0,82.0,0.0,0.0,0.0
19:44:13.222000,146.0,-95.0,-45.0,-817.0,-751.0,82.0,0.0,0.0,0.0
19:44:13.227000,214.0,-105.0,-126.0,-798.0,-739.0,54.0,0.0,0.0,0.0
19:44:13.231000,203.0,-85.0,-216.0,-798.0,-739.0,54.0,0.0,0.0,0.0
19:44:13.236000,130.0,-75.0,-257.0,-694.0,-798.0,36.0,0.0,0.0,0.0
19:44:13.240000,100.0,-30.0,-248.0,-694.0,-798.0,36.0,0.0,0.0,0.0
19:44:13.246000,75.0,-40.0,-370.0,-717.0,-738.0,31.0,0.0,0.0,0.0
19:44:13.250000,54.0,-42.0,-351.0,-717.0,-738.0,31.0,0.0,0.0,0.0
19:44:13.255000,72.0,-36.0,-254.0,-797.0,-805.0,-5.0,0.0,0.0,0.0
19:44:13.260000,53.0,-18.0,-44.0,-797.0,-805.0,-5.0,0.0,0.0,0.0
19:44:13.264000,9.0,2.0,-14.0,-797.0,-805.0,-5.0,0.0,0.0,0.0
19:44:13.269000,39.0,10.0,-357.0,-873.0,-822.0,-32.0,0.0,0.0,0.0
19:44:13.274000,4.0,19.0,-515.0,-873.0,-822.0,-32.0,0.0,0.0,0.0
19:44:13.278000,0.0,48.0,-380.0,-884.0,-722.0,-21.0,0.0,0.0,0.0
19:44:13.283000,8.0,61.0,-272.0,-884.0,-722.0,-21.0,0.0,0.0,0.0
19:44:13.288000,69.0,60.0,-324.0,-760.0,-812.0,-23.0,0.0,0.0,0.0
19:44:13.293000,14.0,56.0,-425.0,-760.0,-812.0,-23.0,0.0,0.0,0.0
19:44:13.297000,-18.0,72.0,-574.0,-748.0,-838.0,-16.0,0.0,0.0,0.0
19:44:13.302000,-44.0,70.0,-618.0,-748.0,-838.0,-16.0,0.0,0.0,0.0
19:44:13.307000,-44.0,70.0,-618.0,-815.0,-764.0,0.0,0.0,0.0,0.0
19:44:13.311000,-72.0,95.0,-574.0,-815.0,-764.0,0.0,0.0,0.0,0.0
19:44:13.316000,-41.0,67.0,-532.0,-848.0,-779.0,-6.0,0.0,0.0,0.0
19:44:13.321000,-16.0,72.0,-477.0,-848.0,-779.0,-6.0,0.0,0.0,0.0
19:44:13.325000,-18.0,67.0,-342.0,-882.0,-718.0,-9.0,0.0,0.0,0.0
19:44:13.330000,-60.0,70.0,-397.0,-882.0,-718.0,-9.0,0.0,0.0,0.0
19:44:13.335000,-123.0,84.0,-625.0,-899.0,-616.0,-7.0,0.0,0.0,0.0
19:44:13.340000,-171.0,74.0,-674.0,-899.0,-616.0,-7.0,0.0,0.0,0.0
19:44:13.344000,-172.0,100.0,-591.0,-830.0,-788.0,-21.0,0.0,0.0,0.0
19:44:13.349000,-163.0,93.0,-424.0,-830.0,-788.0,-21.0,0.0,0.0,0.0
19:44:13.354000,-140.0,76.0,-438.0,-838.0,-774.0,-24.0,0.0,0.0,0.0
19:44:13.358000,-84.0,51.0,-546.0,-838.0,-774.0,-24.0,0.0,0.0,0.0
19:44:13.363000,-112.0,44.0,-459.0,-862.0,-616.0,3.0,0.0,0.0,0.0
19:44:13.368000,-177.0,80.0,-327.0,-862.0,-616.0,3.0,0.0,0.0,0.0
19:44:13.372000,-171.0,102.0,-344.0,-862.0,-616.0,3.0,0.0,0.0,0.0
19:44:13.377000,-50.0,98.0,-530.0,-871.0,-693.0,5.0,0.0,0.0,0.0
19:44:13.382000,-87.0,87.0,-640.0,-844.0,-741.0,8.0,0.0,0.0,0.0
19:44:13.387000,-98.0,102.0,-485.0,-844.0,-741.0,8.0,0.0,0.0,0.0
19:44:13.391000,-123.0,112.0,-480.0,-844.0,-741.0,8.0,0.0,0.0,0.0
19:44:13.396000,-216.0,96.0,-498.0,-772.0,-704.0,37.0,0.0,0.0,0.0
19:44:13.401000,-229.0,100.0,-478.0,-772.0,-704.0,37.0,0.0,0.0,0.0
19:44:13.405000,-215.0,111.0,-410.0,-753.0,-578.0,32.0,0.0,0.0,0.0
19:44:13.410000,-172.0,98.0,-448.0,-753.0,-578.0,32.0,0.0,0.0,0.0
19:44:13.415000,-175.0,98.0,-627.0,-748.0,-539.0,0.0,0.0,0.0,0.0
19:44:13.419000,-175.0,109.0,-579.0,-748.0,-539.0,0.0,0.0,0.0,0.0
19:44:13.424000,-155.0,135.0,-641.0,-803.0,-614.0,-18.0,0.0,0.0,0.0
19:44:13.429000,-170.0,131.0,-625.0,-803.0,-614.0,-18.0,0.0,0.0,0.0
19:44:13.434000,-199.0,112.0,-541.0,-732.0,-661.0,23.0,0.0,0.0,0.0
19:44:13.438000,-192.0,96.0,-459.0,-732.0,-661.0,23.0,0.0,0.0,0.0
19:44:13.443000,-168.0,91.0,-481.0,-751.0,-594.0,32.0,0.0,0.0,0.0
19:44:13.448000,-135.0,91.0,-516.0,-751.0,-594.0,32.0,0.0,0.0,0.0
19:44:13.452000,-114.0,93.0,-471.0,-912.0,-610.0,-5.0,0.0,0.0,0.0
19:44:13.457000,-134.0,102.0,-391.0,-912.0,-610.0,-5.0,0.0,0.0,0.0
19:44:13.462000,-142.0,108.0,-366.0,-965.0,-634.0,-4.0,0.0,0.0,0.0
19:44:13.466000,-142.0,119.0,-462.0,-965.0,-634.0,-4.0,0.0,0.0,0.0
19:44:13.471000,-148.0,140.0,-536.0,-873.0,-507.0,-2.0,0.0,0.0,0.0
19:44:13.475000,-170.0,143.0,-457.0,-873.0,-507.0,-2.0,0.0,0.0,0.0
19:44:13.481000,-158.0,148.0,-404.0,-873.0,-507.0,-2.0,0.0,0.0,0.0
19:44:13.485000,-156.0,147.0,-281.0,-775.0,-506.0,-4.0,0.0,0.0,0.0
19:44:13.490000,-130.0,156.0,-285.0,-775.0,-506.0,-4.0,0.0,0.0,0.0
19:44:13.495000,-93.0,156.0,-467.0,-840.0,-536.0,-17.0,0.0,0.0,0.0
19:44:13.499000,-76.0,147.0,-473.0,-840.0,-536.0,-17.0,0.0,0.0,0.0
19:44:13.504000,-69.0,153.0,-256.0,-812.0,-542.0,-22.0,0.0,0.0,0.0
19:44:13.509000,-58.0,151.0,-158.0,-812.0,-542.0,-22.0,0.0,0.0,0.0
19:44:13.513000,-51.0,151.0,-307.0,-759.0,-564.0,-25.0,0.0,0.0,0.0
19:44:13.518000,-59.0,139.0,-407.0,-759.0,-564.0,-25.0,0.0,0.0,0.0
19:44:13.523000,-116.0,140.0,-334.0,-789.0,-535.0,-20.0,0.0,0.0,0.0
19:44:13.528000,-116.0,140.0,-334.0,-789.0,-535.0,-20.0,0.0,0.0,0.0
19:44:13.532000,-103.0,141.0,-188.0,-814.0,-533.0,-25.0,0.0,0.0,0.0
19:44:13.537000,-67.0,127.0,-274.0,-814.0,-533.0,-25.0,0.0,0.0,0.0
19:44:13.542000,-51.0,104.0,-345.0,-872.0,-514.0,-34.0,0.0,0.0,0.0
19:44:13.546000,-53.0,118.0,-201.0,-872.0,-514.0,-34.0,0.0,0.0,0.0
19:44:13.551000,-55.0,135.0,-41.0,-836.0,-466.0,-5.0,0.0,0.0,0.0
19:44:13.556000,-2.0,123.0,-105.0,-836.0,-466.0,-5.0,0.0,0.0,0.0
19:44:13.560000,-9.0,137.0,-389.0,-787.0,-515.0,-3.0,0.0,0.0,0.0
19:44:13.565000,3.0,158.0,-359.0,-787.0,-515.0,-3.0,0.0,0.0,0.0
19:44:13.570000,-1.0,145.0,-231.0,-806.0,-456.0,8.0,0.0,0.0,0.0
19:44:13.575000,-59.0,145.0,-231.0,-806.0,-456.0,8.0,0.0,0.0,0.0
19:44:13.579000,-24.0,135.0,-189.0,-763.0,-417.0,5.0,0.0,0.0,0.0
19:44:13.584000,19.0,119.0,-200.0,-763.0,-417.0,5.0,0.0,0.0,0.0
19:44:13.589000,42.0,135.0,-449.0,-763.0,-417.0,5.0,0.0,0.0,0.0
19:44:13.593000,37.0,128.0,-601.0,-766.0,-512.0,-88.0,0.0,0.0,0.0
19:44:13.598000,-14.0,121.0,-429.0,-766.0,-512.0,-88.0,0.0,0.0,0.0
19:44:13.603000,-36.0,106.0,-181.0,-852.0,-436.0,-119.0,0.0,0.0,0.0
19:44:13.607000,1.0,78.0,-101.0,-852.0,-436.0,-119.0,0.0,0.0,0.0
19:44:13.612000,0.0,46.0,-144.0,-950.0,-423.0,-71.0,0.0,0.0,0.0
19:44:13.617000,25.0,-3.0,-86.0,-950.0,-423.0,-71.0,0.0,0.0,0.0
19:44:13.622000,65.0,-25.0,-126.0,-896.0,-537.0,-45.0,0.0,0.0,0.0
19:44:13.626000,79.0,-7.0,-298.0,-896.0,-537.0,-45.0,0.0,0.0,0.0
19:44:13.631000,105.0,-4.0,-461.0,-671.0,-481.0,-64.0,0.0,0.0,0.0
19:44:13.636000,105.0,-4.0,-461.0,-671.0,-481.0,-64.0,0.0,0.0,0.0
19:44:13.640000,74.0,3.0,-369.0,-711.0,-336.0,-86.0,0.0,0.0,0.0
19:44:13.645000,46.0,-2.0,-231.0,-711.0,-336.0,-86.0,0.0,0.0,0.0
19:44:13.650000,1.0,-5.0,-172.0,-931.0,-378.0,-78.0,0.0,0.0,0.0
19:44:13.654000,3.0,-11.0,-219.0,-931.0,-378.0,-78.0,0.0,0.0,0.0
19:44:13.659000,18.0,-25.0,-270.0,-969.0,-473.0,-66.0,0.0,0.0,0.0
19:44:13.664000,21.0,-44.0,-289.0,-969.0,-473.0,-66.0,0.0,0.0,0.0
19:44:13.669000,34.0,-73.0,-289.0,-800.0,-479.0,-69.0,0.0,0.0,0.0
19:44:13.673000,15.0,-77.0,-324.0,-800.0,-479.0,-69.0,0.0,0.0,0.0
19:44:13.678000,3.0,-78.0,-326.0,-736.0,-427.0,-68.0,0.0,0.0,0.0
19:44:13.683000,-15.0,-83.0,-255.0,-736.0,-427.0,-68.0,0.0,0.0,0.0
19:44:13.687000,-24.0,-86.0,-248.0,-862.0,-342.0,-61.0,0.0,0.0,0.0
19:44:13.692000,-48.0,-93.0,-298.0,-862.0,-342.0,-61.0,0.0,0.0,0.0
19:44:13.697000,-46.0,-112.0,-299.0,-862.0,-342.0,-61.0,0.0,0.0,0.0
19:44:13.701000,-51.0,-113.0,-285.0,-879.0,-365.0,-66.0,0.0,0.0,0.0
19:44:13.706000,-44.0,-93.0,-296.0,-879.0,-365.0,-66.0,0.0,0.0,0.0
19:44:13.710000,-24.0,-84.0,-320.0,-848.0,-404.0,-55.0,0.0,0.0,0.0
19:44:13.716000,4.0,-88.0,-380.0,-848.0,-404.0,-55.0,0.0,0.0,0.0
19:44:13.720000,21.0,-88.0,-473.0,-831.0,-398.0,-56.0,0.0,0.0,0.0
19:44:13.725000,35.0,-83.0,-590.0,-831.0,-398.0,-56.0,0.0,0.0,0.0
19:44:13.730000,18.0,-62.0,-541.0,-789.0,-443.0,-102.0,0.0,0.0,0.0
19:44:13.734000,-1.0,-59.0,-405.0,-789.0,-443.0,-102.0,0.0,0.0,0.0
19:44:13.739000,-38.0,-76.0,-296.0,-927.0,-427.0,-116.0,0.0,0.0,0.0
19:44:13.744000,-38.0,-76.0,-296.0,-927.0,-427.0,-116.0,0.0,0.0,0.0
19:44:13.748000,-58.0,-84.0,-301.0,-1087.0,-408.0,-82.0,0.0,0.0,0.0
19:44:13.753000,-44.0,-93.0,-309.0,-1087.0,-408.0,-82.0,0.0,0.0,0.0
19:44:13.758000,-17.0,-93.0,-259.0,-1033.0,-484.0,-54.0,0.0,0.0,0.0
19:44:13.763000,25.0,-100.0,-257.0,-1033.0,-484.0,-54.0,0.0,0.0,0.0
19:44:13.767000,48.0,-95.0,-300.0,-883.0,-465.0,-36.0,0.0,0.0,0.0
19:44:13.772000,70.0,-75.0,-364.0,-883.0,-465.0,-36.0,0.0,0.0,0.0
19:44:13.777000,60.0,-56.0,-385.0,-848.0,-332.0,-27.0,0.0,0.0,0.0
19:44:13.781000,22.0,-37.0,-381.0,-848.0,-332.0,-27.0,0.0,0.0,0.0
19:44:13.786000,-14.0,-19.0,-426.0,-944.0,-309.0,-23.0,0.0,0.0,0.0
19:44:13.791000,-31.0,4.0,-466.0,-944.0,-309.0,-23.0,0.0,0.0,0.0
19:44:13.795000,-40.0,20.0,-435.0,-1007.0,-385.0,-27.0,0.0,0.0,0.0
19:44:13.800000,-26.0,25.0,-422.0,-1007.0,-385.0,-27.0,0.0,0.0,0.0
19:44:13.805000,-21.0,42.0,-464.0,-1007.0,-432.0,-25.0,0.0,0.0,0.0
19:44:13.809000,-11.0,62.0,-521.0,-1017.0,-432.0,-25.0,0.0,0.0,0.0
19:44:13.814000,-11.0,70.0,-537.0,-1017.0,-432.0,-25.0,0.0,0.0,0.0
19:44:13.819000,-7.0,72.0,-511.0,-961.0,-408.0,-18.0,0.0,0.0,0.0
19:44:13.824000,-2.0,88.0,-508.0,-961.0,-408.0,-18.0,0.0,0.0,0.0
19:44:13.828000,2.0,101.0,-555.0,-909.0,-350.0,-15.0,0.0,0.0,0.0
19:44:13.833000,-8.0,107.0,-566.0,-909.0,-350.0,-15.0,0.0,0.0,0.0
19:44:13.838000,0.0,103.0,-553.0,-973.0,-341.0,-10.0,0.0,0.0,0.0
19:44:13.842000,17.0,93.0,-541.0,-973.0,-341.0,-10.0,0.0,0.0,0.0
19:44:13.847000,39.0,84.0,-508.0,-1031.0,-379.0,-9.0,0.0,0.0,0.0
19:44:13.852000,60.0,84.0,-450.0,-1031.0,-379.0,-9.0,0.0,0.0,0.0
19:44:13.856000,60.0,84.0,-450.0,-1021.0,-406.0,-20.0,0.0,0.0,0.0
19:44:13.861000,84.0,87.0,-457.0,-1021.0,-406.0,-20.0,0.0,0.0,0.0
19:44:13.866000,96.0,87.0,-508.0,-992.0,-368.0,-20.0,0.0,0.0,0.0
19:44:13.871000,110.0,81.0,-516.0,-992.0,-368.0,-20.0,0.0,0.0,0.0
19:44:13.875000,123.0,78.0,-502.0,-955.0,-342.0,-14.0,0.0,0.0,0.0
19:44:13.880000,139.0,75.0,-543.0,-955.0,-342.0,-14.0,0.0,0.0,0.0
19:44:13.885000,148.0,76.0,-592.0,-949.0,-336.0,-13.0,0.0,0.0,0.0
19:44:13.889000,143.0,79.0,-569.0,-949.0,-336.0,-13.0,0.0,0.0,0.0
19:44:13.894000,131.0,81.0,-512.0,-981.0,-282.0,-8.0,0.0,0.0,0.0
19:44:13.899000,115.0,89.0,-522.0,-981.0,-282.0,-8.0,0.0,0.0,0.0
19:44:13.903000,93.0,108.0,-554.0,-1029.0,-198.0,-5.0,0.0,0.0,0.0
19:44:13.908000,70.0,125.0,-583.0,-1029.0,-198.0,-5.0,0.0,0.0,0.0
19:44:13.913000,49.0,141.0,-595.0,-1060.0,-149.0,-7.0,0.0,0.0,0.0
19:44:13.917000,27.0,151.0,-576.0,-1060.0,-149.0,-7.0,0.0,0.0,0.0
19:44:13.922000,15.0,159.0,-560.0,-1060.0,-149.0,-7.0,0.0,0.0,0.0
19:44:13.927000,10.0,170.0,-604.0,-1032.0,-157.0,-19.0,0.0,0.0,0.0
19:44:13.932000,-2.0,196.0,-606.0,-1032.0,-157.0,-19.0,0.0,0.0,0.0
19:44:13.936000,-7.0,207.0,-568.0,-1061.0,-154.0,-23.0,0.0,0.0,0.0
19:44:13.941000,0.0,203.0,-581.0,-1061.0,-154.0,-23.0,0.0,0.0,0.0
19:44:13.945000,-13.0,218.0,-589.0,-1067.0,-179.0,-27.0,0.0,0.0,0.0
19:44:13.950000,-2.0,229.0,-593.0,-1067.0,-179.0,-27.0,0.0,0.0,0.0
19:44:13.955000,3.0,232.0,-616.0,-992.0,-202.0,-50.0,0.0,0.0,0.0
19:44:13.960000,12.0,235.0,-629.0,-992.0,-202.0,-50.0,0.0,0.0,0.0
19:44:13.965000,12.0,235.0,-629.0,-963.0,-180.0,-72.0,0.0,0.0,0.0
19:44:13.969000,11.0,236.0,-628.0,-963.0,-180.0,-72.0,0.0,0.0,0.0
19:44:13.974000,16.0,226.0,-616.0,-998.0,-172.0,-87.0,0.0,0.0,0.0
19:44:13.979000,30.0,216.0,-608.0,-998.0,-172.0,-87.0,0.0,0.0,0.0
19:44:13.983000,39.0,207.0,-593.0,-1024.0,-202.0,-96.0,0.0,0.0,0.0
19:44:13.988000,62.0,186.0,-575.0,-1024.0,-202.0,-96.0,0.0,0.0,0.0
19:44:13.993000,81.0,172.0,-581.0,-974.0,-194.0,-104.0,0.0,0.0,0.0
19:44:13.997000,96.0,161.0,-585.0,-974.0,-194.0,-104.0,0.0,0.0,0.0
19:44:14.002000,104.0,155.0,-538.0,-945.0,-117.0,-113.0,0.0,0.0,0.0
19:44:14.007000,100.0,150.0,-498.0,-945.0,-117.0,-113.0,0.0,0.0,0.0
19:44:14.012000,90.0,152.0,-475.0,-989.0,-66.0,-122.0,0.0,0.0,0.0
19:44:14.016000,85.0,152.0,-447.0,-989.0,-66.0,-122.0,0.0,0.0,0.0
19:44:14.021000,79.0,148.0,-458.0,-1026.0,-59.0,-129.0,0.0,0.0,0.0
19:44:14.026000,63.0,144.0,-473.0,-1026.0,-59.0,-129.0,0.0,0.0,0.0
19:44:14.030000,46.0,137.0,-464.0,-1026.0,-59.0,-129.0,0.0,0.0,0.0
19:44:14.035000,14.0,135.0,-436.0,-1002.0,-41.0,-134.0,0.0,0.0,0.0
19:44:14.040000,-14.0,137.0,-435.0,-1006.0,1.0,-133.0,0.0,0.0,0.0
19:44:14.044000,-30.0,132.0,-448.0,-1006.0,1.0,-133.0,0.0,0.0,0.0
19:44:14.049000,-53.0,126.0,-436.0,-1006.0,1.0,-133.0,0.0,0.0,0.0
19:44:14.054000,-79.0,123.0,-382.0,-1005.0,-4.0,-136.0,0.0,0.0,0.0
19:44:14.059000,-102.0,122.0,-339.0,-1005.0,-4.0,-136.0,0.0,0.0,0.0
19:44:14.063000,-120.0,117.0,-380.0,-989.0,0.0,-140.0,0.0,0.0,0.0
19:44:14.068000,-136.0,119.0,-414.0,-989.0,0.0,-140.0,0.0,0.0,0.0
19:44:14.073000,-136.0,119.0,-414.0,-1029.0,6.0,-144.0,0.0,0.0,0.0
19:44:14.077000,-135.0,113.0,-409.0,-1029.0,6.0,-144.0,0.0,0.0,0.0
19:44:14.082000,-133.0,99.0,-395.0,-1074.0,-52.0,-148.0,0.0,0.0,0.0
19:44:14.087000,-126.0,88.0,-405.0,-1074.0,-52.0,-148.0,0.0,0.0,0.0
19:44:14.091000,-114.0,86.0,-424.0,-1070.0,-65.0,-142.0,0.0,0.0,0.0
19:44:14.096000,-104.0,91.0,-396.0,-1070.0,-65.0,-142.0,0.0,0.0,0.0
19:44:14.101000,-90.0,95.0,-343.0,-1049.0,-77.0,-127.0,0.0,0.0,0.0
19:44:14.106000,-66.0,98.0,-333.0,-1049.0,-77.0,-127.0,0.0,0.0,0.0
19:44:14.110000,-42.0,106.0,-387.0,-1069.0,-117.0,-119.0,0.0,0.0,0.0
19:44:14.115000,2.0,108.0,-442.0,-1069.0,-117.0,-119.0,0.0,0.0,0.0
19:44:14.120000,47.0,109.0,-453.0,-1071.0,-133.0,-121.0,0.0,0.0,0.0
19:44:14.124000,86.0,108.0,-434.0,-1071.0,-133.0,-121.0,0.0,0.0,0.0
19:44:14.129000,107.0,105.0,-435.0,-1047.0,-109.0,-120.0,0.0,0.0,0.0
19:44:14.134000,136.0,106.0,-464.0,-1047.0,-109.0,-120.0,0.0,0.0,0.0
19:44:14.138000,168.0,100.0,-501.0,-1047.0,-109.0,-120.0,0.0,0.0,0.0
19:44:14.143000,182.0,100.0,-503.0,-1042.0,-75.0,-129.0,0.0,0.0,0.0
19:44:14.148000,190.0,92.0,-506.0,-1042.0,-75.0,-129.0,0.0,0.0,0.0
19:44:14.153000,205.0,88.0,-552.0,-1065.0,-41.0,-136.0,0.0,0.0,0.0
19:44:14.157000,217.0,82.0,-604.0,-1065.0,-41.0,-136.0,0.0,0.0,0.0
19:44:14.162000,221.0,69.0,-614.0,-1072.0,8.0,-132.0,0.0,0.0,0.0
19:44:14.167000,212.0,56.0,-588.0,-1072.0,8.0,-132.0,0.0,0.0,0.0
19:44:14.171000,196.0,50.0,-567.0,-1043.0,34.0,-132.0,0.0,0.0,0.0
19:44:14.176000,181.0,53.0,-577.0,-1043.0,34.0,-132.0,0.0,0.0,0.0
19:44:14.180000,181.0,53.0,-577.0,-1065.0,94.0,-138.0,0.0,0.0,0.0
19:44:14.185000,156.0,55.0,-616.0,-1065.0,94.0,-138.0,0.0,0.0,0.0
19:44:14.190000,137.0,55.0,-634.0,-1139.0,158.0,-140.0,0.0,0.0,0.0
19:44:14.195000,121.0,60.0,-609.0,-1139.0,158.0,-140.0,0.0,0.0,0.0
19:44:14.200000,114.0,59.0,-599.0,-1138.0,153.0,-136.0,0.0,0.0,0.0
19:44:14.204000,102.0,64.0,-602.0,-1138.0,153.0,-136.0,0.0,0.0,0.0
19:44:14.209000,91.0,77.0,-575.0,-1066.0,120.0,-142.0,0.0,0.0,0.0
19:44:14.214000,88.0,89.0,-556.0,-1066.0,120.0,-142.0,0.0,0.0,0.0
19:44:14.218000,91.0,105.0,-560.0,-1039.0,151.0,-151.0,0.0,0.0,0.0
19:44:14.223000,98.0,116.0,-555.0,-1039.0,151.0,-151.0,0.0,0.0,0.0
19:44:14.228000,98.0,125.0,-546.0,-1076.0,182.0,-151.0,0.0,0.0,0.0
19:44:14.232000,98.0,130.0,-532.0,-1076.0,182.0,-151.0,0.0,0.0,0.0
19:44:14.237000,100.0,136.0,-518.0,-1095.0,141.0,-148.0,0.0,0.0,0.0
19:44:14.242000,79.0,160.0,-504.0,-1095.0,141.0,-148.0,0.0,0.0,0.0
19:44:14.247000,107.0,164.0,-481.0,-1095.0,141.0,-148.0,0.0,0.0,0.0
19:44:14.251000,100.0,166.0,-462.0,-1074.0,146.0,-153.0,0.0,0.0,0.0
19:44:14.256000,106.0,168.0,-429.0,-1074.0,146.0,-153.0,0.0,0.0,0.0
19:44:14.261000,122.0,177.0,-417.0,-1028.0,160.0,-158.0,0.0,0.0,0.0
19:44:14.265000,140.0,177.0,-422.0,-1028.0,160.0,-158.0,0.0,0.0,0.0
19:44:14.270000,142.0,185.0,-456.0,-989.0,157.0,-162.0,0.0,0.0,0.0
19:44:14.275000,142.0,192.0,-476.0,-989.0,157.0,-162.0,0.0,0.0,0.0
19:44:14.279000,139.0,189.0,-448.0,-980.0,211.0,-164.0,0.0,0.0,0.0
19:44:14.284000,140.0,192.0,-409.0,-980.0,211.0,-164.0,0.0,0.0,0.0
19:44:14.289000,119.0,191.0,-364.0,-982.0,271.0,-166.0,0.0,0.0,0.0
19:44:14.294000,119.0,191.0,-364.0,-982.0,271.0,-166.0,0.0,0.0,0.0
19:44:14.298000,111.0,185.0,-352.0,-1029.0,309.0,-174.0,0.0,0.0,0.0
19:44:14.303000,104.0,179.0,-376.0,-1029.0,309.0,-174.0,0.0,0.0,0.0
19:44:14.308000,97.0,179.0,-398.0,-1100.0,325.0,-186.0,0.0,0.0,0.0
19:44:14.312000,93.0,180.0,-379.0,-1100.0,325.0,-186.0,0.0,0.0,0.0
19:44:14.317000,79.0,175.0,-336.0,-1152.0,299.0,-190.0,0.0,0.0,0.0
19:44:14.322000,56.0,168.0,-305.0,-1152.0,299.0,-190.0,0.0,0.0,0.0
19:44:14.326000,27.0,174.0,-256.0,-1151.0,298.0,-190.0,0.0,0.0,0.0
19:44:14.331000,12.0,175.0,-176.0,-1151.0,298.0,-190.0,0.0,0.0,0.0
19:44:14.336000,4.0,177.0,-133.0,-1124.0,315.0,-199.0,0.0,0.0,0.0
19:44:14.341000,2.0,172.0,-126.0,-1124.0,315.0,-199.0,0.0,0.0,0.0
19:44:14.345000,9.0,175.0,-177.0,-1113.0,269.0,-209.0,0.0,0.0,0.0
19:44:14.350000,21.0,171.0,-184.0,-1113.0,269.0,-209.0,0.0,0.0,0.0
19:44:14.355000,40.0,155.0,-113.0,-1113.0,269.0,-209.0,0.0,0.0,0.0
19:44:14.359000,58.0,142.0,-48.0,-1077.0,154.0,-202.0,0.0,0.0,0.0
19:44:14.364000,81.0,133.0,-39.0,-1077.0,154.0,-202.0,0.0,0.0,0.0
19:44:14.369000,109.0,121.0,-91.0,-1088.0,118.0,-194.0,0.0,0.0,0.0
19:44:14.373000,110.0,116.0,-103.0,-1088.0,118.0,-194.0,0.0,0.0,0.0
19:44:14.378000,119.0,93.0,-72.0,-1093.0,152.0,-190.0,0.0,0.0,0.0
19:44:14.383000,131.0,75.0,-21.0,-1093.0,152.0,-190.0,0.0,0.0,0.0
19:44:14.387000,131.0,75.0,-21.0,-985.0,147.0,-174.0,0.0,0.0,0.0
19:44:14.392000,136.0,25.0,77.0,-985.0,147.0,-174.0,0.0,0.0,0.0
19:44:14.397000,131.0,-2.0,91.0,-891.0,143.0,-159.0,0.0,0.0,0.0
19:44:14.402000,131.0,-2.0,91.0,-891.0,143.0,-159.0,0.0,0.0,0.0
19:44:14.406000,130.0,-31.0,133.0,-798.0,115.0,-147.0,0.0,0.0,0.0
19:44:14.411000,144.0,-53.0,178.0,-798.0,115.0,-147.0,0.0,0.0,0.0
19:44:14.415000,161.0,-73.0,133.0,-730.0,99.0,-151.0,0.0,0.0,0.0
19:44:14.420000,187.0,-89.0,56.0,-730.0,99.0,-151.0,0.0,0.0,0.0
19:44:14.425000,205.0,-102.0,0.0,-760.0,134.0,-171.0,0.0,0.0,0.0
19:44:14.430000,225.0,-111.0,-51.0,-760.0,134.0,-171.0,0.0,0.0,0.0
19:44:14.435000,238.0,-113.0,-119.0,-855.0,185.0,-193.0,0.0,0.0,0.0
19:44:14.439000,246.0,-114.0,-170.0,-855.0,185.0,-193.0,0.0,0.0,0.0
19:44:14.444000,245.0,-114.0,-189.0,-954.0,227.0,-208.0,0.0,0.0,0.0
19:44:14.449000,238.0,-114.0,-177.0,-954.0,227.0,-208.0,0.0,0.0,0.0
19:44:14.453000,224.0,-112.0,-159.0,-974.0,245.0,-208.0,0.0,0.0,0.0
19:44:14.458000,205.0,-112.0,-130.0,-974.0,245.0,-208.0,0.0,0.0,0.0
19:44:14.463000,183.0,-110.0,-64.0,-974.0,245.0,-208.0,0.0,0.0,0.0
19:44:14.467000,156.0,-114.0,24.0,-931.0,246.0,-197.0,0.0,0.0,0.0
19:44:14.472000,121.0,-114.0,128.0,-931.0,246.0,-197.0,0.0,0.0,0.0
19:44:14.477000,91.0,-116.0,229.0,-869.0,195.0,-171.0,0.0,0.0,0.0
19:44:14.482000,70.0,-120.0,299.0,-869.0,195.0,-171.0,0.0,0.0,0.0
19:44:14.486000,54.0,-116.0,336.0,-813.0,103.0,-150.0,0.0,0.0,0.0
19:44:14.491000,51.0,-111.0,340.0,-813.0,103.0,-150.0,0.0,0.0,0.0
19:44:14.496000,61.0,-98.0,311.0,-804.0,26.0,-150.0,0.0,0.0,0.0
19:44:14.500000,79.0,-79.0,256.0,-804.0,26.0,-150.0,0.0,0.0,0.0
19:44:14.505000,101.0,-58.0,196.0,-843.0,-32.0,-168.0,0.0,0.0,0.0
19:44:14.510000,101.0,-58.0,196.0,-843.0,-32.0,-168.0,0.0,0.0,0.0
19:44:14.514000,122.0,-39.0,150.0,-889.0,-77.0,-188.0,0.0,0.0,0.0
19:44:14.519000,140.0,-23.0,107.0,-889.0,-77.0,-188.0,0.0,0.0,0.0
19:44:14.524000,149.0,-7.0,70.0,-918.0,-62.0,-193.0,0.0,0.0,0.0
19:44:14.529000,146.0,9.0,56.0,-918.0,-62.0,-193.0,0.0,0.0,0.0
19:44:14.533000,132.0,18.0,64.0,-891.0,10.0,-183.0,0.0,0.0,0.0
19:44:14.538000,110.0,22.0,80.0,-891.0,10.0,-183.0,0.0,0.0,0.0
19:44:14.543000,82.0,16.0,105.0,-821.0,91.0,-163.0,0.0,0.0,0.0
19:44:14.547000,55.0,15.0,135.0,-821.0,91.0,-163.0,0.0,0.0,0.0
19:44:14.552000,29.0,7.0,156.0,-740.0,134.0,-142.0,0.0,0.0,0.0
19:44:14.557000,11.0,0.0,179.0,-740.0,134.0,-142.0,0.0,0.0,0.0
19:44:14.561000,1.0,-9.0,206.0,-669.0,127.0,-128.0,0.0,0.0,0.0
19:44:14.566000,-2.0,-21.0,224.0,-669.0,127.0,-128.0,0.0,0.0,0.0
19:44:14.571000,-4.0,-35.0,245.0,-640.0,110.0,-122.0,0.0,0.0,0.0
19:44:14.576000,-1.0,-44.0,267.0,-640.0,110.0,-122.0,0.0,0.0,0.0
19:44:14.580000,2.0,-51.0,281.0,-640.0,110.0,-122.0,0.0,0.0,0.0
19:44:14.585000,9.0,-56.0,291.0,-640.0,102.0,-122.0,0.0,0.0,0.0
19:44:14.590000,14.0,-60.0,300.0,-640.0,102.0,-122.0,0.0,0.0,0.0
19:44:14.594000,16.0,-62.0,311.0,-651.0,107.0,-125.0,0.0,0.0,0.0
19:44:14.599000,14.0,-63.0,326.0,-651.0,107.0,-125.0,0.0,0.0,0.0
19:44:14.604000,8.0,-60.0,350.0,-649.0,123.0,-123.0,0.0,0.0,0.0
19:44:14.608000,5.0,-56.0,380.0,-649.0,123.0,-123.0,0.0,0.0,0.0
19:44:14.613000,3.0,-49.0,410.0,-619.0,109.0,-122.0,0.0,0.0,0.0
19:44:14.618000,3.0,-49.0,410.0,-619.0,109.0,-122.0,0.0,0.0,0.0
19:44:14.623000,0.0,-40.0,437.0,-584.0,66.0,-118.0,0.0,0.0,0.0
19:44:14.627000,0.0,-35.0,457.0,-584.0,66.0,-118.0,0.0,0.0,0.0
19:44:14.632000,4.0,-30.0,470.0,-552.0,23.0,-106.0,0.0,0.0,0.0
19:44:14.637000,8.0,-25.0,471.0,-552.0,23.0,-106.0,0.0,0.0,0.0
19:44:14.641000,19.0,-21.0,461.0,-525.0,-25.0,-93.0,0.0,0.0,0.0
19:44:14.646000,33.0,-18.0,441.0,-525.0,-25.0,-93.0,0.0,0.0,0.0
19:44:14.650000,49.0,-19.0,417.0,-509.0,-79.0,-77.0,0.0,0.0,0.0
19:44:14.655000,70.0,-23.0,388.0,-509.0,-79.0,-77.0,0.0,0.0,0.0
19:44:14.660000,93.0,-25.0,355.0,-492.0,-127.0,-57.0,0.0,0.0,0.0
19:44:14.665000,118.0,-30.0,315.0,-492.0,-127.0,-57.0,0.0,0.0,0.0
19:44:14.670000,142.0,-36.0,271.0,-478.0,-143.0,-39.0,0.0,0.0,0.0
19:44:14.674000,165.0,-39.0,224.0,-478.0,-143.0,-39.0,0.0,0.0,0.0
19:44:14.679000,182.0,-42.0,179.0,-489.0,-121.0,-25.0,0.0,0.0,0.0
19:44:14.684000,193.0,-38.0,147.0,-489.0,-121.0,-25.0,0.0,0.0,0.0
19:44:14.688000,195.0,-28.0,126.0,-489.0,-121.0,-25.0,0.0,0.0,0.0
19:44:14.693000,187.0,-14.0,110.0,-520.0,-76.0,-20.0,0.0,0.0,0.0
19:44:14.698000,170.0,1.0,99.0,-560.0,-11.0,-22.0,0.0,0.0,0.0
19:44:14.702000,144.0,21.0,94.0,-560.0,-11.0,-22.0,0.0,0.0,0.0
19:44:14.707000,114.0,42.0,96.0,-560.0,-11.0,-22.0,0.0,0.0,0.0
19:44:14.712000,83.0,63.0,102.0,-594.0,51.0,-30.0,0.0,0.0,0.0
19:44:14.717000,53.0,81.0,107.0,-594.0,51.0,-30.0,0.0,0.0,0.0
19:44:14.721000,25.0,96.0,114.0,-605.0,73.0,-44.0,0.0,0.0,0.0
19:44:14.726000,7.0,105.0,125.0,-605.0,73.0,-44.0,0.0,0.0,0.0
19:44:14.731000,7.0,105.0,125.0,-582.0,57.0,-54.0,0.0,0.0,0.0
19:44:14.735000,-7.0,108.0,137.0,-582.0,57.0,-54.0,0.0,0.0,0.0
19:44:14.740000,-16.0,108.0,149.0,-537.0,33.0,-60.0,0.0,0.0,0.0
19:44:14.745000,-22.0,103.0,162.0,-537.0,33.0,-60.0,0.0,0.0,0.0
19:44:14.749000,-26.0,95.0,175.0,-502.0,25.0,-66.0,0.0,0.0,0.0
19:44:14.754000,-30.0,86.0,190.0,-502.0,25.0,-66.0,0.0,0.0,0.0
19:44:14.759000,-37.0,76.0,203.0,-491.0,28.0,-72.0,0.0,0.0,0.0
19:44:14.764000,-46.0,64.0,216.0,-491.0,28.0,-72.0,0.0,0.0,0.0
19:44:14.768000,-58.0,51.0,228.0,-505.0,35.0,-76.0,0.0,0.0,0.0
19:44:14.773000,-72.0,41.0,242.0,-505.0,35.0,-76.0,0.0,0.0,0.0
19:44:14.778000,-90.0,31.0,253.0,-527.0,36.0,-78.0,0.0,0.0,0.0
19:44:14.782000,-108.0,23.0,262.0,-527.0,36.0,-78.0,0.0,0.0,0.0
19:44:14.787000,-127.0,17.0,265.0,-550.0,36.0,-84.0,0.0,0.0,0.0
19:44:14.792000,-148.0,13.0,265.0,-550.0,36.0,-84.0,0.0,0.0,0.0
19:44:14.796000,-169.0,11.0,259.0,-550.0,36.0,-84.0,0.0,0.0,0.0
19:44:14.801000,-187.0,10.0,248.0,-575.0,37.0,-96.0,0.0,0.0,0.0
19:44:14.806000,-200.0,8.0,233.0,-575.0,37.0,-96.0,0.0,0.0,0.0
19:44:14.811000,-208.0,4.0,219.0,-592.0,22.0,-109.0,0.0,0.0,0.0
19:44:14.815000,-207.0,-2.0,205.0,-592.0,22.0,-109.0,0.0,0.0,0.0
19:44:14.820000,-198.0,-10.0,185.0,-596.0,-7.0,-119.0,0.0,0.0,0.0
19:44:14.825000,-183.0,-20.0,161.0,-596.0,-7.0,-119.0,0.0,0.0,0.0
19:44:14.829000,-165.0,-31.0,136.0,-597.0,-27.0,-129.0,0.0,0.0,0.0
19:44:14.834000,-145.0,-37.0,119.0,-597.0,-27.0,-129.0,0.0,0.0,0.0
19:44:14.839000,-145.0,-37.0,119.0,-599.0,-32.0,-139.0,0.0,0.0,0.0
19:44:14.843000,-126.0,-41.0,107.0,-599.0,-32.0,-139.0,0.0,0.0,0.0
19:44:14.848000,-109.0,-43.0,97.0,-602.0,-27.0,-148.0,0.0,0.0,0.0
19:44:14.853000,-96.0,-44.0,89.0,-602.0,-27.0,-148.0,0.0,0.0,0.0
19:44:14.858000,-86.0,-44.0,89.0,-606.0,-13.0,-156.0,0.0,0.0,0.0
19:44:14.862000,-74.0,-45.0,98.0,-606.0,-13.0,-156.0,0.0,0.0,0.0
19:44:14.867000,-60.0,-46.0,102.0,-612.0,-13.0,-162.0,0.0,0.0,0.0
19:44:14.872000,-48.0,-46.0,100.0,-612.0,-13.0,-162.0,0.0,0.0,0.0
19:44:14.876000,-34.0,-46.0,98.0,-620.0,-30.0,-166.0,0.0,0.0,0.0
19:44:14.881000,-21.0,-45.0,100.0,-620.0,-30.0,-166.0,0.0,0.0,0.0
19:44:14.886000,-12.0,-42.0,100.0,-639.0,-32.0,-167.0,0.0,0.0,0.0
19:44:14.890000,-9.0,-39.0,92.0,-639.0,-32.0,-167.0,0.0,0.0,0.0
19:44:14.895000,-11.0,-37.0,81.0,-689.0,-3.0,-166.0,0.0,0.0,0.0
19:44:14.900000,-14.0,-37.0,74.0,-689.0,-3.0,-166.0,0.0,0.0,0.0
19:44:14.905000,-12.0,-37.0,72.0,-689.0,-3.0,-166.0,0.0,0.0,0.0
19:44:14.909000,-9.0,-35.0,72.0,-742.0,15.0,-166.0,0.0,0.0,0.0
19:44:14.914000,-9.0,-30.0,73.0,-742.0,15.0,-166.0,0.0,0.0,0.0
19:44:14.919000,-11.0,-28.0,75.0,-772.0,14.0,-166.0,0.0,0.0,0.0
19:44:14.923000,-12.0,-25.0,79.0,-772.0,14.0,-166.0,0.0,0.0,0.0
19:44:14.928000,-18.0,-23.0,73.0,-783.0,20.0,-162.0,0.0,0.0,0.0
19:44:14.933000,-26.0,-22.0,60.0,-783.0,20.0,-162.0,0.0,0.0,0.0
19:44:14.937000,-35.0,-24.0,49.0,-794.0,48.0,-156.0,0.0,0.0,0.0
19:44:14.942000,-42.0,-27.0,42.0,-794.0,48.0,-156.0,0.0,0.0,0.0
19:44:14.947000,-42.0,-27.0,42.0,-806.0,78.0,-152.0,0.0,0.0,0.0
19:44:14.952000,-48.0,-29.0,36.0,-806.0,78.0,-152.0,0.0,0.0,0.0
19:44:14.956000,-56.0,-32.0,30.0,-811.0,95.0,-152.0,0.0,0.0,0.0
19:44:14.961000,-65.0,-34.0,30.0,-811.0,95.0,-152.0,0.0,0.0,0.0
19:44:14.966000,-78.0,-35.0,34.0,-824.0,116.0,-153.0,0.0,0.0,0.0
19:44:14.970000,-94.0,-35.0,41.0,-824.0,116.0,-153.0,0.0,0.0,0.0
19:44:14.975000,-113.0,-35.0,48.0,-849.0,141.0,-157.0,0.0,0.0,0.0
19:44:14.980000,-135.0,-36.0,56.0,-849.0,141.0,-157.0,0.0,0.0,0.0
19:44:14.984000,-160.0,-35.0,63.0,-884.0,166.0,-167.0,0.0,0.0,0.0
19:44:14.989000,-187.0,-35.0,70.0,-884.0,166.0,-167.0,0.0,0.0,0.0
19:44:14.994000,-216.0,-37.0,79.0,-923.0,187.0,-176.0,0.0,0.0,0.0
19:44:14.999000,-246.0,-40.0,89.0,-923.0,187.0,-176.0,0.0,0.0,0.0
19:44:15.003000,-275.0,-43.0,106.0,-951.0,189.0,-183.0,0.0,0.0,0.0
19:44:15.008000,-303.0,-47.0,128.0,-951.0,189.0,-183.0,0.0,0.0,0.0
19:44:15.013000,-331.0,-51.0,158.0,-961.0,160.0,-186.0,0.0,0.0,0.0
19:44:15.017000,-353.0,-55.0,192.0,-961.0,160.0,-186.0,0.0,0.0,0.0
19:44:15.022000,-371.0,-62.0,224.0,-961.0,160.0,-186.0,0.0,0.0,0.0
19:44:15.027000,-383.0,-72.0,249.0,-970.0,113.0,-188.0,0.0,0.0,0.0
19:44:15.031000,-393.0,-81.0,270.0,-970.0,113.0,-188.0,0.0,0.0,0.0
19:44:15.036000,-398.0,-91.0,288.0,-982.0,71.0,-187.0,0.0,0.0,0.0
19:44:15.041000,-396.0,-98.0,302.0,-982.0,71.0,-187.0,0.0,0.0,0.0
19:44:15.046000,-392.0,-105.0,304.0,-985.0,39.0,-186.0,0.0,0.0,0.0
19:44:15.050000,-386.0,-108.0,293.0,-985.0,39.0,-186.0,0.0,0.0,0.0
19:44:15.055000,-386.0,-108.0,293.0,-997.0,45.0,-187.0,0.0,0.0,0.0
19:44:15.060000,-382.0,-113.0,277.0,-997.0,45.0,-187.0,0.0,0.0,0.0
19:44:15.064000,-380.0,-116.0,260.0,-1029.0,82.0,-188.0,0.0,0.0,0.0
19:44:15.069000,-380.0,-119.0,243.0,-1029.0,82.0,-188.0,0.0,0.0,0.0
19:44:15.074000,-380.0,-124.0,232.0,-1055.0,108.0,-189.0,0.0,0.0,0.0
19:44:15.078000,-381.0,-127.0,224.0,-1055.0,108.0,-189.0,0.0,0.0,0.0
19:44:15.083000,-387.0,-130.0,210.0,-1054.0,153.0,-191.0,0.0,0.0,0.0
19:44:15.088000,-403.0,-140.0,193.0,-1054.0,153.0,-191.0,0.0,0.0,0.0
19:44:15.093000,-424.0,-147.0,191.0,-1023.0,235.0,-186.0,0.0,0.0,0.0
19:44:15.097000,-448.0,-156.0,194.0,-1023.0,235.0,-186.0,0.0,0.0,0.0
19:44:15.102000,-470.0,-163.0,192.0,-990.0,287.0,-173.0,0.0,0.0,0.0
19:44:15.107000,-492.0,-168.0,190.0,-990.0,287.0,-173.0,0.0,0.0,0.0
19:44:15.111000,-508.0,-173.0,195.0,-978.0,279.0,-162.0,0.0,0.0,0.0
19:44:15.116000,-517.0,-179.0,204.0,-978.0,279.0,-162.0,0.0,0.0,0.0
19:44:15.120000,-517.0,-188.0,210.0,-978.0,279.0,-162.0,0.0,0.0,0.0
19:44:15.125000,-508.0,-198.0,210.0,-977.0,234.0,-147.0,0.0,0.0,0.0
19:44:15.130000,-487.0,-209.0,200.0,-977.0,234.0,-147.0,0.0,0.0,0.0
19:44:15.135000,-463.0,-214.0,170.0,-959.0,190.0,-130.0,0.0,0.0,0.0
19:44:15.140000,-439.0,-208.0,113.0,-959.0,190.0,-130.0,0.0,0.0,0.0
19:44:15.144000,-423.0,-199.0,46.0,-948.0,208.0,-121.0,0.0,0.0,0.0
19:44:15.149000,-413.0,-190.0,0.0,-948.0,208.0,-121.0,0.0,0.0,0.0
19:44:15.154000,-401.0,-182.0,-40.0,-976.0,263.0,-119.0,0.0,0.0,0.0
19:44:15.158000,-382.0,-175.0,-65.0,-976.0,263.0,-119.0,0.0,0.0,0.0
19:44:15.163000,-354.0,-168.0,-83.0,-1009.0,264.0,-122.0,0.0,0.0,0.0
19:44:15.168000,-354.0,-168.0,-83.0,-1009.0,264.0,-122.0,0.0,0.0,0.0
19:44:15.172000,-326.0,-168.0,-112.0,-1007.0,252.0,-122.0,0.0,0.0,0.0
19:44:15.177000,-289.0,-163.0,-151.0,-1007.0,252.0,-122.0,0.0,0.0,0.0
19:44:15.182000,-254.0,-176.0,-171.0,-997.0,254.0,-119.0,0.0,0.0,0.0
19:44:15.187000,-213.0,-176.0,-127.0,-997.0,254.0,-119.0,0.0,0.0,0.0
19:44:15.191000,-163.0,-173.0,-116.0,-1037.0,282.0,-137.0,0.0,0.0,0.0
19:44:15.196000,-128.0,-176.0,-147.0,-1037.0,282.0,-137.0,0.0,0.0,0.0
19:44:15.201000,-114.0,-170.0,-161.0,-1155.0,330.0,-152.0,0.0,0.0,0.0
19:44:15.205000,-107.0,-167.0,-93.0,-1155.0,330.0,-152.0,0.0,0.0,0.0
19:44:15.210000,-77.0,-157.0,-37.0,-1240.0,325.0,-156.0,0.0,0.0,0.0
19:44:15.215000,-54.0,-135.0,16.0,-1240.0,325.0,-156.0,0.0,0.0,0.0
19:44:15.219000,-45.0,-117.0,79.0,-1244.0,367.0,-154.0,0.0,0.0,0.0
19:44:15.224000,-46.0,-109.0,32.0,-1244.0,367.0,-154.0,0.0,0.0,0.0
19:44:15.229000,-53.0,-93.0,-4.0,-1244.0,367.0,-154.0,0.0,0.0,0.0
19:44:15.234000,-54.0,-71.0,50.0,-1220.0,434.0,-142.0,0.0,0.0,0.0
19:44:15.238000,-61.0,-48.0,112.0,-1220.0,434.0,-142.0,0.0,0.0,0.0
19:44:15.243000,-74.0,-35.0,101.0,-1187.0,421.0,-138.0,0.0,0.0,0.0
19:44:15.248000,-88.0,-21.0,74.0,-1187.0,421.0,-138.0,0.0,0.0,0.0
19:44:15.252000,-110.0,-17.0,73.0,-1222.0,437.0,-140.0,0.0,0.0,0.0
19:44:15.257000,-118.0,-23.0,54.0,-1222.0,437.0,-140.0,0.0,0.0,0.0
19:44:15.262000,-145.0,-16.0,15.0,-1285.0,458.0,-137.0,0.0,0.0,0.0
19:44:15.266000,-172.0,-11.0,18.0,-1285.0,458.0,-137.0,0.0,0.0,0.0
19:44:15.271000,-182.0,-9.0,61.0,-1280.0,377.0,-131.0,0.0,0.0,0.0
19:44:15.276000,-182.0,-9.0,61.0,-1280.0,377.0,-131.0,0.0,0.0,0.0
19:44:15.281000,-183.0,-9.0,86.0,-1254.0,297.0,-134.0,0.0,0.0,0.0
19:44:15.285000,-200.0,-6.0,60.0,-1254.0,297.0,-134.0,0.0,0.0,0.0
19:44:15.290000,-220.0,-3.0,20.0,-1262.0,284.0,-132.0,0.0,0.0,0.0
19:44:15.295000,-239.0,-3.0,11.0,-1262.0,284.0,-132.0,0.0,0.0,0.0
19:44:15.299000,-253.0,-9.0,24.0,-1285.0,246.0,-127.0,0.0,0.0,0.0
19:44:15.304000,-259.0,-21.0,22.0,-1285.0,246.0,-127.0,0.0,0.0,0.0
19:44:15.309000,-282.0,-32.0,14.0,-1278.0,182.0,-113.0,0.0,0.0,0.0
19:44:15.313000,-316.0,-51.0,34.0,-1278.0,182.0,-113.0,0.0,0.0,0.0
19:44:15.318000,-352.0,-70.0,87.0,-1183.0,109.0,-80.0,0.0,0.0,0.0
19:44:15.323000,-385.0,-93.0,131.0,-1183.0,109.0,-80.0,0.0,0.0,0.0
19:44:15.328000,-411.0,-113.0,196.0,-1054.0,-17.0,-46.0,0.0,0.0,0.0
19:44:15.332000,-434.0,-132.0,242.0,-1054.0,-17.0,-46.0,0.0,0.0,0.0
19:44:15.337000,-451.0,-149.0,273.0,-1054.0,-17.0,-46.0,0.0,0.0,0.0
19:44:15.342000,-463.0,-173.0,294.0,-1004.0,-158.0,-33.0,0.0,0.0,0.0
19:44:15.346000,-474.0,-203.0,289.0,-1004.0,-158.0,-33.0,0.0,0.0,0.0
19:44:15.351000,-487.0,-231.0,245.0,-1011.0,-230.0,-26.0,0.0,0.0,0.0
19:44:15.355000,-508.0,-253.0,186.0,-1011.0,-230.0,-26.0,0.0,0.0,0.0
19:44:15.360000,-522.0,-270.0,137.0,-1002.0,-248.0,-16.0,0.0,0.0,0.0
19:44:15.365000,-521.0,-294.0,92.0,-1002.0,-248.0,-16.0,0.0,0.0,0.0
19:44:15.370000,-526.0,-315.0,30.0,-999.0,-274.0,-15.0,0.0,0.0,0.0
19:44:15.375000,-550.0,-326.0,-61.0,-999.0,-274.0,-15.0,0.0,0.0,0.0
19:44:15.379000,-570.0,-331.0,-193.0,-1039.0,-273.0,-18.0,0.0,0.0,0.0
19:44:15.384000,-570.0,-331.0,-193.0,-1039.0,-273.0,-18.0,0.0,0.0,0.0
19:44:15.389000,-597.0,-341.0,-312.0,-1103.0,-195.0,-23.0,0.0,0.0,0.0
19:44:15.393000,-640.0,-354.0,-408.0,-1103.0,-195.0,-23.0,0.0,0.0,0.0
19:44:15.398000,-691.0,-355.0,-493.0,-1190.0,-73.0,-44.0,0.0,0.0,0.0
19:44:15.403000,-751.0,-363.0,-591.0,-1190.0,-73.0,-44.0,0.0,0.0,0.0
19:44:15.407000,-805.0,-380.0,-675.0,-1264.0,50.0,-58.0,0.0,0.0,0.0
19:44:15.412000,-882.0,-401.0,-725.0,-1264.0,50.0,-58.0,0.0,0.0,0.0
19:44:15.417000,-998.0,-406.0,-751.0,-1302.0,125.0,-43.0,0.0,0.0,0.0
19:44:15.421000,-1062.0,-413.0,-820.0,-1302.0,125.0,-43.0,0.0,0.0,0.0
19:44:15.426000,-1092.0,-462.0,-945.0,-1309.0,202.0,-19.0,0.0,0.0,0.0
19:44:15.431000,-1297.0,-487.0,-980.0,-1309.0,202.0,-19.0,0.0,0.0,0.0
19:44:15.436000,-1432.0,-459.0,-989.0,-1319.0,227.0,10.0,0.0,0.0,0.0
19:44:15.440000,-1547.0,-467.0,-1107.0,-1319.0,227.0,10.0,0.0,0.0,0.0
19:44:15.445000,-1505.0,-592.0,-1131.0,-1319.0,268.0,31.0,0.0,0.0,0.0
19:44:15.450000,-1638.0,-672.0,-1050.0,-1205.0,268.0,31.0,0.0,0.0,0.0
19:44:15.454000,-1757.0,-730.0,-977.0,-1205.0,268.0,31.0,0.0,0.0,0.0
19:44:15.459000,-1885.0,-776.0,-961.0,-1167.0,332.0,69.0,0.0,0.0,0.0
19:44:15.464000,-1985.0,-825.0,-954.0,-1167.0,332.0,69.0,0.0,0.0,0.0
19:44:15.468000,-2043.0,-884.0,-999.0,-1251.0,239.0,100.0,0.0,0.0,0.0
19:44:15.473000,-2125.0,-932.0,-1026.0,-1251.0,239.0,100.0,0.0,0.0,0.0
19:44:15.478000,-2205.0,-980.0,-1043.0,-1125.0,186.0,122.0,0.0,0.0,0.0
19:44:15.483000,-2302.0,-1033.0,-1036.0,-1125.0,186.0,122.0,0.0,0.0,0.0
19:44:15.487000,-2377.0,-1085.0,-1025.0,-943.0,196.0,181.0,0.0,0.0,0.0
19:44:15.492000,-2463.0,-1085.0,-1057.0,-943.0,196.0,181.0,0.0,0.0,0.0
19:44:15.497000,-2463.0,-1120.0,-1057.0,-906.0,137.0,226.0,0.0,0.0,0.0
19:44:15.501000,-2514.0,-1155.0,-1146.0,-906.0,137.0,226.0,0.0,0.0,0.0
19:44:15.506000,-2576.0,-1199.0,-1244.0,-1043.0,169.0,254.0,0.0,0.0,0.0
19:44:15.511000,-2636.0,-1241.0,-1292.0,-1043.0,169.0,254.0,0.0,0.0,0.0
19:44:15.515000,-2760.0,-1272.0,-1312.0,-1135.0,177.0,298.0,0.0,0.0,0.0
19:44:15.520000,-2811.0,-1286.0,-1323.0,-1135.0,177.0,298.0,0.0,0.0,0.0
19:44:15.525000,-2779.0,-1304.0,-1432.0,-1116.0,91.0,321.0,0.0,0.0,0.0
19:44:15.530000,-2806.0,-1332.0,-1484.0,-1116.0,91.0,321.0,0.0,0.0,0.0
19:44:15.534000,-2835.0,-1351.0,-1484.0,-1125.0,92.0,341.0,0.0,0.0,0.0
19:44:15.539000,-2837.0,-1354.0,-1492.0,-1125.0,92.0,341.0,0.0,0.0,0.0
19:44:15.544000,-2832.0,-1348.0,-1499.0,-1132.0,98.0,346.0,0.0,0.0,0.0
19:44:15.548000,-2822.0,-1343.0,-1511.0,-1132.0,98.0,346.0,0.0,0.0,0.0
19:44:15.553000,-2789.0,-1341.0,-1515.0,-1097.0,107.0,347.0,0.0,0.0,0.0
19:44:15.558000,-2770.0,-1335.0,-1493.0,-1097.0,107.0,347.0,0.0,0.0,0.0
19:44:15.562000,-2752.0,-1327.0,-1509.0,-1097.0,107.0,347.0,0.0,0.0,0.0
19:44:15.567000,-2730.0,-1318.0,-1549.0,-1042.0,207.0,381.0,0.0,0.0,0.0
19:44:15.572000,-2709.0,-1299.0,-1549.0,-1042.0,207.0,381.0,0.0,0.0,0.0
19:44:15.577000,-2688.0,-1280.0,-1524.0,-991.0,299.0,381.0,0.0,0.0,0.0
19:44:15.581000,-2650.0,-1259.0,-1509.0,-991.0,299.0,381.0,0.0,0.0,0.0
19:44:15.586000,-2629.0,-1231.0,-1515.0,-1005.0,379.0,363.0,0.0,0.0,0.0
19:44:15.590000,-2629.0,-1231.0,-1515.0,-1005.0,379.0,363.0,0.0,0.0,0.0
19:44:15.595000,-2595.0,-1197.0,-1449.0,-1071.0,467.0,370.0,0.0,0.0,0.0
19:44:15.600000,-2592.0,-1194.0,-1389.0,-1071.0,467.0,370.0,0.0,0.0,0.0
19:44:15.605000,-2592.0,-1194.0,-1389.0,-1098.0,454.0,389.0,0.0,0.0,0.0
19:44:15.609000,-2571.0,-1199.0,-1323.0,-1098.0,454.0,389.0,0.0,0.0,0.0
19:44:15.614000,-2548.0,-1210.0,-1264.0,-1078.0,454.0,406.0,0.0,0.0,0.0
19:44:15.619000,-2539.0,-1215.0,-1181.0,-1078.0,454.0,406.0,0.0,0.0,0.0
19:44:15.624000,-2520.0,-1219.0,-1099.0,-1013.0,468.0,413.0,0.0,0.0,0.0
19:44:15.628000,-2499.0,-1216.0,-1031.0,-1013.0,468.0,413.0,0.0,0.0,0.0
19:44:15.633000,-2475.0,-1199.0,-956.0,-987.0,493.0,410.0,0.0,0.0,0.0
19:44:15.638000,-2438.0,-1171.0,-868.0,-987.0,493.0,410.0,0.0,0.0,0.0
19:44:15.642000,-2398.0,-1138.0,-764.0,-1041.0,506.0,398.0,0.0,0.0,0.0
19:44:15.647000,-2346.0,-1103.0,-674.0,-1041.0,506.0,398.0,0.0,0.0,0.0
19:44:15.652000,-2275.0,-1075.0,-595.0,-1067.0,371.0,372.0,0.0,0.0,0.0
19:44:15.656000,-2183.0,-1042.0,-487.0,-1067.0,371.0,372.0,0.0,0.0,0.0
19:44:15.661000,-2083.0,-1004.0,-382.0,-1021.0,268.0,327.0,0.0,0.0,0.0
19:44:15.666000,-1991.0,-958.0,-305.0,-1021.0,268.0,327.0,0.0,0.0,0.0
19:44:15.671000,-1908.0,-908.0,-249.0,-1021.0,268.0,327.0,0.0,0.0,0.0
19:44:15.675000,-1824.0,-853.0,-214.0,-967.0,305.0,285.0,0.0,0.0,0.0
19:44:15.680000,-1741.0,-799.0,-198.0,-967.0,305.0,285.0,0.0,0.0,0.0
19:44:15.685000,-1666.0,-749.0,-188.0,-959.0,385.0,269.0,0.0,0.0,0.0
19:44:15.689000,-1585.0,-702.0,-159.0,-959.0,385.0,269.0,0.0,0.0,0.0
19:44:15.694000,-1500.0,-658.0,-114.0,-940.0,408.0,267.0,0.0,0.0,0.0
19:44:15.699000,-1418.0,-612.0,-87.0,-940.0,408.0,267.0,0.0,0.0,0.0
19:44:15.703000,-1343.0,-571.0,-99.0,-873.0,390.0,262.0,0.0,0.0,0.0
19:44:15.708000,-1274.0,-531.0,-126.0,-873.0,390.0,262.0,0.0,0.0,0.0
19:44:15.713000,-1274.0,-531.0,-126.0,-825.0,432.0,251.0,0.0,0.0,0.0
19:44:15.718000,-1214.0,-492.0,-128.0,-825.0,432.0,251.0,0.0,0.0,0.0
19:44:15.722000,-1164.0,-455.0,-110.0,-811.0,503.0,241.0,0.0,0.0,0.0
19:44:15.727000,-1121.0,-422.0,-89.0,-811.0,503.0,241.0,0.0,0.0,0.0
19:44:15.732000,-1078.0,-387.0,-69.0,-819.0,532.0,226.0,0.0,0.0,0.0
19:44:15.736000,-1040.0,-356.0,-53.0,-819.0,532.0,226.0,0.0,0.0,0.0
19:44:15.741000,-1001.0,-326.0,-32.0,-837.0,548.0,211.0,0.0,0.0,0.0
19:44:15.746000,-959.0,-297.0,-14.0,-837.0,548.0,211.0,0.0,0.0,0.0
19:44:15.750000,-926.0,-271.0,1.0,-832.0,559.0,199.0,0.0,0.0,0.0
19:44:15.755000,-885.0,-243.0,20.0,-832.0,559.0,199.0,0.0,0.0,0.0
19:44:15.760000,-844.0,-216.0,37.0,-825.0,544.0,186.0,0.0,0.0,0.0
19:44:15.765000,-802.0,-186.0,55.0,-825.0,544.0,186.0,0.0,0.0,0.0
19:44:15.769000,-760.0,-156.0,67.0,-837.0,519.0,173.0,0.0,0.0,0.0
19:44:15.774000,-721.0,-125.0,76.0,-837.0,519.0,173.0,0.0,0.0,0.0
19:44:15.779000,-681.0,-93.0,76.0,-837.0,519.0,173.0,0.0,0.0,0.0
19:44:15.783000,-649.0,-60.0,80.0,-850.0,531.0,164.0,0.0,0.0,0.0
19:44:15.788000,-622.0,-30.0,84.0,-850.0,531.0,164.0,0.0,0.0,0.0
19:44:15.793000,-593.0,-1.0,81.0,-843.0,560.0,159.0,0.0,0.0,0.0
19:44:15.797000,-560.0,27.0,72.0,-843.0,560.0,159.0,0.0,0.0,0.0
19:44:15.802000,-529.0,46.0,42.0,-817.0,568.0,151.0,0.0,0.0,0.0
19:44:15.807000,-493.0,60.0,9.0,-817.0,568.0,151.0,0.0,0.0,0.0
19:44:15.812000,-455.0,73.0,2.0,-812.0,554.0,141.0,0.0,0.0,0.0
19:44:15.816000,-413.0,83.0,5.0,-812.0,554.0,141.0,0.0,0.0,0.0
19:44:15.821000,-413.0,83.0,5.0,-799.0,523.0,130.0,0.0,0.0,0.0
19:44:15.825000,-362.0,98.0,-14.0,-799.0,523.0,130.0,0.0,0.0,0.0
19:44:15.830000,-315.0,108.0,-40.0,-736.0,534.0,119.0,0.0,0.0,0.0
19:44:15.835000,-284.0,114.0,-55.0,-736.0,534.0,119.0,0.0,0.0,0.0
19:44:15.840000,-262.0,116.0,-69.0,-710.0,557.0,116.0,0.0,0.0,0.0
19:44:15.844000,-237.0,117.0,-77.0,-710.0,557.0,116.0,0.0,0.0,0.0
19:44:15.849000,-211.0,121.0,-67.0,-724.0,552.0,105.0,0.0,0.0,0.0
19:44:15.854000,-196.0,122.0,-55.0,-724.0,552.0,105.0,0.0,0.0,0.0
19:44:15.859000,-181.0,121.0,-79.0,-723.0,565.0,90.0,0.0,0.0,0.0
19:44:15.863000,-166.0,118.0,-135.0,-723.0,565.0,90.0,0.0,0.0,0.0
19:44:15.868000,-159.0,113.0,-175.0,-700.0,594.0,84.0,0.0,0.0,0.0
19:44:15.873000,-159.0,109.0,-180.0,-700.0,594.0,84.0,0.0,0.0,0.0
19:44:15.877000,-167.0,110.0,-181.0,-675.0,624.0,81.0,0.0,0.0,0.0
19:44:15.882000,-179.0,109.0,-196.0,-675.0,624.0,81.0,0.0,0.0,0.0
19:44:15.887000,-188.0,107.0,-231.0,-675.0,624.0,81.0,0.0,0.0,0.0
19:44:15.891000,-202.0,103.0,-273.0,-699.0,671.0,77.0,0.0,0.0,0.0
19:44:15.896000,-216.0,99.0,-294.0,-699.0,671.0,77.0,0.0,0.0,0.0
19:44:15.901000,-227.0,92.0,-297.0,-730.0,699.0,81.0,0.0,0.0,0.0
19:44:15.906000,-238.0,82.0,-311.0,-730.0,699.0,81.0,0.0,0.0,0.0
19:44:15.910000,-249.0,72.0,-332.0,-734.0,698.0,93.0,0.0,0.0,0.0
19:44:15.915000,-257.0,65.0,-342.0,-734.0,698.0,93.0,0.0,0.0,0.0
19:44:15.920000,-265.0,63.0,-343.0,-728.0,708.0,102.0,0.0,0.0,0.0
19:44:15.924000,-271.0,61.0,-345.0,-728.0,708.0,102.0,0.0,0.0,0.0
19:44:15.929000,-276.0,62.0,-350.0,-737.0,709.0,101.0,0.0,0.0,0.0
19:44:15.934000,-276.0,62.0,-350.0,-737.0,709.0,101.0,0.0,0.0,0.0
19:44:15.938000,-284.0,61.0,-347.0,-776.0,703.0,99.0,0.0,0.0,0.0
19:44:15.943000,-290.0,60.0,-342.0,-776.0,703.0,99.0,0.0,0.0,0.0
19:44:15.948000,-297.0,57.0,-336.0,-786.0,708.0,109.0,0.0,0.0,0.0
19:44:15.953000,-305.0,53.0,-328.0,-786.0,708.0,109.0,0.0,0.0,0.0
19:44:15.957000,-312.0,51.0,-322.0,-747.0,713.0,125.0,0.0,0.0,0.0
19:44:15.962000,-318.0,50.0,-316.0,-747.0,713.0,125.0,0.0,0.0,0.0
19:44:15.967000,-319.0,51.0,-313.0,-714.0,703.0,136.0,0.0,0.0,0.0
19:44:15.971000,-316.0,53.0,-316.0,-714.0,703.0,136.0,0.0,0.0,0.0
19:44:15.976000,-311.0,55.0,-315.0,-713.0,687.0,139.0,0.0,0.0,0.0
19:44:15.981000,-305.0,58.0,-310.0,-713.0,687.0,139.0,0.0,0.0,0.0
19:44:15.985000,-299.0,62.0,-305.0,-734.0,686.0,141.0,0.0,0.0,0.0
19:44:15.990000,-296.0,70.0,-303.0,-734.0,686.0,141.0,0.0,0.0,0.0
19:44:15.995000,-298.0,83.0,-301.0,-734.0,686.0,141.0,0.0,0.0,0.0
19:44:16.000000,-307.0,100.0,-299.0,-755.0,707.0,140.0,0.0,0.0,0.0
19:44:16.004000,-324.0,118.0,-293.0,-755.0,707.0,140.0,0.0,0.0,0.0
19:44:16.009000,-345.0,135.0,-282.0,-770.0,749.0,136.0,0.0,0.0,0.0
19:44:16.014000,-366.0,150.0,-268.0,-770.0,749.0,136.0,0.0,0.0,0.0
19:44:16.018000,-386.0,165.0,-254.0,-762.0,775.0,133.0,0.0,0.0,0.0
19:44:16.023000,-398.0,180.0,-245.0,-762.0,775.0,133.0,0.0,0.0,0.0
19:44:16.028000,-403.0,193.0,-242.0,-736.0,764.0,121.0,0.0,0.0,0.0
19:44:16.032000,-401.0,204.0,-240.0,-736.0,764.0,121.0,0.0,0.0,0.0
19:44:16.037000,-393.0,210.0,-237.0,-724.0,730.0,97.0,0.0,0.0,0.0
19:44:16.042000,-393.0,210.0,-237.0,-724.0,730.0,97.0,0.0,0.0,0.0
19:44:16.047000,-375.0,214.0,-231.0,-718.0,682.0,68.0,0.0,0.0,0.0
19:44:16.051000,-347.0,212.0,-224.0,-718.0,682.0,68.0,0.0,0.0,0.0
19:44:16.056000,-311.0,208.0,-221.0,-704.0,628.0,32.0,0.0,0.0,0.0
19:44:16.060000,-268.0,205.0,-227.0,-704.0,628.0,32.0,0.0,0.0,0.0
19:44:16.065000,-220.0,199.0,-231.0,-692.0,591.0,-10.0,0.0,0.0,0.0
19:44:16.070000,-173.0,194.0,-232.0,-692.0,591.0,-10.0,0.0,0.0,0.0
19:44:16.075000,-128.0,189.0,-226.0,-684.0,580.0,-52.0,0.0,0.0,0.0
