hh:mm:ss.ms,gyroX[mdps],gyroY[mdps],gyroZ[mdps],accX[mg],accY[mg],accZ[mg],magX[mG],magY[mG],magZ[mG]
19:39:28.649000,-2083.0,-694.0,-2037.0,-572.0,245.0,-998.0,232.0,-492.0,498.0
19:39:28.654000,-2057.0,-655.0,-2103.0,-601.0,281.0,-1018.0,232.0,-492.0,498.0
19:39:28.659000,-2037.0,-685.0,-2135.0,-633.0,341.0,-1004.0,235.0,-502.0,502.0
19:39:28.664000,-2053.0,-688.0,-2148.0,-656.0,507.0,-1058.0,235.0,-502.0,502.0
19:39:28.668000,-2049.0,-658.0,-2165.0,-658.0,647.0,-1055.0,235.0,-502.0,502.0
19:39:28.673000,-2041.0,-701.0,-2135.0,-574.0,604.0,-993.0,243.0,-513.0,495.0
19:39:28.677000,-2072.0,-782.0,-2031.0,-552.0,575.0,-979.0,243.0,-513.0,495.0
19:39:28.682000,-2070.0,-879.0,-2053.0,-652.0,613.0,-954.0,256.0,-520.0,481.0
19:39:28.687000,-2131.0,-961.0,-2152.0,-654.0,560.0,-940.0,256.0,-520.0,481.0
19:39:28.692000,-2199.0,-971.0,-2106.0,-654.0,560.0,-940.0,247.0,-543.0,486.0
19:39:28.696000,-2165.0,-971.0,-1948.0,-688.0,459.0,-1007.0,247.0,-543.0,486.0
19:39:28.701000,-2087.0,-952.0,-1831.0,-707.0,481.0,-1061.0,247.0,-543.0,486.0
19:39:28.706000,-2102.0,-989.0,-1717.0,-680.0,540.0,-1022.0,292.0,-558.0,477.0
19:39:28.711000,-2167.0,-1025.0,-1753.0,-722.0,612.0,-959.0,292.0,-558.0,477.0
19:39:28.715000,-2193.0,-1037.0,-1960.0,-891.0,462.0,-1020.0,294.0,-567.0,459.0
19:39:28.720000,-2118.0,-1042.0,-1831.0,-891.0,462.0,-1020.0,294.0,-567.0,459.0
19:39:28.724000,-2023.0,-1070.0,-1685.0,-659.0,365.0,-1065.0,294.0,-567.0,459.0
19:39:28.729000,-2027.0,-1113.0,-1768.0,-625.0,538.0,-1039.0,312.0,-592.0,456.0
19:39:28.734000,-1956.0,-1112.0,-1873.0,-645.0,590.0,-1036.0,312.0,-592.0,456.0
19:39:28.739000,-1839.0,-1117.0,-1897.0,-651.0,479.0,-1087.0,325.0,-597.0,448.0
19:39:28.743000,-1794.0,-1088.0,-1724.0,-699.0,333.0,-1096.0,325.0,-597.0,448.0
19:39:28.748000,-1794.0,-1088.0,-1724.0,-695.0,243.0,-1034.0,325.0,-597.0,448.0
19:39:28.753000,-1825.0,-1138.0,-1555.0,-625.0,279.0,-1005.0,333.0,-612.0,445.0
19:39:28.758000,-1837.0,-1144.0,-1572.0,-479.0,272.0,-1012.0,333.0,-612.0,445.0
19:39:28.762000,-1796.0,-1139.0,-1593.0,-327.0,140.0,-1003.0,339.0,-609.0,424.0
19:39:28.767000,-1701.0,-1147.0,-1512.0,-237.0,-27.0,-961.0,339.0,-609.0,424.0
19:39:28.771000,-1684.0,-1156.0,-1430.0,-208.0,-227.0,-920.0,339.0,-609.0,424.0
19:39:28.776000,-1619.0,-1182.0,-1323.0,-189.0,-357.0,-896.0,372.0,-622.0,409.0
19:39:28.781000,-1533.0,-1211.0,-1315.0,-90.0,-377.0,-821.0,372.0,-622.0,409.0
19:39:28.786000,-1399.0,-1302.0,-1250.0,24.0,-443.0,-795.0,378.0,-631.0,411.0
19:39:28.790000,-1232.0,-1346.0,-1148.0,60.0,-651.0,-778.0,378.0,-631.0,411.0
19:39:28.795000,-1134.0,-1374.0,-1165.0,74.0,-876.0,-695.0,378.0,-631.0,411.0
19:39:28.800000,-1085.0,-1457.0,-1111.0,-12.0,-1062.0,-685.0,381.0,-627.0,396.0
19:39:28.805000,-1131.0,-1433.0,-1061.0,111.0,-965.0,-704.0,381.0,-627.0,396.0
19:39:28.809000,-1198.0,-1348.0,-989.0,111.0,-965.0,-704.0,397.0,-640.0,399.0
19:39:28.814000,-1085.0,-1330.0,-1017.0,257.0,-647.0,-716.0,397.0,-640.0,399.0
19:39:28.818000,-1192.0,-1325.0,-1171.0,2.0,-528.0,-669.0,397.0,-640.0,399.0
19:39:28.823000,-1235.0,-1295.0,-1145.0,-254.0,-674.0,-642.0,402.0,-628.0,372.0
19:39:28.828000,-1229.0,-1249.0,-1240.0,-315.0,-793.0,-717.0,402.0,-628.0,372.0
19:39:28.833000,-1243.0,-1241.0,-1479.0,-351.0,-617.0,-749.0,414.0,-639.0,369.0
19:39:28.837000,-1226.0,-1269.0,-1550.0,-421.0,-372.0,-754.0,414.0,-639.0,369.0
19:39:28.842000,-1226.0,-1269.0,-1550.0,-483.0,-273.0,-781.0,414.0,-639.0,369.0
19:39:28.847000,-1116.0,-1306.0,-1634.0,-524.0,-354.0,-825.0,433.0,-640.0,343.0
19:39:28.852000,-1089.0,-1273.0,-1682.0,-512.0,-535.0,-871.0,433.0,-640.0,343.0
19:39:28.856000,-1089.0,-1273.0,-1682.0,-450.0,-703.0,-904.0,463.0,-630.0,343.0
19:39:28.861000,-1068.0,-1246.0,-1521.0,-499.0,-744.0,-882.0,463.0,-630.0,343.0
19:39:28.865000,-1094.0,-1287.0,-1404.0,-522.0,-570.0,-872.0,463.0,-630.0,343.0
19:39:28.870000,-1121.0,-1324.0,-1503.0,-409.0,-465.0,-895.0,457.0,-627.0,330.0
19:39:28.875000,-1152.0,-1311.0,-1512.0,-343.0,-526.0,-906.0,457.0,-627.0,330.0
19:39:28.879000,-1130.0,-1340.0,-1333.0,-363.0,-598.0,-918.0,466.0,-637.0,328.0
19:39:28.884000,-1099.0,-1351.0,-1316.0,-410.0,-661.0,-916.0,466.0,-637.0,328.0
19:39:28.889000,-1015.0,-1428.0,-1339.0,-395.0,-735.0,-914.0,466.0,-637.0,328.0
19:39:28.894000,-921.0,-1495.0,-1206.0,-481.0,-823.0,-939.0,480.0,-630.0,310.0
19:39:28.899000,-873.0,-1533.0,-1050.0,-648.0,-827.0,-947.0,480.0,-630.0,310.0
19:39:28.903000,-801.0,-1593.0,-942.0,-648.0,-738.0,-942.0,483.0,-631.0,301.0
19:39:28.908000,-757.0,-1639.0,-864.0,-710.0,-699.0,-927.0,483.0,-631.0,301.0
19:39:28.912000,-788.0,-1649.0,-756.0,-683.0,-674.0,-930.0,483.0,-631.0,301.0
19:39:28.917000,-732.0,-1642.0,-695.0,-590.0,-666.0,-931.0,510.0,-634.0,297.0
19:39:28.922000,-646.0,-1658.0,-704.0,-590.0,-666.0,-931.0,510.0,-634.0,297.0
19:39:28.927000,-644.0,-1704.0,-860.0,-512.0,-716.0,-872.0,516.0,-622.0,273.0
19:39:28.931000,-676.0,-1733.0,-1078.0,-536.0,-699.0,-809.0,516.0,-622.0,273.0
19:39:28.936000,-605.0,-1712.0,-1087.0,-478.0,-662.0,-806.0,516.0,-622.0,273.0
19:39:28.941000,-554.0,-1674.0,-958.0,-354.0,-696.0,-805.0,517.0,-628.0,256.0
19:39:28.946000,-546.0,-1661.0,-975.0,-355.0,-695.0,-750.0,517.0,-628.0,256.0
19:39:28.950000,-547.0,-1619.0,-1143.0,-476.0,-611.0,-707.0,526.0,-613.0,253.0
19:39:28.955000,-555.0,-1569.0,-1248.0,-628.0,-569.0,-694.0,526.0,-613.0,253.0
19:39:28.959000,-555.0,-1569.0,-1248.0,-720.0,-550.0,-683.0,526.0,-613.0,253.0
19:39:28.964000,-552.0,-1525.0,-1286.0,-766.0,-497.0,-658.0,529.0,-612.0,241.0
19:39:28.969000,-544.0,-1507.0,-1339.0,-768.0,-485.0,-635.0,529.0,-612.0,241.0
19:39:28.974000,-553.0,-1456.0,-1338.0,-714.0,-510.0,-619.0,534.0,-610.0,237.0
19:39:28.978000,-570.0,-1416.0,-1342.0,-699.0,-445.0,-598.0,534.0,-610.0,237.0
19:39:28.983000,-557.0,-1380.0,-1456.0,-692.0,-376.0,-591.0,534.0,-610.0,237.0
19:39:28.988000,-529.0,-1322.0,-1524.0,-650.0,-406.0,-557.0,543.0,-601.0,222.0
19:39:28.993000,-521.0,-1304.0,-1454.0,-627.0,-425.0,-535.0,543.0,-601.0,222.0
19:39:28.997000,-517.0,-1273.0,-1374.0,-668.0,-372.0,-531.0,565.0,-586.0,207.0
19:39:29.002000,-534.0,-1239.0,-1395.0,-744.0,-304.0,-517.0,565.0,-586.0,207.0
19:39:29.006000,-519.0,-1200.0,-1438.0,-796.0,-309.0,-524.0,565.0,-586.0,207.0
19:39:29.011000,-487.0,-1159.0,-1410.0,-847.0,-351.0,-513.0,546.0,-577.0,195.0
19:39:29.016000,-468.0,-1141.0,-1344.0,-821.0,-352.0,-496.0,546.0,-577.0,195.0
19:39:29.021000,-482.0,-1114.0,-1228.0,-821.0,-352.0,-496.0,574.0,-577.0,190.0
19:39:29.025000,-501.0,-1096.0,-1193.0,-944.0,-324.0,-498.0,574.0,-577.0,190.0
19:39:29.030000,-455.0,-1053.0,-1194.0,-944.0,-324.0,-498.0,574.0,-577.0,190.0
19:39:29.035000,-370.0,-1015.0,-1033.0,-920.0,-357.0,-540.0,567.0,-570.0,181.0
19:39:29.040000,-354.0,-989.0,-768.0,-809.0,-405.0,-528.0,567.0,-570.0,181.0
19:39:29.044000,-405.0,-1010.0,-620.0,-825.0,-336.0,-435.0,568.0,-558.0,168.0
19:39:29.049000,-415.0,-1035.0,-759.0,-825.0,-336.0,-435.0,568.0,-558.0,168.0
19:39:29.053000,-351.0,-1010.0,-891.0,-876.0,-244.0,-490.0,568.0,-558.0,168.0
19:39:29.058000,-296.0,-984.0,-764.0,-824.0,-190.0,-510.0,565.0,-547.0,171.0
19:39:29.063000,-243.0,-994.0,-606.0,-864.0,-151.0,-488.0,565.0,-547.0,171.0
19:39:29.068000,-288.0,-1025.0,-595.0,-1035.0,-124.0,-444.0,580.0,-553.0,153.0
19:39:29.072000,-370.0,-1022.0,-625.0,-1144.0,-145.0,-409.0,580.0,-553.0,153.0
19:39:29.077000,-370.0,-1022.0,-625.0,-1108.0,-191.0,-417.0,580.0,-553.0,153.0
19:39:29.082000,-408.0,-1019.0,-632.0,-957.0,-251.0,-411.0,579.0,-541.0,150.0
19:39:29.087000,-456.0,-1015.0,-555.0,-826.0,-281.0,-382.0,579.0,-541.0,150.0
19:39:29.091000,-478.0,-1055.0,-457.0,-770.0,-230.0,-362.0,597.0,-544.0,138.0
19:39:29.096000,-473.0,-1079.0,-479.0,-735.0,-174.0,-359.0,597.0,-544.0,138.0
19:39:29.100000,-462.0,-1059.0,-580.0,-692.0,-276.0,-351.0,597.0,-544.0,138.0
19:39:29.105000,-424.0,-1054.0,-538.0,-704.0,-400.0,-323.0,591.0,-543.0,142.0
19:39:29.110000,-372.0,-1087.0,-498.0,-801.0,-349.0,-294.0,591.0,-543.0,142.0
19:39:29.115000,-341.0,-1089.0,-605.0,-863.0,-296.0,-294.0,576.0,-541.0,129.0
19:39:29.119000,-338.0,-1071.0,-663.0,-867.0,-347.0,-279.0,576.0,-541.0,129.0
19:39:29.127000,-335.0,-1070.0,-671.0,-981.0,-312.0,-275.0,592.0,-538.0,114.0
19:39:29.129000,-335.0,-1070.0,-671.0,-981.0,-312.0,-275.0,592.0,-538.0,114.0
19:39:29.133000,-320.0,-1060.0,-725.0,-1029.0,-272.0,-265.0,592.0,-538.0,114.0
19:39:29.138000,-308.0,-1059.0,-753.0,-1029.0,-272.0,-265.0,586.0,-517.0,109.0
19:39:29.143000,-280.0,-1046.0,-732.0,-1021.0,-275.0,-267.0,586.0,-517.0,109.0
19:39:29.148000,-255.0,-1027.0,-691.0,-987.0,-299.0,-273.0,591.0,-517.0,103.0
19:39:29.152000,-235.0,-1007.0,-627.0,-982.0,-298.0,-265.0,591.0,-517.0,103.0
19:39:29.156000,-224.0,-987.0,-580.0,-1009.0,-258.0,-247.0,591.0,-517.0,103.0
19:39:29.161000,-203.0,-948.0,-604.0,-1075.0,-170.0,-244.0,591.0,-514.0,97.0
19:39:29.166000,-199.0,-912.0,-652.0,-1142.0,-90.0,-244.0,591.0,-514.0,97.0
19:39:29.171000,-249.0,-889.0,-602.0,-1134.0,-81.0,-206.0,591.0,-517.0,114.0
19:39:29.176000,-268.0,-875.0,-504.0,-1085.0,-97.0,-186.0,591.0,-517.0,114.0
19:39:29.180000,-268.0,-875.0,-504.0,-1077.0,-112.0,-195.0,591.0,-517.0,114.0
19:39:29.185000,-286.0,-844.0,-483.0,-1118.0,-56.0,-183.0,591.0,-507.0,82.0
19:39:29.190000,-329.0,-816.0,-554.0,-1131.0,70.0,-171.0,591.0,-507.0,82.0
19:39:29.195000,-378.0,-789.0,-634.0,-1059.0,83.0,-156.0,586.0,-508.0,76.0
19:39:29.199000,-440.0,-774.0,-609.0,-981.0,-2.0,-149.0,586.0,-508.0,76.0
19:39:29.203000,-466.0,-753.0,-570.0,-1008.0,-76.0,-158.0,586.0,-508.0,76.0
19:39:29.209000,-481.0,-719.0,-601.0,-1079.0,-106.0,-155.0,591.0,-492.0,63.0
19:39:29.213000,-494.0,-700.0,-589.0,-1069.0,-131.0,-146.0,591.0,-492.0,63.0
19:39:29.218000,-508.0,-686.0,-445.0,-1024.0,-150.0,-143.0,595.0,-486.0,63.0
19:39:29.223000,-527.0,-662.0,-312.0,-1042.0,-118.0,-148.0,595.0,-486.0,63.0
19:39:29.227000,-519.0,-640.0,-325.0,-1079.0,-81.0,-159.0,595.0,-486.0,63.0
19:39:29.232000,-489.0,-613.0,-420.0,-1068.0,-99.0,-165.0,585.0,-490.0,58.0
19:39:29.237000,-448.0,-590.0,-443.0,-1042.0,-144.0,-160.0,585.0,-490.0,58.0
19:39:29.242000,-443.0,-554.0,-391.0,-1042.0,-144.0,-160.0,586.0,-478.0,49.0
19:39:29.246000,-453.0,-526.0,-330.0,-1043.0,-165.0,-151.0,586.0,-478.0,49.0
19:39:29.250000,-441.0,-507.0,-309.0,-1055.0,-145.0,-147.0,586.0,-478.0,49.0
19:39:29.256000,-422.0,-486.0,-312.0,-1055.0,-145.0,-147.0,591.0,-481.0,48.0
19:39:29.260000,-416.0,-463.0,-290.0,-1029.0,-143.0,-145.0,591.0,-481.0,48.0
19:39:29.265000,-417.0,-439.0,-289.0,-1013.0,-125.0,-143.0,600.0,-477.0,52.0
19:39:29.270000,-417.0,-416.0,-291.0,-1012.0,-94.0,-142.0,600.0,-477.0,52.0
19:39:29.274000,-424.0,-399.0,-240.0,-995.0,-100.0,-141.0,600.0,-477.0,52.0
19:39:29.279000,-436.0,-382.0,-171.0,-970.0,-119.0,-141.0,585.0,-477.0,39.0
19:39:29.284000,-432.0,-366.0,-148.0,-961.0,-103.0,-140.0,585.0,-477.0,39.0
19:39:29.289000,-437.0,-346.0,-157.0,-968.0,-73.0,-138.0,589.0,-472.0,30.0
19:39:29.293000,-437.0,-346.0,-157.0,-970.0,-54.0,-130.0,589.0,-472.0,30.0
19:39:29.297000,-451.0,-331.0,-165.0,-967.0,-44.0,-122.0,589.0,-472.0,30.0
19:39:29.303000,-464.0,-315.0,-165.0,-959.0,-32.0,-119.0,580.0,-472.0,33.0
19:39:29.307000,-473.0,-308.0,-169.0,-946.0,-26.0,-112.0,580.0,-472.0,33.0
19:39:29.312000,-488.0,-305.0,-166.0,-935.0,-47.0,-103.0,594.0,-475.0,24.0
19:39:29.317000,-509.0,-296.0,-144.0,-948.0,-55.0,-99.0,594.0,-475.0,24.0
19:39:29.321000,-523.0,-290.0,-137.0,-975.0,-30.0,-97.0,594.0,-475.0,24.0
19:39:29.326000,-541.0,-284.0,-161.0,-964.0,-6.0,-93.0,591.0,-456.0,30.0
19:39:29.331000,-560.0,-285.0,-161.0,-935.0,10.0,-90.0,591.0,-456.0,30.0
19:39:29.336000,-590.0,-279.0,-144.0,-939.0,42.0,-80.0,589.0,-459.0,30.0
19:39:29.340000,-628.0,-280.0,-147.0,-963.0,70.0,-72.0,589.0,-459.0,30.0
19:39:29.344000,-655.0,-282.0,-165.0,-970.0,69.0,-66.0,589.0,-459.0,30.0
19:39:29.350000,-690.0,-277.0,-153.0,-980.0,70.0,-56.0,586.0,-453.0,22.0
19:39:29.354000,-734.0,-273.0,-130.0,-980.0,88.0,-44.0,586.0,-453.0,22.0
19:39:29.359000,-787.0,-271.0,-102.0,-996.0,88.0,-44.0,591.0,-448.0,30.0
19:39:29.364000,-840.0,-268.0,-99.0,-1011.0,126.0,-33.0,591.0,-448.0,30.0
19:39:29.368000,-892.0,-270.0,-101.0,-1015.0,167.0,-23.0,591.0,-448.0,30.0
19:39:29.373000,-952.0,-276.0,-111.0,-1006.0,179.0,-10.0,592.0,-447.0,22.0
19:39:29.378000,-1012.0,-284.0,-126.0,-1005.0,177.0,0.0,592.0,-447.0,22.0
19:39:29.382000,-1075.0,-296.0,-116.0,-1003.0,168.0,5.0,600.0,-450.0,7.0
19:39:29.387000,-1153.0,-310.0,-79.0,-1002.0,146.0,13.0,600.0,-450.0,7.0
19:39:29.391000,-1153.0,-310.0,-79.0,-1017.0,169.0,16.0,600.0,-450.0,7.0
19:39:29.396000,-1234.0,-325.0,-39.0,-1034.0,216.0,30.0,588.0,-441.0,13.0
19:39:29.401000,-1397.0,-527.0,-110.0,-1043.0,278.0,45.0,588.0,-441.0,13.0
19:39:29.406000,-1397.0,-375.0,-110.0,-1021.0,325.0,55.0,595.0,-430.0,12.0
19:39:29.411000,-1492.0,-403.0,-119.0,-970.0,308.0,80.0,595.0,-430.0,12.0
19:39:29.415000,-1598.0,-445.0,-39.0,-951.0,285.0,103.0,595.0,-430.0,12.0
19:39:29.420000,-1708.0,-488.0,32.0,-964.0,329.0,121.0,588.0,-433.0,0.0
19:39:29.425000,-1822.0,-529.0,17.0,-959.0,342.0,136.0,588.0,-433.0,0.0
19:39:29.429000,-1939.0,-577.0,28.0,-930.0,305.0,150.0,585.0,-423.0,3.0
19:39:29.434000,-2041.0,-628.0,72.0,-926.0,310.0,155.0,585.0,-423.0,3.0
19:39:29.438000,-2141.0,-680.0,91.0,-933.0,315.0,170.0,585.0,-423.0,3.0
19:39:29.444000,-2249.0,-742.0,102.0,-917.0,317.0,190.0,592.0,-405.0,-1.0
19:39:29.448000,-2354.0,-808.0,98.0,-900.0,303.0,197.0,592.0,-405.0,-1.0
19:39:29.453000,-2461.0,-879.0,91.0,-900.0,303.0,197.0,585.0,-412.0,-9.0
19:39:29.458000,-2573.0,-959.0,102.0,-837.0,306.0,231.0,585.0,-412.0,-9.0
19:39:29.462000,-2692.0,-1046.0,103.0,-807.0,344.0,252.0,585.0,-412.0,-9.0
19:39:29.467000,-2802.0,-1136.0,81.0,-807.0,344.0,252.0,582.0,-400.0,-6.0
19:39:29.471000,-2926.0,-1223.0,75.0,-732.0,297.0,302.0,582.0,-400.0,-6.0
19:39:29.477000,-3034.0,-1322.0,67.0,-732.0,297.0,302.0,576.0,-387.0,-19.0
19:39:29.481000,-3127.0,-1419.0,-16.0,-754.0,268.0,329.0,576.0,-387.0,-19.0
19:39:29.486000,-3205.0,-1524.0,-128.0,-789.0,239.0,360.0,571.0,-372.0,-25.0
19:39:29.491000,-3280.0,-1627.0,-182.0,-780.0,181.0,400.0,571.0,-372.0,-25.0
19:39:29.495000,-3364.0,-1724.0,-215.0,-742.0,118.0,434.0,571.0,-372.0,-25.0
19:39:29.500000,-3449.0,-1823.0,-315.0,-733.0,132.0,470.0,564.0,-364.0,-22.0
19:39:29.505000,-3546.0,-1912.0,-448.0,-733.0,198.0,514.0,564.0,-364.0,-22.0
19:39:29.510000,-3637.0,-1996.0,-498.0,-707.0,224.0,560.0,556.0,-333.0,-43.0
19:39:29.514000,-3637.0,-1996.0,-498.0,-707.0,237.0,613.0,556.0,-333.0,-43.0
19:39:29.518000,-3740.0,-2069.0,-529.0,-752.0,256.0,666.0,556.0,-333.0,-43.0
19:39:29.524000,-3836.0,-2135.0,-562.0,-814.0,284.0,711.0,546.0,-312.0,-36.0
19:39:29.528000,-3943.0,-2190.0,-626.0,-871.0,313.0,765.0,546.0,-312.0,-36.0
19:39:29.533000,-4056.0,-2248.0,-700.0,-879.0,337.0,818.0,532.0,-292.0,-51.0
19:39:29.538000,-4154.0,-2288.0,-749.0,-870.0,345.0,862.0,532.0,-292.0,-51.0
19:39:29.542000,-4260.0,-2324.0,-771.0,-879.0,373.0,916.0,532.0,-292.0,-51.0
19:39:29.547000,-4340.0,-2373.0,-824.0,-882.0,391.0,966.0,534.0,-273.0,-42.0
19:39:29.552000,-4412.0,-2405.0,-885.0,-882.0,362.0,1006.0,534.0,-273.0,-42.0
19:39:29.556000,-4470.0,-2429.0,-938.0,-902.0,325.0,1045.0,501.0,-244.0,-54.0
19:39:29.561000,-4509.0,-2452.0,-1004.0,-910.0,295.0,1070.0,501.0,-244.0,-54.0
19:39:29.565000,-4536.0,-2459.0,-1103.0,-890.0,252.0,1081.0,501.0,-244.0,-54.0
19:39:29.571000,-4535.0,-2466.0,-1177.0,-868.0,208.0,1082.0,487.0,-220.0,-42.0
19:39:29.575000,-4529.0,-2464.0,-1205.0,-868.0,208.0,1082.0,487.0,-220.0,-42.0
19:39:29.580000,-4531.0,-2457.0,-1246.0,-880.0,208.0,1080.0,483.0,-201.0,-34.0
19:39:29.585000,-4529.0,-2438.0,-1350.0,-928.0,258.0,1071.0,483.0,-201.0,-34.0
19:39:29.589000,-4513.0,-2433.0,-1430.0,-966.0,302.0,1061.0,483.0,-201.0,-34.0
19:39:29.594000,-4492.0,-2422.0,-1460.0,-968.0,291.0,1051.0,459.0,-154.0,-25.0
19:39:29.598000,-4454.0,-2412.0,-1462.0,-939.0,261.0,1037.0,459.0,-154.0,-25.0
19:39:29.604000,-4422.0,-2384.0,-1460.0,-924.0,251.0,1022.0,418.0,-135.0,0.0
19:39:29.608000,-4388.0,-2369.0,-1465.0,-933.0,251.0,1009.0,418.0,-135.0,0.0
19:39:29.613000,-4331.0,-2347.0,-1505.0,-938.0,261.0,987.0,418.0,-105.0,3.0
19:39:29.618000,-4265.0,-2320.0,-1549.0,-926.0,288.0,945.0,418.0,-105.0,3.0
19:39:29.622000,-4265.0,-2320.0,-1549.0,-908.0,306.0,908.0,418.0,-105.0,3.0
19:39:29.626000,-4202.0,-2277.0,-1560.0,-920.0,300.0,874.0,408.0,-81.0,27.0
19:39:29.632000,-4141.0,-2230.0,-1521.0,-956.0,288.0,849.0,408.0,-81.0,27.0
19:39:29.636000,-4057.0,-2212.0,-1462.0,-962.0,301.0,828.0,393.0,-76.0,31.0
19:39:29.640000,-3961.0,-2204.0,-1427.0,-917.0,302.0,792.0,393.0,-76.0,31.0
19:39:29.645000,-3876.0,-2177.0,-1400.0,-854.0,266.0,749.0,393.0,-76.0,31.0
19:39:29.651000,-3765.0,-2156.0,-1372.0,-809.0,241.0,701.0,373.0,-54.0,64.0
19:39:29.655000,-3647.0,-2125.0,-1367.0,-788.0,247.0,664.0,373.0,-54.0,64.0
19:39:29.660000,-3539.0,-2109.0,-1348.0,-769.0,264.0,629.0,357.0,-37.0,91.0
19:39:29.665000,-3435.0,-2080.0,-1296.0,-775.0,300.0,574.0,357.0,-37.0,91.0
19:39:29.669000,-3330.0,-2036.0,-1257.0,-803.0,361.0,528.0,357.0,-37.0,91.0
19:39:29.674000,-3236.0,-1997.0,-1229.0,-807.0,398.0,497.0,336.0,-19.0,106.0
19:39:29.679000,-3154.0,-1959.0,-1185.0,-796.0,417.0,464.0,336.0,-19.0,106.0
19:39:29.683000,-3057.0,-1926.0,-1161.0,-775.0,428.0,425.0,324.0,-9.0,118.0
19:39:29.688000,-2954.0,-1892.0,-1145.0,-775.0,428.0,425.0,324.0,-9.0,118.0
19:39:29.692000,-2861.0,-1854.0,-1127.0,-745.0,425.0,392.0,324.0,-9.0,118.0
19:39:29.697000,-2765.0,-1823.0,-1104.0,-720.0,427.0,363.0,315.0,-3.0,130.0
19:39:29.702000,-2671.0,-1787.0,-1082.0,-695.0,432.0,330.0,315.0,-3.0,130.0
19:39:29.707000,-2576.0,-1747.0,-1061.0,-675.0,446.0,300.0,307.0,1.0,156.0
19:39:29.712000,-2482.0,-1717.0,-1029.0,-660.0,464.0,280.0,307.0,1.0,156.0
19:39:29.716000,-2482.0,-1717.0,-1029.0,-643.0,482.0,261.0,307.0,1.0,156.0
19:39:29.721000,-2289.0,-1652.0,-982.0,-628.0,499.0,239.0,298.0,-4.0,172.0
19:39:29.726000,-2191.0,-1621.0,-960.0,-609.0,512.0,218.0,298.0,-4.0,172.0
19:39:29.730000,-2191.0,-1621.0,-960.0,-588.0,517.0,197.0,280.0,6.0,208.0
19:39:29.735000,-2098.0,-1589.0,-920.0,-574.0,522.0,180.0,280.0,6.0,208.0
19:39:29.739000,-2005.0,-1561.0,-867.0,-573.0,527.0,165.0,280.0,6.0,208.0
19:39:29.744000,-1908.0,-1533.0,-814.0,-576.0,528.0,151.0,267.0,10.0,214.0
19:39:29.749000,-1811.0,-1493.0,-770.0,-574.0,524.0,142.0,267.0,10.0,214.0
19:39:29.754000,-1715.0,-1455.0,-724.0,-565.0,521.0,138.0,264.0,3.0,220.0
19:39:29.759000,-1624.0,-1415.0,-667.0,-562.0,524.0,130.0,264.0,3.0,220.0
19:39:29.763000,-1537.0,-1369.0,-604.0,-571.0,533.0,127.0,264.0,3.0,220.0
19:39:29.768000,-1451.0,-1326.0,-544.0,-578.0,546.0,139.0,262.0,13.0,228.0
19:39:29.773000,-1374.0,-1283.0,-488.0,-566.0,550.0,157.0,262.0,13.0,228.0
19:39:29.777000,-1309.0,-1234.0,-426.0,-542.0,543.0,176.0,255.0,10.0,249.0
19:39:29.782000,-1247.0,-1183.0,-359.0,-519.0,537.0,188.0,255.0,10.0,249.0
19:39:29.786000,-1192.0,-1124.0,-308.0,-511.0,538.0,194.0,255.0,10.0,249.0
19:39:29.791000,-1143.0,-1057.0,-266.0,-521.0,562.0,198.0,255.0,9.0,250.0
19:39:29.796000,-1104.0,-990.0,-237.0,-521.0,562.0,198.0,255.0,9.0,250.0
19:39:29.801000,-1077.0,-919.0,-213.0,-544.0,609.0,197.0,255.0,7.0,271.0
19:39:29.806000,-1060.0,-847.0,-189.0,-573.0,655.0,189.0,255.0,7.0,271.0
19:39:29.810000,-1048.0,-778.0,-170.0,-607.0,686.0,179.0,255.0,7.0,271.0
19:39:29.815000,-1040.0,-710.0,-163.0,-630.0,694.0,168.0,261.0,0.0,267.0
19:39:29.820000,-1025.0,-648.0,-166.0,-624.0,679.0,153.0,261.0,0.0,267.0
19:39:29.824000,-999.0,-595.0,-177.0,-592.0,657.0,138.0,255.0,18.0,277.0
19:39:29.829000,-966.0,-544.0,-206.0,-550.0,640.0,124.0,255.0,18.0,277.0
19:39:29.833000,-966.0,-544.0,-206.0,-504.0,626.0,112.0,255.0,18.0,277.0
19:39:29.838000,-889.0,-471.0,-247.0,-456.0,609.0,108.0,259.0,7.0,277.0
19:39:29.843000,-889.0,-471.0,-247.0,-422.0,598.0,111.0,259.0,7.0,277.0
19:39:29.848000,-855.0,-449.0,-250.0,-400.0,605.0,114.0,255.0,13.0,289.0
19:39:29.853000,-815.0,-435.0,-246.0,-377.0,622.0,114.0,255.0,13.0,289.0
19:39:29.857000,-778.0,-421.0,-247.0,-357.0,640.0,111.0,255.0,13.0,289.0
19:39:29.861000,-738.0,-408.0,-249.0,-339.0,658.0,105.0,246.0,3.0,321.0
19:39:29.867000,-695.0,-394.0,-254.0,-326.0,673.0,99.0,246.0,3.0,321.0
19:39:29.871000,-653.0,-382.0,-259.0,-324.0,699.0,96.0,246.0,3.0,321.0
19:39:29.876000,-609.0,-369.0,-271.0,-326.0,726.0,95.0,246.0,3.0,321.0
19:39:29.880000,-567.0,-357.0,-266.0,-321.0,734.0,103.0,246.0,3.0,321.0
19:39:29.885000,-529.0,-348.0,-239.0,-311.0,725.0,116.0,253.0,10.0,307.0
19:39:29.890000,-493.0,-345.0,-205.0,-286.0,702.0,131.0,253.0,10.0,307.0
19:39:29.895000,-449.0,-343.0,-179.0,-286.0,702.0,131.0,250.0,-3.0,309.0
19:39:29.900000,-406.0,-340.0,-156.0,-180.0,665.0,157.0,250.0,-3.0,309.0
19:39:29.904000,-369.0,-335.0,-114.0,-180.0,665.0,157.0,250.0,-3.0,309.0
19:39:29.909000,-339.0,-329.0,-61.0,-133.0,735.0,171.0,247.0,4.0,312.0
19:39:29.914000,-313.0,-318.0,-32.0,-128.0,735.0,171.0,247.0,4.0,312.0
19:39:29.918000,-298.0,-308.0,-25.0,-161.0,801.0,178.0,237.0,4.0,318.0
19:39:29.923000,-293.0,-298.0,-9.0,-195.0,840.0,189.0,237.0,4.0,318.0
19:39:29.927000,-286.0,-284.0,18.0,-214.0,840.0,191.0,237.0,4.0,318.0
19:39:29.932000,-273.0,-264.0,36.0,-238.0,826.0,182.0,256.0,1.0,309.0
19:39:29.937000,-259.0,-241.0,44.0,-277.0,814.0,173.0,256.0,1.0,309.0
19:39:29.942000,-245.0,-219.0,63.0,-312.0,799.0,167.0,243.0,-1.0,322.0
19:39:29.947000,-214.0,-200.0,105.0,-325.0,780.0,159.0,243.0,-1.0,322.0
19:39:29.951000,-214.0,-200.0,105.0,-330.0,765.0,150.0,243.0,-1.0,322.0
19:39:29.956000,-178.0,-176.0,143.0,-346.0,761.0,142.0,249.0,0.0,324.0
19:39:29.961000,-147.0,-149.0,161.0,-361.0,764.0,135.0,249.0,0.0,324.0
19:39:29.965000,-119.0,-116.0,174.0,-374.0,763.0,132.0,246.0,0.0,322.0
19:39:29.970000,-96.0,-81.0,207.0,-391.0,757.0,131.0,246.0,0.0,322.0
19:39:29.974000,-73.0,-49.0,260.0,-412.0,756.0,128.0,246.0,0.0,322.0
19:39:29.979000,-48.0,-16.0,290.0,-430.0,770.0,123.0,246.0,-7.0,321.0
19:39:29.984000,-16.0,15.0,282.0,-428.0,777.0,124.0,246.0,-7.0,321.0
19:39:29.989000,9.0,45.0,275.0,-403.0,764.0,123.0,264.0,7.0,327.0
19:39:29.994000,42.0,70.0,284.0,-382.0,751.0,122.0,264.0,7.0,327.0
19:39:29.998000,72.0,91.0,279.0,-369.0,753.0,124.0,264.0,7.0,327.0
19:39:30.003000,103.0,106.0,247.0,-349.0,754.0,124.0,262.0,7.0,345.0
19:39:30.008000,142.0,116.0,217.0,-323.0,745.0,125.0,262.0,7.0,345.0
19:39:30.012000,179.0,125.0,208.0,-323.0,745.0,125.0,262.0,7.0,345.0
19:39:30.017000,217.0,125.0,196.0,-310.0,745.0,130.0,262.0,7.0,345.0
19:39:30.021000,254.0,124.0,155.0,-303.0,764.0,135.0,262.0,7.0,345.0
19:39:30.026000,288.0,116.0,132.0,-286.0,767.0,142.0,262.0,1.0,316.0
19:39:30.031000,312.0,105.0,142.0,-263.0,750.0,154.0,262.0,1.0,316.0
19:39:30.036000,324.0,92.0,149.0,-249.0,763.0,164.0,258.0,6.0,316.0
19:39:30.041000,355.0,79.0,123.0,-253.0,807.0,175.0,258.0,6.0,316.0
19:39:30.045000,355.0,79.0,123.0,-265.0,811.0,180.0,258.0,6.0,316.0
19:39:30.050000,359.0,55.0,112.0,-271.0,805.0,183.0,271.0,15.0,316.0
19:39:30.054000,359.0,55.0,112.0,-278.0,833.0,198.0,271.0,15.0,316.0
19:39:30.059000,351.0,40.0,116.0,-285.0,861.0,209.0,252.0,3.0,318.0
19:39:30.064000,347.0,29.0,87.0,-281.0,880.0,204.0,252.0,3.0,318.0
19:39:30.069000,344.0,18.0,52.0,-271.0,889.0,200.0,256.0,16.0,306.0
19:39:30.073000,344.0,8.0,23.0,-269.0,884.0,199.0,256.0,16.0,306.0
19:39:30.078000,350.0,0.0,0.0,-273.0,854.0,191.0,256.0,16.0,306.0
19:39:30.083000,358.0,-2.0,-12.0,-289.0,830.0,173.0,268.0,9.0,316.0
19:39:30.088000,373.0,-4.0,-14.0,-317.0,820.0,157.0,268.0,9.0,316.0
19:39:30.092000,396.0,-6.0,-23.0,-338.0,807.0,139.0,262.0,7.0,312.0
19:39:30.097000,431.0,-7.0,-51.0,-339.0,789.0,123.0,262.0,7.0,312.0
19:39:30.101000,463.0,-12.0,-72.0,-326.0,785.0,112.0,262.0,7.0,312.0
19:39:30.106000,504.0,-22.0,-99.0,-308.0,802.0,104.0,270.0,9.0,313.0
19:39:30.111000,531.0,-39.0,-150.0,-272.0,858.0,93.0,270.0,9.0,313.0
19:39:30.116000,603.0,-56.0,-238.0,-272.0,858.0,93.0,258.0,12.0,298.0
19:39:30.120000,627.0,-79.0,-215.0,-240.0,740.0,98.0,258.0,12.0,298.0
19:39:30.125000,651.0,-97.0,-154.0,-258.0,740.0,103.0,258.0,12.0,298.0
19:39:30.130000,681.0,-113.0,-174.0,-304.0,819.0,95.0,252.0,9.0,291.0
19:39:30.135000,698.0,-129.0,-208.0,-321.0,897.0,101.0,252.0,9.0,291.0
19:39:30.139000,703.0,-146.0,-229.0,-311.0,932.0,111.0,255.0,10.0,289.0
19:39:30.144000,709.0,-165.0,-225.0,-293.0,928.0,120.0,255.0,10.0,289.0
19:39:30.148000,721.0,-182.0,-202.0,-273.0,896.0,119.0,255.0,10.0,289.0
19:39:30.153000,732.0,-191.0,-188.0,-277.0,868.0,108.0,241.0,12.0,301.0
19:39:30.158000,744.0,-196.0,-193.0,-315.0,880.0,101.0,241.0,12.0,301.0
19:39:30.163000,758.0,-204.0,-205.0,-351.0,909.0,100.0,241.0,12.0,301.0
19:39:30.167000,758.0,-204.0,-205.0,-355.0,905.0,99.0,241.0,12.0,301.0
19:39:30.172000,777.0,-215.0,-198.0,-337.0,866.0,100.0,241.0,12.0,301.0
19:39:30.177000,812.0,-231.0,-186.0,-313.0,818.0,103.0,256.0,7.0,279.0
19:39:30.182000,858.0,-249.0,-186.0,-287.0,798.0,113.0,256.0,7.0,279.0
19:39:30.186000,908.0,-268.0,-198.0,-264.0,781.0,127.0,241.0,19.0,264.0
19:39:30.191000,958.0,-287.0,-193.0,-260.0,754.0,136.0,241.0,19.0,264.0
19:39:30.195000,1012.0,-305.0,-177.0,-277.0,744.0,146.0,241.0,19.0,264.0
19:39:30.200000,1071.0,-325.0,-168.0,-300.0,745.0,158.0,250.0,25.0,261.0
19:39:30.205000,1132.0,-347.0,-171.0,-310.0,749.0,172.0,250.0,25.0,261.0
19:39:30.210000,1201.0,-370.0,-179.0,-300.0,748.0,185.0,255.0,13.0,255.0
19:39:30.214000,1272.0,-389.0,-186.0,-264.0,834.0,196.0,255.0,13.0,255.0
19:39:30.219000,1374.0,-401.0,-240.0,-224.0,881.0,229.0,255.0,13.0,255.0
19:39:30.224000,1443.0,-420.0,-280.0,-218.0,762.0,302.0,247.0,19.0,241.0
19:39:30.229000,1472.0,-455.0,-204.0,-261.0,558.0,323.0,247.0,19.0,241.0
19:39:30.233000,1591.0,-484.0,-45.0,-261.0,558.0,323.0,249.0,16.0,241.0
19:39:30.238000,1727.0,-490.0,54.0,-347.0,415.0,312.0,249.0,16.0,241.0
19:39:30.242000,1831.0,-497.0,54.0,-465.0,599.0,366.0,249.0,16.0,241.0
19:39:30.247000,1947.0,-497.0,54.0,-465.0,599.0,366.0,237.0,21.0,220.0
19:39:30.252000,2045.0,-493.0,83.0,-456.0,652.0,397.0,237.0,21.0,220.0
19:39:30.257000,2114.0,-489.0,126.0,-440.0,664.0,435.0,243.0,19.0,193.0
19:39:30.261000,2187.0,-481.0,181.0,-433.0,638.0,466.0,243.0,19.0,193.0
19:39:30.266000,2187.0,-481.0,181.0,-440.0,644.0,478.0,243.0,19.0,193.0
19:39:30.271000,2311.0,-436.0,228.0,-464.0,621.0,510.0,249.0,25.0,175.0
19:39:30.276000,2364.0,-397.0,268.0,-483.0,578.0,537.0,249.0,25.0,175.0
19:39:30.280000,2364.0,-397.0,268.0,-495.0,572.0,536.0,243.0,22.0,165.0
19:39:30.285000,2426.0,-348.0,301.0,-522.0,572.0,545.0,243.0,22.0,165.0
19:39:30.292000,2524.0,-220.0,270.0,-564.0,552.0,589.0,246.0,10.0,147.0
19:39:30.294000,2524.0,-220.0,270.0,-564.0,552.0,589.0,246.0,10.0,147.0
19:39:30.298000,2572.0,-156.0,271.0,-595.0,530.0,599.0,246.0,10.0,147.0
19:39:30.304000,2654.0,-95.0,264.0,-623.0,490.0,597.0,255.0,9.0,130.0
19:39:30.308000,2728.0,-18.0,231.0,-627.0,438.0,607.0,255.0,9.0,130.0
19:39:30.313000,2802.0,56.0,196.0,-625.0,406.0,624.0,246.0,9.0,114.0
19:39:30.318000,2888.0,124.0,191.0,-641.0,383.0,630.0,246.0,9.0,114.0
19:39:30.322000,2961.0,200.0,196.0,-665.0,349.0,633.0,246.0,9.0,114.0
19:39:30.327000,3045.0,273.0,221.0,-699.0,314.0,653.0,259.0,1.0,79.0
19:39:30.332000,3138.0,317.0,230.0,-748.0,321.0,678.0,259.0,1.0,79.0
19:39:30.337000,3215.0,364.0,193.0,-748.0,321.0,678.0,256.0,-13.0,52.0
19:39:30.341000,3277.0,425.0,156.0,-752.0,320.0,730.0,256.0,-13.0,52.0
19:39:30.345000,3341.0,460.0,127.0,-752.0,320.0,730.0,256.0,-13.0,52.0
19:39:30.351000,3395.0,479.0,93.0,-697.0,297.0,770.0,253.0,-28.0,34.0
19:39:30.355000,3441.0,502.0,40.0,-639.0,303.0,797.0,253.0,-28.0,34.0
19:39:30.360000,3476.0,531.0,26.0,-580.0,323.0,815.0,258.0,-33.0,3.0
19:39:30.365000,3490.0,575.0,53.0,-561.0,329.0,828.0,258.0,-33.0,3.0
19:39:30.369000,3493.0,610.0,49.0,-614.0,342.0,850.0,258.0,-33.0,3.0
19:39:30.374000,3500.0,649.0,2.0,-673.0,375.0,868.0,267.0,-55.0,-16.0
19:39:30.379000,3503.0,725.0,-30.0,-698.0,399.0,867.0,267.0,-55.0,-16.0
19:39:30.384000,3493.0,809.0,-28.0,-752.0,413.0,879.0,285.0,-63.0,-33.0
19:39:30.388000,3493.0,809.0,-28.0,-859.0,418.0,902.0,285.0,-63.0,-33.0
19:39:30.392000,3500.0,881.0,-54.0,-1123.0,340.0,941.0,285.0,-63.0,-33.0
19:39:30.398000,3516.0,968.0,-261.0,-1254.0,82.0,1058.0,279.0,-91.0,-63.0
19:39:30.402000,3555.0,1033.0,-232.0,-756.0,34.0,1056.0,279.0,-91.0,-63.0
19:39:30.407000,3565.0,1116.0,175.0,-479.0,206.0,1007.0,273.0,-118.0,-87.0
19:39:30.412000,3570.0,1178.0,245.0,-771.0,262.0,1098.0,273.0,-118.0,-87.0
19:39:30.416000,3563.0,1201.0,28.0,-883.0,242.0,1108.0,273.0,-118.0,-87.0
19:39:30.421000,3627.0,1257.0,-80.0,-780.0,86.0,1087.0,292.0,-135.0,-100.0
19:39:30.426000,3690.0,1322.0,-19.0,-683.0,-113.0,1124.0,292.0,-135.0,-100.0
19:39:30.431000,3746.0,1374.0,71.0,-685.0,-212.0,1154.0,298.0,-156.0,-114.0
19:39:30.435000,3835.0,1423.0,85.0,-710.0,-211.0,1183.0,298.0,-156.0,-114.0
19:39:30.439000,3926.0,1469.0,60.0,-685.0,-176.0,1222.0,298.0,-156.0,-114.0
19:39:30.445000,3976.0,1521.0,62.0,-660.0,-141.0,1256.0,304.0,-175.0,-133.0
19:39:30.449000,4020.0,1575.0,108.0,-660.0,-141.0,1256.0,304.0,-175.0,-133.0
19:39:30.454000,4050.0,1635.0,149.0,-680.0,-85.0,1277.0,315.0,-192.0,-136.0
19:39:30.459000,4050.0,1683.0,137.0,-726.0,-30.0,1313.0,315.0,-192.0,-136.0
19:39:30.463000,4029.0,1724.0,127.0,-746.0,-14.0,1340.0,315.0,-192.0,-136.0
19:39:30.468000,4006.0,1766.0,172.0,-715.0,-13.0,1341.0,331.0,-246.0,-165.0
19:39:30.473000,3971.0,1807.0,211.0,-684.0,-23.0,1332.0,331.0,-246.0,-165.0
19:39:30.478000,3902.0,1839.0,219.0,-714.0,-37.0,1352.0,343.0,-273.0,-168.0
19:39:30.482000,3858.0,1891.0,296.0,-703.0,-46.0,1339.0,343.0,-273.0,-168.0
19:39:30.486000,3858.0,1891.0,296.0,-656.0,-68.0,1315.0,343.0,-273.0,-168.0
19:39:30.492000,3719.0,1969.0,356.0,-704.0,-102.0,1309.0,358.0,-304.0,-172.0
19:39:30.496000,3719.0,1969.0,356.0,-742.0,-114.0,1288.0,358.0,-304.0,-172.0
19:39:30.501000,3646.0,2013.0,345.0,-767.0,-85.0,1275.0,381.0,-327.0,-178.0
19:39:30.506000,3559.0,2049.0,303.0,-788.0,-70.0,1254.0,381.0,-327.0,-178.0
19:39:30.510000,3454.0,2056.0,287.0,-742.0,-109.0,1216.0,381.0,-327.0,-178.0
19:39:30.515000,3374.0,2067.0,316.0,-679.0,-147.0,1153.0,393.0,-343.0,-174.0
19:39:30.520000,3321.0,2070.0,304.0,-633.0,-181.0,1122.0,393.0,-343.0,-174.0
19:39:30.525000,3266.0,2042.0,240.0,-583.0,-270.0,1102.0,393.0,-385.0,-162.0
19:39:30.529000,3210.0,2013.0,175.0,-514.0,-345.0,1069.0,393.0,-385.0,-162.0
19:39:30.533000,3164.0,1979.0,144.0,-418.0,-364.0,1042.0,393.0,-385.0,-162.0
19:39:30.539000,3119.0,1937.0,155.0,-352.0,-354.0,1020.0,439.0,-415.0,-171.0
19:39:30.543000,3049.0,1887.0,168.0,-349.0,-309.0,1004.0,439.0,-415.0,-171.0
19:39:30.548000,2974.0,1818.0,159.0,-349.0,-309.0,1004.0,438.0,-439.0,-156.0
19:39:30.553000,2898.0,1741.0,128.0,-373.0,-169.0,955.0,438.0,-439.0,-156.0
19:39:30.557000,2795.0,1670.0,122.0,-368.0,-140.0,933.0,438.0,-439.0,-156.0
19:39:30.562000,2693.0,1603.0,139.0,-368.0,-140.0,933.0,463.0,-438.0,-150.0
19:39:30.567000,2597.0,1542.0,148.0,-379.0,-117.0,910.0,463.0,-438.0,-150.0
19:39:30.572000,2487.0,1484.0,140.0,-401.0,-87.0,886.0,474.0,-474.0,-144.0
19:39:30.576000,2370.0,1415.0,136.0,-427.0,-63.0,874.0,474.0,-474.0,-144.0
19:39:30.580000,2253.0,1356.0,154.0,-453.0,-58.0,857.0,474.0,-474.0,-144.0
19:39:30.586000,2134.0,1314.0,178.0,-484.0,-74.0,825.0,490.0,-481.0,-135.0
19:39:30.590000,2011.0,1278.0,194.0,-528.0,-83.0,797.0,490.0,-481.0,-135.0
19:39:30.595000,1896.0,1252.0,204.0,-583.0,-81.0,761.0,490.0,-501.0,-129.0
19:39:30.600000,1795.0,1228.0,212.0,-638.0,-107.0,713.0,490.0,-501.0,-129.0
19:39:30.607000,1696.0,1211.0,204.0,-767.0,-120.0,648.0,496.0,-507.0,-117.0
19:39:30.609000,1696.0,1211.0,204.0,-767.0,-120.0,648.0,496.0,-507.0,-117.0
19:39:30.613000,1604.0,1197.0,168.0,-818.0,-79.0,627.0,496.0,-507.0,-117.0
19:39:30.619000,1514.0,1178.0,126.0,-811.0,-85.0,597.0,505.0,-537.0,-103.0
19:39:30.623000,1430.0,1170.0,106.0,-769.0,-133.0,562.0,505.0,-537.0,-103.0
19:39:30.628000,1358.0,1159.0,127.0,-747.0,-204.0,539.0,511.0,-538.0,-96.0
19:39:30.633000,1283.0,1143.0,144.0,-735.0,-247.0,513.0,511.0,-538.0,-96.0
19:39:30.637000,1213.0,1134.0,144.0,-731.0,-233.0,483.0,511.0,-538.0,-96.0
19:39:30.642000,1145.0,1129.0,120.0,-748.0,-196.0,460.0,525.0,-546.0,-94.0
19:39:30.647000,1079.0,1116.0,95.0,-743.0,-171.0,435.0,525.0,-546.0,-94.0
19:39:30.652000,1012.0,1100.0,70.0,-714.0,-169.0,415.0,529.0,-558.0,-63.0
19:39:30.656000,933.0,1077.0,37.0,-682.0,-173.0,402.0,529.0,-558.0,-63.0
19:39:30.660000,845.0,1051.0,0.0,-647.0,-179.0,381.0,529.0,-558.0,-63.0
19:39:30.666000,767.0,1029.0,-16.0,-634.0,-198.0,360.0,526.0,-547.0,-72.0
19:39:30.670000,679.0,997.0,-19.0,-634.0,-198.0,360.0,526.0,-547.0,-72.0
19:39:30.675000,587.0,962.0,-28.0,-653.0,-236.0,338.0,540.0,-556.0,-76.0
19:39:30.680000,518.0,933.0,-40.0,-674.0,-281.0,309.0,540.0,-556.0,-76.0
19:39:30.684000,453.0,913.0,-55.0,-686.0,-334.0,274.0,540.0,-556.0,-76.0
19:39:30.689000,403.0,894.0,-56.0,-690.0,-401.0,246.0,541.0,-570.0,-42.0
19:39:30.694000,364.0,870.0,-50.0,-693.0,-467.0,231.0,541.0,-570.0,-42.0
19:39:30.699000,350.0,852.0,-44.0,-699.0,-516.0,203.0,546.0,-561.0,-48.0
19:39:30.703000,331.0,842.0,-58.0,-711.0,-562.0,183.0,546.0,-561.0,-48.0
19:39:30.707000,331.0,842.0,-58.0,-726.0,-593.0,165.0,546.0,-561.0,-48.0
19:39:30.713000,349.0,821.0,-102.0,-737.0,-612.0,132.0,559.0,-564.0,-43.0
19:39:30.717000,349.0,821.0,-102.0,-755.0,-628.0,110.0,559.0,-564.0,-43.0
19:39:30.722000,360.0,800.0,-115.0,-785.0,-619.0,102.0,564.0,-561.0,-36.0
19:39:30.727000,359.0,777.0,-158.0,-803.0,-595.0,77.0,564.0,-561.0,-36.0
19:39:30.731000,381.0,762.0,-213.0,-801.0,-577.0,53.0,564.0,-561.0,-36.0
19:39:30.736000,395.0,728.0,-254.0,-792.0,-564.0,51.0,559.0,-562.0,-33.0
19:39:30.741000,390.0,688.0,-280.0,-769.0,-556.0,35.0,559.0,-562.0,-33.0
19:39:30.746000,385.0,652.0,-290.0,-734.0,-568.0,23.0,556.0,-564.0,-6.0
19:39:30.750000,381.0,599.0,-296.0,-706.0,-577.0,6.0,556.0,-564.0,-6.0
19:39:30.754000,376.0,564.0,-315.0,-687.0,-576.0,-13.0,556.0,-564.0,-6.0
19:39:30.760000,359.0,532.0,-343.0,-674.0,-567.0,-25.0,571.0,-568.0,-4.0
19:39:30.764000,351.0,487.0,-377.0,-670.0,-547.0,-43.0,571.0,-568.0,-4.0
19:39:30.769000,333.0,452.0,-417.0,-670.0,-547.0,-43.0,576.0,-576.0,-12.0
19:39:30.774000,308.0,423.0,-446.0,-696.0,-542.0,-77.0,576.0,-576.0,-12.0
19:39:30.778000,277.0,392.0,-459.0,-696.0,-542.0,-77.0,576.0,-576.0,-12.0
19:39:30.783000,238.0,361.0,-457.0,-708.0,-562.0,-85.0,585.0,-564.0,-15.0
19:39:30.788000,202.0,331.0,-448.0,-711.0,-577.0,-97.0,585.0,-564.0,-15.0
19:39:30.793000,179.0,311.0,-461.0,-718.0,-567.0,-115.0,582.0,-568.0,1.0
19:39:30.797000,153.0,298.0,-479.0,-731.0,-545.0,-132.0,582.0,-568.0,1.0
19:39:30.801000,133.0,282.0,-483.0,-740.0,-546.0,-140.0,582.0,-568.0,1.0
19:39:30.807000,119.0,263.0,-478.0,-752.0,-558.0,-142.0,586.0,-562.0,3.0
19:39:30.811000,109.0,244.0,-469.0,-766.0,-571.0,-146.0,586.0,-562.0,3.0
19:39:30.816000,109.0,221.0,-455.0,-769.0,-587.0,-149.0,580.0,-555.0,0.0
19:39:30.821000,118.0,193.0,-444.0,-763.0,-612.0,-152.0,580.0,-555.0,0.0
19:39:30.825000,118.0,193.0,-444.0,-743.0,-627.0,-153.0,580.0,-555.0,0.0
19:39:30.830000,130.0,163.0,-434.0,-722.0,-622.0,-158.0,583.0,-559.0,0.0
19:39:30.835000,144.0,135.0,-419.0,-723.0,-609.0,-158.0,583.0,-559.0,0.0
19:39:30.840000,158.0,107.0,-394.0,-732.0,-595.0,-155.0,594.0,-556.0,3.0
19:39:30.844000,169.0,79.0,-356.0,-743.0,-567.0,-151.0,594.0,-556.0,3.0
19:39:30.848000,176.0,50.0,-322.0,-762.0,-531.0,-142.0,594.0,-556.0,3.0
19:39:30.854000,175.0,18.0,-303.0,-778.0,-494.0,-127.0,606.0,-550.0,6.0
19:39:30.858000,161.0,-14.0,-292.0,-779.0,-470.0,-112.0,606.0,-550.0,6.0
19:39:30.863000,140.0,-48.0,-264.0,-773.0,-459.0,-108.0,589.0,-550.0,10.0
19:39:30.868000,125.0,-79.0,-233.0,-783.0,-452.0,-114.0,589.0,-550.0,10.0
19:39:30.875000,105.0,-136.0,-182.0,-812.0,-462.0,-117.0,591.0,-541.0,3.0
19:39:30.877000,105.0,-136.0,-182.0,-812.0,-462.0,-117.0,591.0,-541.0,3.0
19:39:30.881000,107.0,-157.0,-177.0,-828.0,-456.0,-117.0,591.0,-541.0,3.0
19:39:30.887000,109.0,-180.0,-173.0,-828.0,-468.0,-117.0,598.0,-537.0,9.0
19:39:30.891000,111.0,-192.0,-152.0,-842.0,-468.0,-117.0,598.0,-537.0,9.0
19:39:30.896000,110.0,-198.0,-106.0,-853.0,-496.0,-120.0,609.0,-541.0,10.0
19:39:30.901000,111.0,-200.0,-62.0,-878.0,-508.0,-115.0,609.0,-541.0,10.0
19:39:30.905000,105.0,-196.0,-28.0,-911.0,-507.0,-109.0,609.0,-541.0,10.0
19:39:30.910000,95.0,-186.0,-10.0,-932.0,-500.0,-104.0,594.0,-543.0,4.0
19:39:30.915000,88.0,-177.0,-3.0,-946.0,-483.0,-99.0,594.0,-543.0,4.0
19:39:30.919000,81.0,-163.0,-2.0,-965.0,-464.0,-95.0,603.0,-549.0,12.0
19:39:30.924000,72.0,-150.0,-12.0,-988.0,-461.0,-90.0,603.0,-549.0,12.0
19:39:30.928000,72.0,-150.0,-12.0,-1001.0,-474.0,-87.0,603.0,-549.0,12.0
19:39:30.934000,70.0,-133.0,-19.0,-996.0,-477.0,-82.0,592.0,-549.0,-1.0
19:39:30.938000,75.0,-125.0,-4.0,-997.0,-470.0,-80.0,592.0,-549.0,-1.0
19:39:30.943000,83.0,-114.0,2.0,-991.0,-504.0,-72.0,591.0,-546.0,6.0
19:39:30.948000,80.0,-101.0,-21.0,-971.0,-539.0,-61.0,591.0,-546.0,6.0
19:39:30.952000,87.0,-93.0,-31.0,-956.0,-554.0,-60.0,591.0,-546.0,6.0
19:39:30.957000,99.0,-88.0,-21.0,-949.0,-574.0,-63.0,595.0,-541.0,4.0
19:39:30.962000,102.0,-81.0,-3.0,-947.0,-560.0,-63.0,595.0,-541.0,4.0
19:39:30.966000,99.0,-81.0,1.0,-951.0,-511.0,-60.0,603.0,-547.0,-1.0
19:39:30.971000,98.0,-82.0,2.0,-961.0,-469.0,-61.0,603.0,-547.0,-1.0
19:39:30.975000,94.0,-87.0,9.0,-962.0,-462.0,-56.0,603.0,-547.0,-1.0
19:39:30.981000,85.0,-101.0,16.0,-950.0,-473.0,-57.0,582.0,-546.0,12.0
19:39:30.985000,87.0,-114.0,26.0,-942.0,-486.0,-65.0,582.0,-546.0,12.0
19:39:30.990000,94.0,-121.0,25.0,-942.0,-486.0,-65.0,597.0,-549.0,15.0
19:39:30.995000,95.0,-128.0,25.0,-933.0,-507.0,-66.0,597.0,-549.0,15.0
19:39:30.999000,96.0,-140.0,34.0,-933.0,-507.0,-66.0,597.0,-549.0,15.0
19:39:31.004000,89.0,-154.0,28.0,-940.0,-473.0,-62.0,591.0,-549.0,1.0
19:39:31.009000,76.0,-163.0,30.0,-945.0,-426.0,-61.0,591.0,-549.0,1.0
19:39:31.013000,55.0,-176.0,54.0,-941.0,-399.0,-55.0,579.0,-544.0,4.0
19:39:31.018000,27.0,-182.0,60.0,-933.0,-398.0,-52.0,579.0,-544.0,4.0
19:39:31.022000,9.0,-193.0,52.0,-917.0,-406.0,-57.0,579.0,-544.0,4.0
19:39:31.027000,-2.0,-203.0,39.0,-910.0,-404.0,-56.0,595.0,-546.0,9.0
19:39:31.032000,-16.0,-214.0,34.0,-916.0,-403.0,-51.0,595.0,-546.0,9.0
19:39:31.037000,-40.0,-236.0,43.0,-913.0,-411.0,-40.0,586.0,-561.0,3.0
19:39:31.042000,-61.0,-255.0,52.0,-900.0,-413.0,-35.0,586.0,-561.0,3.0
19:39:31.046000,-61.0,-255.0,52.0,-881.0,-405.0,-32.0,586.0,-561.0,3.0
19:39:31.051000,-80.0,-275.0,44.0,-846.0,-411.0,-16.0,588.0,-553.0,3.0
19:39:31.056000,-94.0,-298.0,32.0,-809.0,-446.0,-5.0,588.0,-553.0,3.0
19:39:31.060000,-88.0,-315.0,28.0,-798.0,-498.0,-3.0,589.0,-547.0,12.0
19:39:31.065000,-73.0,-329.0,30.0,-825.0,-543.0,0.0,589.0,-547.0,12.0
19:39:31.069000,-51.0,-340.0,21.0,-872.0,-552.0,0.0,589.0,-547.0,12.0
19:39:31.075000,-21.0,-351.0,-13.0,-914.0,-539.0,-1.0,588.0,-549.0,-3.0
19:39:31.079000,5.0,-361.0,-36.0,-941.0,-527.0,0.0,588.0,-549.0,-3.0
19:39:31.084000,26.0,-371.0,-40.0,-943.0,-495.0,-3.0,585.0,-544.0,-1.0
19:39:31.089000,41.0,-376.0,-56.0,-923.0,-454.0,1.0,585.0,-544.0,-1.0
19:39:31.093000,46.0,-392.0,-72.0,-891.0,-423.0,7.0,585.0,-544.0,-1.0
19:39:31.098000,41.0,-408.0,-78.0,-861.0,-388.0,7.0,585.0,-549.0,-4.0
19:39:31.103000,21.0,-425.0,-79.0,-842.0,-356.0,10.0,585.0,-549.0,-4.0
19:39:31.107000,0.0,-443.0,-68.0,-834.0,-347.0,8.0,580.0,-556.0,-6.0
19:39:31.112000,-12.0,-450.0,-56.0,-834.0,-347.0,8.0,580.0,-556.0,-6.0
19:39:31.116000,-26.0,-458.0,-48.0,-844.0,-359.0,8.0,580.0,-556.0,-6.0
19:39:31.122000,-34.0,-464.0,-38.0,-866.0,-380.0,9.0,564.0,-550.0,-4.0
19:39:31.126000,-36.0,-464.0,-31.0,-891.0,-399.0,3.0,564.0,-550.0,-4.0
19:39:31.131000,-31.0,-460.0,-38.0,-914.0,-401.0,-4.0,573.0,-546.0,-7.0
19:39:31.136000,-26.0,-459.0,-46.0,-933.0,-398.0,-7.0,573.0,-546.0,-7.0
19:39:31.140000,-26.0,-459.0,-46.0,-943.0,-405.0,-10.0,573.0,-546.0,-7.0
19:39:31.145000,-6.0,-452.0,-49.0,-941.0,-419.0,-13.0,580.0,-546.0,-22.0
19:39:31.150000,5.0,-446.0,-46.0,-938.0,-432.0,-17.0,580.0,-546.0,-22.0
19:39:31.154000,5.0,-446.0,-46.0,-940.0,-436.0,-19.0,567.0,-547.0,-25.0
19:39:31.159000,11.0,-447.0,-42.0,-941.0,-428.0,-21.0,567.0,-547.0,-25.0
19:39:31.163000,11.0,-448.0,-29.0,-938.0,-411.0,-29.0,567.0,-547.0,-25.0
19:39:31.169000,-2.0,-445.0,-18.0,-947.0,-376.0,-39.0,576.0,-550.0,-21.0
19:39:31.173000,-31.0,-439.0,-31.0,-968.0,-324.0,-47.0,576.0,-550.0,-21.0
19:39:31.178000,-65.0,-436.0,-62.0,-978.0,-281.0,-54.0,576.0,-556.0,-30.0
19:39:31.183000,-99.0,-438.0,-93.0,-975.0,-249.0,-55.0,576.0,-556.0,-30.0
19:39:31.187000,-144.0,-445.0,-119.0,-960.0,-221.0,-52.0,576.0,-556.0,-30.0
19:39:31.192000,-196.0,-452.0,-149.0,-939.0,-190.0,-48.0,567.0,-549.0,-33.0
19:39:31.197000,-247.0,-465.0,-179.0,-918.0,-167.0,-38.0,567.0,-549.0,-33.0
19:39:31.201000,-303.0,-482.0,-205.0,-892.0,-163.0,-24.0,570.0,-541.0,-19.0
19:39:31.206000,-354.0,-506.0,-221.0,-863.0,-175.0,-7.0,570.0,-541.0,-19.0
19:39:31.210000,-403.0,-537.0,-231.0,-837.0,-195.0,4.0,570.0,-541.0,-19.0
19:39:31.216000,-450.0,-557.0,-242.0,-837.0,-195.0,4.0,562.0,-540.0,-37.0
19:39:31.220000,-492.0,-570.0,-251.0,-833.0,-211.0,6.0,562.0,-540.0,-37.0
19:39:31.225000,-523.0,-582.0,-249.0,-857.0,-202.0,5.0,565.0,-535.0,-37.0
19:39:31.230000,-552.0,-596.0,-238.0,-895.0,-174.0,11.0,565.0,-535.0,-37.0
19:39:31.234000,-583.0,-611.0,-219.0,-927.0,-155.0,31.0,565.0,-535.0,-37.0
19:39:31.239000,-609.0,-627.0,-193.0,-942.0,-162.0,53.0,562.0,-540.0,-49.0
19:39:31.243000,-626.0,-637.0,-174.0,-944.0,-184.0,66.0,562.0,-540.0,-49.0
19:39:31.248000,-649.0,-646.0,-152.0,-938.0,-213.0,86.0,567.0,-537.0,-57.0
19:39:31.253000,-664.0,-653.0,-144.0,-943.0,-224.0,108.0,567.0,-537.0,-57.0
19:39:31.258000,-711.0,-651.0,-142.0,-968.0,-223.0,127.0,552.0,-529.0,-55.0
19:39:31.263000,-711.0,-651.0,-142.0,-990.0,-208.0,159.0,552.0,-529.0,-55.0
19:39:31.267000,-775.0,-654.0,-139.0,-1004.0,-146.0,183.0,552.0,-529.0,-55.0
19:39:31.272000,-828.0,-669.0,-167.0,-1042.0,-130.0,207.0,559.0,-529.0,-57.0
19:39:31.277000,-854.0,-725.0,-179.0,-1129.0,-100.0,217.0,559.0,-529.0,-57.0
19:39:31.281000,-801.0,-797.0,-120.0,-1150.0,-123.0,197.0,550.0,-513.0,-60.0
19:39:31.286000,-931.0,-702.0,-204.0,-1057.0,-174.0,225.0,550.0,-513.0,-60.0
19:39:31.290000,-1092.0,-639.0,-198.0,-970.0,-51.0,350.0,550.0,-513.0,-60.0
19:39:31.295000,-1343.0,-699.0,-100.0,-956.0,59.0,306.0,541.0,-505.0,-73.0
19:39:31.300000,-1334.0,-714.0,-141.0,-976.0,71.0,189.0,541.0,-505.0,-73.0
19:39:31.305000,-1278.0,-730.0,-311.0,-944.0,-11.0,253.0,550.0,-499.0,-82.0
19:39:31.309000,-1414.0,-712.0,-441.0,-866.0,-44.0,280.0,550.0,-499.0,-82.0
19:39:31.314000,-1533.0,-688.0,-447.0,-796.0,-12.0,315.0,550.0,-499.0,-82.0
19:39:31.319000,-1712.0,-700.0,-386.0,-774.0,11.0,330.0,537.0,-493.0,-90.0
19:39:31.324000,-1815.0,-712.0,-329.0,-774.0,70.0,314.0,537.0,-493.0,-90.0
19:39:31.328000,-1907.0,-751.0,-361.0,-885.0,57.0,351.0,540.0,-480.0,-91.0
19:39:31.333000,-2016.0,-798.0,-420.0,-885.0,57.0,351.0,540.0,-480.0,-91.0
19:39:31.337000,-2115.0,-848.0,-440.0,-905.0,-35.0,351.0,540.0,-480.0,-91.0
19:39:31.342000,-2188.0,-910.0,-433.0,-903.0,-136.0,343.0,522.0,-477.0,-91.0
19:39:31.347000,-2275.0,-972.0,-433.0,-904.0,-198.0,344.0,522.0,-477.0,-91.0
19:39:31.352000,-2347.0,-1045.0,-455.0,-901.0,-229.0,340.0,517.0,-442.0,-106.0
19:39:31.356000,-2413.0,-1125.0,-473.0,-878.0,-221.0,337.0,517.0,-442.0,-106.0
19:39:31.361000,-2413.0,-1125.0,-473.0,-849.0,-191.0,341.0,517.0,-442.0,-106.0
19:39:31.366000,-2586.0,-1288.0,-518.0,-834.0,-140.0,361.0,528.0,-429.0,-112.0
19:39:31.371000,-2673.0,-1288.0,-571.0,-834.0,-78.0,382.0,528.0,-429.0,-112.0
19:39:31.375000,-2673.0,-1367.0,-571.0,-843.0,-37.0,413.0,501.0,-402.0,-102.0
19:39:31.380000,-2770.0,-1450.0,-623.0,-852.0,-12.0,466.0,501.0,-402.0,-102.0
19:39:31.384000,-2877.0,-1532.0,-662.0,-880.0,-7.0,523.0,501.0,-402.0,-102.0
19:39:31.389000,-2981.0,-1616.0,-685.0,-853.0,-36.0,581.0,499.0,-390.0,-121.0
19:39:31.394000,-3084.0,-1684.0,-720.0,-779.0,-62.0,633.0,499.0,-390.0,-121.0
19:39:31.399000,-3186.0,-1751.0,-795.0,-751.0,-39.0,682.0,495.0,-376.0,-121.0
19:39:31.403000,-3279.0,-1817.0,-895.0,-740.0,7.0,728.0,495.0,-376.0,-121.0
19:39:31.408000,-3362.0,-1870.0,-982.0,-736.0,21.0,782.0,495.0,-376.0,-121.0
19:39:31.413000,-3443.0,-1925.0,-1050.0,-733.0,13.0,834.0,477.0,-325.0,-109.0
19:39:31.418000,-3510.0,-1970.0,-1103.0,-729.0,-13.0,878.0,477.0,-325.0,-109.0
19:39:31.422000,-3559.0,-2023.0,-1157.0,-729.0,-13.0,878.0,466.0,-303.0,-127.0
19:39:31.427000,-3600.0,-2061.0,-1223.0,-734.0,-30.0,954.0,466.0,-303.0,-127.0
19:39:31.431000,-3616.0,-2097.0,-1295.0,-733.0,-30.0,981.0,466.0,-303.0,-127.0
19:39:31.436000,-3618.0,-2119.0,-1367.0,-733.0,-30.0,981.0,441.0,-267.0,-129.0
19:39:31.441000,-3609.0,-2137.0,-1423.0,-731.0,-27.0,1001.0,441.0,-267.0,-129.0
19:39:31.446000,-3584.0,-2147.0,-1447.0,-731.0,-20.0,1025.0,433.0,-253.0,-127.0
19:39:31.450000,-3550.0,-2158.0,-1421.0,-727.0,-35.0,1039.0,433.0,-253.0,-127.0
19:39:31.455000,-3509.0,-2155.0,-1396.0,-765.0,-46.0,1035.0,433.0,-253.0,-127.0
19:39:31.460000,-3456.0,-2125.0,-1365.0,-765.0,-46.0,1035.0,405.0,-225.0,-120.0
19:39:31.465000,-3399.0,-2089.0,-1306.0,-782.0,-42.0,1017.0,405.0,-225.0,-120.0
19:39:31.469000,-3341.0,-2031.0,-1233.0,-797.0,-17.0,1000.0,390.0,-208.0,-114.0
19:39:31.474000,-3287.0,-1960.0,-1161.0,-841.0,16.0,979.0,390.0,-208.0,-114.0
19:39:31.478000,-3287.0,-1960.0,-1161.0,-915.0,46.0,971.0,390.0,-208.0,-114.0
19:39:31.483000,-3242.0,-1898.0,-1105.0,-938.0,78.0,967.0,372.0,-183.0,-109.0
19:39:31.488000,-3194.0,-1837.0,-1041.0,-900.0,98.0,950.0,372.0,-183.0,-109.0
19:39:31.492000,-3123.0,-1750.0,-963.0,-877.0,68.0,929.0,349.0,-142.0,-69.0
19:39:31.497000,-3045.0,-1660.0,-879.0,-884.0,24.0,918.0,349.0,-142.0,-69.0
19:39:31.502000,-2959.0,-1592.0,-800.0,-885.0,17.0,901.0,349.0,-142.0,-69.0
19:39:31.507000,-2867.0,-1527.0,-738.0,-864.0,40.0,878.0,349.0,-142.0,-69.0
19:39:31.511000,-2776.0,-1453.0,-697.0,-838.0,64.0,857.0,349.0,-142.0,-69.0
19:39:31.516000,-2683.0,-1381.0,-658.0,-800.0,61.0,832.0,337.0,-112.0,-61.0
19:39:31.521000,-2587.0,-1313.0,-599.0,-763.0,45.0,806.0,337.0,-112.0,-61.0
19:39:31.526000,-2499.0,-1250.0,-525.0,-746.0,70.0,786.0,318.0,-97.0,-57.0
19:39:31.530000,-2422.0,-1193.0,-478.0,-739.0,130.0,757.0,318.0,-97.0,-57.0
19:39:31.534000,-2331.0,-1131.0,-483.0,-720.0,154.0,725.0,318.0,-97.0,-57.0
19:39:31.540000,-2239.0,-1071.0,-484.0,-667.0,148.0,707.0,306.0,-91.0,-46.0
19:39:31.544000,-2156.0,-1019.0,-427.0,-667.0,148.0,707.0,306.0,-91.0,-46.0
19:39:31.549000,-2073.0,-978.0,-363.0,-629.0,153.0,692.0,303.0,-78.0,-34.0
19:39:31.554000,-1995.0,-930.0,-343.0,-631.0,169.0,676.0,303.0,-78.0,-34.0
19:39:31.558000,-1908.0,-878.0,-323.0,-631.0,189.0,658.0,303.0,-78.0,-34.0
19:39:31.563000,-1827.0,-822.0,-277.0,-614.0,198.0,644.0,297.0,-72.0,-19.0
19:39:31.568000,-1754.0,-754.0,-226.0,-595.0,199.0,634.0,297.0,-72.0,-19.0
19:39:31.573000,-1689.0,-689.0,-205.0,-606.0,210.0,630.0,285.0,-67.0,-9.0
19:39:31.577000,-1622.0,-622.0,-184.0,-619.0,234.0,616.0,285.0,-67.0,-9.0
19:39:31.581000,-1622.0,-622.0,-184.0,-608.0,270.0,585.0,285.0,-67.0,-9.0
19:39:31.587000,-1506.0,-492.0,-130.0,-604.0,315.0,570.0,270.0,-46.0,30.0
19:39:31.591000,-1506.0,-492.0,-130.0,-580.0,351.0,571.0,270.0,-46.0,30.0
19:39:31.596000,-1464.0,-431.0,-97.0,-574.0,399.0,573.0,276.0,-37.0,19.0
19:39:31.601000,-1416.0,-378.0,-88.0,-605.0,467.0,572.0,276.0,-37.0,19.0
19:39:31.605000,-1363.0,-338.0,-109.0,-586.0,513.0,575.0,276.0,-37.0,19.0
19:39:31.610000,-1313.0,-312.0,-109.0,-513.0,525.0,579.0,273.0,-31.0,33.0
19:39:31.615000,-1268.0,-284.0,-81.0,-444.0,514.0,579.0,273.0,-31.0,33.0
19:39:31.620000,-1225.0,-250.0,-37.0,-397.0,516.0,580.0,270.0,-33.0,31.0
19:39:31.624000,-1182.0,-217.0,-13.0,-373.0,558.0,572.0,270.0,-33.0,31.0
19:39:31.628000,-1129.0,-193.0,-16.0,-362.0,594.0,564.0,270.0,-33.0,31.0
19:39:31.634000,-1085.0,-165.0,-21.0,-398.0,616.0,567.0,288.0,-27.0,54.0
19:39:31.638000,-1059.0,-145.0,-49.0,-434.0,698.0,564.0,288.0,-27.0,54.0
19:39:31.643000,-1017.0,-121.0,-84.0,-434.0,698.0,564.0,276.0,-22.0,42.0
19:39:31.648000,-975.0,-100.0,0.0,-460.0,620.0,546.0,276.0,-22.0,42.0
19:39:31.652000,-960.0,-82.0,101.0,-460.0,620.0,546.0,276.0,-22.0,42.0
19:39:31.657000,-941.0,-54.0,107.0,-523.0,634.0,539.0,276.0,-16.0,61.0
19:39:31.662000,-882.0,-7.0,50.0,-511.0,732.0,503.0,276.0,-16.0,61.0
19:39:31.667000,-856.0,-21.0,-1.0,-432.0,833.0,496.0,282.0,-7.0,67.0
19:39:31.671000,-893.0,-22.0,-23.0,-368.0,742.0,517.0,282.0,-7.0,67.0
19:39:31.675000,-852.0,37.0,106.0,-330.0,742.0,517.0,282.0,-7.0,67.0
19:39:31.681000,-847.0,4.0,179.0,-357.0,663.0,501.0,258.0,-18.0,75.0
19:39:31.685000,-895.0,46.0,133.0,-415.0,711.0,534.0,258.0,-18.0,75.0
19:39:31.690000,-841.0,44.0,79.0,-411.0,814.0,482.0,277.0,-13.0,78.0
19:39:31.695000,-866.0,49.0,61.0,-381.0,892.0,492.0,277.0,-13.0,78.0
19:39:31.699000,-866.0,49.0,61.0,-345.0,905.0,524.0,277.0,-13.0,78.0
19:39:31.704000,-875.0,44.0,79.0,-333.0,926.0,519.0,276.0,-12.0,72.0
19:39:31.709000,-889.0,56.0,77.0,-360.0,922.0,527.0,276.0,-12.0,72.0
19:39:31.714000,-868.0,37.0,58.0,-370.0,840.0,537.0,279.0,-6.0,96.0
19:39:31.718000,-849.0,33.0,70.0,-336.0,726.0,535.0,279.0,-6.0,96.0
19:39:31.726000,-819.0,77.0,186.0,-280.0,748.0,477.0,270.0,-9.0,94.0
19:39:31.728000,-819.0,77.0,186.0,-280.0,748.0,477.0,270.0,-9.0,94.0
