hh:mm:ss.ms,gyroX[mdps],gyroY[mdps],gyroZ[mdps],accX[mg],accY[mg],accZ[mg],magX[mG],magY[mG],magZ[mG]
19:45:57.838000,363.0,-139.0,-442.0,-1691.0,-113.0,-287.0,0.0,0.0,0.0
19:45:57.842000,390.0,-136.0,-451.0,-1691.0,-113.0,-287.0,0.0,0.0,0.0
19:45:57.847000,326.0,-146.0,-402.0,-1634.0,-91.0,-276.0,0.0,0.0,0.0
19:45:57.852000,338.0,-133.0,-492.0,-1634.0,-91.0,-276.0,0.0,0.0,0.0
19:45:57.856000,356.0,-73.0,-466.0,-1594.0,-48.0,-284.0,0.0,0.0,0.0
19:45:57.861000,448.0,-71.0,-335.0,-1594.0,-48.0,-284.0,0.0,0.0,0.0
19:45:57.866000,413.0,-8.0,-338.0,-1628.0,-139.0,-288.0,0.0,0.0,0.0
19:45:57.870000,499.0,-21.0,-390.0,-1628.0,-139.0,-288.0,0.0,0.0,0.0
19:45:57.875000,548.0,-7.0,-303.0,-1555.0,-186.0,-251.0,0.0,0.0,0.0
19:45:57.880000,466.0,-3.0,-206.0,-1555.0,-186.0,-251.0,0.0,0.0,0.0
19:45:57.885000,452.0,34.0,-149.0,-1555.0,-186.0,-251.0,0.0,0.0,0.0
19:45:57.889000,412.0,10.0,-62.0,-1242.0,-197.0,-237.0,0.0,0.0,0.0
19:45:57.894000,394.0,55.0,282.0,-1242.0,-197.0,-237.0,0.0,0.0,0.0
19:45:57.899000,308.0,65.0,401.0,-899.0,-418.0,-260.0,0.0,0.0,0.0
19:45:57.903000,310.0,45.0,461.0,-899.0,-418.0,-260.0,0.0,0.0,0.0
19:45:57.908000,255.0,9.0,571.0,-641.0,-753.0,-264.0,0.0,0.0,0.0
19:45:57.913000,329.0,-18.0,619.0,-641.0,-753.0,-264.0,0.0,0.0,0.0
19:45:57.917000,253.0,-14.0,830.0,-489.0,-967.0,-264.0,0.0,0.0,0.0
19:45:57.922000,210.0,45.0,870.0,-489.0,-967.0,-264.0,0.0,0.0,0.0
19:45:57.927000,195.0,58.0,527.0,-382.0,-1002.0,-283.0,0.0,0.0,0.0
19:45:57.932000,195.0,58.0,527.0,-382.0,-1002.0,-283.0,0.0,0.0,0.0
19:45:57.936000,307.0,23.0,95.0,-380.0,-934.0,-302.0,0.0,0.0,0.0
19:45:57.941000,389.0,-23.0,101.0,-380.0,-934.0,-302.0,0.0,0.0,0.0
19:45:57.945000,296.0,-10.0,299.0,-372.0,-1017.0,-331.0,0.0,0.0,0.0
19:45:57.950000,238.0,-120.0,58.0,-372.0,-1017.0,-331.0,0.0,0.0,0.0
19:45:57.955000,108.0,-98.0,-317.0,-266.0,-753.0,-315.0,0.0,0.0,0.0
19:45:57.960000,7.0,-140.0,-289.0,-266.0,-753.0,-315.0,0.0,0.0,0.0
19:45:57.964000,-42.0,-163.0,-276.0,-357.0,-489.0,-272.0,0.0,0.0,0.0
19:45:57.969000,-1.0,-166.0,-396.0,-357.0,-489.0,-272.0,0.0,0.0,0.0
19:45:57.974000,-23.0,-250.0,-574.0,-638.0,-686.0,-229.0,0.0,0.0,0.0
19:45:57.979000,-35.0,-213.0,-620.0,-638.0,-686.0,-229.0,0.0,0.0,0.0
19:45:57.983000,-108.0,-200.0,-537.0,-738.0,-791.0,-171.0,0.0,0.0,0.0
19:45:57.988000,-112.0,-176.0,-294.0,-738.0,-791.0,-171.0,0.0,0.0,0.0
19:45:57.993000,-158.0,-193.0,-430.0,-738.0,-791.0,-171.0,0.0,0.0,0.0
19:45:57.997000,-245.0,-198.0,-488.0,-592.0,-543.0,-79.0,0.0,0.0,0.0
19:45:58.002000,-163.0,-221.0,-266.0,-592.0,-543.0,-79.0,0.0,0.0,0.0
19:45:58.007000,8.0,-210.0,-200.0,-635.0,-489.0,-22.0,0.0,0.0,0.0
19:45:58.011000,14.0,-221.0,-189.0,-635.0,-489.0,-22.0,0.0,0.0,0.0
19:45:58.016000,47.0,-185.0,-39.0,-920.0,-857.0,8.0,0.0,0.0,0.0
19:45:58.021000,74.0,-144.0,19.0,-920.0,-857.0,8.0,0.0,0.0,0.0
19:45:58.026000,83.0,-95.0,0.0,-940.0,-890.0,38.0,0.0,0.0,0.0
19:45:58.030000,88.0,-82.0,-100.0,-940.0,-890.0,38.0,0.0,0.0,0.0
19:45:58.035000,142.0,-51.0,-130.0,-834.0,-676.0,61.0,0.0,0.0,0.0
19:45:58.040000,142.0,-51.0,-130.0,-834.0,-676.0,61.0,0.0,0.0,0.0
19:45:58.044000,210.0,-7.0,-59.0,-852.0,-780.0,62.0,0.0,0.0,0.0
19:45:58.049000,240.0,23.0,126.0,-852.0,-780.0,62.0,0.0,0.0,0.0
19:45:58.054000,221.0,-16.0,107.0,-885.0,-851.0,46.0,0.0,0.0,0.0
19:45:58.058000,308.0,45.0,-194.0,-885.0,-851.0,46.0,0.0,0.0,0.0
19:45:58.063000,394.0,63.0,-567.0,-763.0,-657.0,43.0,0.0,0.0,0.0
19:45:58.068000,331.0,60.0,-688.0,-763.0,-657.0,43.0,0.0,0.0,0.0
19:45:58.072000,275.0,71.0,-546.0,-636.0,-718.0,11.0,0.0,0.0,0.0
19:45:58.077000,141.0,96.0,-308.0,-636.0,-718.0,11.0,0.0,0.0,0.0
19:45:58.082000,129.0,137.0,-188.0,-759.0,-809.0,-68.0,0.0,0.0,0.0
19:45:58.087000,190.0,158.0,-142.0,-759.0,-809.0,-68.0,0.0,0.0,0.0
19:45:58.091000,134.0,167.0,-338.0,-856.0,-660.0,-133.0,0.0,0.0,0.0
19:45:58.096000,185.0,152.0,-472.0,-856.0,-660.0,-133.0,0.0,0.0,0.0
19:45:58.101000,79.0,170.0,-326.0,-856.0,-685.0,-155.0,0.0,0.0,0.0
19:45:58.105000,61.0,182.0,-128.0,-783.0,-685.0,-155.0,0.0,0.0,0.0
19:45:58.110000,51.0,170.0,-155.0,-783.0,-685.0,-155.0,0.0,0.0,0.0
19:45:58.115000,58.0,158.0,-233.0,-753.0,-726.0,-201.0,0.0,0.0,0.0
19:45:58.119000,155.0,146.0,-115.0,-753.0,-726.0,-201.0,0.0,0.0,0.0
19:45:58.124000,183.0,120.0,-124.0,-751.0,-659.0,-262.0,0.0,0.0,0.0
19:45:58.129000,136.0,117.0,-413.0,-751.0,-659.0,-262.0,0.0,0.0,0.0
19:45:58.134000,142.0,45.0,-607.0,-684.0,-568.0,-273.0,0.0,0.0,0.0
19:45:58.138000,59.0,70.0,-440.0,-684.0,-568.0,-273.0,0.0,0.0,0.0
19:45:58.143000,44.0,54.0,-304.0,-564.0,-607.0,-258.0,0.0,0.0,0.0
19:45:58.148000,44.0,-124.0,-304.0,-564.0,-607.0,-258.0,0.0,0.0,0.0
19:45:58.152000,137.0,-7.0,-283.0,-529.0,-694.0,-269.0,0.0,0.0,0.0
19:45:58.157000,153.0,-16.0,-133.0,-529.0,-694.0,-269.0,0.0,0.0,0.0
19:45:58.162000,144.0,4.0,-30.0,-750.0,-664.0,-281.0,0.0,0.0,0.0
19:45:58.166000,226.0,9.0,-181.0,-750.0,-664.0,-281.0,0.0,0.0,0.0
19:45:58.171000,205.0,-33.0,-379.0,-853.0,-628.0,-254.0,0.0,0.0,0.0
19:45:58.176000,109.0,-39.0,-456.0,-853.0,-628.0,-254.0,0.0,0.0,0.0
19:45:58.180000,48.0,-7.0,-298.0,-699.0,-666.0,-243.0,0.0,0.0,0.0
19:45:58.185000,161.0,14.0,-83.0,-699.0,-666.0,-243.0,0.0,0.0,0.0
19:45:58.190000,183.0,-19.0,-191.0,-724.0,-644.0,-239.0,0.0,0.0,0.0
19:45:58.195000,150.0,-10.0,-465.0,-724.0,-644.0,-239.0,0.0,0.0,0.0
19:45:58.199000,220.0,-18.0,-326.0,-747.0,-606.0,-212.0,0.0,0.0,0.0
19:45:58.204000,231.0,4.0,-35.0,-747.0,-606.0,-212.0,0.0,0.0,0.0
19:45:58.208000,260.0,28.0,54.0,-747.0,-624.0,-197.0,0.0,0.0,0.0
19:45:58.213000,344.0,11.0,-118.0,-747.0,-624.0,-197.0,0.0,0.0,0.0
19:45:58.218000,366.0,8.0,-358.0,-747.0,-624.0,-197.0,0.0,0.0,0.0
19:45:58.223000,327.0,19.0,-361.0,-848.0,-489.0,-156.0,0.0,0.0,0.0
19:45:58.228000,296.0,54.0,-338.0,-848.0,-489.0,-156.0,0.0,0.0,0.0
19:45:58.232000,163.0,81.0,-431.0,-814.0,-516.0,-132.0,0.0,0.0,0.0
19:45:58.237000,133.0,112.0,-388.0,-814.0,-516.0,-132.0,0.0,0.0,0.0
19:45:58.242000,123.0,94.0,-124.0,-776.0,-533.0,-159.0,0.0,0.0,0.0
19:45:58.246000,37.0,78.0,58.0,-776.0,-533.0,-159.0,0.0,0.0,0.0
19:45:58.251000,42.0,93.0,-23.0,-813.0,-438.0,-178.0,0.0,0.0,0.0
19:45:58.256000,44.0,79.0,-161.0,-813.0,-438.0,-178.0,0.0,0.0,0.0
19:45:58.260000,44.0,79.0,-161.0,-917.0,-430.0,-175.0,0.0,0.0,0.0
19:45:58.265000,-23.0,91.0,-134.0,-917.0,-430.0,-175.0,0.0,0.0,0.0
19:45:58.270000,34.0,95.0,-223.0,-864.0,-388.0,-167.0,0.0,0.0,0.0
19:45:58.275000,64.0,70.0,-478.0,-864.0,-388.0,-167.0,0.0,0.0,0.0
19:45:58.279000,-30.0,74.0,-527.0,-706.0,-462.0,-133.0,0.0,0.0,0.0
19:45:58.284000,-56.0,82.0,-312.0,-706.0,-462.0,-133.0,0.0,0.0,0.0
19:45:58.289000,-68.0,95.0,-217.0,-753.0,-562.0,-127.0,0.0,0.0,0.0
19:45:58.293000,-84.0,105.0,-326.0,-753.0,-562.0,-127.0,0.0,0.0,0.0
19:45:58.298000,-89.0,92.0,-306.0,-824.0,-539.0,-148.0,0.0,0.0,0.0
19:45:58.303000,-82.0,85.0,-247.0,-824.0,-539.0,-148.0,0.0,0.0,0.0
19:45:58.307000,-49.0,83.0,-270.0,-846.0,-543.0,-158.0,0.0,0.0,0.0
19:45:58.312000,-32.0,67.0,-310.0,-846.0,-543.0,-158.0,0.0,0.0,0.0
19:45:58.317000,-62.0,48.0,-417.0,-834.0,-499.0,-149.0,0.0,0.0,0.0
19:45:58.322000,-67.0,43.0,-457.0,-834.0,-499.0,-149.0,0.0,0.0,0.0
19:45:58.326000,-2.0,21.0,-486.0,-777.0,-487.0,-143.0,0.0,0.0,0.0
19:45:58.331000,62.0,-7.0,-538.0,-777.0,-487.0,-143.0,0.0,0.0,0.0
19:45:58.336000,42.0,-44.0,-581.0,-777.0,-487.0,-143.0,0.0,0.0,0.0
19:45:58.340000,21.0,-91.0,-567.0,-786.0,-496.0,-146.0,0.0,0.0,0.0
19:45:58.345000,38.0,-130.0,-519.0,-786.0,-496.0,-146.0,0.0,0.0,0.0
19:45:58.350000,65.0,-133.0,-364.0,-779.0,-517.0,-150.0,0.0,0.0,0.0
19:45:58.354000,74.0,-135.0,-246.0,-779.0,-517.0,-150.0,0.0,0.0,0.0
19:45:58.359000,77.0,-157.0,-336.0,-857.0,-566.0,-167.0,0.0,0.0,0.0
19:45:58.364000,34.0,-155.0,-354.0,-857.0,-566.0,-167.0,0.0,0.0,0.0
19:45:58.369000,34.0,-155.0,-354.0,-919.0,-540.0,-162.0,0.0,0.0,0.0
19:45:58.373000,10.0,-136.0,-252.0,-919.0,-540.0,-162.0,0.0,0.0,0.0
19:45:58.378000,23.0,-123.0,-303.0,-894.0,-402.0,-143.0,0.0,0.0,0.0
19:45:58.383000,16.0,-126.0,-490.0,-894.0,-402.0,-143.0,0.0,0.0,0.0
19:45:58.387000,-18.0,-128.0,-535.0,-854.0,-340.0,-125.0,0.0,0.0,0.0
19:45:58.392000,-43.0,-117.0,-518.0,-854.0,-340.0,-125.0,0.0,0.0,0.0
19:45:58.397000,-74.0,-107.0,-520.0,-791.0,-411.0,-125.0,0.0,0.0,0.0
19:45:58.401000,-74.0,-115.0,-511.0,-791.0,-411.0,-125.0,0.0,0.0,0.0
19:45:58.406000,-72.0,-113.0,-517.0,-775.0,-387.0,-143.0,0.0,0.0,0.0
19:45:58.411000,-88.0,-107.0,-539.0,-775.0,-387.0,-143.0,0.0,0.0,0.0
19:45:58.415000,-127.0,-107.0,-508.0,-808.0,-387.0,-153.0,0.0,0.0,0.0
19:45:58.420000,-116.0,-105.0,-485.0,-808.0,-387.0,-153.0,0.0,0.0,0.0
19:45:58.425000,-85.0,-111.0,-478.0,-829.0,-430.0,-166.0,0.0,0.0,0.0
19:45:58.430000,-90.0,-97.0,-424.0,-829.0,-430.0,-166.0,0.0,0.0,0.0
19:45:58.434000,-98.0,-77.0,-385.0,-829.0,-430.0,-166.0,0.0,0.0,0.0
19:45:58.439000,-100.0,-68.0,-424.0,-867.0,-418.0,-173.0,0.0,0.0,0.0
19:45:58.444000,-89.0,-63.0,-487.0,-867.0,-418.0,-173.0,0.0,0.0,0.0
19:45:58.448000,-84.0,-58.0,-478.0,-944.0,-403.0,-157.0,0.0,0.0,0.0
19:45:58.453000,-75.0,-54.0,-478.0,-944.0,-403.0,-157.0,0.0,0.0,0.0
19:45:58.458000,-80.0,-49.0,-525.0,-904.0,-369.0,-152.0,0.0,0.0,0.0
19:45:58.463000,-85.0,-41.0,-567.0,-904.0,-369.0,-152.0,0.0,0.0,0.0
19:45:58.467000,-73.0,-44.0,-515.0,-834.0,-349.0,-165.0,0.0,0.0,0.0
19:45:58.472000,-56.0,-53.0,-476.0,-834.0,-349.0,-165.0,0.0,0.0,0.0
19:45:58.477000,-56.0,-53.0,-476.0,-862.0,-370.0,-179.0,0.0,0.0,0.0
19:45:58.481000,-34.0,-58.0,-505.0,-862.0,-370.0,-179.0,0.0,0.0,0.0
19:45:58.486000,-18.0,-67.0,-525.0,-888.0,-365.0,-178.0,0.0,0.0,0.0
19:45:58.491000,-31.0,-72.0,-471.0,-888.0,-365.0,-178.0,0.0,0.0,0.0
19:45:58.495000,-51.0,-68.0,-398.0,-885.0,-347.0,-170.0,0.0,0.0,0.0
19:45:58.500000,-45.0,-70.0,-369.0,-885.0,-347.0,-170.0,0.0,0.0,0.0
19:45:58.505000,-40.0,-72.0,-410.0,-915.0,-345.0,-170.0,0.0,0.0,0.0
19:45:58.510000,-30.0,-74.0,-431.0,-915.0,-345.0,-170.0,0.0,0.0,0.0
19:45:58.514000,-31.0,-77.0,-348.0,-916.0,-348.0,-167.0,0.0,0.0,0.0
19:45:58.519000,-37.0,-72.0,-279.0,-916.0,-348.0,-167.0,0.0,0.0,0.0
19:45:58.524000,-44.0,-67.0,-244.0,-954.0,-310.0,-151.0,0.0,0.0,0.0
19:45:58.528000,-59.0,-67.0,-245.0,-954.0,-310.0,-151.0,0.0,0.0,0.0
19:45:58.532000,-51.0,-65.0,-226.0,-926.0,-284.0,-123.0,0.0,0.0,0.0
19:45:58.538000,-37.0,-28.0,-249.0,-926.0,-284.0,-123.0,0.0,0.0,0.0
19:45:58.542000,-67.0,14.0,-312.0,-926.0,-284.0,-123.0,0.0,0.0,0.0
19:45:58.547000,-91.0,14.0,-385.0,-625.0,-175.0,-114.0,0.0,0.0,0.0
19:45:58.552000,-111.0,4.0,-441.0,-625.0,-175.0,-114.0,0.0,0.0,0.0
19:45:58.557000,-105.0,6.0,-425.0,-439.0,16.0,-144.0,0.0,0.0,0.0
19:45:58.561000,-131.0,24.0,-340.0,-439.0,16.0,-144.0,0.0,0.0,0.0
19:45:58.566000,-107.0,34.0,-325.0,-579.0,-158.0,-240.0,0.0,0.0,0.0
19:45:58.571000,-98.0,39.0,-429.0,-579.0,-158.0,-240.0,0.0,0.0,0.0
19:45:58.575000,-76.0,-4.0,-432.0,-942.0,-450.0,-341.0,0.0,0.0,0.0
19:45:58.580000,-145.0,-75.0,-271.0,-942.0,-450.0,-341.0,0.0,0.0,0.0
19:45:58.585000,-192.0,-99.0,27.0,-1325.0,-397.0,-311.0,0.0,0.0,0.0
19:45:58.589000,-192.0,-99.0,27.0,-1325.0,-397.0,-311.0,0.0,0.0,0.0
19:45:58.594000,-200.0,-135.0,180.0,-1081.0,-267.0,-272.0,0.0,0.0,0.0
19:45:58.599000,-121.0,-130.0,130.0,-1081.0,-267.0,-272.0,0.0,0.0,0.0
19:45:58.604000,-98.0,-93.0,-70.0,-536.0,-352.0,-350.0,0.0,0.0,0.0
19:45:58.608000,-36.0,-86.0,-222.0,-536.0,-352.0,-350.0,0.0,0.0,0.0
19:45:58.613000,21.0,-100.0,-287.0,-558.0,-271.0,-420.0,0.0,0.0,0.0
19:45:58.618000,11.0,-102.0,-238.0,-558.0,-271.0,-420.0,0.0,0.0,0.0
19:45:58.622000,-17.0,-124.0,-136.0,-956.0,-324.0,-439.0,0.0,0.0,0.0
19:45:58.627000,-11.0,-128.0,-121.0,-956.0,-324.0,-439.0,0.0,0.0,0.0
19:45:58.632000,-36.0,-166.0,-59.0,-1283.0,-494.0,-384.0,0.0,0.0,0.0
19:45:58.636000,-99.0,-210.0,11.0,-1283.0,-494.0,-384.0,0.0,0.0,0.0
19:45:58.641000,-134.0,-273.0,23.0,-1224.0,-360.0,-277.0,0.0,0.0,0.0
19:45:58.646000,-127.0,-357.0,93.0,-1224.0,-360.0,-277.0,0.0,0.0,0.0
19:45:58.650000,-88.0,-392.0,58.0,-1224.0,-360.0,-277.0,0.0,0.0,0.0
19:45:58.655000,-36.0,-431.0,-46.0,-731.0,-371.0,-215.0,0.0,0.0,0.0
19:45:58.660000,-25.0,-477.0,-95.0,-731.0,-371.0,-215.0,0.0,0.0,0.0
19:45:58.665000,-30.0,-506.0,-119.0,-539.0,-356.0,-170.0,0.0,0.0,0.0
19:45:58.669000,-74.0,-511.0,-189.0,-883.0,-261.0,-138.0,0.0,0.0,0.0
19:45:58.674000,-120.0,-493.0,-272.0,-883.0,-261.0,-138.0,0.0,0.0,0.0
19:45:58.679000,-191.0,-451.0,-375.0,-883.0,-261.0,-138.0,0.0,0.0,0.0
19:45:58.683000,-240.0,-409.0,-492.0,-1158.0,-279.0,-127.0,0.0,0.0,0.0
19:45:58.688000,-294.0,-364.0,-560.0,-1158.0,-279.0,-127.0,0.0,0.0,0.0
19:45:58.693000,-324.0,-333.0,-545.0,-1226.0,-275.0,-147.0,0.0,0.0,0.0
19:45:58.698000,-324.0,-333.0,-545.0,-1226.0,-275.0,-147.0,0.0,0.0,0.0
19:45:58.702000,-373.0,-289.0,-515.0,-1207.0,-280.0,-140.0,0.0,0.0,0.0
19:45:58.707000,-408.0,-249.0,-534.0,-1207.0,-280.0,-140.0,0.0,0.0,0.0
19:45:58.712000,-399.0,-231.0,-538.0,-1165.0,-388.0,-106.0,0.0,0.0,0.0
19:45:58.716000,-378.0,-199.0,-529.0,-1165.0,-388.0,-106.0,0.0,0.0,0.0
19:45:58.721000,-338.0,-182.0,-560.0,-1176.0,-446.0,-106.0,0.0,0.0,0.0
19:45:58.726000,-318.0,-165.0,-608.0,-1176.0,-446.0,-106.0,0.0,0.0,0.0
19:45:58.730000,-319.0,-149.0,-659.0,-1173.0,-413.0,-96.0,0.0,0.0,0.0
19:45:58.735000,-277.0,-142.0,-680.0,-1173.0,-413.0,-96.0,0.0,0.0,0.0
19:45:58.740000,-260.0,-116.0,-672.0,-1105.0,-408.0,-88.0,0.0,0.0,0.0
19:45:58.745000,-215.0,-119.0,-658.0,-1105.0,-408.0,-88.0,0.0,0.0,0.0
19:45:58.749000,-193.0,-99.0,-678.0,-1075.0,-424.0,-90.0,0.0,0.0,0.0
19:45:58.754000,-156.0,-89.0,-738.0,-1075.0,-424.0,-90.0,0.0,0.0,0.0
19:45:58.759000,-93.0,-85.0,-767.0,-1075.0,-424.0,-90.0,0.0,0.0,0.0
19:45:58.763000,-86.0,-62.0,-772.0,-1092.0,-401.0,-83.0,0.0,0.0,0.0
19:45:58.768000,-58.0,-57.0,-771.0,-1092.0,-401.0,-83.0,0.0,0.0,0.0
19:45:58.773000,-30.0,-37.0,-793.0,-1109.0,-405.0,-65.0,0.0,0.0,0.0
19:45:58.777000,-14.0,-23.0,-828.0,-1109.0,-405.0,-65.0,0.0,0.0,0.0
19:45:58.782000,25.0,-17.0,-861.0,-1118.0,-372.0,-67.0,0.0,0.0,0.0
19:45:58.787000,47.0,0.0,-848.0,-1118.0,-372.0,-67.0,0.0,0.0,0.0
19:45:58.792000,67.0,3.0,-821.0,-1085.0,-282.0,-83.0,0.0,0.0,0.0
19:45:58.796000,66.0,15.0,-821.0,-1085.0,-282.0,-83.0,0.0,0.0,0.0
19:45:58.801000,66.0,30.0,-842.0,-1091.0,-249.0,-85.0,0.0,0.0,0.0
19:45:58.806000,66.0,30.0,-842.0,-1091.0,-249.0,-85.0,0.0,0.0,0.0
19:45:58.810000,76.0,39.0,-873.0,-1112.0,-229.0,-71.0,0.0,0.0,0.0
19:45:58.815000,79.0,57.0,-871.0,-1112.0,-229.0,-71.0,0.0,0.0,0.0
19:45:58.820000,79.0,70.0,-819.0,-1089.0,-186.0,-67.0,0.0,0.0,0.0
19:45:58.824000,84.0,84.0,-787.0,-1089.0,-186.0,-67.0,0.0,0.0,0.0
19:45:58.829000,95.0,103.0,-802.0,-1083.0,-146.0,-87.0,0.0,0.0,0.0
19:45:58.834000,106.0,119.0,-842.0,-1083.0,-146.0,-87.0,0.0,0.0,0.0
19:45:58.839000,116.0,129.0,-875.0,-1067.0,-119.0,-84.0,0.0,0.0,0.0
19:45:58.843000,112.0,141.0,-881.0,-1067.0,-119.0,-84.0,0.0,0.0,0.0
19:45:58.848000,109.0,149.0,-870.0,-1039.0,-91.0,-69.0,0.0,0.0,0.0
19:45:58.853000,119.0,149.0,-868.0,-1039.0,-91.0,-69.0,0.0,0.0,0.0
19:45:58.857000,117.0,158.0,-879.0,-1029.0,-71.0,-78.0,0.0,0.0,0.0
19:45:58.862000,119.0,164.0,-879.0,-1029.0,-71.0,-78.0,0.0,0.0,0.0
19:45:58.867000,136.0,169.0,-850.0,-1029.0,-71.0,-78.0,0.0,0.0,0.0
19:45:58.871000,149.0,168.0,-841.0,-1023.0,-74.0,-80.0,0.0,0.0,0.0
19:45:58.876000,163.0,168.0,-861.0,-1023.0,-74.0,-80.0,0.0,0.0,0.0
19:45:58.881000,154.0,169.0,-884.0,-1011.0,-26.0,-75.0,0.0,0.0,0.0
19:45:58.885000,149.0,177.0,-873.0,-1011.0,-26.0,-75.0,0.0,0.0,0.0
19:45:58.890000,154.0,172.0,-863.0,-978.0,-3.0,-79.0,0.0,0.0,0.0
19:45:58.895000,172.0,168.0,-837.0,-978.0,-3.0,-79.0,0.0,0.0,0.0
19:45:58.900000,174.0,159.0,-849.0,-951.0,-4.0,-89.0,0.0,0.0,0.0
19:45:58.904000,175.0,166.0,-845.0,-951.0,-4.0,-89.0,0.0,0.0,0.0
19:45:58.909000,163.0,159.0,-819.0,-943.0,56.0,-95.0,0.0,0.0,0.0
19:45:58.914000,163.0,159.0,-819.0,-943.0,56.0,-95.0,0.0,0.0,0.0
19:45:58.918000,164.0,165.0,-776.0,-944.0,92.0,-96.0,0.0,0.0,0.0
19:45:58.923000,156.0,160.0,-773.0,-944.0,92.0,-96.0,0.0,0.0,0.0
19:45:58.928000,148.0,163.0,-764.0,-968.0,106.0,-103.0,0.0,0.0,0.0
19:45:58.933000,147.0,158.0,-760.0,-968.0,106.0,-103.0,0.0,0.0,0.0
19:45:58.937000,139.0,157.0,-746.0,-998.0,118.0,-110.0,0.0,0.0,0.0
19:45:58.942000,135.0,157.0,-698.0,-998.0,118.0,-110.0,0.0,0.0,0.0
19:45:58.947000,131.0,154.0,-674.0,-1015.0,121.0,-117.0,0.0,0.0,0.0
19:45:58.951000,128.0,156.0,-655.0,-1015.0,121.0,-117.0,0.0,0.0,0.0
19:45:58.956000,116.0,155.0,-635.0,-1015.0,142.0,-119.0,0.0,0.0,0.0
19:45:58.961000,108.0,163.0,-597.0,-1015.0,142.0,-119.0,0.0,0.0,0.0
19:45:58.965000,86.0,167.0,-588.0,-1017.0,152.0,-119.0,0.0,0.0,0.0
19:45:58.970000,71.0,177.0,-596.0,-1017.0,152.0,-119.0,0.0,0.0,0.0
19:45:58.975000,69.0,173.0,-627.0,-1017.0,141.0,-124.0,0.0,0.0,0.0
19:45:58.980000,59.0,182.0,-630.0,-1021.0,141.0,-124.0,0.0,0.0,0.0
19:45:58.984000,57.0,179.0,-606.0,-1021.0,141.0,-124.0,0.0,0.0,0.0
19:45:58.989000,44.0,179.0,-592.0,-1000.0,136.0,-129.0,0.0,0.0,0.0
19:45:58.994000,39.0,175.0,-609.0,-1000.0,136.0,-129.0,0.0,0.0,0.0
19:45:58.998000,28.0,171.0,-640.0,-967.0,136.0,-128.0,0.0,0.0,0.0
19:45:59.003000,19.0,172.0,-653.0,-967.0,136.0,-128.0,0.0,0.0,0.0
19:45:59.008000,13.0,166.0,-653.0,-929.0,135.0,-131.0,0.0,0.0,0.0
19:45:59.012000,5.0,162.0,-648.0,-929.0,135.0,-131.0,0.0,0.0,0.0
19:45:59.017000,-1.0,156.0,-646.0,-901.0,146.0,-136.0,0.0,0.0,0.0
19:45:59.022000,-7.0,147.0,-641.0,-901.0,146.0,-136.0,0.0,0.0,0.0
19:45:59.027000,-7.0,147.0,-641.0,-908.0,161.0,-139.0,0.0,0.0,0.0
19:45:59.031000,-14.0,138.0,-617.0,-908.0,161.0,-139.0,0.0,0.0,0.0
19:45:59.036000,-22.0,132.0,-611.0,-914.0,163.0,-145.0,0.0,0.0,0.0
19:45:59.041000,-31.0,126.0,-610.0,-914.0,163.0,-145.0,0.0,0.0,0.0
19:45:59.045000,-32.0,119.0,-611.0,-890.0,170.0,-155.0,0.0,0.0,0.0
19:45:59.050000,-37.0,111.0,-609.0,-890.0,170.0,-155.0,0.0,0.0,0.0
19:45:59.055000,-51.0,101.0,-607.0,-888.0,199.0,-166.0,0.0,0.0,0.0
19:45:59.059000,-52.0,92.0,-604.0,-888.0,199.0,-166.0,0.0,0.0,0.0
19:45:59.064000,-51.0,84.0,-589.0,-905.0,236.0,-173.0,0.0,0.0,0.0
19:45:59.069000,-56.0,79.0,-587.0,-905.0,236.0,-173.0,0.0,0.0,0.0
19:45:59.074000,-63.0,72.0,-592.0,-920.0,265.0,-177.0,0.0,0.0,0.0
19:45:59.078000,-59.0,74.0,-576.0,-920.0,265.0,-177.0,0.0,0.0,0.0
19:45:59.083000,-54.0,69.0,-545.0,-934.0,270.0,-185.0,0.0,0.0,0.0
19:45:59.088000,-47.0,65.0,-532.0,-934.0,270.0,-185.0,0.0,0.0,0.0
19:45:59.092000,-57.0,62.0,-514.0,-934.0,270.0,-185.0,0.0,0.0,0.0
19:45:59.097000,-60.0,52.0,-487.0,-952.0,258.0,-182.0,0.0,0.0,0.0
19:45:59.102000,-65.0,38.0,-455.0,-952.0,258.0,-182.0,0.0,0.0,0.0
19:45:59.106000,-81.0,29.0,-429.0,-968.0,278.0,-177.0,0.0,0.0,0.0
19:45:59.111000,-88.0,27.0,-437.0,-968.0,278.0,-177.0,0.0,0.0,0.0
19:45:59.116000,-92.0,25.0,-447.0,-1001.0,292.0,-175.0,0.0,0.0,0.0
19:45:59.120000,-92.0,25.0,-447.0,-1001.0,292.0,-175.0,0.0,0.0,0.0
19:45:59.125000,-102.0,25.0,-324.0,-1014.0,271.0,-167.0,0.0,0.0,0.0
19:45:59.130000,-107.0,34.0,-305.0,-1014.0,271.0,-167.0,0.0,0.0,0.0
19:45:59.134000,-107.0,34.0,-305.0,-954.0,319.0,-166.0,0.0,0.0,0.0
19:45:59.139000,-105.0,45.0,-365.0,-954.0,319.0,-166.0,0.0,0.0,0.0
19:45:59.144000,-107.0,48.0,-375.0,-947.0,383.0,-161.0,0.0,0.0,0.0
19:45:59.149000,-114.0,58.0,-347.0,-947.0,383.0,-161.0,0.0,0.0,0.0
19:45:59.153000,-130.0,70.0,-307.0,-999.0,377.0,-153.0,0.0,0.0,0.0
19:45:59.158000,-130.0,81.0,-308.0,-999.0,377.0,-153.0,0.0,0.0,0.0
19:45:59.163000,-127.0,96.0,-292.0,-979.0,353.0,-152.0,0.0,0.0,0.0
19:45:59.168000,-129.0,96.0,-226.0,-979.0,353.0,-152.0,0.0,0.0,0.0
19:45:59.172000,-111.0,101.0,-202.0,-961.0,351.0,-150.0,0.0,0.0,0.0
19:45:59.177000,-103.0,105.0,-207.0,-961.0,351.0,-150.0,0.0,0.0,0.0
19:45:59.182000,-93.0,107.0,-214.0,-924.0,368.0,-142.0,0.0,0.0,0.0
19:45:59.186000,-84.0,106.0,-168.0,-924.0,368.0,-142.0,0.0,0.0,0.0
19:45:59.191000,-73.0,93.0,-95.0,-839.0,353.0,-124.0,0.0,0.0,0.0
19:45:59.196000,-51.0,73.0,-53.0,-839.0,353.0,-124.0,0.0,0.0,0.0
19:45:59.200000,-41.0,54.0,-26.0,-839.0,353.0,-124.0,0.0,0.0,0.0
19:45:59.205000,-32.0,37.0,-23.0,-797.0,344.0,-109.0,0.0,0.0,0.0
19:45:59.210000,-12.0,15.0,-4.0,-797.0,344.0,-109.0,0.0,0.0,0.0
19:45:59.215000,5.0,-3.0,18.0,-771.0,382.0,-109.0,0.0,0.0,0.0
19:45:59.219000,16.0,-22.0,44.0,-771.0,382.0,-109.0,0.0,0.0,0.0
19:45:59.224000,17.0,-35.0,35.0,-806.0,422.0,-118.0,0.0,0.0,0.0
19:45:59.229000,28.0,-51.0,52.0,-806.0,422.0,-118.0,0.0,0.0,0.0
19:45:59.233000,28.0,-68.0,90.0,-876.0,415.0,-130.0,0.0,0.0,0.0
19:45:59.238000,28.0,-81.0,102.0,-876.0,415.0,-130.0,0.0,0.0,0.0
19:45:59.243000,28.0,-81.0,102.0,-875.0,400.0,-143.0,0.0,0.0,0.0
19:45:59.247000,19.0,-96.0,114.0,-875.0,400.0,-143.0,0.0,0.0,0.0
19:45:59.252000,-1.0,-110.0,123.0,-830.0,441.0,-153.0,0.0,0.0,0.0
19:45:59.257000,-23.0,-134.0,129.0,-830.0,441.0,-153.0,0.0,0.0,0.0
19:45:59.262000,-57.0,-156.0,121.0,-788.0,498.0,-159.0,0.0,0.0,0.0
19:45:59.266000,-87.0,-178.0,116.0,-788.0,498.0,-159.0,0.0,0.0,0.0
19:45:59.271000,-114.0,-200.0,98.0,-744.0,511.0,-164.0,0.0,0.0,0.0
19:45:59.276000,-137.0,-223.0,72.0,-744.0,511.0,-164.0,0.0,0.0,0.0
19:45:59.280000,-158.0,-243.0,35.0,-726.0,501.0,-178.0,0.0,0.0,0.0
19:45:59.285000,-179.0,-262.0,3.0,-726.0,501.0,-178.0,0.0,0.0,0.0
19:45:59.290000,-201.0,-273.0,-7.0,-742.0,475.0,-195.0,0.0,0.0,0.0
19:45:59.294000,-220.0,-280.0,14.0,-742.0,475.0,-195.0,0.0,0.0,0.0
19:45:59.299000,-233.0,-279.0,37.0,-781.0,426.0,-213.0,0.0,0.0,0.0
19:45:59.304000,-238.0,-280.0,42.0,-781.0,426.0,-213.0,0.0,0.0,0.0
19:45:59.309000,-242.0,-280.0,32.0,-781.0,426.0,-213.0,0.0,0.0,0.0
19:45:59.313000,-240.0,-278.0,42.0,-828.0,393.0,-228.0,0.0,0.0,0.0
19:45:59.318000,-238.0,-275.0,74.0,-828.0,393.0,-228.0,0.0,0.0,0.0
19:45:59.323000,-228.0,-272.0,116.0,-834.0,356.0,-236.0,0.0,0.0,0.0
19:45:59.327000,-214.0,-270.0,142.0,-834.0,356.0,-236.0,0.0,0.0,0.0
19:45:59.332000,-198.0,-268.0,148.0,-820.0,318.0,-238.0,0.0,0.0,0.0
19:45:59.337000,-188.0,-268.0,161.0,-820.0,318.0,-238.0,0.0,0.0,0.0
19:45:59.341000,-178.0,-273.0,190.0,-811.0,313.0,-229.0,0.0,0.0,0.0
19:45:59.346000,-171.0,-283.0,226.0,-811.0,313.0,-229.0,0.0,0.0,0.0
19:45:59.351000,-171.0,-283.0,226.0,-812.0,314.0,-198.0,0.0,0.0,0.0
19:45:59.355000,-165.0,-300.0,249.0,-812.0,314.0,-198.0,0.0,0.0,0.0
19:45:59.360000,-155.0,-319.0,272.0,-803.0,294.0,-149.0,0.0,0.0,0.0
19:45:59.365000,-141.0,-338.0,293.0,-803.0,294.0,-149.0,0.0,0.0,0.0
19:45:59.370000,-123.0,-355.0,310.0,-756.0,256.0,-101.0,0.0,0.0,0.0
19:45:59.374000,-101.0,-370.0,315.0,-756.0,256.0,-101.0,0.0,0.0,0.0
19:45:59.379000,-79.0,-381.0,305.0,-728.0,226.0,-60.0,0.0,0.0,0.0
19:45:59.384000,-56.0,-387.0,288.0,-728.0,226.0,-60.0,0.0,0.0,0.0
19:45:59.388000,-34.0,-388.0,269.0,-742.0,212.0,-29.0,0.0,0.0,0.0
19:45:59.393000,-13.0,-383.0,247.0,-742.0,212.0,-29.0,0.0,0.0,0.0
19:45:59.398000,4.0,-368.0,220.0,-773.0,209.0,-16.0,0.0,0.0,0.0
19:45:59.403000,13.0,-343.0,194.0,-773.0,209.0,-16.0,0.0,0.0,0.0
19:45:59.407000,14.0,-310.0,168.0,-836.0,238.0,-20.0,0.0,0.0,0.0
19:45:59.412000,4.0,-275.0,146.0,-836.0,238.0,-20.0,0.0,0.0,0.0
19:45:59.417000,-12.0,-238.0,135.0,-836.0,238.0,-20.0,0.0,0.0,0.0
19:45:59.421000,-36.0,-196.0,140.0,-908.0,276.0,-26.0,0.0,0.0,0.0
19:45:59.426000,-64.0,-150.0,162.0,-908.0,276.0,-26.0,0.0,0.0,0.0
19:45:59.431000,-92.0,-100.0,184.0,-916.0,287.0,-31.0,0.0,0.0,0.0
19:45:59.435000,-116.0,-51.0,202.0,-916.0,287.0,-31.0,0.0,0.0,0.0
19:45:59.440000,-141.0,-2.0,219.0,-869.0,284.0,-38.0,0.0,0.0,0.0
19:45:59.445000,-158.0,39.0,234.0,-869.0,284.0,-38.0,0.0,0.0,0.0
19:45:59.450000,-165.0,75.0,238.0,-826.0,278.0,-46.0,0.0,0.0,0.0
19:45:59.454000,-164.0,106.0,227.0,-826.0,278.0,-46.0,0.0,0.0,0.0
19:45:59.459000,-157.0,128.0,217.0,-794.0,258.0,-56.0,0.0,0.0,0.0
19:45:59.464000,-157.0,128.0,217.0,-794.0,258.0,-56.0,0.0,0.0,0.0
19:45:59.468000,-140.0,140.0,211.0,-746.0,222.0,-60.0,0.0,0.0,0.0
19:45:59.473000,-120.0,143.0,210.0,-746.0,222.0,-60.0,0.0,0.0,0.0
19:45:59.478000,-93.0,138.0,218.0,-661.0,173.0,-55.0,0.0,0.0,0.0
19:45:59.482000,-60.0,125.0,228.0,-661.0,173.0,-55.0,0.0,0.0,0.0
19:45:59.487000,-27.0,109.0,235.0,-571.0,141.0,-49.0,0.0,0.0,0.0
19:45:59.492000,4.0,93.0,245.0,-571.0,141.0,-49.0,0.0,0.0,0.0
19:45:59.497000,35.0,74.0,261.0,-530.0,139.0,-49.0,0.0,0.0,0.0
19:45:59.501000,63.0,58.0,279.0,-530.0,139.0,-49.0,0.0,0.0,0.0
19:45:59.506000,88.0,40.0,291.0,-560.0,156.0,-50.0,0.0,0.0,0.0
19:45:59.511000,108.0,23.0,294.0,-560.0,156.0,-50.0,0.0,0.0,0.0
19:45:59.515000,130.0,6.0,304.0,-604.0,157.0,-44.0,0.0,0.0,0.0
19:45:59.520000,151.0,-8.0,320.0,-604.0,157.0,-44.0,0.0,0.0,0.0
19:45:59.525000,170.0,-18.0,336.0,-604.0,157.0,-44.0,0.0,0.0,0.0
19:45:59.529000,182.0,-25.0,352.0,-614.0,142.0,-38.0,0.0,0.0,0.0
19:45:59.534000,191.0,-28.0,364.0,-614.0,142.0,-38.0,0.0,0.0,0.0
19:45:59.539000,196.0,-26.0,366.0,-638.0,148.0,-36.0,0.0,0.0,0.0
19:45:59.544000,197.0,-21.0,370.0,-638.0,148.0,-36.0,0.0,0.0,0.0
19:45:59.548000,193.0,-14.0,374.0,-700.0,170.0,-41.0,0.0,0.0,0.0
19:45:59.553000,185.0,-10.0,387.0,-700.0,170.0,-41.0,0.0,0.0,0.0
19:45:59.558000,174.0,-3.0,413.0,-766.0,178.0,-46.0,0.0,0.0,0.0
19:45:59.562000,160.0,2.0,443.0,-766.0,178.0,-46.0,0.0,0.0,0.0
19:45:59.567000,149.0,9.0,476.0,-791.0,164.0,-43.0,0.0,0.0,0.0
19:45:59.572000,149.0,9.0,476.0,-791.0,164.0,-43.0,0.0,0.0,0.0
19:45:59.576000,137.0,18.0,504.0,-777.0,136.0,-37.0,0.0,0.0,0.0
19:45:59.581000,129.0,27.0,529.0,-777.0,136.0,-37.0,0.0,0.0,0.0
19:45:59.586000,119.0,37.0,546.0,-756.0,109.0,-40.0,0.0,0.0,0.0
19:45:59.590000,109.0,46.0,557.0,-756.0,109.0,-40.0,0.0,0.0,0.0
19:45:59.595000,94.0,55.0,564.0,-745.0,92.0,-47.0,0.0,0.0,0.0
19:45:59.600000,80.0,62.0,566.0,-745.0,92.0,-47.0,0.0,0.0,0.0
19:45:59.605000,71.0,70.0,567.0,-725.0,58.0,-58.0,0.0,0.0,0.0
19:45:59.609000,64.0,76.0,562.0,-725.0,58.0,-58.0,0.0,0.0,0.0
19:45:59.614000,59.0,83.0,546.0,-709.0,18.0,-79.0,0.0,0.0,0.0
19:45:59.619000,56.0,88.0,523.0,-709.0,18.0,-79.0,0.0,0.0,0.0
19:45:59.623000,51.0,92.0,508.0,-705.0,1.0,-101.0,0.0,0.0,0.0
19:45:59.628000,46.0,93.0,501.0,-705.0,1.0,-101.0,0.0,0.0,0.0
19:45:59.633000,42.0,94.0,490.0,-705.0,1.0,-101.0,0.0,0.0,0.0
19:45:59.638000,35.0,96.0,473.0,-685.0,-4.0,-118.0,0.0,0.0,0.0
19:45:59.642000,27.0,95.0,456.0,-685.0,-4.0,-118.0,0.0,0.0,0.0
19:45:59.647000,17.0,95.0,448.0,-661.0,-4.0,-132.0,0.0,0.0,0.0
19:45:59.652000,7.0,94.0,446.0,-661.0,-4.0,-132.0,0.0,0.0,0.0
19:45:59.656000,-1.0,91.0,443.0,-646.0,-15.0,-139.0,0.0,0.0,0.0
19:45:59.661000,-9.0,88.0,429.0,-646.0,-15.0,-139.0,0.0,0.0,0.0
19:45:59.666000,-18.0,81.0,408.0,-647.0,-27.0,-142.0,0.0,0.0,0.0
19:45:59.670000,-23.0,72.0,391.0,-647.0,-27.0,-142.0,0.0,0.0,0.0
19:45:59.675000,-25.0,60.0,377.0,-649.0,-37.0,-136.0,0.0,0.0,0.0
19:45:59.680000,-25.0,60.0,377.0,-649.0,-37.0,-136.0,0.0,0.0,0.0
19:45:59.684000,-22.0,49.0,359.0,-631.0,-58.0,-125.0,0.0,0.0,0.0
19:45:59.689000,-18.0,37.0,339.0,-631.0,-58.0,-125.0,0.0,0.0,0.0
19:45:59.694000,-11.0,22.0,322.0,-611.0,-70.0,-114.0,0.0,0.0,0.0
19:45:59.699000,-3.0,9.0,307.0,-611.0,-70.0,-114.0,0.0,0.0,0.0
19:45:59.703000,4.0,-3.0,294.0,-610.0,-64.0,-103.0,0.0,0.0,0.0
19:45:59.708000,14.0,-16.0,284.0,-610.0,-64.0,-103.0,0.0,0.0,0.0
19:45:59.713000,23.0,-27.0,281.0,-621.0,-53.0,-91.0,0.0,0.0,0.0
19:45:59.717000,33.0,-36.0,280.0,-621.0,-53.0,-91.0,0.0,0.0,0.0
19:45:59.722000,45.0,-44.0,284.0,-630.0,-46.0,-82.0,0.0,0.0,0.0
19:45:59.727000,54.0,-48.0,289.0,-630.0,-46.0,-82.0,0.0,0.0,0.0
19:45:59.731000,65.0,-48.0,294.0,-647.0,-42.0,-79.0,0.0,0.0,0.0
19:45:59.736000,70.0,-44.0,302.0,-647.0,-42.0,-79.0,0.0,0.0,0.0
19:45:59.741000,74.0,-41.0,315.0,-647.0,-38.0,-79.0,0.0,0.0,0.0
19:45:59.746000,76.0,-37.0,322.0,-684.0,-38.0,-75.0,0.0,0.0,0.0
19:45:59.750000,79.0,-38.0,321.0,-718.0,-35.0,-71.0,0.0,0.0,0.0
19:45:59.755000,84.0,-40.0,319.0,-718.0,-35.0,-71.0,0.0,0.0,0.0
19:45:59.760000,92.0,-46.0,311.0,-718.0,-35.0,-71.0,0.0,0.0,0.0
19:45:59.764000,102.0,-52.0,304.0,-719.0,-38.0,-69.0,0.0,0.0,0.0
19:45:59.769000,109.0,-57.0,297.0,-719.0,-38.0,-69.0,0.0,0.0,0.0
19:45:59.774000,112.0,-61.0,287.0,-706.0,-22.0,-70.0,0.0,0.0,0.0
19:45:59.778000,105.0,-66.0,274.0,-706.0,-22.0,-70.0,0.0,0.0,0.0
19:45:59.783000,95.0,-70.0,272.0,-721.0,22.0,-66.0,0.0,0.0,0.0
19:45:59.788000,95.0,-70.0,272.0,-721.0,22.0,-66.0,0.0,0.0,0.0
19:45:59.793000,80.0,-72.0,284.0,-741.0,51.0,-60.0,0.0,0.0,0.0
19:45:59.797000,60.0,-77.0,301.0,-741.0,51.0,-60.0,0.0,0.0,0.0
19:45:59.802000,38.0,-79.0,315.0,-744.0,65.0,-56.0,0.0,0.0,0.0
19:45:59.807000,11.0,-80.0,326.0,-744.0,65.0,-56.0,0.0,0.0,0.0
19:45:59.811000,-14.0,-77.0,341.0,-741.0,72.0,-56.0,0.0,0.0,0.0
19:45:59.816000,-38.0,-72.0,348.0,-741.0,72.0,-56.0,0.0,0.0,0.0
19:45:59.821000,-63.0,-65.0,343.0,-758.0,73.0,-62.0,0.0,0.0,0.0
19:45:59.825000,-89.0,-59.0,331.0,-758.0,73.0,-62.0,0.0,0.0,0.0
19:45:59.830000,-115.0,-53.0,327.0,-789.0,70.0,-74.0,0.0,0.0,0.0
19:45:59.835000,-136.0,-43.0,327.0,-789.0,70.0,-74.0,0.0,0.0,0.0
19:45:59.840000,-156.0,-32.0,324.0,-818.0,64.0,-88.0,0.0,0.0,0.0
19:45:59.844000,-178.0,-25.0,316.0,-818.0,64.0,-88.0,0.0,0.0,0.0
19:45:59.849000,-193.0,-20.0,312.0,-846.0,53.0,-97.0,0.0,0.0,0.0
19:45:59.854000,-202.0,-16.0,314.0,-846.0,53.0,-97.0,0.0,0.0,0.0
19:45:59.858000,-202.0,-13.0,316.0,-846.0,53.0,-97.0,0.0,0.0,0.0
19:45:59.863000,-196.0,-6.0,314.0,-846.0,13.0,-101.0,0.0,0.0,0.0
19:45:59.868000,-191.0,0.0,307.0,-846.0,13.0,-101.0,0.0,0.0,0.0
19:45:59.872000,-184.0,8.0,295.0,-848.0,-30.0,-105.0,0.0,0.0,0.0
19:45:59.877000,-175.0,16.0,273.0,-848.0,-30.0,-105.0,0.0,0.0,0.0
19:45:59.882000,-167.0,24.0,248.0,-886.0,-55.0,-113.0,0.0,0.0,0.0
19:45:59.887000,-156.0,31.0,227.0,-886.0,-55.0,-113.0,0.0,0.0,0.0
19:45:59.891000,-144.0,38.0,209.0,-937.0,-70.0,-121.0,0.0,0.0,0.0
19:45:59.896000,-127.0,43.0,197.0,-937.0,-70.0,-121.0,0.0,0.0,0.0
19:45:59.901000,-127.0,43.0,197.0,-973.0,-78.0,-129.0,0.0,0.0,0.0
19:45:59.905000,-110.0,44.0,193.0,-973.0,-78.0,-129.0,0.0,0.0,0.0
19:45:59.910000,-93.0,46.0,195.0,-992.0,-76.0,-133.0,0.0,0.0,0.0
19:45:59.915000,-78.0,45.0,210.0,-992.0,-76.0,-133.0,0.0,0.0,0.0
19:45:59.919000,-60.0,47.0,233.0,-990.0,-69.0,-132.0,0.0,0.0,0.0
19:45:59.924000,-44.0,49.0,251.0,-990.0,-69.0,-132.0,0.0,0.0,0.0
19:45:59.929000,-30.0,53.0,260.0,-984.0,-45.0,-135.0,0.0,0.0,0.0
19:45:59.934000,-18.0,58.0,266.0,-984.0,-45.0,-135.0,0.0,0.0,0.0
19:45:59.938000,-8.0,65.0,275.0,-1001.0,-14.0,-143.0,0.0,0.0,0.0
19:45:59.943000,0.0,74.0,285.0,-1001.0,-14.0,-143.0,0.0,0.0,0.0
19:45:59.948000,5.0,84.0,291.0,-1028.0,6.0,-152.0,0.0,0.0,0.0
19:45:59.952000,6.0,92.0,298.0,-1028.0,6.0,-152.0,0.0,0.0,0.0
19:45:59.957000,2.0,103.0,303.0,-1043.0,37.0,-160.0,0.0,0.0,0.0
19:45:59.962000,-7.0,115.0,305.0,-1043.0,37.0,-160.0,0.0,0.0,0.0
19:45:59.966000,-22.0,127.0,309.0,-1043.0,37.0,-160.0,0.0,0.0,0.0
19:45:59.971000,-39.0,137.0,312.0,-1034.0,81.0,-165.0,0.0,0.0,0.0
19:45:59.976000,-56.0,147.0,312.0,-1034.0,81.0,-165.0,0.0,0.0,0.0
19:45:59.981000,-74.0,151.0,309.0,-1026.0,107.0,-172.0,0.0,0.0,0.0
19:45:59.985000,-91.0,151.0,314.0,-1026.0,107.0,-172.0,0.0,0.0,0.0
19:45:59.990000,-109.0,146.0,328.0,-1039.0,101.0,-177.0,0.0,0.0,0.0
19:45:59.995000,-123.0,134.0,348.0,-1039.0,101.0,-177.0,0.0,0.0,0.0
19:45:59.999000,-135.0,123.0,354.0,-1031.0,86.0,-179.0,0.0,0.0,0.0
19:46:00.004000,-145.0,111.0,345.0,-1031.0,86.0,-179.0,0.0,0.0,0.0
19:46:00.009000,-145.0,111.0,345.0,-1005.0,88.0,-179.0,0.0,0.0,0.0
19:46:00.013000,-149.0,98.0,350.0,-1005.0,88.0,-179.0,0.0,0.0,0.0
19:46:00.018000,-144.0,84.0,359.0,-1009.0,58.0,-185.0,0.0,0.0,0.0
19:46:00.023000,-135.0,77.0,364.0,-1009.0,58.0,-185.0,0.0,0.0,0.0
19:46:00.028000,-118.0,64.0,375.0,-1038.0,-4.0,-199.0,0.0,0.0,0.0
19:46:00.032000,-102.0,42.0,379.0,-1038.0,-4.0,-199.0,0.0,0.0,0.0
19:46:00.037000,-93.0,23.0,370.0,-1062.0,0.0,-204.0,0.0,0.0,0.0
19:46:00.042000,-88.0,9.0,361.0,-1062.0,0.0,-204.0,0.0,0.0,0.0
19:46:00.046000,-83.0,0.0,344.0,-1036.0,66.0,-205.0,0.0,0.0,0.0
19:46:00.051000,-84.0,-8.0,315.0,-1036.0,66.0,-205.0,0.0,0.0,0.0
19:46:00.056000,-82.0,-8.0,289.0,-1009.0,115.0,-211.0,0.0,0.0,0.0
19:46:00.060000,-82.0,-10.0,266.0,-1009.0,115.0,-211.0,0.0,0.0,0.0
19:46:00.065000,-88.0,-10.0,252.0,-1015.0,120.0,-211.0,0.0,0.0,0.0
19:46:00.070000,-88.0,-8.0,254.0,-1015.0,120.0,-211.0,0.0,0.0,0.0
19:46:00.075000,-82.0,-10.0,252.0,-1015.0,120.0,-211.0,0.0,0.0,0.0
19:46:00.079000,-65.0,-8.0,236.0,-1018.0,94.0,-209.0,0.0,0.0,0.0
19:46:00.084000,-47.0,-9.0,200.0,-1018.0,94.0,-209.0,0.0,0.0,0.0
19:46:00.089000,-29.0,-5.0,152.0,-1013.0,106.0,-214.0,0.0,0.0,0.0
19:46:00.093000,-11.0,-7.0,128.0,-1013.0,106.0,-214.0,0.0,0.0,0.0
19:46:00.098000,13.0,-2.0,123.0,-1022.0,150.0,-212.0,0.0,0.0,0.0
19:46:00.103000,44.0,-21.0,83.0,-1022.0,150.0,-212.0,0.0,0.0,0.0
19:46:00.107000,64.0,-25.0,88.0,-1060.0,163.0,-206.0,0.0,0.0,0.0
19:46:00.112000,95.0,-28.0,7.0,-1060.0,163.0,-206.0,0.0,0.0,0.0
19:46:00.117000,95.0,-28.0,7.0,-1202.0,180.0,-195.0,0.0,0.0,0.0
19:46:00.122000,79.0,-50.0,-61.0,-1202.0,180.0,-195.0,0.0,0.0,0.0
19:46:00.126000,79.0,-65.0,84.0,-1254.0,171.0,-182.0,0.0,0.0,0.0
19:46:00.131000,90.0,-58.0,225.0,-1254.0,171.0,-182.0,0.0,0.0,0.0
19:46:00.136000,122.0,-51.0,184.0,-1079.0,255.0,-174.0,0.0,0.0,0.0
19:46:00.140000,150.0,-57.0,72.0,-1079.0,255.0,-174.0,0.0,0.0,0.0
19:46:00.145000,158.0,-48.0,7.0,-1047.0,366.0,-163.0,0.0,0.0,0.0
19:46:00.150000,163.0,-49.0,-8.0,-1047.0,366.0,-163.0,0.0,0.0,0.0
19:46:00.154000,155.0,-51.0,-9.0,-1201.0,351.0,-158.0,0.0,0.0,0.0
19:46:00.159000,147.0,-53.0,-36.0,-1201.0,351.0,-158.0,0.0,0.0,0.0
19:46:00.164000,130.0,-51.0,-51.0,-1295.0,340.0,-165.0,0.0,0.0,0.0
19:46:00.169000,98.0,-50.0,-19.0,-1295.0,340.0,-165.0,0.0,0.0,0.0
19:46:00.173000,82.0,-51.0,58.0,-1268.0,310.0,-177.0,0.0,0.0,0.0
19:46:00.178000,72.0,-52.0,93.0,-1268.0,310.0,-177.0,0.0,0.0,0.0
19:46:00.183000,68.0,-50.0,58.0,-1268.0,310.0,-177.0,0.0,0.0,0.0
19:46:00.187000,68.0,-54.0,14.0,-1236.0,280.0,-188.0,0.0,0.0,0.0
19:46:00.192000,70.0,-58.0,3.0,-1236.0,280.0,-188.0,0.0,0.0,0.0
19:46:00.197000,83.0,-67.0,-14.0,-1235.0,278.0,-188.0,0.0,0.0,0.0
19:46:00.201000,95.0,-77.0,-51.0,-1235.0,278.0,-188.0,0.0,0.0,0.0
19:46:00.206000,98.0,-79.0,-75.0,-1227.0,265.0,-184.0,0.0,0.0,0.0
19:46:00.211000,94.0,-79.0,-109.0,-1227.0,265.0,-184.0,0.0,0.0,0.0
19:46:00.216000,81.0,-76.0,-148.0,-1247.0,290.0,-181.0,0.0,0.0,0.0
19:46:00.220000,50.0,-64.0,-177.0,-1247.0,290.0,-181.0,0.0,0.0,0.0
19:46:00.225000,50.0,-64.0,-177.0,-1282.0,311.0,-174.0,0.0,0.0,0.0
19:46:00.230000,23.0,-52.0,-182.0,-1282.0,311.0,-174.0,0.0,0.0,0.0
19:46:00.234000,0.0,-50.0,-168.0,-1319.0,275.0,-166.0,0.0,0.0,0.0
19:46:00.239000,-25.0,-49.0,-155.0,-1319.0,275.0,-166.0,0.0,0.0,0.0
19:46:00.244000,-33.0,-52.0,-170.0,-1312.0,230.0,-168.0,0.0,0.0,0.0
19:46:00.248000,-58.0,-29.0,-198.0,-1312.0,230.0,-168.0,0.0,0.0,0.0
19:46:00.253000,-63.0,-23.0,-235.0,-1263.0,207.0,-163.0,0.0,0.0,0.0
19:46:00.258000,-87.0,-18.0,-237.0,-1263.0,207.0,-163.0,0.0,0.0,0.0
19:46:00.263000,-107.0,-14.0,-230.0,-1189.0,165.0,-147.0,0.0,0.0,0.0
19:46:00.267000,-119.0,-7.0,-217.0,-1189.0,165.0,-147.0,0.0,0.0,0.0
19:46:00.272000,-131.0,-10.0,-193.0,-1106.0,47.0,-138.0,0.0,0.0,0.0
19:46:00.277000,-146.0,-18.0,-130.0,-1106.0,47.0,-138.0,0.0,0.0,0.0
19:46:00.281000,-154.0,-25.0,-58.0,-1028.0,-71.0,-132.0,0.0,0.0,0.0
19:46:00.286000,-158.0,-30.0,7.0,-1028.0,-71.0,-132.0,0.0,0.0,0.0
19:46:00.291000,-164.0,-38.0,66.0,-1028.0,-71.0,-132.0,0.0,0.0,0.0
19:46:00.295000,-153.0,-56.0,114.0,-946.0,-143.0,-113.0,0.0,0.0,0.0
19:46:00.300000,-150.0,-57.0,139.0,-946.0,-143.0,-113.0,0.0,0.0,0.0
19:46:00.305000,-118.0,-70.0,165.0,-868.0,-210.0,-102.0,0.0,0.0,0.0
19:46:00.310000,-97.0,-79.0,177.0,-868.0,-210.0,-102.0,0.0,0.0,0.0
19:46:00.314000,-90.0,-73.0,129.0,-836.0,-224.0,-100.0,0.0,0.0,0.0
19:46:00.319000,-94.0,-67.0,35.0,-836.0,-224.0,-100.0,0.0,0.0,0.0
19:46:00.324000,-100.0,-59.0,-42.0,-905.0,-186.0,-88.0,0.0,0.0,0.0
19:46:00.328000,-96.0,-54.0,-99.0,-905.0,-186.0,-88.0,0.0,0.0,0.0
19:46:00.333000,-72.0,-57.0,-154.0,-950.0,-195.0,-83.0,0.0,0.0,0.0
19:46:00.338000,-72.0,-57.0,-154.0,-950.0,-195.0,-83.0,0.0,0.0,0.0
19:46:00.342000,-56.0,-60.0,-205.0,-916.0,-168.0,-83.0,0.0,0.0,0.0
19:46:00.347000,-68.0,-57.0,-191.0,-916.0,-168.0,-83.0,0.0,0.0,0.0
19:46:00.352000,-74.0,-46.0,-179.0,-929.0,-104.0,-84.0,0.0,0.0,0.0
19:46:00.357000,-74.0,-44.0,-198.0,-929.0,-104.0,-84.0,0.0,0.0,0.0
19:46:00.361000,-91.0,-18.0,-201.0,-1040.0,-83.0,-99.0,0.0,0.0,0.0
19:46:00.366000,-95.0,-1.0,-280.0,-1040.0,-83.0,-99.0,0.0,0.0,0.0
19:46:00.371000,-123.0,11.0,-333.0,-1107.0,-37.0,-110.0,0.0,0.0,0.0
19:46:00.375000,-125.0,25.0,-318.0,-1107.0,-37.0,-110.0,0.0,0.0,0.0
19:46:00.380000,-142.0,39.0,-284.0,-1074.0,3.0,-111.0,0.0,0.0,0.0
19:46:00.385000,-165.0,48.0,-282.0,-1074.0,3.0,-111.0,0.0,0.0,0.0
19:46:00.389000,-181.0,65.0,-321.0,-1085.0,18.0,-128.0,0.0,0.0,0.0
19:46:00.394000,-199.0,88.0,-312.0,-1085.0,18.0,-128.0,0.0,0.0,0.0
19:46:00.399000,-231.0,100.0,-308.0,-1085.0,18.0,-128.0,0.0,0.0,0.0
19:46:00.404000,-254.0,111.0,-296.0,-1113.0,22.0,-145.0,0.0,0.0,0.0
19:46:00.408000,-271.0,119.0,-275.0,-1113.0,22.0,-145.0,0.0,0.0,0.0
19:46:00.413000,-284.0,126.0,-253.0,-1114.0,40.0,-156.0,0.0,0.0,0.0
19:46:00.418000,-315.0,137.0,-256.0,-1114.0,40.0,-156.0,0.0,0.0,0.0
19:46:00.422000,-350.0,157.0,-216.0,-1107.0,38.0,-171.0,0.0,0.0,0.0
19:46:00.427000,-360.0,149.0,-184.0,-1107.0,38.0,-171.0,0.0,0.0,0.0
19:46:00.432000,-375.0,150.0,-191.0,-1068.0,4.0,-183.0,0.0,0.0,0.0
19:46:00.436000,-368.0,147.0,-214.0,-1068.0,4.0,-183.0,0.0,0.0,0.0
19:46:00.441000,-402.0,133.0,-220.0,-1020.0,17.0,-190.0,0.0,0.0,0.0
19:46:00.446000,-402.0,133.0,-220.0,-1020.0,17.0,-190.0,0.0,0.0,0.0
19:46:00.451000,-411.0,115.0,-189.0,-966.0,19.0,-198.0,0.0,0.0,0.0
19:46:00.455000,-425.0,97.0,-161.0,-966.0,19.0,-198.0,0.0,0.0,0.0
19:46:00.460000,-406.0,72.0,-147.0,-934.0,1.0,-210.0,0.0,0.0,0.0
19:46:00.465000,-403.0,46.0,-138.0,-934.0,1.0,-210.0,0.0,0.0,0.0
19:46:00.469000,-394.0,16.0,-145.0,-948.0,-18.0,-212.0,0.0,0.0,0.0
19:46:00.474000,-390.0,-11.0,-133.0,-948.0,-18.0,-212.0,0.0,0.0,0.0
19:46:00.479000,-366.0,-45.0,-126.0,-964.0,-47.0,-215.0,0.0,0.0,0.0
19:46:00.483000,-366.0,-78.0,-144.0,-964.0,-47.0,-215.0,0.0,0.0,0.0
19:46:00.488000,-361.0,-103.0,-165.0,-978.0,-38.0,-218.0,0.0,0.0,0.0
19:46:00.493000,-361.0,-133.0,-186.0,-978.0,-38.0,-218.0,0.0,0.0,0.0
19:46:00.498000,-381.0,-161.0,-205.0,-960.0,-26.0,-204.0,0.0,0.0,0.0
19:46:00.502000,-396.0,-193.0,-210.0,-960.0,-26.0,-204.0,0.0,0.0,0.0
19:46:00.507000,-407.0,-229.0,-189.0,-960.0,-26.0,-204.0,0.0,0.0,0.0
19:46:00.512000,-452.0,-256.0,-184.0,-942.0,-16.0,-190.0,0.0,0.0,0.0
19:46:00.516000,-466.0,-284.0,-196.0,-942.0,-16.0,-190.0,0.0,0.0,0.0
19:46:00.521000,-504.0,-324.0,-210.0,-973.0,25.0,-190.0,0.0,0.0,0.0
19:46:00.526000,-590.0,-350.0,-217.0,-973.0,25.0,-190.0,0.0,0.0,0.0
19:46:00.530000,-608.0,-373.0,-225.0,-1011.0,50.0,-184.0,0.0,0.0,0.0
19:46:00.535000,-642.0,-407.0,-257.0,-1011.0,50.0,-184.0,0.0,0.0,0.0
19:46:00.540000,-702.0,-434.0,-270.0,-1021.0,61.0,-165.0,0.0,0.0,0.0
19:46:00.545000,-737.0,-464.0,-237.0,-1021.0,61.0,-165.0,0.0,0.0,0.0
19:46:00.549000,-800.0,-492.0,-214.0,-1036.0,87.0,-157.0,0.0,0.0,0.0
19:46:00.554000,-800.0,-492.0,-214.0,-1036.0,87.0,-157.0,0.0,0.0,0.0
19:46:00.559000,-875.0,-504.0,-231.0,-1092.0,118.0,-145.0,0.0,0.0,0.0
19:46:00.563000,-929.0,-518.0,-275.0,-1092.0,118.0,-145.0,0.0,0.0,0.0
19:46:00.568000,-1010.0,-527.0,-312.0,-1120.0,135.0,-128.0,0.0,0.0,0.0
19:46:00.573000,-1060.0,-534.0,-298.0,-1120.0,135.0,-128.0,0.0,0.0,0.0
19:46:00.577000,-1128.0,-539.0,-265.0,-1107.0,120.0,-110.0,0.0,0.0,0.0
19:46:00.582000,-1216.0,-540.0,-266.0,-1107.0,120.0,-110.0,0.0,0.0,0.0
19:46:00.587000,-1272.0,-550.0,-303.0,-1104.0,129.0,-93.0,0.0,0.0,0.0
19:46:00.592000,-1343.0,-560.0,-326.0,-1104.0,129.0,-93.0,0.0,0.0,0.0
19:46:00.596000,-1379.0,-581.0,-342.0,-1076.0,121.0,-83.0,0.0,0.0,0.0
19:46:00.601000,-1411.0,-601.0,-387.0,-1076.0,121.0,-83.0,0.0,0.0,0.0
19:46:00.606000,-1416.0,-634.0,-453.0,-1057.0,86.0,-55.0,0.0,0.0,0.0
19:46:00.610000,-1456.0,-668.0,-501.0,-1057.0,86.0,-55.0,0.0,0.0,0.0
19:46:00.615000,-1460.0,-696.0,-525.0,-1057.0,39.0,-40.0,0.0,0.0,0.0
19:46:00.620000,-1446.0,-735.0,-547.0,-1056.0,39.0,-40.0,0.0,0.0,0.0
19:46:00.624000,-1441.0,-775.0,-575.0,-1056.0,39.0,-40.0,0.0,0.0,0.0
19:46:00.629000,-1411.0,-812.0,-583.0,-1050.0,1.0,-28.0,0.0,0.0,0.0
19:46:00.634000,-1451.0,-840.0,-579.0,-1050.0,1.0,-28.0,0.0,0.0,0.0
19:46:00.639000,-1415.0,-874.0,-576.0,-1058.0,-42.0,24.0,0.0,0.0,0.0
19:46:00.643000,-1356.0,-901.0,-581.0,-1058.0,-42.0,24.0,0.0,0.0,0.0
19:46:00.648000,-1362.0,-924.0,-632.0,-1070.0,-48.0,63.0,0.0,0.0,0.0
19:46:00.653000,-1346.0,-945.0,-661.0,-1070.0,-48.0,63.0,0.0,0.0,0.0
19:46:00.657000,-1346.0,-954.0,-658.0,-1080.0,-6.0,83.0,0.0,0.0,0.0
19:46:00.662000,-1346.0,-954.0,-658.0,-1080.0,-6.0,83.0,0.0,0.0,0.0
19:46:00.667000,-1353.0,-959.0,-664.0,-1095.0,16.0,110.0,0.0,0.0,0.0
19:46:00.671000,-1344.0,-962.0,-664.0,-1095.0,16.0,110.0,0.0,0.0,0.0
19:46:00.676000,-1374.0,-962.0,-679.0,-1141.0,89.0,138.0,0.0,0.0,0.0
19:46:00.681000,-1402.0,-952.0,-719.0,-1141.0,89.0,138.0,0.0,0.0,0.0
19:46:00.686000,-1440.0,-942.0,-737.0,-1161.0,145.0,164.0,0.0,0.0,0.0
19:46:00.690000,-1472.0,-933.0,-730.0,-1161.0,145.0,164.0,0.0,0.0,0.0
19:46:00.695000,-1516.0,-913.0,-739.0,-1148.0,160.0,188.0,0.0,0.0,0.0
19:46:00.700000,-1547.0,-893.0,-745.0,-1148.0,160.0,188.0,0.0,0.0,0.0
19:46:00.704000,-1591.0,-875.0,-742.0,-1136.0,151.0,208.0,0.0,0.0,0.0
19:46:00.709000,-1617.0,-860.0,-737.0,-1136.0,151.0,208.0,0.0,0.0,0.0
19:46:00.714000,-1633.0,-840.0,-739.0,-1114.0,148.0,221.0,0.0,0.0,0.0
19:46:00.718000,-1663.0,-820.0,-749.0,-1114.0,148.0,221.0,0.0,0.0,0.0
19:46:00.723000,-1675.0,-799.0,-753.0,-1097.0,162.0,223.0,0.0,0.0,0.0
19:46:00.728000,-1676.0,-781.0,-757.0,-1097.0,162.0,223.0,0.0,0.0,0.0
19:46:00.733000,-1703.0,-757.0,-771.0,-1097.0,162.0,223.0,0.0,0.0,0.0
19:46:00.737000,-1699.0,-736.0,-789.0,-1088.0,140.0,227.0,0.0,0.0,0.0
19:46:00.742000,-1687.0,-714.0,-798.0,-1088.0,140.0,227.0,0.0,0.0,0.0
19:46:00.747000,-1686.0,-695.0,-788.0,-1080.0,122.0,218.0,0.0,0.0,0.0
19:46:00.751000,-1687.0,-678.0,-765.0,-1080.0,122.0,218.0,0.0,0.0,0.0
19:46:00.756000,-1689.0,-662.0,-754.0,-1069.0,140.0,200.0,0.0,0.0,0.0
19:46:00.761000,-1693.0,-649.0,-734.0,-1069.0,140.0,200.0,0.0,0.0,0.0
19:46:00.765000,-1693.0,-649.0,-734.0,-1053.0,193.0,192.0,0.0,0.0,0.0
19:46:00.770000,-1708.0,-650.0,-692.0,-1053.0,193.0,192.0,0.0,0.0,0.0
19:46:00.775000,-1708.0,-650.0,-692.0,-1024.0,237.0,189.0,0.0,0.0,0.0
19:46:00.780000,-1707.0,-660.0,-668.0,-1024.0,237.0,189.0,0.0,0.0,0.0
19:46:00.784000,-1708.0,-668.0,-634.0,-954.0,256.0,193.0,0.0,0.0,0.0
19:46:00.789000,-1719.0,-674.0,-602.0,-954.0,256.0,193.0,0.0,0.0,0.0
19:46:00.794000,-1724.0,-687.0,-592.0,-861.0,309.0,203.0,0.0,0.0,0.0
19:46:00.798000,-1735.0,-708.0,-576.0,-861.0,309.0,203.0,0.0,0.0,0.0
19:46:00.803000,-1756.0,-731.0,-543.0,-790.0,385.0,229.0,0.0,0.0,0.0
19:46:00.808000,-1775.0,-757.0,-511.0,-790.0,385.0,229.0,0.0,0.0,0.0
19:46:00.812000,-1800.0,-791.0,-498.0,-726.0,441.0,275.0,0.0,0.0,0.0
19:46:00.817000,-1826.0,-821.0,-499.0,-726.0,441.0,275.0,0.0,0.0,0.0
19:46:00.822000,-1860.0,-840.0,-504.0,-670.0,515.0,318.0,0.0,0.0,0.0
19:46:00.827000,-1897.0,-856.0,-498.0,-670.0,515.0,318.0,0.0,0.0,0.0
19:46:00.831000,-1949.0,-871.0,-492.0,-681.0,610.0,357.0,0.0,0.0,0.0
19:46:00.836000,-1997.0,-892.0,-496.0,-681.0,610.0,357.0,0.0,0.0,0.0
19:46:00.841000,-2048.0,-915.0,-497.0,-681.0,610.0,357.0,0.0,0.0,0.0
19:46:00.845000,-2103.0,-943.0,-491.0,-763.0,662.0,403.0,0.0,0.0,0.0
19:46:00.850000,-2156.0,-955.0,-487.0,-763.0,662.0,403.0,0.0,0.0,0.0
19:46:00.855000,-2191.0,-970.0,-475.0,-839.0,620.0,429.0,0.0,0.0,0.0
19:46:00.859000,-2231.0,-987.0,-440.0,-839.0,620.0,429.0,0.0,0.0,0.0
19:46:00.864000,-2257.0,-998.0,-416.0,-882.0,496.0,429.0,0.0,0.0,0.0
19:46:00.869000,-2290.0,-998.0,-413.0,-882.0,496.0,429.0,0.0,0.0,0.0
19:46:00.874000,-2307.0,-1000.0,-415.0,-900.0,418.0,415.0,0.0,0.0,0.0
19:46:00.878000,-2313.0,-990.0,-399.0,-900.0,418.0,415.0,0.0,0.0,0.0
19:46:00.883000,-2313.0,-990.0,-399.0,-866.0,439.0,393.0,0.0,0.0,0.0
19:46:00.888000,-2318.0,-973.0,-361.0,-866.0,439.0,393.0,0.0,0.0,0.0
19:46:00.892000,-2300.0,-956.0,-327.0,-810.0,447.0,374.0,0.0,0.0,0.0
19:46:00.897000,-2290.0,-943.0,-319.0,-810.0,447.0,374.0,0.0,0.0,0.0
19:46:00.902000,-2263.0,-936.0,-321.0,-809.0,434.0,369.0,0.0,0.0,0.0
19:46:00.906000,-2246.0,-930.0,-320.0,-809.0,434.0,369.0,0.0,0.0,0.0
19:46:00.911000,-2204.0,-931.0,-316.0,-850.0,418.0,376.0,0.0,0.0,0.0
19:46:00.916000,-2164.0,-928.0,-308.0,-850.0,418.0,376.0,0.0,0.0,0.0
