hh:mm:ss.ms,gyroX[mdps],gyroY[mdps],gyroZ[mdps],accX[mg],accY[mg],accZ[mg],magX[mG],magY[mG],magZ[mG]
19:36:37.969000,70.0,-151.0,79.0,-1594.0,200.0,-183.0,0.0,0.0,0.0
19:36:37.973000,154.0,-134.0,-254.0,-1267.0,118.0,-155.0,0.0,0.0,0.0
19:36:37.978000,83.0,-38.0,-75.0,-1267.0,118.0,-155.0,0.0,0.0,0.0
19:36:37.983000,40.0,-46.0,-9.0,-1201.0,-108.0,-120.0,0.0,0.0,0.0
19:36:37.987000,-84.0,-50.0,139.0,-1201.0,-108.0,-120.0,0.0,0.0,0.0
19:36:37.992000,-129.0,-20.0,211.0,-1209.0,-393.0,-92.0,0.0,0.0,0.0
19:36:37.997000,-111.0,27.0,261.0,-1209.0,-393.0,-92.0,0.0,0.0,0.0
19:36:38.001000,-172.0,11.0,383.0,-1005.0,-620.0,-78.0,0.0,0.0,0.0
19:36:38.006000,-203.0,-56.0,364.0,-1005.0,-620.0,-78.0,0.0,0.0,0.0
19:36:38.011000,-240.0,-56.0,539.0,-775.0,-716.0,-31.0,0.0,0.0,0.0
19:36:38.015000,-237.0,-104.0,490.0,-775.0,-716.0,-31.0,0.0,0.0,0.0
19:36:38.020000,-184.0,-175.0,168.0,-775.0,-716.0,-31.0,0.0,0.0,0.0
19:36:38.025000,-72.0,-191.0,100.0,-806.0,-842.0,-37.0,0.0,0.0,0.0
19:36:38.030000,101.0,-156.0,156.0,-806.0,-842.0,-37.0,0.0,0.0,0.0
19:36:38.034000,186.0,-163.0,110.0,-871.0,-1017.0,-60.0,0.0,0.0,0.0
19:36:38.039000,198.0,-175.0,254.0,-871.0,-1017.0,-60.0,0.0,0.0,0.0
19:36:38.044000,130.0,-156.0,185.0,-777.0,-967.0,-34.0,0.0,0.0,0.0
19:36:38.048000,101.0,-154.0,-93.0,-777.0,-967.0,-34.0,0.0,0.0,0.0
19:36:38.053000,100.0,-169.0,-378.0,-756.0,-658.0,-28.0,0.0,0.0,0.0
19:36:38.058000,120.0,-213.0,-481.0,-756.0,-658.0,-28.0,0.0,0.0,0.0
19:36:38.063000,120.0,-213.0,-481.0,-796.0,-417.0,-46.0,0.0,0.0,0.0
19:36:38.067000,105.0,-187.0,-449.0,-796.0,-417.0,-46.0,0.0,0.0,0.0
19:36:38.072000,42.0,-163.0,-467.0,-888.0,-381.0,-37.0,0.0,0.0,0.0
19:36:38.077000,11.0,-169.0,-518.0,-888.0,-381.0,-37.0,0.0,0.0,0.0
19:36:38.081000,14.0,-176.0,-410.0,-972.0,-423.0,-5.0,0.0,0.0,0.0
19:36:38.086000,37.0,-159.0,-356.0,-972.0,-423.0,-5.0,0.0,0.0,0.0
19:36:38.091000,50.0,-156.0,-322.0,-909.0,-407.0,41.0,0.0,0.0,0.0
19:36:38.095000,54.0,-148.0,-307.0,-909.0,-407.0,41.0,0.0,0.0,0.0
19:36:38.100000,72.0,-113.0,-228.0,-902.0,-326.0,57.0,0.0,0.0,0.0
19:36:38.105000,50.0,-142.0,-170.0,-902.0,-326.0,57.0,0.0,0.0,0.0
19:36:38.110000,25.0,-149.0,-28.0,-895.0,-226.0,37.0,0.0,0.0,0.0
19:36:38.114000,8.0,-88.0,66.0,-895.0,-226.0,37.0,0.0,0.0,0.0
19:36:38.119000,-13.0,-106.0,-60.0,-944.0,-173.0,52.0,0.0,0.0,0.0
19:36:38.124000,2.0,-95.0,-45.0,-944.0,-173.0,52.0,0.0,0.0,0.0
19:36:38.128000,35.0,-46.0,82.0,-944.0,-173.0,52.0,0.0,0.0,0.0
19:36:38.133000,13.0,-38.0,47.0,-1006.0,-286.0,83.0,0.0,0.0,0.0
19:36:38.138000,-4.0,-22.0,-213.0,-961.0,-414.0,86.0,0.0,0.0,0.0
19:36:38.142000,46.0,-10.0,-116.0,-961.0,-414.0,86.0,0.0,0.0,0.0
19:36:38.147000,-14.0,-16.0,183.0,-961.0,-414.0,86.0,0.0,0.0,0.0
19:36:38.152000,-101.0,45.0,221.0,-928.0,-413.0,66.0,0.0,0.0,0.0
19:36:38.157000,-100.0,58.0,56.0,-928.0,-413.0,66.0,0.0,0.0,0.0
19:36:38.161000,-128.0,91.0,-100.0,-1024.0,-288.0,55.0,0.0,0.0,0.0
19:36:38.166000,-177.0,82.0,-81.0,-1024.0,-288.0,55.0,0.0,0.0,0.0
19:36:38.171000,-240.0,147.0,-42.0,-1132.0,-393.0,60.0,0.0,0.0,0.0
19:36:38.175000,-240.0,147.0,-42.0,-1132.0,-393.0,60.0,0.0,0.0,0.0
19:36:38.180000,-224.0,199.0,-133.0,-1120.0,-503.0,51.0,0.0,0.0,0.0
19:36:38.185000,-234.0,188.0,-226.0,-1120.0,-503.0,51.0,0.0,0.0,0.0
19:36:38.189000,-229.0,205.0,-60.0,-1047.0,-391.0,36.0,0.0,0.0,0.0
19:36:38.194000,-93.0,218.0,7.0,-1047.0,-391.0,36.0,0.0,0.0,0.0
19:36:38.198000,31.0,189.0,-374.0,-1047.0,-356.0,38.0,0.0,0.0,0.0
19:36:38.204000,35.0,190.0,-429.0,-1047.0,-356.0,38.0,0.0,0.0,0.0
19:36:38.208000,-10.0,141.0,-326.0,-1048.0,-473.0,76.0,0.0,0.0,0.0
19:36:38.213000,-23.0,105.0,-291.0,-1048.0,-473.0,76.0,0.0,0.0,0.0
19:36:38.218000,13.0,108.0,-390.0,-1026.0,-548.0,71.0,0.0,0.0,0.0
19:36:38.222000,72.0,109.0,-472.0,-1026.0,-548.0,71.0,0.0,0.0,0.0
19:36:38.227000,49.0,81.0,-543.0,-982.0,-535.0,49.0,0.0,0.0,0.0
19:36:38.232000,60.0,77.0,-480.0,-982.0,-535.0,49.0,0.0,0.0,0.0
19:36:38.236000,156.0,88.0,-344.0,-982.0,-535.0,49.0,0.0,0.0,0.0
19:36:38.241000,212.0,49.0,-409.0,-939.0,-528.0,31.0,0.0,0.0,0.0
19:36:38.246000,248.0,18.0,-537.0,-939.0,-528.0,31.0,0.0,0.0,0.0
19:36:38.251000,259.0,0.0,-537.0,-995.0,-424.0,13.0,0.0,0.0,0.0
19:36:38.255000,228.0,-13.0,-478.0,-995.0,-424.0,13.0,0.0,0.0,0.0
19:36:38.260000,209.0,-17.0,-529.0,-934.0,-333.0,28.0,0.0,0.0,0.0
19:36:38.265000,123.0,-15.0,-641.0,-934.0,-333.0,28.0,0.0,0.0,0.0
19:36:38.269000,79.0,1.0,-738.0,-928.0,-269.0,9.0,0.0,0.0,0.0
19:36:38.274000,50.0,-30.0,-583.0,-928.0,-269.0,9.0,0.0,0.0,0.0
19:36:38.279000,-21.0,-44.0,-329.0,-909.0,-295.0,-3.0,0.0,0.0,0.0
19:36:38.283000,-21.0,-44.0,-329.0,-909.0,-295.0,-3.0,0.0,0.0,0.0
19:36:38.288000,-13.0,-79.0,-326.0,-851.0,-254.0,20.0,0.0,0.0,0.0
19:36:38.293000,-21.0,-104.0,-397.0,-851.0,-254.0,20.0,0.0,0.0,0.0
19:36:38.298000,24.0,-98.0,-574.0,-929.0,-194.0,10.0,0.0,0.0,0.0
19:36:38.302000,98.0,-144.0,-668.0,-929.0,-194.0,10.0,0.0,0.0,0.0
19:36:38.307000,133.0,-196.0,-569.0,-872.0,-286.0,0.0,0.0,0.0,0.0
19:36:38.312000,63.0,-214.0,-452.0,-872.0,-286.0,0.0,0.0,0.0,0.0
19:36:38.316000,39.0,-234.0,-499.0,-781.0,-228.0,55.0,0.0,0.0,0.0
19:36:38.321000,24.0,-255.0,-563.0,-781.0,-228.0,55.0,0.0,0.0,0.0
19:36:38.326000,-30.0,-249.0,-576.0,-869.0,-223.0,74.0,0.0,0.0,0.0
19:36:38.330000,-46.0,-285.0,-561.0,-869.0,-223.0,74.0,0.0,0.0,0.0
19:36:38.335000,-103.0,-245.0,-377.0,-972.0,-267.0,18.0,0.0,0.0,0.0
19:36:38.340000,-164.0,-236.0,-229.0,-972.0,-267.0,18.0,0.0,0.0,0.0
19:36:38.345000,-214.0,-249.0,-332.0,-972.0,-267.0,18.0,0.0,0.0,0.0
19:36:38.349000,-210.0,-261.0,-487.0,-1079.0,-74.0,-20.0,0.0,0.0,0.0
19:36:38.354000,-193.0,-240.0,-542.0,-1079.0,-74.0,-20.0,0.0,0.0,0.0
19:36:38.359000,-193.0,-250.0,-427.0,-1005.0,-68.0,-12.0,0.0,0.0,0.0
19:36:38.363000,-163.0,-268.0,-436.0,-1005.0,-68.0,-12.0,0.0,0.0,0.0
19:36:38.368000,-155.0,-272.0,-436.0,-864.0,-216.0,25.0,0.0,0.0,0.0
19:36:38.373000,-112.0,-259.0,-448.0,-864.0,-216.0,25.0,0.0,0.0,0.0
19:36:38.377000,-92.0,-297.0,-575.0,-924.0,-134.0,57.0,0.0,0.0,0.0
19:36:38.382000,-238.0,-291.0,-570.0,-924.0,-134.0,57.0,0.0,0.0,0.0
19:36:38.387000,-319.0,-285.0,-417.0,-969.0,-113.0,80.0,0.0,0.0,0.0
19:36:38.391000,-319.0,-285.0,-417.0,-969.0,-113.0,80.0,0.0,0.0,0.0
19:36:38.396000,-316.0,-275.0,-345.0,-942.0,-181.0,76.0,0.0,0.0,0.0
19:36:38.401000,-302.0,-270.0,-364.0,-942.0,-181.0,76.0,0.0,0.0,0.0
19:36:38.406000,-325.0,-266.0,-380.0,-929.0,-140.0,68.0,0.0,0.0,0.0
19:36:38.410000,-366.0,-280.0,-379.0,-929.0,-140.0,68.0,0.0,0.0,0.0
19:36:38.415000,-408.0,-312.0,-222.0,-932.0,-161.0,122.0,0.0,0.0,0.0
19:36:38.420000,-438.0,-317.0,-25.0,-932.0,-161.0,122.0,0.0,0.0,0.0
19:36:38.424000,-439.0,-303.0,-50.0,-1014.0,-81.0,132.0,0.0,0.0,0.0
19:36:38.429000,-381.0,-325.0,-293.0,-1014.0,-81.0,132.0,0.0,0.0,0.0
19:36:38.434000,-390.0,-348.0,-373.0,-980.0,39.0,139.0,0.0,0.0,0.0
19:36:38.438000,-416.0,-366.0,-268.0,-980.0,39.0,139.0,0.0,0.0,0.0
19:36:38.443000,-431.0,-403.0,-194.0,-846.0,-46.0,176.0,0.0,0.0,0.0
19:36:38.448000,-497.0,-404.0,-200.0,-846.0,-46.0,176.0,0.0,0.0,0.0
19:36:38.453000,-562.0,-406.0,-260.0,-846.0,-20.0,176.0,0.0,0.0,0.0
19:36:38.457000,-630.0,-435.0,-319.0,-962.0,-20.0,156.0,0.0,0.0,0.0
19:36:38.462000,-721.0,-464.0,-326.0,-962.0,-20.0,156.0,0.0,0.0,0.0
19:36:38.467000,-809.0,-509.0,-300.0,-1086.0,119.0,169.0,0.0,0.0,0.0
19:36:38.471000,-917.0,-542.0,-284.0,-1086.0,119.0,169.0,0.0,0.0,0.0
19:36:38.476000,-975.0,-575.0,-270.0,-973.0,83.0,228.0,0.0,0.0,0.0
19:36:38.481000,-1001.0,-609.0,-280.0,-973.0,83.0,228.0,0.0,0.0,0.0
19:36:38.485000,-1024.0,-645.0,-374.0,-884.0,18.0,269.0,0.0,0.0,0.0
19:36:38.490000,-1071.0,-666.0,-434.0,-884.0,18.0,269.0,0.0,0.0,0.0
19:36:38.495000,-1134.0,-707.0,-417.0,-969.0,93.0,272.0,0.0,0.0,0.0
19:36:38.500000,-1134.0,-707.0,-417.0,-969.0,93.0,272.0,0.0,0.0,0.0
19:36:38.504000,-1222.0,-759.0,-390.0,-1002.0,122.0,274.0,0.0,0.0,0.0
19:36:38.509000,-1327.0,-787.0,-400.0,-1002.0,122.0,274.0,0.0,0.0,0.0
19:36:38.514000,-1430.0,-812.0,-424.0,-968.0,131.0,275.0,0.0,0.0,0.0
19:36:38.518000,-1522.0,-861.0,-457.0,-968.0,131.0,275.0,0.0,0.0,0.0
19:36:38.523000,-1633.0,-914.0,-507.0,-933.0,245.0,289.0,0.0,0.0,0.0
19:36:38.528000,-1714.0,-982.0,-498.0,-933.0,245.0,289.0,0.0,0.0,0.0
19:36:38.532000,-1794.0,-1054.0,-432.0,-863.0,224.0,330.0,0.0,0.0,0.0
19:36:38.537000,-1862.0,-1121.0,-390.0,-863.0,224.0,330.0,0.0,0.0,0.0
19:36:38.542000,-1918.0,-1197.0,-497.0,-883.0,118.0,378.0,0.0,0.0,0.0
19:36:38.547000,-1958.0,-1264.0,-658.0,-883.0,118.0,378.0,0.0,0.0,0.0
19:36:38.551000,-1987.0,-1342.0,-657.0,-908.0,117.0,431.0,0.0,0.0,0.0
19:36:38.556000,-2025.0,-1416.0,-518.0,-908.0,117.0,431.0,0.0,0.0,0.0
19:36:38.561000,-2077.0,-1482.0,-417.0,-872.0,214.0,451.0,0.0,0.0,0.0
19:36:38.565000,-2135.0,-1544.0,-480.0,-872.0,214.0,451.0,0.0,0.0,0.0
19:36:38.570000,-2197.0,-1610.0,-619.0,-872.0,214.0,451.0,0.0,0.0,0.0
19:36:38.575000,-2286.0,-1682.0,-630.0,-837.0,359.0,467.0,0.0,0.0,0.0
19:36:38.579000,-2370.0,-1772.0,-567.0,-837.0,359.0,467.0,0.0,0.0,0.0
19:36:38.584000,-2477.0,-1831.0,-550.0,-758.0,388.0,542.0,0.0,0.0,0.0
19:36:38.589000,-2555.0,-1916.0,-636.0,-758.0,388.0,542.0,0.0,0.0,0.0
19:36:38.594000,-2633.0,-2012.0,-822.0,-803.0,434.0,583.0,0.0,0.0,0.0
19:36:38.598000,-2706.0,-2098.0,-936.0,-803.0,434.0,583.0,0.0,0.0,0.0
19:36:38.603000,-2763.0,-2188.0,-922.0,-818.0,474.0,589.0,0.0,0.0,0.0
19:36:38.608000,-2822.0,-2277.0,-926.0,-818.0,474.0,589.0,0.0,0.0,0.0
19:36:38.612000,-2822.0,-2277.0,-926.0,-736.0,387.0,656.0,0.0,0.0,0.0
19:36:38.617000,-2866.0,-2381.0,-891.0,-736.0,387.0,656.0,0.0,0.0,0.0
19:36:38.622000,-2894.0,-2479.0,-809.0,-709.0,296.0,728.0,0.0,0.0,0.0
19:36:38.626000,-2902.0,-2564.0,-821.0,-709.0,296.0,728.0,0.0,0.0,0.0
19:36:38.631000,-2911.0,-2634.0,-881.0,-656.0,332.0,774.0,0.0,0.0,0.0
19:36:38.636000,-2935.0,-2702.0,-959.0,-656.0,332.0,774.0,0.0,0.0,0.0
19:36:38.641000,-2965.0,-2765.0,-998.0,-640.0,461.0,850.0,0.0,0.0,0.0
19:36:38.645000,-2996.0,-2829.0,-996.0,-640.0,461.0,850.0,0.0,0.0,0.0
19:36:38.650000,-3028.0,-2898.0,-1005.0,-712.0,448.0,923.0,0.0,0.0,0.0
19:36:38.655000,-3052.0,-2968.0,-1042.0,-712.0,448.0,923.0,0.0,0.0,0.0
19:36:38.659000,-3061.0,-3031.0,-1032.0,-735.0,374.0,936.0,0.0,0.0,0.0
19:36:38.664000,-3082.0,-3075.0,-975.0,-735.0,374.0,936.0,0.0,0.0,0.0
19:36:38.668000,-3106.0,-3114.0,-946.0,-691.0,405.0,956.0,0.0,0.0,0.0
19:36:38.673000,-3112.0,-3157.0,-906.0,-691.0,405.0,956.0,0.0,0.0,0.0
19:36:38.678000,-3138.0,-3175.0,-859.0,-691.0,405.0,956.0,0.0,0.0,0.0
19:36:38.683000,-3136.0,-3184.0,-832.0,-638.0,475.0,973.0,0.0,0.0,0.0
19:36:38.688000,-3112.0,-3190.0,-814.0,-638.0,475.0,973.0,0.0,0.0,0.0
19:36:38.692000,-3070.0,-3184.0,-731.0,-607.0,445.0,953.0,0.0,0.0,0.0
19:36:38.697000,-3046.0,-3184.0,-634.0,-607.0,445.0,953.0,0.0,0.0,0.0
19:36:38.702000,-3009.0,-3180.0,-609.0,-635.0,380.0,940.0,0.0,0.0,0.0
19:36:38.706000,-2968.0,-3166.0,-625.0,-635.0,380.0,940.0,0.0,0.0,0.0
19:36:38.711000,-2925.0,-3157.0,-608.0,-626.0,421.0,937.0,0.0,0.0,0.0
19:36:38.716000,-2878.0,-3147.0,-554.0,-626.0,421.0,937.0,0.0,0.0,0.0
19:36:38.720000,-2878.0,-3147.0,-554.0,-565.0,460.0,950.0,0.0,0.0,0.0
19:36:38.725000,-2840.0,-3119.0,-532.0,-565.0,460.0,950.0,0.0,0.0,0.0
19:36:38.730000,-2784.0,-3076.0,-569.0,-561.0,426.0,959.0,0.0,0.0,0.0
19:36:38.735000,-2709.0,-3030.0,-620.0,-561.0,426.0,959.0,0.0,0.0,0.0
19:36:38.739000,-2621.0,-2975.0,-620.0,-590.0,416.0,920.0,0.0,0.0,0.0
19:36:38.744000,-2551.0,-2917.0,-585.0,-590.0,416.0,920.0,0.0,0.0,0.0
19:36:38.749000,-2483.0,-2849.0,-533.0,-597.0,447.0,886.0,0.0,0.0,0.0
19:36:38.753000,-2419.0,-2782.0,-502.0,-597.0,447.0,886.0,0.0,0.0,0.0
19:36:38.758000,-2336.0,-2697.0,-491.0,-610.0,484.0,848.0,0.0,0.0,0.0
19:36:38.772000,-2099.0,-2393.0,-314.0,-648.0,457.0,772.0,0.0,0.0,0.0
19:36:38.777000,-2030.0,-2291.0,-248.0,-672.0,481.0,714.0,0.0,0.0,0.0
19:36:38.782000,-1978.0,-2184.0,-238.0,-672.0,481.0,714.0,0.0,0.0,0.0
19:36:38.786000,-1913.0,-2067.0,-233.0,-672.0,481.0,714.0,0.0,0.0,0.0
19:36:38.791000,-1824.0,-1944.0,-237.0,-635.0,575.0,668.0,0.0,0.0,0.0
19:36:38.796000,-1734.0,-1843.0,-238.0,-635.0,575.0,668.0,0.0,0.0,0.0
19:36:38.800000,-1659.0,-1750.0,-236.0,-588.0,618.0,609.0,0.0,0.0,0.0
19:36:38.805000,-1579.0,-1658.0,-210.0,-588.0,618.0,609.0,0.0,0.0,0.0
19:36:38.810000,-1489.0,-1557.0,-174.0,-510.0,655.0,564.0,0.0,0.0,0.0
19:36:38.814000,-1413.0,-1462.0,-149.0,-510.0,655.0,564.0,0.0,0.0,0.0
19:36:38.819000,-1310.0,-1370.0,-84.0,-472.0,659.0,531.0,0.0,0.0,0.0
19:36:38.824000,-1238.0,-1276.0,37.0,-472.0,659.0,531.0,0.0,0.0,0.0
19:36:38.828000,-1238.0,-1276.0,37.0,-460.0,631.0,506.0,0.0,0.0,0.0
19:36:38.833000,-1218.0,-1183.0,109.0,-460.0,631.0,506.0,0.0,0.0,0.0
19:36:38.838000,-1183.0,-1090.0,71.0,-471.0,726.0,474.0,0.0,0.0,0.0
19:36:38.843000,-1140.0,-1008.0,-5.0,-471.0,726.0,474.0,0.0,0.0,0.0
19:36:38.847000,-1107.0,-931.0,-26.0,-468.0,810.0,442.0,0.0,0.0,0.0
19:36:38.852000,-1090.0,-861.0,51.0,-468.0,810.0,442.0,0.0,0.0,0.0
19:36:38.857000,-1080.0,-800.0,162.0,-393.0,790.0,429.0,0.0,0.0,0.0
19:36:38.861000,-1073.0,-745.0,212.0,-393.0,790.0,429.0,0.0,0.0,0.0
19:36:38.866000,-1047.0,-695.0,213.0,-397.0,781.0,411.0,0.0,0.0,0.0
19:36:38.871000,-1003.0,-650.0,188.0,-397.0,781.0,411.0,0.0,0.0,0.0
19:36:38.876000,-951.0,-611.0,182.0,-426.0,712.0,385.0,0.0,0.0,0.0
19:36:38.880000,-906.0,-572.0,223.0,-426.0,712.0,385.0,0.0,0.0,0.0
19:36:38.885000,-860.0,-538.0,275.0,-396.0,607.0,369.0,0.0,0.0,0.0
19:36:38.890000,-816.0,-502.0,297.0,-396.0,607.0,369.0,0.0,0.0,0.0
19:36:38.894000,-774.0,-472.0,322.0,-396.0,607.0,369.0,0.0,0.0,0.0
19:36:38.899000,-740.0,-455.0,372.0,-360.0,568.0,358.0,0.0,0.0,0.0
19:36:38.904000,-725.0,-434.0,385.0,-360.0,568.0,358.0,0.0,0.0,0.0
19:36:38.908000,-714.0,-415.0,333.0,-362.0,606.0,343.0,0.0,0.0,0.0
19:36:38.913000,-704.0,-403.0,291.0,-362.0,606.0,343.0,0.0,0.0,0.0
19:36:38.918000,-700.0,-399.0,280.0,-372.0,677.0,329.0,0.0,0.0,0.0
19:36:38.923000,-704.0,-391.0,281.0,-372.0,677.0,329.0,0.0,0.0,0.0
19:36:38.927000,-706.0,-387.0,268.0,-333.0,686.0,314.0,0.0,0.0,0.0
19:36:38.932000,-697.0,-385.0,225.0,-333.0,686.0,314.0,0.0,0.0,0.0
19:36:38.937000,-693.0,-377.0,182.0,-289.0,656.0,292.0,0.0,0.0,0.0
19:36:38.941000,-693.0,-377.0,182.0,-289.0,656.0,292.0,0.0,0.0,0.0
19:36:38.946000,-686.0,-370.0,163.0,-289.0,625.0,268.0,0.0,0.0,0.0
19:36:38.951000,-682.0,-362.0,165.0,-289.0,625.0,268.0,0.0,0.0,0.0
19:36:38.955000,-674.0,-357.0,140.0,-300.0,581.0,257.0,0.0,0.0,0.0
19:36:38.960000,-663.0,-357.0,98.0,-300.0,581.0,257.0,0.0,0.0,0.0
19:36:38.965000,-638.0,-357.0,73.0,-272.0,543.0,258.0,0.0,0.0,0.0
19:36:38.970000,-606.0,-352.0,40.0,-272.0,543.0,258.0,0.0,0.0,0.0
19:36:38.974000,-567.0,-336.0,-11.0,-232.0,556.0,253.0,0.0,0.0,0.0
19:36:38.979000,-529.0,-319.0,-82.0,-232.0,556.0,253.0,0.0,0.0,0.0
19:36:38.984000,-501.0,-301.0,-161.0,-237.0,628.0,248.0,0.0,0.0,0.0
19:36:38.988000,-478.0,-282.0,-230.0,-237.0,628.0,248.0,0.0,0.0,0.0
19:36:38.993000,-464.0,-268.0,-258.0,-272.0,700.0,251.0,0.0,0.0,0.0
19:36:38.998000,-465.0,-254.0,-240.0,-272.0,700.0,251.0,0.0,0.0,0.0
19:36:39.002000,-468.0,-237.0,-202.0,-313.0,729.0,255.0,0.0,0.0,0.0
19:36:39.007000,-466.0,-214.0,-212.0,-313.0,729.0,255.0,0.0,0.0,0.0
19:36:39.012000,-464.0,-198.0,-262.0,-313.0,729.0,255.0,0.0,0.0,0.0
19:36:39.017000,-452.0,-187.0,-290.0,-322.0,743.0,260.0,0.0,0.0,0.0
19:36:39.021000,-433.0,-175.0,-292.0,-322.0,743.0,260.0,0.0,0.0,0.0
19:36:39.026000,-422.0,-168.0,-288.0,-261.0,758.0,272.0,0.0,0.0,0.0
19:36:39.031000,-422.0,-158.0,-276.0,-261.0,758.0,272.0,0.0,0.0,0.0
19:36:39.035000,-425.0,-147.0,-247.0,-179.0,760.0,289.0,0.0,0.0,0.0
19:36:39.040000,-413.0,-132.0,-207.0,-179.0,760.0,289.0,0.0,0.0,0.0
19:36:39.045000,-398.0,-116.0,-177.0,-148.0,767.0,300.0,0.0,0.0,0.0
19:36:39.049000,-398.0,-116.0,-177.0,-148.0,767.0,300.0,0.0,0.0,0.0
19:36:39.054000,-392.0,-107.0,-165.0,-172.0,771.0,306.0,0.0,0.0,0.0
19:36:39.059000,-375.0,-93.0,-164.0,-172.0,771.0,306.0,0.0,0.0,0.0
19:36:39.064000,-355.0,-79.0,-149.0,-174.0,780.0,312.0,0.0,0.0,0.0
19:36:39.068000,-324.0,-60.0,-126.0,-174.0,780.0,312.0,0.0,0.0,0.0
19:36:39.073000,-294.0,-44.0,-103.0,-129.0,788.0,313.0,0.0,0.0,0.0
19:36:39.078000,-269.0,-33.0,-64.0,-129.0,788.0,313.0,0.0,0.0,0.0
19:36:39.082000,-242.0,-23.0,-24.0,-126.0,791.0,323.0,0.0,0.0,0.0
19:36:39.087000,-217.0,-10.0,-4.0,-126.0,791.0,323.0,0.0,0.0,0.0
19:36:39.092000,-171.0,2.0,-28.0,-143.0,850.0,355.0,0.0,0.0,0.0
19:36:39.096000,-170.0,1.0,-67.0,-143.0,850.0,355.0,0.0,0.0,0.0
19:36:39.101000,-166.0,-1.0,28.0,-130.0,759.0,367.0,0.0,0.0,0.0
19:36:39.106000,-86.0,26.0,116.0,-130.0,759.0,367.0,0.0,0.0,0.0
19:36:39.111000,-54.0,36.0,138.0,-130.0,759.0,367.0,0.0,0.0,0.0
19:36:39.115000,-39.0,39.0,161.0,-165.0,661.0,358.0,0.0,0.0,0.0
19:36:39.120000,-16.0,47.0,182.0,-165.0,661.0,358.0,0.0,0.0,0.0
19:36:39.125000,-3.0,58.0,163.0,-179.0,788.0,357.0,0.0,0.0,0.0
19:36:39.129000,15.0,69.0,108.0,-179.0,788.0,357.0,0.0,0.0,0.0
19:36:39.134000,32.0,81.0,76.0,-131.0,894.0,354.0,0.0,0.0,0.0
19:36:39.139000,51.0,98.0,102.0,-151.0,835.0,343.0,0.0,0.0,0.0
19:36:39.143000,87.0,112.0,117.0,-151.0,835.0,343.0,0.0,0.0,0.0
19:36:39.148000,123.0,124.0,89.0,-151.0,835.0,343.0,0.0,0.0,0.0
19:36:39.153000,146.0,137.0,51.0,-244.0,749.0,318.0,0.0,0.0,0.0
19:36:39.158000,146.0,137.0,51.0,-244.0,749.0,318.0,0.0,0.0,0.0
19:36:39.162000,158.0,148.0,16.0,-284.0,794.0,287.0,0.0,0.0,0.0
19:36:39.167000,158.0,156.0,-33.0,-284.0,794.0,287.0,0.0,0.0,0.0
19:36:39.172000,164.0,159.0,-120.0,-245.0,887.0,248.0,0.0,0.0,0.0
19:36:39.176000,184.0,156.0,-222.0,-245.0,887.0,248.0,0.0,0.0,0.0
19:36:39.181000,214.0,153.0,-305.0,-201.0,922.0,209.0,0.0,0.0,0.0
19:36:39.186000,252.0,142.0,-363.0,-201.0,922.0,209.0,0.0,0.0,0.0
19:36:39.190000,298.0,127.0,-412.0,-163.0,843.0,179.0,0.0,0.0,0.0
19:36:39.195000,356.0,108.0,-455.0,-163.0,843.0,179.0,0.0,0.0,0.0
19:36:39.200000,416.0,87.0,-492.0,-132.0,771.0,163.0,0.0,0.0,0.0
19:36:39.205000,474.0,60.0,-539.0,-132.0,771.0,163.0,0.0,0.0,0.0
19:36:39.209000,519.0,30.0,-596.0,-75.0,818.0,163.0,0.0,0.0,0.0
19:36:39.214000,558.0,-2.0,-641.0,-75.0,818.0,163.0,0.0,0.0,0.0
19:36:39.219000,590.0,-37.0,-672.0,-75.0,897.0,163.0,0.0,0.0,0.0
19:36:39.223000,625.0,-68.0,-679.0,3.0,897.0,167.0,0.0,0.0,0.0
19:36:39.228000,663.0,-98.0,-667.0,3.0,897.0,167.0,0.0,0.0,0.0
19:36:39.233000,690.0,-128.0,-663.0,37.0,915.0,159.0,0.0,0.0,0.0
19:36:39.237000,714.0,-158.0,-690.0,37.0,915.0,159.0,0.0,0.0,0.0
19:36:39.242000,738.0,-188.0,-711.0,0.0,926.0,157.0,0.0,0.0,0.0
19:36:39.246000,770.0,-217.0,-688.0,0.0,926.0,157.0,0.0,0.0,0.0
19:36:39.252000,819.0,-239.0,-652.0,-10.0,914.0,162.0,0.0,0.0,0.0
19:36:39.256000,882.0,-252.0,-646.0,-10.0,914.0,162.0,0.0,0.0,0.0
19:36:39.261000,977.0,-259.0,-679.0,22.0,867.0,165.0,0.0,0.0,0.0
19:36:39.266000,977.0,-259.0,-679.0,22.0,867.0,165.0,0.0,0.0,0.0
19:36:39.270000,1085.0,-264.0,-677.0,32.0,789.0,177.0,0.0,0.0,0.0
19:36:39.275000,1169.0,-283.0,-556.0,32.0,789.0,177.0,0.0,0.0,0.0
19:36:39.280000,1249.0,-292.0,-523.0,-36.0,702.0,213.0,0.0,0.0,0.0
19:36:39.284000,1361.0,-303.0,-564.0,-36.0,702.0,213.0,0.0,0.0,0.0
19:36:39.289000,1465.0,-302.0,-516.0,-43.0,716.0,251.0,0.0,0.0,0.0
19:36:39.294000,1553.0,-298.0,-435.0,-43.0,716.0,251.0,0.0,0.0,0.0
19:36:39.299000,1661.0,-290.0,-353.0,-23.0,753.0,284.0,0.0,0.0,0.0
19:36:39.303000,1757.0,-264.0,-268.0,-23.0,753.0,284.0,0.0,0.0,0.0
19:36:39.308000,1852.0,-232.0,-252.0,-121.0,695.0,326.0,0.0,0.0,0.0
19:36:39.312000,1972.0,-200.0,-240.0,-121.0,695.0,326.0,0.0,0.0,0.0
19:36:39.317000,2097.0,-161.0,-160.0,-190.0,573.0,376.0,0.0,0.0,0.0
19:36:39.322000,2226.0,-112.0,-79.0,-190.0,573.0,376.0,0.0,0.0,0.0
19:36:39.327000,2339.0,-63.0,-39.0,-206.0,502.0,439.0,0.0,0.0,0.0
19:36:39.331000,2469.0,-9.0,-16.0,-206.0,502.0,439.0,0.0,0.0,0.0
19:36:39.336000,2587.0,64.0,-19.0,-206.0,502.0,439.0,0.0,0.0,0.0
19:36:39.341000,2671.0,113.0,-38.0,-236.0,526.0,507.0,0.0,0.0,0.0
19:36:39.346000,2765.0,203.0,-23.0,-236.0,526.0,507.0,0.0,0.0,0.0
19:36:39.350000,2846.0,286.0,31.0,-295.0,575.0,570.0,0.0,0.0,0.0
19:36:39.355000,2914.0,378.0,69.0,-295.0,575.0,570.0,0.0,0.0,0.0
19:36:39.360000,2969.0,461.0,79.0,-359.0,603.0,641.0,0.0,0.0,0.0
19:36:39.364000,3007.0,548.0,108.0,-359.0,603.0,641.0,0.0,0.0,0.0
19:36:39.368000,3007.0,548.0,108.0,-411.0,630.0,722.0,0.0,0.0,0.0
19:36:39.374000,3031.0,730.0,142.0,-411.0,630.0,722.0,0.0,0.0,0.0
19:36:39.378000,3031.0,730.0,142.0,-469.0,682.0,795.0,0.0,0.0,0.0
19:36:39.383000,3028.0,813.0,113.0,-469.0,682.0,795.0,0.0,0.0,0.0
19:36:39.388000,3028.0,879.0,70.0,-504.0,681.0,846.0,0.0,0.0,0.0
19:36:39.393000,3052.0,973.0,60.0,-504.0,681.0,846.0,0.0,0.0,0.0
19:36:39.397000,3051.0,1053.0,74.0,-510.0,624.0,879.0,0.0,0.0,0.0
19:36:39.402000,3053.0,1124.0,57.0,-510.0,624.0,879.0,0.0,0.0,0.0
19:36:39.407000,3068.0,1187.0,7.0,-545.0,610.0,890.0,0.0,0.0,0.0
19:36:39.411000,3084.0,1248.0,-30.0,-545.0,610.0,890.0,0.0,0.0,0.0
19:36:39.416000,3089.0,1314.0,-81.0,-593.0,601.0,894.0,0.0,0.0,0.0
19:36:39.421000,3102.0,1383.0,-132.0,-593.0,601.0,894.0,0.0,0.0,0.0
19:36:39.425000,3112.0,1444.0,-123.0,-613.0,541.0,924.0,0.0,0.0,0.0
19:36:39.430000,3114.0,1496.0,-100.0,-613.0,541.0,924.0,0.0,0.0,0.0
19:36:39.435000,3119.0,1533.0,-128.0,-679.0,426.0,1002.0,0.0,0.0,0.0
19:36:39.440000,3056.0,1519.0,-133.0,-679.0,426.0,1002.0,0.0,0.0,0.0
19:36:39.444000,3061.0,1584.0,-58.0,-679.0,426.0,1002.0,0.0,0.0,0.0
19:36:39.449000,3196.0,1775.0,-54.0,-691.0,331.0,1056.0,0.0,0.0,0.0
19:36:39.454000,3157.0,1787.0,-127.0,-691.0,331.0,1056.0,0.0,0.0,0.0
19:36:39.458000,3124.0,1811.0,-212.0,-561.0,434.0,1116.0,0.0,0.0,0.0
19:36:39.463000,3133.0,1920.0,-244.0,-561.0,434.0,1116.0,0.0,0.0,0.0
19:36:39.468000,3122.0,1985.0,-228.0,-596.0,552.0,1134.0,0.0,0.0,0.0
19:36:39.472000,3116.0,2067.0,-178.0,-596.0,552.0,1134.0,0.0,0.0,0.0
19:36:39.477000,3122.0,2156.0,-109.0,-731.0,440.0,1088.0,0.0,0.0,0.0
19:36:39.482000,3075.0,2180.0,-71.0,-731.0,440.0,1088.0,0.0,0.0,0.0
19:36:39.487000,3075.0,2180.0,-71.0,-899.0,234.0,1114.0,0.0,0.0,0.0
19:36:39.491000,3168.0,2312.0,-49.0,-899.0,234.0,1114.0,0.0,0.0,0.0
19:36:39.496000,3250.0,2448.0,24.0,-894.0,76.0,1140.0,0.0,0.0,0.0
19:36:39.501000,3300.0,2524.0,104.0,-894.0,76.0,1140.0,0.0,0.0,0.0
19:36:39.505000,3359.0,2581.0,123.0,-784.0,-24.0,1169.0,0.0,0.0,0.0
19:36:39.510000,3410.0,2645.0,136.0,-784.0,-24.0,1169.0,0.0,0.0,0.0
19:36:39.515000,3469.0,2683.0,146.0,-712.0,-86.0,1201.0,0.0,0.0,0.0
19:36:39.519000,3552.0,2739.0,161.0,-712.0,-86.0,1201.0,0.0,0.0,0.0
19:36:39.524000,3596.0,2758.0,191.0,-621.0,-68.0,1194.0,0.0,0.0,0.0
19:36:39.529000,3635.0,2842.0,194.0,-621.0,-68.0,1194.0,0.0,0.0,0.0
19:36:39.534000,3621.0,2830.0,134.0,-752.0,0.0,1233.0,0.0,0.0,0.0
19:36:39.538000,3467.0,2874.0,189.0,-752.0,0.0,1233.0,0.0,0.0,0.0
19:36:39.543000,3464.0,2911.0,251.0,-770.0,46.0,1255.0,0.0,0.0,0.0
19:36:39.548000,3431.0,2926.0,277.0,-770.0,46.0,1255.0,0.0,0.0,0.0
19:36:39.552000,3364.0,2952.0,289.0,-770.0,46.0,1255.0,0.0,0.0,0.0
19:36:39.557000,3299.0,2928.0,269.0,-661.0,28.0,1226.0,0.0,0.0,0.0
19:36:39.562000,3214.0,2939.0,253.0,-661.0,28.0,1226.0,0.0,0.0,0.0
19:36:39.566000,3202.0,2927.0,269.0,-654.0,-56.0,1201.0,0.0,0.0,0.0
19:36:39.571000,3157.0,2933.0,308.0,-654.0,-56.0,1201.0,0.0,0.0,0.0
19:36:39.576000,3066.0,2905.0,318.0,-647.0,-191.0,1162.0,0.0,0.0,0.0
19:36:39.581000,3082.0,2850.0,270.0,-647.0,-191.0,1162.0,0.0,0.0,0.0
19:36:39.585000,3054.0,2856.0,256.0,-589.0,-247.0,1124.0,0.0,0.0,0.0
19:36:39.590000,2977.0,2823.0,243.0,-589.0,-247.0,1124.0,0.0,0.0,0.0
19:36:39.595000,2977.0,2823.0,243.0,-552.0,-265.0,1073.0,0.0,0.0,0.0
19:36:39.609000,2917.0,2693.0,-2.0,-615.0,-328.0,1035.0,0.0,0.0,0.0
19:36:39.613000,2922.0,2653.0,65.0,-545.0,-379.0,996.0,0.0,0.0,0.0
19:36:39.618000,2945.0,2599.0,165.0,-545.0,-379.0,996.0,0.0,0.0,0.0
19:36:39.623000,2968.0,2536.0,217.0,-416.0,-416.0,949.0,0.0,0.0,0.0
19:36:39.628000,2961.0,2480.0,213.0,-416.0,-416.0,949.0,0.0,0.0,0.0
19:36:39.632000,2921.0,2450.0,192.0,-473.0,-385.0,904.0,0.0,0.0,0.0
19:36:39.637000,2878.0,2416.0,231.0,-473.0,-385.0,904.0,0.0,0.0,0.0
19:36:39.642000,2779.0,2369.0,270.0,-578.0,-271.0,865.0,0.0,0.0,0.0
19:36:39.646000,2672.0,2328.0,315.0,-578.0,-271.0,865.0,0.0,0.0,0.0
19:36:39.651000,2571.0,2281.0,311.0,-696.0,-108.0,814.0,0.0,0.0,0.0
19:36:39.656000,2441.0,2230.0,317.0,-696.0,-108.0,814.0,0.0,0.0,0.0
19:36:39.660000,2316.0,2197.0,340.0,-696.0,-108.0,814.0,0.0,0.0,0.0
19:36:39.665000,2188.0,2151.0,355.0,-760.0,8.0,719.0,0.0,0.0,0.0
19:36:39.670000,2083.0,2103.0,359.0,-760.0,8.0,719.0,0.0,0.0,0.0
19:36:39.675000,1996.0,2058.0,354.0,-770.0,-1.0,615.0,0.0,0.0,0.0
19:36:39.679000,1894.0,2014.0,352.0,-770.0,-1.0,615.0,0.0,0.0,0.0
19:36:39.684000,1792.0,1960.0,385.0,-776.0,-96.0,525.0,0.0,0.0,0.0
19:36:39.689000,1714.0,1902.0,415.0,-776.0,-96.0,525.0,0.0,0.0,0.0
19:36:39.693000,1636.0,1837.0,402.0,-741.0,-139.0,454.0,0.0,0.0,0.0
19:36:39.698000,1549.0,1768.0,378.0,-741.0,-139.0,454.0,0.0,0.0,0.0
19:36:39.703000,1455.0,1700.0,366.0,-681.0,-103.0,397.0,0.0,0.0,0.0
19:36:39.707000,1455.0,1700.0,366.0,-681.0,-103.0,397.0,0.0,0.0,0.0
19:36:39.712000,1340.0,1619.0,359.0,-609.0,-47.0,349.0,0.0,0.0,0.0
19:36:39.717000,1220.0,1533.0,333.0,-609.0,-47.0,349.0,0.0,0.0,0.0
19:36:39.722000,1093.0,1444.0,298.0,-563.0,16.0,315.0,0.0,0.0,0.0
19:36:39.726000,961.0,1353.0,264.0,-563.0,16.0,315.0,0.0,0.0,0.0
19:36:39.731000,825.0,1263.0,218.0,-567.0,68.0,289.0,0.0,0.0,0.0
19:36:39.736000,678.0,1162.0,200.0,-567.0,68.0,289.0,0.0,0.0,0.0
19:36:39.740000,524.0,1057.0,231.0,-588.0,51.0,272.0,0.0,0.0,0.0
19:36:39.745000,387.0,965.0,247.0,-588.0,51.0,272.0,0.0,0.0,0.0
19:36:39.750000,264.0,877.0,231.0,-612.0,-23.0,244.0,0.0,0.0,0.0
19:36:39.754000,161.0,791.0,205.0,-612.0,-23.0,244.0,0.0,0.0,0.0
19:36:39.759000,50.0,702.0,180.0,-646.0,-110.0,208.0,0.0,0.0,0.0
19:36:39.764000,-38.0,622.0,158.0,-646.0,-110.0,208.0,0.0,0.0,0.0
19:36:39.769000,-106.0,555.0,120.0,-646.0,-110.0,208.0,0.0,0.0,0.0
19:36:39.773000,-149.0,497.0,93.0,-701.0,-211.0,163.0,0.0,0.0,0.0
19:36:39.778000,-182.0,441.0,65.0,-701.0,-211.0,163.0,0.0,0.0,0.0
19:36:39.783000,-186.0,397.0,28.0,-796.0,-352.0,105.0,0.0,0.0,0.0
19:36:39.787000,-196.0,340.0,-42.0,-796.0,-352.0,105.0,0.0,0.0,0.0
19:36:39.792000,-224.0,278.0,-144.0,-886.0,-461.0,61.0,0.0,0.0,0.0
19:36:39.797000,-251.0,219.0,-246.0,-886.0,-461.0,61.0,0.0,0.0,0.0
19:36:39.801000,-282.0,161.0,-326.0,-884.0,-457.0,30.0,0.0,0.0,0.0
19:36:39.806000,-338.0,87.0,-385.0,-884.0,-457.0,30.0,0.0,0.0,0.0
19:36:39.811000,-401.0,19.0,-434.0,-790.0,-405.0,15.0,0.0,0.0,0.0
19:36:39.816000,-401.0,19.0,-434.0,-790.0,-405.0,15.0,0.0,0.0,0.0
19:36:39.820000,-467.0,-44.0,-490.0,-694.0,-357.0,9.0,0.0,0.0,0.0
19:36:39.825000,-541.0,-115.0,-541.0,-694.0,-357.0,9.0,0.0,0.0,0.0
19:36:39.830000,-615.0,-188.0,-604.0,-655.0,-380.0,-6.0,0.0,0.0,0.0
19:36:39.834000,-664.0,-245.0,-654.0,-655.0,-380.0,-6.0,0.0,0.0,0.0
19:36:39.839000,-681.0,-317.0,-665.0,-667.0,-521.0,-46.0,0.0,0.0,0.0
19:36:39.844000,-671.0,-370.0,-646.0,-667.0,-521.0,-46.0,0.0,0.0,0.0
19:36:39.848000,-654.0,-418.0,-639.0,-708.0,-637.0,-95.0,0.0,0.0,0.0
19:36:39.853000,-655.0,-459.0,-672.0,-708.0,-637.0,-95.0,0.0,0.0,0.0
19:36:39.858000,-664.0,-505.0,-711.0,-757.0,-627.0,-107.0,0.0,0.0,0.0
19:36:39.863000,-676.0,-554.0,-756.0,-757.0,-627.0,-107.0,0.0,0.0,0.0
19:36:39.867000,-679.0,-600.0,-798.0,-764.0,-574.0,-83.0,0.0,0.0,0.0
19:36:39.872000,-670.0,-646.0,-814.0,-764.0,-574.0,-83.0,0.0,0.0,0.0
19:36:39.877000,-660.0,-681.0,-795.0,-764.0,-574.0,-83.0,0.0,0.0,0.0
19:36:39.881000,-641.0,-707.0,-792.0,-752.0,-584.0,-58.0,0.0,0.0,0.0
19:36:39.886000,-620.0,-724.0,-813.0,-752.0,-584.0,-58.0,0.0,0.0,0.0
19:36:39.891000,-610.0,-747.0,-805.0,-790.0,-590.0,-45.0,0.0,0.0,0.0
19:36:39.895000,-605.0,-758.0,-774.0,-790.0,-590.0,-45.0,0.0,0.0,0.0
19:36:39.900000,-597.0,-770.0,-731.0,-860.0,-575.0,-39.0,0.0,0.0,0.0
19:36:39.905000,-590.0,-779.0,-681.0,-860.0,-575.0,-39.0,0.0,0.0,0.0
19:36:39.910000,-585.0,-785.0,-627.0,-905.0,-577.0,-37.0,0.0,0.0,0.0
19:36:39.914000,-578.0,-792.0,-583.0,-905.0,-577.0,-37.0,0.0,0.0,0.0
19:36:39.919000,-571.0,-795.0,-555.0,-924.0,-537.0,-41.0,0.0,0.0,0.0
19:36:39.924000,-571.0,-795.0,-555.0,-924.0,-537.0,-41.0,0.0,0.0,0.0
19:36:39.928000,-557.0,-800.0,-546.0,-948.0,-454.0,-39.0,0.0,0.0,0.0
19:36:39.933000,-557.0,-807.0,-533.0,-948.0,-454.0,-39.0,0.0,0.0,0.0
19:36:39.938000,-559.0,-827.0,-510.0,-966.0,-409.0,-7.0,0.0,0.0,0.0
19:36:39.942000,-560.0,-846.0,-475.0,-966.0,-409.0,-7.0,0.0,0.0,0.0
19:36:39.947000,-548.0,-857.0,-452.0,-926.0,-487.0,40.0,0.0,0.0,0.0
19:36:39.952000,-510.0,-859.0,-431.0,-926.0,-487.0,40.0,0.0,0.0,0.0
19:36:39.957000,-457.0,-844.0,-408.0,-852.0,-616.0,63.0,0.0,0.0,0.0
19:36:39.961000,-394.0,-828.0,-381.0,-852.0,-616.0,63.0,0.0,0.0,0.0
19:36:39.966000,-343.0,-806.0,-347.0,-867.0,-598.0,82.0,0.0,0.0,0.0
19:36:39.971000,-303.0,-788.0,-322.0,-867.0,-598.0,82.0,0.0,0.0,0.0
19:36:39.975000,-273.0,-770.0,-317.0,-985.0,-483.0,105.0,0.0,0.0,0.0
19:36:39.980000,-253.0,-747.0,-325.0,-985.0,-483.0,105.0,0.0,0.0,0.0
19:36:39.985000,-235.0,-730.0,-363.0,-985.0,-400.0,105.0,0.0,0.0,0.0
19:36:39.989000,-230.0,-707.0,-343.0,-1076.0,-400.0,113.0,0.0,0.0,0.0
19:36:39.994000,-221.0,-691.0,-249.0,-1076.0,-400.0,113.0,0.0,0.0,0.0
19:36:39.999000,-206.0,-679.0,-143.0,-1081.0,-374.0,118.0,0.0,0.0,0.0
19:36:40.003000,-207.0,-668.0,-76.0,-1081.0,-374.0,118.0,0.0,0.0,0.0
19:36:40.008000,-211.0,-662.0,-35.0,-1086.0,-366.0,134.0,0.0,0.0,0.0
19:36:40.013000,-193.0,-651.0,5.0,-1086.0,-366.0,134.0,0.0,0.0,0.0
19:36:40.018000,-182.0,-637.0,57.0,-1072.0,-397.0,152.0,0.0,0.0,0.0
19:36:40.022000,-156.0,-623.0,77.0,-1072.0,-397.0,152.0,0.0,0.0,0.0
19:36:40.027000,-127.0,-616.0,39.0,-1012.0,-474.0,155.0,0.0,0.0,0.0
19:36:40.032000,-127.0,-616.0,39.0,-1012.0,-474.0,155.0,0.0,0.0,0.0
19:36:40.036000,-102.0,-609.0,-3.0,-996.0,-475.0,158.0,0.0,0.0,0.0
19:36:40.041000,-86.0,-604.0,-21.0,-996.0,-475.0,158.0,0.0,0.0,0.0
19:36:40.046000,-67.0,-602.0,-50.0,-1022.0,-427.0,161.0,0.0,0.0,0.0
19:36:40.050000,-56.0,-606.0,-63.0,-1022.0,-427.0,161.0,0.0,0.0,0.0
19:36:40.055000,-52.0,-611.0,-54.0,-1052.0,-415.0,163.0,0.0,0.0,0.0
19:36:40.060000,-46.0,-618.0,-44.0,-1052.0,-415.0,163.0,0.0,0.0,0.0
19:36:40.065000,-44.0,-628.0,-51.0,-1063.0,-416.0,164.0,0.0,0.0,0.0
19:36:40.069000,-47.0,-637.0,-77.0,-1063.0,-416.0,164.0,0.0,0.0,0.0
19:36:40.074000,-46.0,-649.0,-120.0,-1041.0,-379.0,166.0,0.0,0.0,0.0
19:36:40.079000,-48.0,-658.0,-161.0,-1041.0,-379.0,166.0,0.0,0.0,0.0
19:36:40.083000,-48.0,-668.0,-173.0,-982.0,-364.0,172.0,0.0,0.0,0.0
19:36:40.088000,-52.0,-677.0,-170.0,-982.0,-364.0,172.0,0.0,0.0,0.0
19:36:40.093000,-55.0,-687.0,-172.0,-943.0,-377.0,180.0,0.0,0.0,0.0
19:36:40.097000,-51.0,-696.0,-186.0,-943.0,-377.0,180.0,0.0,0.0,0.0
19:36:40.102000,-49.0,-704.0,-193.0,-943.0,-377.0,180.0,0.0,0.0,0.0
19:36:40.107000,-47.0,-713.0,-194.0,-937.0,-389.0,185.0,0.0,0.0,0.0
19:36:40.112000,-42.0,-721.0,-217.0,-937.0,-389.0,185.0,0.0,0.0,0.0
19:36:40.116000,-40.0,-728.0,-233.0,-947.0,-387.0,183.0,0.0,0.0,0.0
19:36:40.121000,-43.0,-732.0,-217.0,-947.0,-387.0,183.0,0.0,0.0,0.0
19:36:40.126000,-51.0,-736.0,-193.0,-954.0,-370.0,184.0,0.0,0.0,0.0
19:36:40.130000,-63.0,-746.0,-182.0,-954.0,-370.0,184.0,0.0,0.0,0.0
19:36:40.135000,-84.0,-755.0,-172.0,-974.0,-338.0,190.0,0.0,0.0,0.0
19:36:40.140000,-103.0,-763.0,-177.0,-974.0,-338.0,190.0,0.0,0.0,0.0
19:36:40.144000,-103.0,-763.0,-177.0,-998.0,-299.0,189.0,0.0,0.0,0.0
19:36:40.149000,-120.0,-772.0,-196.0,-998.0,-299.0,189.0,0.0,0.0,0.0
19:36:40.154000,-129.0,-781.0,-207.0,-987.0,-266.0,175.0,0.0,0.0,0.0
19:36:40.159000,-135.0,-793.0,-225.0,-987.0,-266.0,175.0,0.0,0.0,0.0
19:36:40.163000,-152.0,-805.0,-268.0,-976.0,-211.0,164.0,0.0,0.0,0.0
19:36:40.168000,-144.0,-827.0,-309.0,-976.0,-211.0,164.0,0.0,0.0,0.0
19:36:40.173000,-146.0,-843.0,-336.0,-966.0,-169.0,169.0,0.0,0.0,0.0
19:36:40.177000,-141.0,-862.0,-387.0,-966.0,-169.0,169.0,0.0,0.0,0.0
19:36:40.181000,-114.0,-886.0,-415.0,-923.0,-184.0,194.0,0.0,0.0,0.0
19:36:40.187000,-93.0,-911.0,-373.0,-923.0,-184.0,194.0,0.0,0.0,0.0
19:36:40.191000,-83.0,-933.0,-350.0,-862.0,-183.0,235.0,0.0,0.0,0.0
19:36:40.196000,-100.0,-949.0,-386.0,-862.0,-183.0,235.0,0.0,0.0,0.0
19:36:40.201000,-172.0,-962.0,-424.0,-789.0,-10.0,308.0,0.0,0.0,0.0
19:36:40.206000,-259.0,-987.0,-536.0,-789.0,-10.0,308.0,0.0,0.0,0.0
19:36:40.210000,-240.0,-1015.0,-630.0,-789.0,-10.0,308.0,0.0,0.0,0.0
19:36:40.215000,-233.0,-1036.0,-704.0,-694.0,155.0,365.0,0.0,0.0,0.0
19:36:40.220000,-224.0,-1059.0,-667.0,-694.0,155.0,365.0,0.0,0.0,0.0
19:36:40.224000,-296.0,-1079.0,-441.0,-638.0,133.0,410.0,0.0,0.0,0.0
19:36:40.229000,-375.0,-1103.0,-302.0,-638.0,133.0,410.0,0.0,0.0,0.0
19:36:40.234000,-444.0,-1120.0,-319.0,-711.0,182.0,494.0,0.0,0.0,0.0
19:36:40.238000,-475.0,-1132.0,-390.0,-711.0,182.0,494.0,0.0,0.0,0.0
19:36:40.243000,-494.0,-1136.0,-418.0,-800.0,315.0,567.0,0.0,0.0,0.0
19:36:40.248000,-486.0,-1144.0,-432.0,-800.0,315.0,567.0,0.0,0.0,0.0
19:36:40.253000,-486.0,-1144.0,-432.0,-827.0,255.0,613.0,0.0,0.0,0.0
19:36:40.257000,-470.0,-1146.0,-444.0,-827.0,255.0,613.0,0.0,0.0,0.0
19:36:40.262000,-462.0,-1148.0,-432.0,-862.0,84.0,628.0,0.0,0.0,0.0
19:36:40.267000,-470.0,-1155.0,-393.0,-862.0,84.0,628.0,0.0,0.0,0.0
19:36:40.271000,-504.0,-1163.0,-350.0,-899.0,33.0,589.0,0.0,0.0,0.0
19:36:40.276000,-553.0,-1181.0,-338.0,-899.0,33.0,589.0,0.0,0.0,0.0
19:36:40.281000,-595.0,-1195.0,-347.0,-894.0,55.0,520.0,0.0,0.0,0.0
19:36:40.285000,-615.0,-1204.0,-364.0,-894.0,55.0,520.0,0.0,0.0,0.0
19:36:40.290000,-631.0,-1195.0,-385.0,-834.0,51.0,459.0,0.0,0.0,0.0
19:36:40.295000,-627.0,-1181.0,-395.0,-834.0,51.0,459.0,0.0,0.0,0.0
19:36:40.300000,-605.0,-1161.0,-382.0,-818.0,-1.0,427.0,0.0,0.0,0.0
19:36:40.304000,-566.0,-1136.0,-364.0,-818.0,-1.0,427.0,0.0,0.0,0.0
19:36:40.309000,-506.0,-1106.0,-358.0,-818.0,-1.0,427.0,0.0,0.0,0.0
19:36:40.314000,-431.0,-1070.0,-368.0,-869.0,-84.0,406.0,0.0,0.0,0.0
19:36:40.318000,-366.0,-1026.0,-373.0,-869.0,-84.0,406.0,0.0,0.0,0.0
19:36:40.323000,-308.0,-982.0,-340.0,-913.0,-141.0,394.0,0.0,0.0,0.0
19:36:40.328000,-261.0,-938.0,-268.0,-913.0,-141.0,394.0,0.0,0.0,0.0
19:36:40.332000,-226.0,-896.0,-189.0,-912.0,-139.0,402.0,0.0,0.0,0.0
19:36:40.337000,-212.0,-850.0,-109.0,-912.0,-139.0,402.0,0.0,0.0,0.0
19:36:40.342000,-206.0,-803.0,-53.0,-882.0,-103.0,431.0,0.0,0.0,0.0
19:36:40.347000,-198.0,-760.0,-32.0,-882.0,-103.0,431.0,0.0,0.0,0.0
19:36:40.351000,-197.0,-710.0,-33.0,-852.0,-52.0,474.0,0.0,0.0,0.0
19:36:40.356000,-196.0,-655.0,-21.0,-852.0,-52.0,474.0,0.0,0.0,0.0
19:36:40.361000,-196.0,-655.0,-21.0,-842.0,-40.0,513.0,0.0,0.0,0.0
19:36:40.365000,-194.0,-602.0,0.0,-842.0,-40.0,513.0,0.0,0.0,0.0
19:36:40.370000,-193.0,-543.0,22.0,-850.0,-99.0,532.0,0.0,0.0,0.0
19:36:40.375000,-198.0,-479.0,35.0,-850.0,-99.0,532.0,0.0,0.0,0.0
19:36:40.379000,-203.0,-420.0,35.0,-858.0,-120.0,523.0,0.0,0.0,0.0
19:36:40.384000,-208.0,-373.0,4.0,-858.0,-120.0,523.0,0.0,0.0,0.0
19:36:40.389000,-218.0,-338.0,-49.0,-844.0,-55.0,509.0,0.0,0.0,0.0
19:36:40.394000,-233.0,-310.0,-91.0,-844.0,-55.0,509.0,0.0,0.0,0.0
19:36:40.398000,-243.0,-294.0,-105.0,-772.0,-25.0,506.0,0.0,0.0,0.0
19:36:40.403000,-245.0,-284.0,-93.0,-772.0,-25.0,506.0,0.0,0.0,0.0
19:36:40.408000,-231.0,-273.0,-92.0,-695.0,-70.0,499.0,0.0,0.0,0.0
19:36:40.422000,-175.0,-207.0,-164.0,-676.0,-136.0,487.0,0.0,0.0,0.0
19:36:40.426000,-158.0,-164.0,-168.0,-676.0,-136.0,487.0,0.0,0.0,0.0
19:36:40.431000,-129.0,-130.0,-161.0,-698.0,-184.0,472.0,0.0,0.0,0.0
19:36:40.436000,-92.0,-102.0,-171.0,-698.0,-184.0,472.0,0.0,0.0,0.0
19:36:40.441000,-32.0,-98.0,-259.0,-747.0,-145.0,463.0,0.0,0.0,0.0
19:36:40.445000,25.0,-108.0,-478.0,-747.0,-145.0,463.0,0.0,0.0,0.0
19:36:40.450000,58.0,-74.0,-705.0,-799.0,34.0,479.0,0.0,0.0,0.0
19:36:40.455000,57.0,-11.0,-669.0,-799.0,34.0,479.0,0.0,0.0,0.0
19:36:40.459000,39.0,60.0,-295.0,-738.0,44.0,504.0,0.0,0.0,0.0
19:36:40.464000,-25.0,87.0,-265.0,-738.0,44.0,504.0,0.0,0.0,0.0
19:36:40.469000,-10.0,144.0,-763.0,-813.0,-3.0,542.0,0.0,0.0,0.0
19:36:40.473000,-10.0,144.0,-763.0,-813.0,-3.0,542.0,0.0,0.0,0.0
19:36:40.478000,65.0,223.0,-539.0,-834.0,-116.0,548.0,0.0,0.0,0.0
19:36:40.482000,52.0,223.0,176.0,-834.0,-116.0,548.0,0.0,0.0,0.0
19:36:40.488000,0.0,245.0,-290.0,-874.0,-44.0,547.0,0.0,0.0,0.0
19:36:40.492000,53.0,338.0,-322.0,-874.0,-44.0,547.0,0.0,0.0,0.0
19:36:40.497000,6.0,340.0,120.0,-939.0,-16.0,576.0,0.0,0.0,0.0
19:36:40.502000,-14.0,382.0,155.0,-939.0,-16.0,576.0,0.0,0.0,0.0
19:36:40.506000,-11.0,425.0,200.0,-858.0,-165.0,578.0,0.0,0.0,0.0
19:36:40.511000,-30.0,440.0,172.0,-858.0,-165.0,578.0,0.0,0.0,0.0
19:36:40.516000,-46.0,473.0,142.0,-834.0,-41.0,571.0,0.0,0.0,0.0
19:36:40.520000,-65.0,495.0,161.0,-834.0,-41.0,571.0,0.0,0.0,0.0
19:36:40.525000,-79.0,503.0,157.0,-759.0,18.0,575.0,0.0,0.0,0.0
19:36:40.530000,-89.0,511.0,63.0,-759.0,18.0,575.0,0.0,0.0,0.0
19:36:40.535000,-94.0,524.0,73.0,-759.0,18.0,575.0,0.0,0.0,0.0
19:36:40.539000,-91.0,523.0,100.0,-691.0,-15.0,579.0,0.0,0.0,0.0
19:36:40.544000,-70.0,522.0,50.0,-691.0,-15.0,579.0,0.0,0.0,0.0
19:36:40.549000,-25.0,522.0,-89.0,-670.0,-61.0,582.0,0.0,0.0,0.0
19:36:40.553000,17.0,522.0,-196.0,-670.0,-61.0,582.0,0.0,0.0,0.0
19:36:40.558000,49.0,534.0,-227.0,-661.0,-61.0,604.0,0.0,0.0,0.0
19:36:40.563000,70.0,540.0,-234.0,-661.0,-61.0,604.0,0.0,0.0,0.0
19:36:40.567000,70.0,559.0,-242.0,-631.0,-54.0,635.0,0.0,0.0,0.0
19:36:40.572000,65.0,576.0,-257.0,-631.0,-54.0,635.0,0.0,0.0,0.0
19:36:40.577000,47.0,580.0,-263.0,-656.0,-22.0,654.0,0.0,0.0,0.0
19:36:40.582000,47.0,580.0,-263.0,-656.0,-22.0,654.0,0.0,0.0,0.0
19:36:40.586000,25.0,588.0,-256.0,-679.0,-29.0,665.0,0.0,0.0,0.0
19:36:40.591000,18.0,608.0,-255.0,-679.0,-29.0,665.0,0.0,0.0,0.0
19:36:40.596000,26.0,627.0,-246.0,-723.0,-79.0,663.0,0.0,0.0,0.0
19:36:40.600000,22.0,652.0,-233.0,-723.0,-79.0,663.0,0.0,0.0,0.0
19:36:40.605000,16.0,674.0,-227.0,-809.0,-108.0,659.0,0.0,0.0,0.0
19:36:40.610000,2.0,692.0,-245.0,-809.0,-108.0,659.0,0.0,0.0,0.0
19:36:40.614000,-24.0,722.0,-289.0,-831.0,-75.0,659.0,0.0,0.0,0.0
19:36:40.619000,-14.0,735.0,-328.0,-831.0,-75.0,659.0,0.0,0.0,0.0
19:36:40.624000,-11.0,748.0,-308.0,-829.0,-67.0,651.0,0.0,0.0,0.0
19:36:40.629000,-49.0,758.0,-238.0,-829.0,-67.0,651.0,0.0,0.0,0.0
19:36:40.633000,-86.0,781.0,-236.0,-885.0,-111.0,642.0,0.0,0.0,0.0
19:36:40.638000,-81.0,824.0,-400.0,-885.0,-111.0,642.0,0.0,0.0,0.0
19:36:40.643000,-75.0,851.0,-523.0,-885.0,-111.0,642.0,0.0,0.0,0.0
19:36:40.647000,-81.0,869.0,-490.0,-927.0,-88.0,628.0,0.0,0.0,0.0
19:36:40.652000,-74.0,881.0,-401.0,-927.0,-88.0,628.0,0.0,0.0,0.0
19:36:40.657000,-61.0,896.0,-351.0,-855.0,-99.0,605.0,0.0,0.0,0.0
19:36:40.661000,-31.0,917.0,-346.0,-855.0,-99.0,605.0,0.0,0.0,0.0
19:36:40.666000,3.0,926.0,-364.0,-813.0,-128.0,575.0,0.0,0.0,0.0
19:36:40.671000,3.0,917.0,-415.0,-813.0,-128.0,575.0,0.0,0.0,0.0
19:36:40.676000,-4.0,912.0,-471.0,-895.0,-102.0,566.0,0.0,0.0,0.0
19:36:40.680000,39.0,924.0,-489.0,-895.0,-102.0,566.0,0.0,0.0,0.0
19:36:40.685000,78.0,946.0,-363.0,-807.0,-71.0,567.0,0.0,0.0,0.0
19:36:40.690000,78.0,946.0,-363.0,-807.0,-71.0,567.0,0.0,0.0,0.0
19:36:40.694000,81.0,905.0,-354.0,-830.0,-55.0,575.0,0.0,0.0,0.0
19:36:40.699000,94.0,874.0,-438.0,-830.0,-55.0,575.0,0.0,0.0,0.0
19:36:40.704000,115.0,890.0,-441.0,-989.0,-90.0,557.0,0.0,0.0,0.0
19:36:40.708000,161.0,920.0,-446.0,-989.0,-90.0,557.0,0.0,0.0,0.0
19:36:40.713000,163.0,928.0,-415.0,-1027.0,-125.0,534.0,0.0,0.0,0.0
19:36:40.718000,198.0,920.0,-287.0,-1027.0,-125.0,534.0,0.0,0.0,0.0
19:36:40.723000,224.0,931.0,-274.0,-976.0,-117.0,544.0,0.0,0.0,0.0
19:36:40.727000,286.0,955.0,-373.0,-976.0,-117.0,544.0,0.0,0.0,0.0
19:36:40.732000,287.0,961.0,-378.0,-897.0,-98.0,544.0,0.0,0.0,0.0
19:36:40.737000,333.0,984.0,-275.0,-897.0,-98.0,544.0,0.0,0.0,0.0
19:36:40.741000,357.0,997.0,-144.0,-1011.0,-164.0,534.0,0.0,0.0,0.0
19:36:40.746000,378.0,1026.0,-32.0,-1011.0,-164.0,534.0,0.0,0.0,0.0
19:36:40.751000,451.0,1048.0,-8.0,-1011.0,-161.0,534.0,0.0,0.0,0.0
19:36:40.755000,529.0,1087.0,-108.0,-1166.0,-161.0,508.0,0.0,0.0,0.0
19:36:40.760000,613.0,1118.0,-254.0,-1166.0,-161.0,508.0,0.0,0.0,0.0
19:36:40.765000,641.0,1173.0,-322.0,-1200.0,-81.0,500.0,0.0,0.0,0.0
19:36:40.770000,701.0,1206.0,-296.0,-1200.0,-81.0,500.0,0.0,0.0,0.0
19:36:40.774000,773.0,1239.0,-246.0,-1184.0,-82.0,510.0,0.0,0.0,0.0
19:36:40.779000,743.0,1277.0,-181.0,-1184.0,-82.0,510.0,0.0,0.0,0.0
19:36:40.784000,818.0,1322.0,-153.0,-1219.0,-151.0,501.0,0.0,0.0,0.0
19:36:40.788000,939.0,1365.0,-171.0,-1219.0,-151.0,501.0,0.0,0.0,0.0
19:36:40.793000,1031.0,1409.0,-194.0,-1254.0,-207.0,471.0,0.0,0.0,0.0
19:36:40.798000,1031.0,1409.0,-194.0,-1254.0,-207.0,471.0,0.0,0.0,0.0
19:36:40.802000,1124.0,1443.0,-192.0,-1220.0,-173.0,457.0,0.0,0.0,0.0
19:36:40.807000,1216.0,1485.0,-161.0,-1220.0,-173.0,457.0,0.0,0.0,0.0
19:36:40.812000,1286.0,1531.0,-99.0,-1156.0,-115.0,458.0,0.0,0.0,0.0
19:36:40.817000,1342.0,1595.0,-29.0,-1156.0,-115.0,458.0,0.0,0.0,0.0
19:36:40.821000,1399.0,1670.0,48.0,-1157.0,-78.0,452.0,0.0,0.0,0.0
19:36:40.826000,1441.0,1734.0,95.0,-1157.0,-78.0,452.0,0.0,0.0,0.0
19:36:40.831000,1460.0,1815.0,91.0,-1191.0,-39.0,457.0,0.0,0.0,0.0
19:36:40.835000,1496.0,1896.0,75.0,-1191.0,-39.0,457.0,0.0,0.0,0.0
19:36:40.840000,1510.0,1964.0,72.0,-1185.0,79.0,466.0,0.0,0.0,0.0
19:36:40.845000,1522.0,2036.0,86.0,-1185.0,79.0,466.0,0.0,0.0,0.0
19:36:40.849000,1526.0,2093.0,102.0,-1163.0,185.0,454.0,0.0,0.0,0.0
19:36:40.854000,1539.0,2144.0,122.0,-1163.0,185.0,454.0,0.0,0.0,0.0
19:36:40.859000,1564.0,2196.0,126.0,-1127.0,160.0,423.0,0.0,0.0,0.0
19:36:40.864000,1614.0,2238.0,131.0,-1127.0,160.0,423.0,0.0,0.0,0.0
19:36:40.868000,1660.0,2270.0,152.0,-1127.0,160.0,423.0,0.0,0.0,0.0
19:36:40.873000,1706.0,2296.0,167.0,-1077.0,81.0,400.0,0.0,0.0,0.0
19:36:40.878000,1763.0,2319.0,193.0,-1077.0,81.0,400.0,0.0,0.0,0.0
19:36:40.882000,1816.0,2358.0,258.0,-1040.0,50.0,385.0,0.0,0.0,0.0
19:36:40.887000,1861.0,2422.0,322.0,-1040.0,50.0,385.0,0.0,0.0,0.0
19:36:40.892000,1903.0,2493.0,357.0,-1099.0,92.0,323.0,0.0,0.0,0.0
19:36:40.896000,1930.0,2564.0,380.0,-1099.0,92.0,323.0,0.0,0.0,0.0
19:36:40.901000,1939.0,2636.0,431.0,-1292.0,129.0,271.0,0.0,0.0,0.0
19:36:40.906000,1961.0,2704.0,547.0,-1292.0,129.0,271.0,0.0,0.0,0.0
19:36:40.911000,1961.0,2704.0,547.0,-1405.0,87.0,259.0,0.0,0.0,0.0
19:36:40.915000,1984.0,2776.0,676.0,-1405.0,87.0,259.0,0.0,0.0,0.0
19:36:40.920000,2011.0,2864.0,750.0,-1366.0,19.0,248.0,0.0,0.0,0.0
19:36:40.925000,2048.0,2947.0,785.0,-1366.0,19.0,248.0,0.0,0.0,0.0
19:36:40.929000,2092.0,3017.0,805.0,-1282.0,-25.0,248.0,0.0,0.0,0.0
19:36:40.934000,2144.0,3070.0,799.0,-1282.0,-25.0,248.0,0.0,0.0,0.0
19:36:40.939000,2198.0,3108.0,766.0,-1169.0,-19.0,248.0,0.0,0.0,0.0
19:36:40.943000,2251.0,3140.0,740.0,-1169.0,-19.0,248.0,0.0,0.0,0.0
19:36:40.948000,2283.0,3159.0,745.0,-1070.0,49.0,231.0,0.0,0.0,0.0
19:36:40.953000,2284.0,3173.0,756.0,-1070.0,49.0,231.0,0.0,0.0,0.0
19:36:40.958000,2256.0,3183.0,754.0,-1039.0,194.0,207.0,0.0,0.0,0.0
19:36:40.962000,2196.0,3190.0,758.0,-1039.0,194.0,207.0,0.0,0.0,0.0
19:36:40.967000,2117.0,3189.0,778.0,-1007.0,363.0,195.0,0.0,0.0,0.0
19:36:40.972000,2013.0,3190.0,801.0,-1007.0,363.0,195.0,0.0,0.0,0.0
19:36:40.976000,1901.0,3192.0,807.0,-1007.0,363.0,195.0,0.0,0.0,0.0
19:36:40.981000,1780.0,3229.0,795.0,-956.0,476.0,91.0,0.0,0.0,0.0
19:36:40.986000,1655.0,3259.0,752.0,-956.0,476.0,91.0,0.0,0.0,0.0
19:36:40.990000,1539.0,3267.0,717.0,-1083.0,527.0,-89.0,0.0,0.0,0.0
19:36:40.995000,1442.0,3271.0,753.0,-1083.0,527.0,-89.0,0.0,0.0,0.0
19:36:41.000000,1368.0,3254.0,826.0,-1143.0,375.0,-210.0,0.0,0.0,0.0
19:36:41.005000,1323.0,3236.0,858.0,-1143.0,375.0,-210.0,0.0,0.0,0.0
19:36:41.009000,1323.0,3236.0,858.0,-942.0,205.0,-301.0,0.0,0.0,0.0
19:36:41.014000,1260.0,3183.0,785.0,-942.0,205.0,-301.0,0.0,0.0,0.0
19:36:41.019000,1260.0,3183.0,785.0,-745.0,228.0,-389.0,0.0,0.0,0.0
19:36:41.023000,1193.0,3150.0,760.0,-745.0,228.0,-389.0,0.0,0.0,0.0
19:36:41.028000,1119.0,3115.0,746.0,-635.0,335.0,-488.0,0.0,0.0,0.0
19:36:41.033000,1029.0,3066.0,782.0,-635.0,335.0,-488.0,0.0,0.0,0.0
19:36:41.037000,920.0,2985.0,860.0,-510.0,425.0,-510.0,0.0,0.0,0.0
19:36:41.042000,794.0,2879.0,946.0,-510.0,425.0,-510.0,0.0,0.0,0.0
19:36:41.047000,683.0,2765.0,1049.0,-284.0,384.0,-465.0,0.0,0.0,0.0
19:36:41.052000,616.0,2653.0,1172.0,-284.0,384.0,-465.0,0.0,0.0,0.0
19:36:41.056000,596.0,2564.0,1282.0,-66.0,172.0,-507.0,0.0,0.0,0.0
19:36:41.061000,623.0,2487.0,1358.0,-66.0,172.0,-507.0,0.0,0.0,0.0
19:36:41.066000,672.0,2417.0,1381.0,-77.0,-41.0,-596.0,0.0,0.0,0.0
19:36:41.070000,729.0,2359.0,1362.0,-77.0,-41.0,-596.0,0.0,0.0,0.0
19:36:41.075000,788.0,2310.0,1339.0,-287.0,-100.0,-642.0,0.0,0.0,0.0
