hh:mm:ss.ms,gyroX[mdps],gyroY[mdps],gyroZ[mdps],accX[mg],accY[mg],accZ[mg],magX[mG],magY[mG],magZ[mG]
19:40:26.808000,-2763.0,-1428.0,-1894.0,-873.0,825.0,-921.0,187.0,-466.0,526.0
19:40:26.813000,-2759.0,-1420.0,-1855.0,-869.0,761.0,-938.0,226.0,-501.0,517.0
19:40:26.818000,-2776.0,-1407.0,-1796.0,-907.0,696.0,-935.0,226.0,-501.0,517.0
19:40:26.822000,-2776.0,-1407.0,-1796.0,-942.0,640.0,-965.0,226.0,-501.0,517.0
19:40:26.827000,-2662.0,-1426.0,-1714.0,-947.0,664.0,-985.0,232.0,-520.0,514.0
19:40:26.832000,-2662.0,-1426.0,-1714.0,-957.0,636.0,-967.0,232.0,-520.0,514.0
19:40:26.837000,-2571.0,-1454.0,-1710.0,-986.0,631.0,-991.0,247.0,-535.0,516.0
19:40:26.841000,-2506.0,-1445.0,-1835.0,-931.0,500.0,-991.0,247.0,-535.0,516.0
19:40:26.845000,-2469.0,-1418.0,-1751.0,-812.0,283.0,-1017.0,247.0,-535.0,516.0
19:40:26.851000,-2457.0,-1368.0,-1543.0,-872.0,294.0,-1037.0,261.0,-562.0,483.0
19:40:26.855000,-2408.0,-1388.0,-1684.0,-920.0,333.0,-1024.0,261.0,-562.0,483.0
19:40:26.860000,-2285.0,-1437.0,-1855.0,-764.0,222.0,-1027.0,277.0,-570.0,484.0
19:40:26.865000,-2189.0,-1448.0,-1793.0,-708.0,26.0,-1042.0,277.0,-570.0,484.0
19:40:26.869000,-2086.0,-1440.0,-1740.0,-745.0,-24.0,-1083.0,277.0,-570.0,484.0
19:40:26.874000,-1950.0,-1399.0,-1610.0,-614.0,-229.0,-1075.0,298.0,-589.0,475.0
19:40:26.879000,-1898.0,-1355.0,-1259.0,-441.0,-461.0,-1009.0,298.0,-589.0,475.0
19:40:26.884000,-1836.0,-1351.0,-1082.0,-441.0,-461.0,-1009.0,310.0,-604.0,468.0
19:40:26.888000,-1708.0,-1362.0,-1242.0,-224.0,-299.0,-921.0,310.0,-604.0,468.0
19:40:26.892000,-1614.0,-1344.0,-1395.0,-224.0,-299.0,-921.0,310.0,-604.0,468.0
19:40:26.898000,-1628.0,-1309.0,-1341.0,18.0,-359.0,-865.0,328.0,-606.0,456.0
19:40:26.902000,-1600.0,-1330.0,-1429.0,183.0,-473.0,-812.0,328.0,-606.0,456.0
19:40:26.907000,-1466.0,-1327.0,-1688.0,136.0,-524.0,-767.0,340.0,-621.0,441.0
19:40:26.912000,-1361.0,-1329.0,-1742.0,141.0,-854.0,-770.0,340.0,-621.0,441.0
19:40:26.916000,-1253.0,-1298.0,-1640.0,141.0,-854.0,-770.0,340.0,-621.0,441.0
19:40:26.921000,-1186.0,-1282.0,-1656.0,20.0,-768.0,-768.0,339.0,-625.0,447.0
19:40:26.926000,-1217.0,-1240.0,-1675.0,-92.0,-612.0,-750.0,339.0,-625.0,447.0
19:40:26.931000,-1282.0,-1221.0,-1630.0,-110.0,-594.0,-766.0,367.0,-621.0,429.0
19:40:26.935000,-1362.0,-1207.0,-1712.0,-188.0,-537.0,-752.0,367.0,-621.0,429.0
19:40:26.939000,-1362.0,-1207.0,-1712.0,-285.0,-520.0,-787.0,367.0,-621.0,429.0
19:40:26.945000,-1395.0,-1190.0,-1866.0,-297.0,-472.0,-837.0,373.0,-630.0,418.0
19:40:26.949000,-1400.0,-1164.0,-1852.0,-293.0,-472.0,-859.0,373.0,-630.0,418.0
19:40:26.954000,-1417.0,-1118.0,-1674.0,-292.0,-422.0,-883.0,409.0,-636.0,406.0
19:40:26.959000,-1445.0,-1122.0,-1643.0,-292.0,-273.0,-901.0,409.0,-636.0,406.0
19:40:26.963000,-1438.0,-1089.0,-1752.0,-288.0,-361.0,-938.0,409.0,-636.0,406.0
19:40:26.968000,-1396.0,-1071.0,-1876.0,-284.0,-438.0,-956.0,430.0,-637.0,393.0
19:40:26.973000,-1370.0,-1085.0,-2046.0,-292.0,-434.0,-950.0,430.0,-637.0,393.0
19:40:26.978000,-1323.0,-1124.0,-2043.0,-304.0,-471.0,-983.0,430.0,-637.0,384.0
19:40:26.982000,-1318.0,-1106.0,-1870.0,-365.0,-461.0,-1004.0,430.0,-637.0,384.0
19:40:26.986000,-1371.0,-1110.0,-1796.0,-383.0,-470.0,-1013.0,430.0,-637.0,384.0
19:40:26.992000,-1293.0,-1178.0,-1813.0,-273.0,-583.0,-1036.0,444.0,-637.0,376.0
19:40:26.996000,-1196.0,-1236.0,-1696.0,-171.0,-756.0,-1055.0,444.0,-637.0,376.0
19:40:27.001000,-1194.0,-1248.0,-1522.0,-171.0,-756.0,-1055.0,444.0,-642.0,373.0
19:40:27.006000,-1171.0,-1292.0,-1481.0,-196.0,-755.0,-1051.0,444.0,-642.0,373.0
19:40:27.010000,-1134.0,-1307.0,-1540.0,-301.0,-637.0,-1048.0,444.0,-642.0,373.0
19:40:27.015000,-1070.0,-1311.0,-1526.0,-349.0,-564.0,-1061.0,475.0,-627.0,355.0
19:40:27.020000,-980.0,-1336.0,-1377.0,-333.0,-595.0,-1053.0,475.0,-627.0,355.0
19:40:27.025000,-933.0,-1387.0,-1379.0,-362.0,-605.0,-1017.0,495.0,-627.0,336.0
19:40:27.029000,-891.0,-1418.0,-1344.0,-363.0,-605.0,-988.0,495.0,-627.0,336.0
19:40:27.033000,-860.0,-1429.0,-1241.0,-286.0,-682.0,-992.0,495.0,-627.0,336.0
19:40:27.039000,-798.0,-1431.0,-1162.0,-273.0,-674.0,-995.0,507.0,-628.0,343.0
19:40:27.043000,-780.0,-1432.0,-1027.0,-308.0,-640.0,-981.0,507.0,-628.0,343.0
19:40:27.048000,-825.0,-1399.0,-1010.0,-369.0,-565.0,-955.0,508.0,-624.0,324.0
19:40:27.053000,-825.0,-1399.0,-1010.0,-458.0,-421.0,-943.0,508.0,-624.0,324.0
19:40:27.057000,-844.0,-1362.0,-1129.0,-500.0,-359.0,-920.0,508.0,-624.0,324.0
19:40:27.062000,-807.0,-1363.0,-1234.0,-455.0,-440.0,-900.0,520.0,-621.0,304.0
19:40:27.067000,-778.0,-1342.0,-1177.0,-404.0,-588.0,-891.0,520.0,-621.0,304.0
19:40:27.072000,-773.0,-1310.0,-994.0,-504.0,-601.0,-869.0,526.0,-616.0,301.0
19:40:27.076000,-754.0,-1311.0,-1027.0,-605.0,-490.0,-844.0,526.0,-616.0,301.0
19:40:27.080000,-735.0,-1320.0,-1192.0,-540.0,-437.0,-822.0,526.0,-616.0,301.0
19:40:27.086000,-716.0,-1329.0,-1264.0,-414.0,-498.0,-802.0,523.0,-609.0,297.0
19:40:27.090000,-711.0,-1313.0,-1171.0,-406.0,-544.0,-789.0,523.0,-609.0,297.0
19:40:27.095000,-701.0,-1296.0,-1148.0,-518.0,-423.0,-777.0,553.0,-610.0,274.0
19:40:27.100000,-679.0,-1291.0,-1264.0,-570.0,-309.0,-759.0,553.0,-610.0,274.0
19:40:27.104000,-677.0,-1296.0,-1325.0,-526.0,-389.0,-746.0,553.0,-610.0,274.0
19:40:27.109000,-702.0,-1299.0,-1162.0,-542.0,-420.0,-738.0,559.0,-604.0,273.0
19:40:27.113000,-750.0,-1279.0,-1107.0,-674.0,-344.0,-745.0,559.0,-604.0,273.0
19:40:27.119000,-737.0,-1259.0,-1173.0,-674.0,-344.0,-745.0,562.0,-598.0,282.0
19:40:27.123000,-758.0,-1229.0,-1274.0,-796.0,-355.0,-750.0,562.0,-598.0,282.0
19:40:27.128000,-739.0,-1235.0,-1348.0,-762.0,-359.0,-725.0,570.0,-598.0,250.0
19:40:27.133000,-676.0,-1253.0,-1251.0,-626.0,-424.0,-708.0,570.0,-598.0,250.0
19:40:27.137000,-648.0,-1239.0,-1024.0,-541.0,-586.0,-707.0,570.0,-598.0,250.0
19:40:27.142000,-579.0,-1238.0,-999.0,-625.0,-608.0,-710.0,580.0,-577.0,235.0
19:40:27.147000,-519.0,-1246.0,-1102.0,-737.0,-483.0,-694.0,580.0,-577.0,235.0
19:40:27.151000,-455.0,-1257.0,-1057.0,-660.0,-441.0,-672.0,582.0,-579.0,226.0
19:40:27.156000,-428.0,-1254.0,-1045.0,-577.0,-452.0,-658.0,582.0,-579.0,226.0
19:40:27.160000,-428.0,-1254.0,-1045.0,-618.0,-372.0,-632.0,582.0,-579.0,226.0
19:40:27.166000,-389.0,-1265.0,-1197.0,-614.0,-357.0,-620.0,585.0,-583.0,228.0
19:40:27.170000,-333.0,-1266.0,-1188.0,-547.0,-465.0,-621.0,585.0,-583.0,228.0
19:40:27.175000,-291.0,-1260.0,-932.0,-625.0,-457.0,-609.0,603.0,-561.0,205.0
19:40:27.180000,-299.0,-1239.0,-812.0,-791.0,-324.0,-593.0,603.0,-561.0,205.0
19:40:27.184000,-284.0,-1253.0,-817.0,-848.0,-251.0,-576.0,603.0,-561.0,205.0
19:40:27.189000,-331.0,-1241.0,-865.0,-797.0,-212.0,-561.0,600.0,-553.0,204.0
19:40:27.194000,-348.0,-1241.0,-926.0,-721.0,-176.0,-556.0,600.0,-553.0,204.0
19:40:27.198000,-320.0,-1246.0,-974.0,-652.0,-240.0,-548.0,589.0,-559.0,210.0
19:40:27.203000,-329.0,-1238.0,-902.0,-643.0,-301.0,-531.0,589.0,-559.0,210.0
19:40:27.207000,-330.0,-1243.0,-808.0,-711.0,-256.0,-527.0,589.0,-559.0,210.0
19:40:27.212000,-322.0,-1240.0,-800.0,-768.0,-226.0,-526.0,613.0,-535.0,186.0
19:40:27.217000,-344.0,-1227.0,-760.0,-803.0,-191.0,-508.0,613.0,-535.0,186.0
19:40:27.222000,-364.0,-1225.0,-805.0,-803.0,-191.0,-508.0,609.0,-535.0,177.0
19:40:27.227000,-348.0,-1236.0,-897.0,-821.0,-124.0,-493.0,609.0,-535.0,177.0
19:40:27.231000,-349.0,-1229.0,-849.0,-767.0,-160.0,-486.0,609.0,-535.0,177.0
19:40:27.236000,-361.0,-1226.0,-737.0,-711.0,-246.0,-468.0,607.0,-523.0,168.0
19:40:27.241000,-349.0,-1229.0,-722.0,-744.0,-231.0,-452.0,607.0,-523.0,168.0
19:40:27.245000,-368.0,-1213.0,-735.0,-808.0,-165.0,-446.0,618.0,-519.0,150.0
19:40:27.250000,-368.0,-1215.0,-655.0,-833.0,-149.0,-432.0,618.0,-519.0,150.0
19:40:27.254000,-368.0,-1215.0,-655.0,-864.0,-134.0,-422.0,618.0,-519.0,150.0
19:40:27.260000,-399.0,-1184.0,-696.0,-896.0,-120.0,-417.0,621.0,-528.0,142.0
19:40:27.264000,-407.0,-1166.0,-625.0,-896.0,-145.0,-409.0,621.0,-528.0,142.0
19:40:27.269000,-407.0,-1166.0,-625.0,-917.0,-158.0,-399.0,621.0,-513.0,133.0
19:40:27.274000,-419.0,-1141.0,-601.0,-959.0,-141.0,-395.0,621.0,-513.0,133.0
19:40:27.278000,-412.0,-1113.0,-665.0,-962.0,-150.0,-394.0,621.0,-513.0,133.0
19:40:27.283000,-386.0,-1093.0,-664.0,-933.0,-189.0,-387.0,619.0,-505.0,130.0
19:40:27.288000,-371.0,-1072.0,-582.0,-945.0,-161.0,-379.0,619.0,-505.0,130.0
19:40:27.292000,-373.0,-1045.0,-585.0,-961.0,-122.0,-372.0,616.0,-507.0,114.0
19:40:27.297000,-348.0,-1032.0,-574.0,-944.0,-169.0,-368.0,616.0,-507.0,114.0
19:40:27.301000,-351.0,-1000.0,-522.0,-958.0,-203.0,-362.0,616.0,-507.0,114.0
19:40:27.307000,-343.0,-979.0,-490.0,-1004.0,-177.0,-357.0,621.0,-504.0,114.0
19:40:27.311000,-317.0,-958.0,-509.0,-1011.0,-160.0,-359.0,621.0,-504.0,114.0
19:40:27.316000,-291.0,-933.0,-492.0,-978.0,-185.0,-353.0,616.0,-499.0,106.0
19:40:27.321000,-279.0,-907.0,-399.0,-974.0,-187.0,-346.0,616.0,-499.0,106.0
19:40:27.325000,-270.0,-881.0,-382.0,-996.0,-159.0,-341.0,616.0,-499.0,106.0
19:40:27.330000,-252.0,-861.0,-426.0,-996.0,-159.0,-341.0,612.0,-486.0,100.0
19:40:27.335000,-235.0,-834.0,-411.0,-981.0,-176.0,-334.0,612.0,-486.0,100.0
19:40:27.339000,-217.0,-811.0,-352.0,-963.0,-217.0,-327.0,610.0,-484.0,94.0
19:40:27.344000,-210.0,-793.0,-315.0,-981.0,-222.0,-318.0,610.0,-484.0,94.0
19:40:27.348000,-200.0,-768.0,-316.0,-1000.0,-182.0,-310.0,610.0,-484.0,94.0
19:40:27.354000,-184.0,-746.0,-354.0,-1015.0,-144.0,-308.0,621.0,-478.0,84.0
19:40:27.358000,-177.0,-719.0,-359.0,-1005.0,-147.0,-305.0,621.0,-478.0,84.0
19:40:27.363000,-180.0,-700.0,-343.0,-991.0,-175.0,-292.0,618.0,-483.0,78.0
19:40:27.368000,-182.0,-681.0,-382.0,-1003.0,-164.0,-278.0,618.0,-483.0,78.0
19:40:27.372000,-182.0,-681.0,-382.0,-1006.0,-138.0,-274.0,618.0,-483.0,78.0
19:40:27.377000,-169.0,-667.0,-387.0,-991.0,-144.0,-266.0,601.0,-480.0,79.0
19:40:27.382000,-174.0,-653.0,-363.0,-980.0,-154.0,-253.0,601.0,-480.0,79.0
19:40:27.386000,-188.0,-635.0,-323.0,-992.0,-134.0,-241.0,612.0,-468.0,72.0
19:40:27.391000,-199.0,-620.0,-333.0,-1010.0,-92.0,-234.0,612.0,-468.0,72.0
19:40:27.395000,-201.0,-602.0,-382.0,-999.0,-103.0,-224.0,612.0,-468.0,72.0
19:40:27.401000,-200.0,-590.0,-351.0,-983.0,-145.0,-209.0,618.0,-471.0,64.0
19:40:27.405000,-219.0,-577.0,-312.0,-993.0,-121.0,-202.0,618.0,-471.0,64.0
19:40:27.410000,-228.0,-564.0,-359.0,-984.0,-89.0,-196.0,600.0,-475.0,73.0
19:40:27.415000,-217.0,-562.0,-387.0,-940.0,-127.0,-184.0,600.0,-475.0,73.0
19:40:27.419000,-222.0,-556.0,-315.0,-927.0,-136.0,-177.0,613.0,-459.0,52.0
19:40:27.424000,-234.0,-543.0,-293.0,-962.0,-81.0,-176.0,613.0,-459.0,52.0
19:40:27.428000,-232.0,-529.0,-352.0,-973.0,-68.0,-170.0,613.0,-459.0,52.0
19:40:27.433000,-235.0,-522.0,-361.0,-957.0,-88.0,-158.0,622.0,-471.0,51.0
19:40:27.438000,-251.0,-514.0,-363.0,-952.0,-92.0,-153.0,622.0,-471.0,51.0
19:40:27.443000,-237.0,-508.0,-344.0,-952.0,-92.0,-153.0,613.0,-466.0,49.0
19:40:27.447000,-235.0,-499.0,-299.0,-977.0,-73.0,-141.0,613.0,-466.0,49.0
19:40:27.452000,-248.0,-490.0,-279.0,-977.0,-73.0,-141.0,613.0,-466.0,49.0
19:40:27.457000,-259.0,-482.0,-256.0,-988.0,-25.0,-131.0,622.0,-463.0,57.0
19:40:27.462000,-278.0,-467.0,-260.0,-976.0,2.0,-124.0,622.0,-463.0,57.0
19:40:27.466000,-289.0,-452.0,-280.0,-967.0,18.0,-120.0,615.0,-459.0,43.0
19:40:27.471000,-298.0,-445.0,-261.0,-968.0,24.0,-109.0,615.0,-459.0,43.0
19:40:27.475000,-298.0,-445.0,-261.0,-964.0,27.0,-95.0,615.0,-459.0,43.0
19:40:27.480000,-353.0,-415.0,-210.0,-969.0,32.0,-85.0,616.0,-448.0,37.0
19:40:27.485000,-371.0,-401.0,-184.0,-970.0,35.0,-78.0,616.0,-448.0,37.0
19:40:27.490000,-371.0,-401.0,-184.0,-969.0,38.0,-74.0,621.0,-451.0,30.0
19:40:27.494000,-396.0,-380.0,-173.0,-980.0,61.0,-63.0,621.0,-451.0,30.0
19:40:27.499000,-415.0,-369.0,-172.0,-979.0,70.0,-54.0,621.0,-451.0,30.0
19:40:27.504000,-436.0,-355.0,-153.0,-980.0,68.0,-51.0,600.0,-451.0,36.0
19:40:27.509000,-466.0,-339.0,-144.0,-986.0,93.0,-43.0,600.0,-451.0,36.0
19:40:27.513000,-494.0,-336.0,-159.0,-971.0,120.0,-34.0,607.0,-441.0,28.0
19:40:27.518000,-529.0,-328.0,-192.0,-934.0,110.0,-29.0,607.0,-441.0,28.0
19:40:27.522000,-555.0,-326.0,-175.0,-899.0,82.0,-24.0,607.0,-441.0,28.0
19:40:27.527000,-583.0,-329.0,-124.0,-894.0,86.0,-19.0,604.0,-442.0,28.0
19:40:27.532000,-609.0,-336.0,-95.0,-898.0,111.0,-15.0,604.0,-442.0,28.0
19:40:27.537000,-643.0,-343.0,-72.0,-901.0,144.0,-10.0,604.0,-447.0,49.0
19:40:27.541000,-684.0,-352.0,-51.0,-911.0,179.0,-7.0,604.0,-447.0,49.0
19:40:27.546000,-726.0,-361.0,-42.0,-914.0,205.0,-9.0,604.0,-447.0,49.0
19:40:27.551000,-774.0,-368.0,-52.0,-914.0,205.0,-9.0,621.0,-441.0,24.0
19:40:27.556000,-816.0,-382.0,-44.0,-895.0,212.0,-9.0,621.0,-441.0,24.0
19:40:27.560000,-867.0,-404.0,7.0,-854.0,205.0,-3.0,613.0,-438.0,18.0
19:40:27.565000,-937.0,-425.0,38.0,-826.0,226.0,2.0,613.0,-438.0,18.0
19:40:27.569000,-1017.0,-457.0,22.0,-830.0,287.0,13.0,613.0,-438.0,18.0
19:40:27.574000,-1094.0,-494.0,31.0,-824.0,328.0,22.0,607.0,-432.0,15.0
19:40:27.579000,-1180.0,-536.0,80.0,-808.0,324.0,30.0,607.0,-432.0,15.0
19:40:27.583000,-1180.0,-536.0,80.0,-811.0,320.0,42.0,612.0,-427.0,15.0
19:40:27.588000,-1371.0,-628.0,134.0,-832.0,346.0,50.0,612.0,-427.0,15.0
19:40:27.593000,-1371.0,-628.0,134.0,-850.0,388.0,62.0,612.0,-427.0,15.0
19:40:27.598000,-1486.0,-679.0,124.0,-833.0,417.0,78.0,606.0,-426.0,10.0
19:40:27.603000,-1606.0,-739.0,163.0,-801.0,432.0,97.0,606.0,-426.0,10.0
19:40:27.607000,-1740.0,-803.0,213.0,-793.0,455.0,118.0,600.0,-424.0,-3.0
19:40:27.612000,-1886.0,-868.0,214.0,-791.0,472.0,141.0,600.0,-424.0,-3.0
19:40:27.616000,-2024.0,-947.0,202.0,-761.0,463.0,166.0,600.0,-424.0,-3.0
19:40:27.621000,-2169.0,-1031.0,221.0,-716.0,446.0,196.0,600.0,-417.0,3.0
19:40:27.626000,-2313.0,-1125.0,234.0,-686.0,432.0,225.0,600.0,-417.0,3.0
19:40:27.631000,-2450.0,-1218.0,224.0,-676.0,420.0,252.0,604.0,-400.0,-4.0
19:40:27.635000,-2579.0,-1318.0,189.0,-676.0,414.0,283.0,604.0,-400.0,-4.0
19:40:27.640000,-2714.0,-1416.0,161.0,-669.0,407.0,324.0,604.0,-400.0,-4.0
19:40:27.645000,-2863.0,-1525.0,153.0,-643.0,399.0,366.0,589.0,-400.0,-19.0
19:40:27.650000,-2991.0,-1639.0,151.0,-628.0,384.0,401.0,589.0,-400.0,-19.0
19:40:27.654000,-3116.0,-1746.0,116.0,-628.0,384.0,401.0,576.0,-385.0,-25.0
19:40:27.659000,-3250.0,-1848.0,58.0,-630.0,359.0,442.0,576.0,-385.0,-25.0
19:40:27.663000,-3373.0,-1959.0,-6.0,-632.0,344.0,490.0,576.0,-385.0,-25.0
19:40:27.668000,-3492.0,-2067.0,-56.0,-617.0,321.0,542.0,592.0,-366.0,-37.0
19:40:27.672000,-3589.0,-2179.0,-109.0,-572.0,257.0,648.0,592.0,-366.0,-37.0
19:40:27.677000,-3675.0,-2284.0,-182.0,-572.0,257.0,648.0,559.0,-348.0,-54.0
19:40:27.682000,-3754.0,-2373.0,-240.0,-551.0,218.0,695.0,559.0,-348.0,-54.0
19:40:27.687000,-3811.0,-2462.0,-292.0,-546.0,184.0,740.0,555.0,-340.0,-49.0
19:40:27.692000,-3867.0,-2545.0,-380.0,-570.0,181.0,782.0,555.0,-340.0,-49.0
19:40:27.696000,-3867.0,-2545.0,-380.0,-590.0,177.0,824.0,555.0,-340.0,-49.0
19:40:27.701000,-3967.0,-2685.0,-495.0,-599.0,157.0,863.0,531.0,-306.0,-60.0
19:40:27.706000,-3967.0,-2685.0,-495.0,-619.0,157.0,900.0,531.0,-306.0,-60.0
19:40:27.711000,-4010.0,-2746.0,-567.0,-641.0,176.0,938.0,517.0,-273.0,-63.0
19:40:27.715000,-4052.0,-2793.0,-631.0,-655.0,188.0,971.0,517.0,-273.0,-63.0
19:40:27.719000,-4096.0,-2829.0,-655.0,-693.0,211.0,1003.0,517.0,-273.0,-63.0
19:40:27.725000,-4134.0,-2854.0,-723.0,-737.0,234.0,1032.0,492.0,-256.0,-72.0
19:40:27.729000,-4146.0,-2876.0,-807.0,-748.0,212.0,1060.0,492.0,-256.0,-72.0
19:40:27.734000,-4158.0,-2879.0,-866.0,-748.0,171.0,1090.0,486.0,-235.0,-70.0
19:40:27.739000,-4160.0,-2874.0,-890.0,-761.0,151.0,1114.0,486.0,-235.0,-70.0
19:40:27.743000,-4150.0,-2863.0,-897.0,-802.0,148.0,1124.0,486.0,-235.0,-70.0
19:40:27.748000,-4139.0,-2835.0,-919.0,-863.0,158.0,1127.0,471.0,-214.0,-72.0
19:40:27.753000,-4102.0,-2808.0,-966.0,-916.0,175.0,1128.0,471.0,-214.0,-72.0
19:40:27.758000,-4070.0,-2772.0,-1025.0,-944.0,173.0,1120.0,451.0,-195.0,-70.0
19:40:27.762000,-4021.0,-2734.0,-1055.0,-959.0,145.0,1104.0,451.0,-195.0,-70.0
19:40:27.766000,-3957.0,-2704.0,-1044.0,-959.0,128.0,1104.0,451.0,-195.0,-70.0
19:40:27.772000,-3886.0,-2666.0,-1047.0,-983.0,128.0,1081.0,414.0,-153.0,-49.0
19:40:27.776000,-3803.0,-2632.0,-1062.0,-1012.0,139.0,1052.0,414.0,-153.0,-49.0
19:40:27.781000,-3710.0,-2609.0,-1038.0,-1011.0,144.0,1028.0,396.0,-123.0,-34.0
19:40:27.786000,-3621.0,-2581.0,-965.0,-976.0,131.0,1002.0,396.0,-123.0,-34.0
19:40:27.790000,-3533.0,-2549.0,-896.0,-944.0,136.0,972.0,396.0,-123.0,-34.0
19:40:27.795000,-3439.0,-2521.0,-864.0,-930.0,181.0,944.0,382.0,-103.0,-24.0
19:40:27.800000,-3347.0,-2484.0,-833.0,-902.0,224.0,919.0,382.0,-103.0,-24.0
19:40:27.805000,-3250.0,-2450.0,-788.0,-869.0,252.0,901.0,378.0,-94.0,-12.0
19:40:27.809000,-3154.0,-2408.0,-747.0,-854.0,273.0,886.0,378.0,-94.0,-12.0
19:40:27.813000,-3154.0,-2408.0,-747.0,-850.0,292.0,866.0,378.0,-94.0,-12.0
19:40:27.819000,-3061.0,-2363.0,-732.0,-847.0,310.0,846.0,352.0,-79.0,-7.0
19:40:27.823000,-2975.0,-2315.0,-723.0,-840.0,322.0,819.0,352.0,-79.0,-7.0
19:40:27.828000,-2890.0,-2260.0,-698.0,-846.0,345.0,790.0,346.0,-63.0,7.0
19:40:27.833000,-2809.0,-2200.0,-668.0,-860.0,381.0,771.0,346.0,-63.0,7.0
19:40:27.837000,-2732.0,-2139.0,-641.0,-864.0,417.0,755.0,346.0,-63.0,7.0
19:40:27.842000,-2660.0,-2069.0,-604.0,-849.0,423.0,746.0,318.0,-39.0,40.0
19:40:27.847000,-2590.0,-1997.0,-543.0,-831.0,415.0,735.0,318.0,-39.0,40.0
19:40:27.852000,-2517.0,-1920.0,-490.0,-814.0,408.0,718.0,306.0,-30.0,55.0
19:40:27.856000,-2437.0,-1847.0,-459.0,-796.0,393.0,701.0,306.0,-30.0,55.0
19:40:27.860000,-2343.0,-1775.0,-456.0,-780.0,389.0,679.0,306.0,-30.0,55.0
19:40:27.866000,-2245.0,-1704.0,-487.0,-748.0,400.0,652.0,298.0,-28.0,69.0
19:40:27.870000,-2149.0,-1628.0,-508.0,-703.0,411.0,627.0,298.0,-28.0,69.0
19:40:27.875000,-2064.0,-1551.0,-490.0,-703.0,411.0,627.0,294.0,-25.0,69.0
19:40:27.880000,-1985.0,-1468.0,-460.0,-686.0,443.0,604.0,294.0,-25.0,69.0
19:40:27.884000,-1920.0,-1391.0,-441.0,-692.0,528.0,571.0,294.0,-25.0,69.0
19:40:27.889000,-1862.0,-1325.0,-431.0,-692.0,528.0,571.0,283.0,-18.0,88.0
19:40:27.894000,-1810.0,-1257.0,-402.0,-666.0,546.0,552.0,283.0,-18.0,88.0
19:40:27.899000,-1762.0,-1201.0,-354.0,-630.0,547.0,534.0,286.0,-9.0,94.0
19:40:27.903000,-1716.0,-1151.0,-311.0,-604.0,548.0,521.0,286.0,-9.0,94.0
19:40:27.907000,-1673.0,-1103.0,-276.0,-589.0,553.0,504.0,286.0,-9.0,94.0
19:40:27.912000,-1673.0,-1103.0,-276.0,-580.0,555.0,489.0,271.0,-6.0,114.0
19:40:27.917000,-1579.0,-1019.0,-217.0,-570.0,554.0,474.0,271.0,-6.0,114.0
19:40:27.922000,-1519.0,-976.0,-198.0,-555.0,551.0,457.0,261.0,0.0,129.0
19:40:27.927000,-1519.0,-976.0,-198.0,-541.0,544.0,440.0,261.0,0.0,129.0
19:40:27.931000,-1455.0,-938.0,-191.0,-534.0,533.0,427.0,265.0,6.0,148.0
19:40:27.936000,-1391.0,-902.0,-179.0,-529.0,522.0,413.0,265.0,6.0,148.0
19:40:27.940000,-1327.0,-865.0,-156.0,-530.0,519.0,399.0,265.0,6.0,148.0
19:40:27.946000,-1260.0,-830.0,-147.0,-534.0,524.0,385.0,262.0,3.0,148.0
19:40:27.950000,-1196.0,-797.0,-147.0,-528.0,525.0,379.0,262.0,3.0,148.0
19:40:27.955000,-1142.0,-764.0,-142.0,-514.0,531.0,376.0,261.0,6.0,150.0
19:40:27.960000,-1096.0,-734.0,-130.0,-499.0,545.0,371.0,261.0,6.0,150.0
19:40:27.964000,-1064.0,-704.0,-102.0,-484.0,563.0,362.0,261.0,6.0,150.0
19:40:27.969000,-1047.0,-669.0,-67.0,-477.0,591.0,351.0,256.0,10.0,165.0
19:40:27.974000,-1041.0,-633.0,-33.0,-477.0,616.0,342.0,256.0,10.0,165.0
19:40:27.979000,-1040.0,-597.0,-4.0,-477.0,616.0,342.0,252.0,15.0,169.0
19:40:27.983000,-1045.0,-564.0,24.0,-459.0,601.0,326.0,252.0,15.0,169.0
19:40:27.987000,-1042.0,-530.0,28.0,-459.0,601.0,326.0,252.0,15.0,169.0
19:40:27.993000,-1032.0,-496.0,-4.0,-459.0,600.0,313.0,250.0,9.0,175.0
19:40:27.997000,-1016.0,-459.0,-40.0,-462.0,598.0,303.0,250.0,9.0,175.0
19:40:28.002000,-991.0,-418.0,-60.0,-454.0,585.0,290.0,261.0,15.0,198.0
19:40:28.007000,-965.0,-376.0,-74.0,-437.0,573.0,281.0,261.0,15.0,198.0
19:40:28.011000,-938.0,-338.0,-94.0,-426.0,577.0,277.0,261.0,15.0,198.0
19:40:28.016000,-907.0,-299.0,-128.0,-426.0,595.0,274.0,259.0,13.0,192.0
19:40:28.021000,-877.0,-265.0,-150.0,-422.0,604.0,274.0,259.0,13.0,192.0
19:40:28.026000,-845.0,-232.0,-144.0,-404.0,582.0,277.0,252.0,28.0,219.0
19:40:28.030000,-812.0,-204.0,-124.0,-383.0,549.0,279.0,252.0,28.0,219.0
19:40:28.034000,-812.0,-204.0,-124.0,-375.0,531.0,279.0,252.0,28.0,219.0
19:40:28.040000,-772.0,-176.0,-102.0,-387.0,534.0,286.0,253.0,28.0,199.0
19:40:28.044000,-740.0,-156.0,-81.0,-397.0,541.0,302.0,253.0,28.0,199.0
19:40:28.049000,-714.0,-144.0,-44.0,-388.0,556.0,309.0,252.0,12.0,211.0
19:40:28.054000,-679.0,-133.0,-18.0,-376.0,593.0,317.0,252.0,12.0,211.0
19:40:28.058000,-644.0,-133.0,-23.0,-357.0,628.0,326.0,252.0,12.0,211.0
19:40:28.063000,-608.0,-131.0,-25.0,-329.0,651.0,330.0,255.0,21.0,219.0
19:40:28.068000,-573.0,-130.0,-16.0,-314.0,679.0,341.0,255.0,21.0,219.0
19:40:28.073000,-550.0,-135.0,-17.0,-318.0,729.0,356.0,237.0,12.0,223.0
19:40:28.077000,-518.0,-144.0,-29.0,-319.0,840.0,372.0,237.0,12.0,223.0
19:40:28.081000,-487.0,-154.0,-46.0,-294.0,766.0,396.0,237.0,12.0,223.0
19:40:28.087000,-541.0,-141.0,-24.0,-278.0,598.0,376.0,247.0,18.0,232.0
19:40:28.091000,-481.0,-157.0,35.0,-308.0,617.0,340.0,247.0,18.0,232.0
19:40:28.096000,-457.0,-142.0,44.0,-308.0,617.0,340.0,256.0,16.0,235.0
19:40:28.101000,-448.0,-142.0,28.0,-326.0,690.0,346.0,256.0,16.0,235.0
19:40:28.105000,-406.0,-134.0,29.0,-309.0,759.0,338.0,256.0,16.0,235.0
19:40:28.110000,-392.0,-125.0,42.0,-292.0,800.0,326.0,258.0,16.0,232.0
19:40:28.115000,-382.0,-115.0,46.0,-283.0,650.0,345.0,258.0,16.0,232.0
19:40:28.120000,-415.0,-102.0,81.0,-286.0,650.0,345.0,253.0,25.0,241.0
19:40:28.124000,-383.0,-88.0,158.0,-315.0,509.0,320.0,253.0,25.0,241.0
19:40:28.128000,-383.0,-88.0,158.0,-372.0,581.0,279.0,253.0,25.0,241.0
19:40:28.134000,-358.0,-63.0,193.0,-412.0,706.0,278.0,246.0,24.0,240.0
19:40:28.138000,-361.0,-54.0,151.0,-393.0,777.0,275.0,246.0,24.0,240.0
19:40:28.143000,-361.0,-54.0,151.0,-340.0,790.0,263.0,256.0,24.0,246.0
19:40:28.148000,-348.0,-51.0,112.0,-298.0,758.0,256.0,256.0,24.0,246.0
19:40:28.152000,-337.0,-48.0,81.0,-282.0,718.0,252.0,256.0,24.0,246.0
19:40:28.157000,-315.0,-49.0,48.0,-279.0,691.0,244.0,252.0,18.0,258.0
19:40:28.162000,-295.0,-51.0,21.0,-283.0,666.0,234.0,252.0,18.0,258.0
19:40:28.166000,-276.0,-53.0,-6.0,-292.0,670.0,219.0,249.0,16.0,262.0
19:40:28.171000,-254.0,-56.0,-46.0,-301.0,697.0,208.0,249.0,16.0,262.0
19:40:28.175000,-234.0,-63.0,-96.0,-302.0,725.0,209.0,249.0,16.0,262.0
19:40:28.181000,-216.0,-77.0,-159.0,-287.0,750.0,215.0,250.0,19.0,246.0
19:40:28.185000,-195.0,-95.0,-224.0,-258.0,767.0,221.0,250.0,19.0,246.0
19:40:28.190000,-181.0,-114.0,-280.0,-227.0,774.0,228.0,252.0,21.0,252.0
19:40:28.195000,-167.0,-137.0,-324.0,-207.0,772.0,233.0,252.0,21.0,252.0
19:40:28.199000,-154.0,-159.0,-361.0,-205.0,776.0,229.0,252.0,21.0,252.0
19:40:28.204000,-137.0,-178.0,-400.0,-205.0,802.0,222.0,250.0,12.0,246.0
19:40:28.208000,-122.0,-190.0,-436.0,-254.0,858.0,225.0,250.0,12.0,246.0
19:40:28.214000,-109.0,-201.0,-468.0,-254.0,858.0,225.0,234.0,19.0,256.0
19:40:28.218000,-94.0,-210.0,-489.0,-286.0,905.0,235.0,234.0,19.0,256.0
19:40:28.223000,-78.0,-220.0,-476.0,-295.0,896.0,242.0,246.0,13.0,261.0
19:40:28.228000,-64.0,-227.0,-431.0,-285.0,815.0,244.0,246.0,13.0,261.0
19:40:28.232000,-24.0,-235.0,-407.0,-283.0,781.0,239.0,246.0,13.0,261.0
19:40:28.237000,11.0,-245.0,-415.0,-278.0,855.0,244.0,238.0,27.0,258.0
19:40:28.242000,71.0,-259.0,-424.0,-257.0,938.0,262.0,238.0,27.0,258.0
19:40:28.246000,104.0,-271.0,-427.0,-242.0,1037.0,280.0,234.0,21.0,258.0
19:40:28.251000,92.0,-280.0,-421.0,-240.0,1192.0,320.0,234.0,21.0,258.0
19:40:28.255000,92.0,-280.0,-421.0,-223.0,1203.0,365.0,234.0,21.0,258.0
19:40:28.261000,72.0,-267.0,-457.0,-165.0,924.0,366.0,232.0,22.0,249.0
19:40:28.265000,133.0,-260.0,-486.0,-156.0,638.0,370.0,232.0,22.0,249.0
19:40:28.270000,149.0,-259.0,-373.0,-273.0,598.0,366.0,235.0,19.0,250.0
19:40:28.275000,196.0,-251.0,-224.0,-396.0,795.0,330.0,235.0,19.0,250.0
19:40:28.279000,259.0,-241.0,-158.0,-417.0,1034.0,334.0,235.0,19.0,250.0
19:40:28.284000,276.0,-239.0,-154.0,-376.0,1161.0,363.0,234.0,19.0,253.0
19:40:28.289000,275.0,-242.0,-177.0,-325.0,1189.0,318.0,234.0,19.0,253.0
19:40:28.293000,336.0,-207.0,-214.0,-270.0,1084.0,313.0,220.0,12.0,256.0
19:40:28.298000,345.0,-225.0,-178.0,-245.0,950.0,357.0,220.0,12.0,256.0
19:40:28.302000,359.0,-227.0,-140.0,-278.0,896.0,329.0,220.0,12.0,256.0
19:40:28.308000,417.0,-231.0,-123.0,-335.0,884.0,318.0,222.0,7.0,234.0
19:40:28.312000,464.0,-242.0,-125.0,-365.0,884.0,318.0,222.0,7.0,234.0
19:40:28.317000,504.0,-246.0,-126.0,-365.0,884.0,318.0,222.0,27.0,240.0
19:40:28.322000,567.0,-266.0,-116.0,-348.0,882.0,312.0,222.0,27.0,240.0
19:40:28.326000,609.0,-282.0,-126.0,-315.0,881.0,323.0,222.0,27.0,240.0
19:40:28.331000,672.0,-296.0,-151.0,-316.0,881.0,327.0,226.0,13.0,241.0
19:40:28.336000,742.0,-315.0,-164.0,-315.0,880.0,330.0,226.0,13.0,241.0
19:40:28.340000,793.0,-337.0,-155.0,-271.0,840.0,347.0,217.0,18.0,231.0
19:40:28.345000,850.0,-354.0,-184.0,-230.0,834.0,358.0,217.0,18.0,231.0
19:40:28.349000,850.0,-354.0,-184.0,-242.0,901.0,362.0,217.0,18.0,231.0
19:40:28.355000,933.0,-370.0,-258.0,-256.0,950.0,366.0,216.0,21.0,232.0
19:40:28.359000,967.0,-375.0,-248.0,-270.0,955.0,369.0,216.0,21.0,232.0
19:40:28.364000,967.0,-375.0,-248.0,-311.0,947.0,366.0,214.0,19.0,216.0
19:40:28.369000,985.0,-358.0,-268.0,-332.0,935.0,353.0,214.0,19.0,216.0
19:40:28.373000,1038.0,-347.0,-288.0,-352.0,917.0,341.0,214.0,19.0,216.0
19:40:28.377000,1082.0,-327.0,-287.0,-399.0,893.0,343.0,213.0,21.0,204.0
19:40:28.383000,1131.0,-318.0,-272.0,-437.0,852.0,354.0,213.0,21.0,204.0
19:40:28.387000,1183.0,-316.0,-234.0,-455.0,811.0,349.0,213.0,21.0,208.0
19:40:28.392000,1236.0,-298.0,-214.0,-450.0,761.0,347.0,213.0,21.0,208.0
19:40:28.396000,1311.0,-301.0,-211.0,-421.0,723.0,357.0,213.0,21.0,208.0
19:40:28.402000,1396.0,-296.0,-210.0,-385.0,700.0,366.0,193.0,9.0,207.0
19:40:28.406000,1484.0,-288.0,-160.0,-379.0,683.0,387.0,193.0,9.0,207.0
19:40:28.411000,1575.0,-296.0,-99.0,-379.0,710.0,400.0,213.0,12.0,186.0
19:40:28.416000,1659.0,-286.0,-86.0,-410.0,732.0,409.0,213.0,12.0,186.0
19:40:28.420000,1740.0,-268.0,-86.0,-409.0,718.0,423.0,213.0,12.0,186.0
19:40:28.425000,1810.0,-233.0,-61.0,-409.0,718.0,423.0,205.0,10.0,172.0
19:40:28.430000,1851.0,-179.0,-11.0,-434.0,711.0,440.0,205.0,10.0,172.0
19:40:28.434000,1894.0,-116.0,70.0,-485.0,699.0,454.0,202.0,6.0,159.0
19:40:28.439000,1953.0,-62.0,116.0,-607.0,648.0,465.0,202.0,6.0,159.0
19:40:28.443000,2037.0,-11.0,99.0,-607.0,648.0,465.0,202.0,6.0,159.0
19:40:28.449000,2139.0,45.0,74.0,-620.0,623.0,462.0,204.0,7.0,135.0
19:40:28.453000,2259.0,98.0,54.0,-633.0,552.0,472.0,204.0,7.0,135.0
19:40:28.458000,2395.0,139.0,70.0,-599.0,429.0,500.0,214.0,6.0,112.0
19:40:28.463000,2552.0,162.0,115.0,-524.0,283.0,538.0,214.0,6.0,112.0
19:40:28.467000,2552.0,162.0,115.0,-445.0,176.0,573.0,214.0,6.0,112.0
19:40:28.472000,2722.0,173.0,172.0,-389.0,150.0,602.0,214.0,1.0,100.0
19:40:28.477000,2898.0,189.0,184.0,-429.0,188.0,636.0,214.0,1.0,100.0
19:40:28.481000,3061.0,214.0,153.0,-503.0,248.0,681.0,202.0,-4.0,85.0
19:40:28.486000,3200.0,246.0,152.0,-559.0,295.0,717.0,202.0,-4.0,85.0
19:40:28.490000,3323.0,287.0,203.0,-603.0,321.0,760.0,202.0,-4.0,85.0
19:40:28.496000,3425.0,326.0,246.0,-637.0,325.0,812.0,220.0,-18.0,69.0
19:40:28.500000,3518.0,366.0,283.0,-645.0,294.0,860.0,220.0,-18.0,69.0
19:40:28.505000,3603.0,403.0,312.0,-654.0,277.0,915.0,216.0,-27.0,39.0
19:40:28.510000,3670.0,442.0,293.0,-616.0,290.0,961.0,216.0,-27.0,39.0
19:40:28.514000,3719.0,494.0,313.0,-556.0,304.0,1004.0,216.0,-27.0,39.0
19:40:28.519000,3756.0,548.0,336.0,-563.0,346.0,1041.0,219.0,-48.0,-6.0
19:40:28.524000,3783.0,592.0,301.0,-577.0,361.0,1076.0,219.0,-48.0,-6.0
19:40:28.528000,3799.0,632.0,279.0,-577.0,361.0,1076.0,229.0,-69.0,-30.0
19:40:28.533000,3812.0,678.0,297.0,-539.0,273.0,1126.0,229.0,-69.0,-30.0
19:40:28.537000,3822.0,718.0,319.0,-539.0,273.0,1126.0,229.0,-69.0,-30.0
19:40:28.543000,3832.0,754.0,271.0,-554.0,284.0,1144.0,213.0,-76.0,-40.0
19:40:28.547000,3830.0,816.0,221.0,-586.0,327.0,1148.0,213.0,-76.0,-40.0
19:40:28.552000,3819.0,877.0,252.0,-593.0,311.0,1150.0,234.0,-97.0,-70.0
19:40:28.557000,3806.0,933.0,294.0,-618.0,265.0,1155.0,234.0,-97.0,-70.0
19:40:28.561000,3803.0,992.0,264.0,-674.0,244.0,1155.0,234.0,-97.0,-70.0
19:40:28.566000,3800.0,1057.0,191.0,-712.0,236.0,1153.0,246.0,-129.0,-84.0
19:40:28.571000,3787.0,1140.0,207.0,-698.0,208.0,1150.0,246.0,-129.0,-84.0
19:40:28.575000,3776.0,1233.0,282.0,-683.0,125.0,1143.0,253.0,-133.0,-99.0
19:40:28.580000,3776.0,1233.0,282.0,-729.0,61.0,1143.0,253.0,-133.0,-99.0
19:40:28.584000,3778.0,1310.0,285.0,-778.0,29.0,1144.0,253.0,-133.0,-99.0
19:40:28.590000,3799.0,1385.0,228.0,-780.0,-41.0,1142.0,259.0,-186.0,-138.0
19:40:28.594000,3803.0,1469.0,224.0,-759.0,-114.0,1147.0,259.0,-186.0,-138.0
19:40:28.599000,3817.0,1548.0,251.0,-746.0,-151.0,1151.0,283.0,-208.0,-147.0
19:40:28.604000,3832.0,1620.0,245.0,-733.0,-173.0,1156.0,283.0,-208.0,-147.0
19:40:28.608000,3839.0,1684.0,229.0,-710.0,-185.0,1148.0,283.0,-208.0,-147.0
19:40:28.612000,3846.0,1742.0,221.0,-679.0,-184.0,1143.0,283.0,-229.0,-157.0
19:40:28.618000,3836.0,1780.0,229.0,-647.0,-175.0,1144.0,283.0,-229.0,-157.0
19:40:28.622000,3819.0,1817.0,231.0,-626.0,-158.0,1139.0,292.0,-256.0,-172.0
19:40:28.627000,3801.0,1824.0,204.0,-570.0,-148.0,1108.0,292.0,-256.0,-172.0
19:40:28.631000,3772.0,1852.0,190.0,-495.0,-176.0,1086.0,292.0,-256.0,-172.0
19:40:28.637000,3730.0,1859.0,208.0,-477.0,-208.0,1074.0,310.0,-273.0,-187.0
19:40:28.641000,3698.0,1871.0,205.0,-492.0,-209.0,1044.0,310.0,-273.0,-187.0
19:40:28.646000,3653.0,1884.0,194.0,-492.0,-209.0,1044.0,318.0,-300.0,-183.0
19:40:28.651000,3600.0,1880.0,221.0,-503.0,-227.0,1044.0,318.0,-300.0,-183.0
19:40:28.655000,3531.0,1882.0,236.0,-517.0,-246.0,1046.0,318.0,-300.0,-183.0
19:40:28.660000,3454.0,1882.0,210.0,-541.0,-237.0,1039.0,348.0,-352.0,-187.0
19:40:28.664000,3379.0,1872.0,174.0,-524.0,-216.0,1019.0,348.0,-352.0,-187.0
19:40:28.669000,3298.0,1862.0,156.0,-524.0,-216.0,1019.0,361.0,-379.0,-169.0
19:40:28.674000,3216.0,1835.0,146.0,-474.0,-214.0,1017.0,361.0,-379.0,-169.0
19:40:28.679000,3151.0,1799.0,125.0,-420.0,-213.0,1006.0,385.0,-412.0,-187.0
19:40:28.684000,3089.0,1775.0,53.0,-375.0,-256.0,975.0,385.0,-412.0,-187.0
19:40:28.688000,3089.0,1775.0,53.0,-345.0,-361.0,942.0,385.0,-412.0,-187.0
19:40:28.693000,3050.0,1763.0,-95.0,-413.0,-428.0,963.0,397.0,-418.0,-189.0
19:40:28.698000,2972.0,1715.0,-189.0,-421.0,-391.0,966.0,397.0,-418.0,-189.0
19:40:28.702000,2898.0,1684.0,-63.0,-322.0,-382.0,958.0,405.0,-432.0,-172.0
19:40:28.707000,2802.0,1630.0,46.0,-329.0,-360.0,970.0,405.0,-432.0,-172.0
19:40:28.711000,2720.0,1581.0,7.0,-353.0,-284.0,951.0,405.0,-432.0,-172.0
19:40:28.716000,2643.0,1545.0,-74.0,-355.0,-233.0,944.0,426.0,-454.0,-153.0
19:40:28.721000,2555.0,1513.0,-142.0,-374.0,-175.0,938.0,426.0,-454.0,-153.0
19:40:28.726000,2438.0,1479.0,-161.0,-409.0,-139.0,919.0,424.0,-475.0,-162.0
19:40:28.731000,2303.0,1453.0,-129.0,-462.0,-123.0,892.0,424.0,-475.0,-162.0
19:40:28.735000,2157.0,1427.0,-84.0,-522.0,-96.0,853.0,424.0,-475.0,-162.0
19:40:28.740000,2027.0,1406.0,-63.0,-587.0,-62.0,803.0,453.0,-502.0,-151.0
19:40:28.745000,1900.0,1392.0,-53.0,-640.0,-41.0,762.0,453.0,-502.0,-151.0
19:40:28.749000,1778.0,1379.0,-49.0,-683.0,-55.0,730.0,466.0,-513.0,-136.0
19:40:28.754000,1660.0,1363.0,-44.0,-683.0,-55.0,730.0,466.0,-513.0,-136.0
19:40:28.758000,1555.0,1351.0,-25.0,-700.0,-81.0,695.0,466.0,-513.0,-136.0
19:40:28.763000,1462.0,1341.0,-11.0,-688.0,-107.0,655.0,463.0,-526.0,-132.0
19:40:28.768000,1381.0,1331.0,-14.0,-669.0,-137.0,615.0,463.0,-526.0,-132.0
19:40:28.773000,1310.0,1315.0,-23.0,-628.0,-175.0,580.0,477.0,-529.0,-127.0
19:40:28.778000,1242.0,1299.0,-18.0,-573.0,-222.0,549.0,477.0,-529.0,-127.0
19:40:28.782000,1180.0,1281.0,-12.0,-537.0,-248.0,513.0,477.0,-529.0,-127.0
19:40:28.787000,1122.0,1269.0,-25.0,-541.0,-248.0,474.0,481.0,-535.0,-114.0
19:40:28.792000,1067.0,1257.0,-36.0,-563.0,-247.0,441.0,481.0,-535.0,-114.0
19:40:28.796000,1012.0,1248.0,-39.0,-577.0,-252.0,413.0,487.0,-540.0,-112.0
19:40:28.801000,1012.0,1248.0,-39.0,-586.0,-265.0,392.0,487.0,-540.0,-112.0
19:40:28.805000,958.0,1231.0,-38.0,-592.0,-290.0,374.0,487.0,-540.0,-112.0
19:40:28.810000,903.0,1216.0,-39.0,-600.0,-317.0,353.0,516.0,-546.0,-96.0
19:40:28.815000,849.0,1201.0,-26.0,-608.0,-331.0,344.0,516.0,-546.0,-96.0
19:40:28.820000,791.0,1184.0,-17.0,-629.0,-321.0,335.0,519.0,-555.0,-87.0
19:40:28.825000,736.0,1166.0,-12.0,-644.0,-324.0,310.0,519.0,-555.0,-87.0
19:40:28.829000,685.0,1148.0,3.0,-661.0,-380.0,265.0,519.0,-555.0,-87.0
19:40:28.834000,643.0,1125.0,18.0,-688.0,-441.0,219.0,525.0,-559.0,-73.0
19:40:28.839000,614.0,1111.0,20.0,-713.0,-480.0,209.0,525.0,-559.0,-73.0
19:40:28.843000,592.0,1085.0,11.0,-737.0,-508.0,209.0,526.0,-571.0,-67.0
19:40:28.848000,579.0,1058.0,4.0,-737.0,-508.0,209.0,526.0,-571.0,-67.0
19:40:28.852000,572.0,1029.0,15.0,-727.0,-523.0,203.0,526.0,-571.0,-67.0
19:40:28.857000,563.0,998.0,32.0,-727.0,-498.0,209.0,535.0,-568.0,-66.0
19:40:28.862000,546.0,966.0,49.0,-727.0,-498.0,209.0,535.0,-568.0,-66.0
19:40:28.867000,533.0,934.0,46.0,-736.0,-456.0,207.0,523.0,-567.0,-64.0
19:40:28.872000,520.0,898.0,25.0,-740.0,-415.0,203.0,523.0,-567.0,-64.0
19:40:28.876000,501.0,861.0,16.0,-721.0,-411.0,201.0,523.0,-567.0,-64.0
19:40:28.881000,476.0,831.0,23.0,-695.0,-443.0,197.0,555.0,-574.0,-45.0
19:40:28.886000,456.0,803.0,24.0,-687.0,-478.0,184.0,555.0,-574.0,-45.0
19:40:28.890000,438.0,767.0,16.0,-692.0,-503.0,166.0,543.0,-571.0,-37.0
19:40:28.895000,422.0,732.0,-7.0,-700.0,-521.0,143.0,543.0,-571.0,-37.0
19:40:28.899000,422.0,732.0,-7.0,-709.0,-528.0,115.0,543.0,-571.0,-37.0
19:40:28.904000,396.0,661.0,-62.0,-714.0,-537.0,108.0,544.0,-582.0,-37.0
19:40:28.909000,396.0,661.0,-62.0,-698.0,-575.0,101.0,544.0,-582.0,-37.0
19:40:28.914000,387.0,620.0,-74.0,-667.0,-630.0,88.0,550.0,-573.0,-31.0
19:40:28.919000,375.0,586.0,-93.0,-640.0,-653.0,72.0,550.0,-573.0,-31.0
19:40:28.923000,370.0,555.0,-130.0,-632.0,-625.0,60.0,550.0,-573.0,-31.0
19:40:28.928000,371.0,513.0,-171.0,-638.0,-603.0,50.0,555.0,-579.0,-6.0
19:40:28.933000,372.0,473.0,-203.0,-650.0,-608.0,35.0,555.0,-579.0,-6.0
19:40:28.937000,364.0,436.0,-228.0,-669.0,-626.0,24.0,555.0,-579.0,-6.0
19:40:28.942000,351.0,405.0,-247.0,-691.0,-636.0,16.0,555.0,-579.0,-6.0
19:40:28.946000,328.0,371.0,-284.0,-702.0,-614.0,10.0,555.0,-579.0,-6.0
19:40:28.951000,303.0,338.0,-344.0,-693.0,-589.0,0.0,570.0,-585.0,-10.0
19:40:28.956000,282.0,311.0,-380.0,-692.0,-585.0,-12.0,570.0,-585.0,-10.0
19:40:28.961000,261.0,283.0,-367.0,-692.0,-585.0,-12.0,570.0,-576.0,-13.0
19:40:28.966000,244.0,247.0,-366.0,-753.0,-599.0,-24.0,570.0,-576.0,-13.0
19:40:28.970000,231.0,221.0,-397.0,-753.0,-604.0,-24.0,570.0,-576.0,-13.0
19:40:28.975000,228.0,191.0,-415.0,-787.0,-623.0,-36.0,571.0,-583.0,-10.0
19:40:28.980000,229.0,165.0,-415.0,-787.0,-623.0,-36.0,571.0,-583.0,-10.0
19:40:28.984000,228.0,137.0,-399.0,-792.0,-651.0,-39.0,570.0,-571.0,-9.0
19:40:28.989000,234.0,109.0,-386.0,-809.0,-665.0,-36.0,570.0,-571.0,-9.0
19:40:28.993000,241.0,88.0,-392.0,-829.0,-662.0,-33.0,570.0,-571.0,-9.0
19:40:28.998000,251.0,71.0,-414.0,-825.0,-671.0,-29.0,577.0,-571.0,-13.0
19:40:29.003000,263.0,56.0,-398.0,-813.0,-719.0,-24.0,577.0,-571.0,-13.0
19:40:29.008000,275.0,43.0,-350.0,-807.0,-773.0,-19.0,574.0,-585.0,1.0
19:40:29.013000,280.0,34.0,-316.0,-804.0,-781.0,-18.0,574.0,-585.0,1.0
19:40:29.017000,280.0,34.0,-316.0,-816.0,-728.0,-15.0,574.0,-585.0,1.0
19:40:29.022000,273.0,28.0,-305.0,-839.0,-643.0,-19.0,579.0,-571.0,-3.0
19:40:29.027000,271.0,21.0,-317.0,-865.0,-576.0,-25.0,579.0,-571.0,-3.0
19:40:29.031000,266.0,10.0,-334.0,-896.0,-534.0,-31.0,574.0,-573.0,9.0
19:40:29.036000,262.0,-2.0,-331.0,-927.0,-526.0,-36.0,574.0,-573.0,9.0
19:40:29.040000,242.0,-13.0,-324.0,-948.0,-545.0,-41.0,574.0,-573.0,9.0
19:40:29.045000,213.0,-15.0,-322.0,-966.0,-552.0,-56.0,576.0,-574.0,3.0
19:40:29.050000,193.0,-15.0,-305.0,-985.0,-563.0,-70.0,576.0,-574.0,3.0
19:40:29.055000,175.0,-20.0,-269.0,-1006.0,-586.0,-80.0,582.0,-570.0,3.0
19:40:29.059000,155.0,-27.0,-233.0,-1020.0,-592.0,-88.0,582.0,-570.0,3.0
19:40:29.064000,137.0,-35.0,-220.0,-1011.0,-601.0,-101.0,582.0,-570.0,3.0
19:40:29.069000,136.0,-45.0,-207.0,-977.0,-624.0,-115.0,558.0,-567.0,21.0
19:40:29.074000,140.0,-55.0,-191.0,-961.0,-629.0,-121.0,558.0,-567.0,21.0
19:40:29.078000,141.0,-62.0,-187.0,-961.0,-629.0,-121.0,558.0,-567.0,21.0
19:40:29.083000,135.0,-65.0,-208.0,-970.0,-628.0,-133.0,558.0,-567.0,21.0
19:40:29.087000,126.0,-70.0,-232.0,-966.0,-605.0,-138.0,558.0,-567.0,21.0
19:40:29.092000,109.0,-65.0,-267.0,-950.0,-572.0,-143.0,582.0,-562.0,3.0
19:40:29.097000,85.0,-65.0,-263.0,-939.0,-560.0,-148.0,582.0,-562.0,3.0
19:40:29.102000,60.0,-84.0,-200.0,-966.0,-520.0,-134.0,582.0,-568.0,6.0
19:40:29.106000,77.0,-112.0,-176.0,-1010.0,-458.0,-123.0,582.0,-568.0,6.0
19:40:29.111000,74.0,-105.0,-272.0,-973.0,-556.0,-135.0,582.0,-568.0,6.0
19:40:29.116000,107.0,-112.0,-334.0,-884.0,-700.0,-153.0,582.0,-562.0,7.0
19:40:29.121000,125.0,-116.0,-288.0,-825.0,-689.0,-150.0,582.0,-562.0,7.0
19:40:29.125000,105.0,-133.0,-181.0,-822.0,-605.0,-122.0,579.0,-558.0,4.0
19:40:29.130000,105.0,-133.0,-181.0,-878.0,-501.0,-106.0,579.0,-558.0,4.0
19:40:29.134000,83.0,-151.0,-99.0,-943.0,-405.0,-108.0,579.0,-558.0,4.0
19:40:29.139000,62.0,-162.0,-116.0,-968.0,-374.0,-99.0,586.0,-553.0,7.0
19:40:29.144000,49.0,-181.0,-163.0,-938.0,-422.0,-90.0,586.0,-553.0,7.0
19:40:29.149000,49.0,-203.0,-155.0,-893.0,-491.0,-84.0,583.0,-570.0,7.0
19:40:29.153000,46.0,-219.0,-96.0,-877.0,-551.0,-72.0,583.0,-570.0,7.0
19:40:29.161000,46.0,-247.0,23.0,-924.0,-533.0,-53.0,577.0,-570.0,6.0
19:40:29.163000,46.0,-247.0,23.0,-924.0,-533.0,-53.0,577.0,-570.0,6.0
19:40:29.167000,42.0,-259.0,23.0,-942.0,-463.0,-41.0,577.0,-570.0,6.0
19:40:29.172000,36.0,-268.0,-4.0,-938.0,-402.0,-37.0,580.0,-559.0,7.0
19:40:29.177000,35.0,-276.0,-37.0,-920.0,-412.0,-27.0,580.0,-559.0,7.0
19:40:29.182000,21.0,-279.0,-51.0,-920.0,-412.0,-27.0,577.0,-558.0,1.0
19:40:29.186000,15.0,-280.0,-72.0,-866.0,-504.0,-16.0,577.0,-558.0,1.0
19:40:29.190000,6.0,-279.0,-84.0,-866.0,-504.0,-16.0,577.0,-558.0,1.0
19:40:29.196000,-4.0,-278.0,-51.0,-858.0,-509.0,-13.0,583.0,-553.0,-1.0
19:40:29.200000,-23.0,-280.0,-11.0,-879.0,-493.0,-6.0,583.0,-553.0,-1.0
19:40:29.205000,-30.0,-287.0,-7.0,-929.0,-430.0,-9.0,576.0,-561.0,-4.0
19:40:29.210000,-31.0,-289.0,-25.0,-929.0,-430.0,-9.0,576.0,-561.0,-4.0
19:40:29.214000,-32.0,-278.0,-37.0,-921.0,-450.0,-18.0,576.0,-561.0,-4.0
19:40:29.219000,-20.0,-272.0,-36.0,-917.0,-471.0,-29.0,577.0,-559.0,-10.0
19:40:29.224000,-17.0,-265.0,-29.0,-917.0,-475.0,-34.0,577.0,-559.0,-10.0
19:40:29.229000,-21.0,-259.0,-15.0,-918.0,-460.0,-29.0,577.0,-567.0,3.0
19:40:29.233000,-33.0,-252.0,-5.0,-921.0,-436.0,-25.0,577.0,-567.0,3.0
19:40:29.237000,-33.0,-252.0,-5.0,-925.0,-405.0,-20.0,577.0,-567.0,3.0
19:40:29.243000,-53.0,-247.0,-10.0,-923.0,-382.0,-19.0,567.0,-558.0,0.0
19:40:29.247000,-68.0,-249.0,-8.0,-911.0,-394.0,-24.0,567.0,-558.0,0.0
19:40:29.252000,-86.0,-252.0,5.0,-899.0,-417.0,-31.0,573.0,-556.0,-4.0
19:40:29.257000,-102.0,-257.0,21.0,-891.0,-433.0,-45.0,573.0,-556.0,-4.0
19:40:29.261000,-112.0,-263.0,25.0,-878.0,-431.0,-60.0,573.0,-556.0,-4.0
19:40:29.266000,-114.0,-274.0,12.0,-859.0,-426.0,-74.0,573.0,-562.0,-7.0
19:40:29.271000,-117.0,-284.0,-3.0,-840.0,-432.0,-84.0,573.0,-562.0,-7.0
19:40:29.276000,-122.0,-296.0,-7.0,-829.0,-446.0,-94.0,585.0,-562.0,-12.0
19:40:29.280000,-127.0,-312.0,0.0,-820.0,-458.0,-102.0,585.0,-562.0,-12.0
19:40:29.284000,-133.0,-330.0,7.0,-807.0,-471.0,-114.0,585.0,-562.0,-12.0
19:40:29.290000,-139.0,-350.0,2.0,-785.0,-495.0,-127.0,564.0,-556.0,-10.0
19:40:29.294000,-144.0,-371.0,3.0,-766.0,-513.0,-140.0,564.0,-556.0,-10.0
19:40:29.299000,-158.0,-392.0,0.0,-766.0,-513.0,-140.0,573.0,-561.0,-9.0
19:40:29.304000,-175.0,-413.0,-1.0,-762.0,-503.0,-153.0,573.0,-561.0,-9.0
19:40:29.308000,-191.0,-440.0,-14.0,-778.0,-472.0,-164.0,573.0,-561.0,-9.0
19:40:29.313000,-212.0,-464.0,-51.0,-807.0,-432.0,-169.0,568.0,-558.0,-21.0
19:40:29.318000,-231.0,-481.0,-109.0,-833.0,-394.0,-177.0,568.0,-558.0,-21.0
19:40:29.323000,-252.0,-504.0,-168.0,-852.0,-362.0,-184.0,567.0,-543.0,-19.0
19:40:29.327000,-277.0,-532.0,-216.0,-868.0,-331.0,-181.0,567.0,-543.0,-19.0
19:40:29.331000,-277.0,-532.0,-216.0,-876.0,-308.0,-170.0,567.0,-543.0,-19.0
19:40:29.337000,-348.0,-592.0,-293.0,-858.0,-304.0,-158.0,571.0,-547.0,-18.0
19:40:29.341000,-386.0,-621.0,-328.0,-818.0,-306.0,-147.0,571.0,-547.0,-18.0
19:40:29.346000,-386.0,-621.0,-328.0,-779.0,-292.0,-136.0,562.0,-549.0,-9.0
19:40:29.351000,-428.0,-651.0,-359.0,-761.0,-246.0,-122.0,562.0,-549.0,-9.0
19:40:29.355000,-478.0,-680.0,-392.0,-773.0,-171.0,-104.0,562.0,-549.0,-9.0
19:40:29.360000,-534.0,-711.0,-420.0,-802.0,-97.0,-83.0,559.0,-547.0,-33.0
19:40:29.365000,-599.0,-738.0,-443.0,-837.0,-49.0,-61.0,559.0,-547.0,-33.0
19:40:29.370000,-665.0,-767.0,-451.0,-872.0,-35.0,-35.0,565.0,-547.0,-33.0
19:40:29.374000,-734.0,-795.0,-446.0,-898.0,-50.0,-6.0,565.0,-547.0,-33.0
19:40:29.378000,-803.0,-819.0,-427.0,-922.0,-82.0,15.0,565.0,-547.0,-33.0
19:40:29.384000,-863.0,-840.0,-398.0,-956.0,-125.0,32.0,561.0,-525.0,-34.0
19:40:29.388000,-926.0,-845.0,-336.0,-998.0,-158.0,50.0,561.0,-525.0,-34.0
19:40:29.393000,-991.0,-845.0,-263.0,-1052.0,-154.0,69.0,553.0,-516.0,-43.0
19:40:29.398000,-1051.0,-838.0,-236.0,-1105.0,-152.0,92.0,553.0,-516.0,-43.0
19:40:29.402000,-1108.0,-823.0,-221.0,-1126.0,-170.0,112.0,553.0,-516.0,-43.0
19:40:29.407000,-1164.0,-794.0,-187.0,-1126.0,-183.0,127.0,544.0,-519.0,-60.0
19:40:29.412000,-1227.0,-752.0,-182.0,-1123.0,-183.0,127.0,544.0,-519.0,-60.0
19:40:29.417000,-1259.0,-705.0,-243.0,-1120.0,-187.0,125.0,550.0,-508.0,-63.0
19:40:29.421000,-1291.0,-654.0,-312.0,-1105.0,-198.0,122.0,550.0,-508.0,-63.0
19:40:29.425000,-1324.0,-612.0,-345.0,-1053.0,-281.0,147.0,550.0,-508.0,-63.0
19:40:29.431000,-1353.0,-587.0,-345.0,-1053.0,-281.0,147.0,543.0,-496.0,-72.0
19:40:29.435000,-1376.0,-581.0,-363.0,-1021.0,-301.0,165.0,543.0,-496.0,-72.0
19:40:29.440000,-1395.0,-582.0,-413.0,-976.0,-307.0,179.0,544.0,-498.0,-69.0
19:40:29.445000,-1407.0,-599.0,-476.0,-915.0,-305.0,190.0,544.0,-498.0,-69.0
19:40:29.449000,-1407.0,-599.0,-476.0,-847.0,-302.0,204.0,544.0,-498.0,-69.0
19:40:29.454000,-1421.0,-660.0,-533.0,-782.0,-286.0,214.0,535.0,-493.0,-82.0
19:40:29.459000,-1421.0,-660.0,-533.0,-749.0,-242.0,223.0,535.0,-493.0,-82.0
19:40:29.464000,-1439.0,-693.0,-555.0,-760.0,-166.0,238.0,538.0,-465.0,-82.0
19:40:29.468000,-1467.0,-728.0,-597.0,-800.0,-87.0,252.0,538.0,-465.0,-82.0
19:40:29.472000,-1500.0,-766.0,-665.0,-829.0,-34.0,262.0,538.0,-465.0,-82.0
19:40:29.478000,-1542.0,-807.0,-719.0,-825.0,-48.0,276.0,532.0,-454.0,-94.0
19:40:29.482000,-1584.0,-854.0,-723.0,-801.0,-95.0,296.0,532.0,-454.0,-94.0
19:40:29.487000,-1620.0,-905.0,-690.0,-788.0,-134.0,320.0,534.0,-445.0,-96.0
19:40:29.492000,-1654.0,-955.0,-659.0,-788.0,-145.0,346.0,534.0,-445.0,-96.0
19:40:29.496000,-1701.0,-1002.0,-634.0,-792.0,-128.0,375.0,534.0,-445.0,-96.0
19:40:29.501000,-1750.0,-1050.0,-613.0,-799.0,-104.0,402.0,513.0,-429.0,-96.0
19:40:29.506000,-1801.0,-1094.0,-599.0,-806.0,-74.0,435.0,513.0,-429.0,-96.0
19:40:29.510000,-1867.0,-1141.0,-585.0,-808.0,-43.0,475.0,513.0,-420.0,-100.0
19:40:29.515000,-1950.0,-1187.0,-583.0,-798.0,3.0,514.0,513.0,-420.0,-100.0
19:40:29.519000,-2036.0,-1233.0,-589.0,-798.0,3.0,514.0,513.0,-420.0,-100.0
19:40:29.525000,-2126.0,-1282.0,-602.0,-786.0,49.0,552.0,501.0,-414.0,-99.0
19:40:29.529000,-2219.0,-1340.0,-623.0,-778.0,95.0,603.0,501.0,-414.0,-99.0
19:40:29.534000,-2313.0,-1404.0,-646.0,-768.0,124.0,660.0,490.0,-379.0,-112.0
19:40:29.539000,-2408.0,-1463.0,-671.0,-759.0,145.0,698.0,490.0,-379.0,-112.0
19:40:29.543000,-2508.0,-1521.0,-700.0,-758.0,173.0,737.0,490.0,-379.0,-112.0
19:40:29.548000,-2599.0,-1574.0,-722.0,-762.0,181.0,777.0,493.0,-363.0,-135.0
19:40:29.553000,-2676.0,-1616.0,-725.0,-761.0,150.0,793.0,493.0,-363.0,-135.0
19:40:29.558000,-2741.0,-1643.0,-727.0,-757.0,109.0,793.0,472.0,-346.0,-112.0
19:40:29.562000,-2804.0,-1665.0,-742.0,-771.0,95.0,799.0,472.0,-346.0,-112.0
19:40:29.566000,-2804.0,-1665.0,-742.0,-788.0,135.0,819.0,472.0,-346.0,-112.0
19:40:29.572000,-2867.0,-1691.0,-767.0,-794.0,193.0,854.0,468.0,-333.0,-118.0
19:40:29.576000,-2926.0,-1722.0,-787.0,-791.0,208.0,903.0,468.0,-333.0,-118.0
19:40:29.581000,-2980.0,-1759.0,-794.0,-779.0,172.0,953.0,447.0,-306.0,-127.0
19:40:29.586000,-3020.0,-1792.0,-792.0,-764.0,88.0,993.0,447.0,-306.0,-127.0
19:40:29.590000,-3038.0,-1822.0,-780.0,-750.0,-14.0,1023.0,447.0,-306.0,-127.0
19:40:29.595000,-3035.0,-1845.0,-765.0,-742.0,-88.0,1038.0,436.0,-270.0,-123.0
19:40:29.600000,-3026.0,-1852.0,-764.0,-756.0,-120.0,1047.0,436.0,-270.0,-123.0
19:40:29.605000,-3007.0,-1850.0,-782.0,-763.0,-103.0,1043.0,424.0,-243.0,-117.0
19:40:29.609000,-2979.0,-1834.0,-800.0,-755.0,-66.0,1031.0,424.0,-243.0,-117.0
19:40:29.613000,-2956.0,-1803.0,-803.0,-766.0,-14.0,1037.0,424.0,-243.0,-117.0
19:40:29.619000,-2946.0,-1773.0,-793.0,-784.0,78.0,1041.0,411.0,-231.0,-121.0
19:40:29.623000,-2933.0,-1733.0,-791.0,-802.0,150.0,1037.0,411.0,-231.0,-121.0
19:40:29.628000,-2909.0,-1690.0,-783.0,-802.0,150.0,1037.0,388.0,-214.0,-114.0
19:40:29.633000,-2876.0,-1646.0,-744.0,-789.0,128.0,1055.0,388.0,-214.0,-114.0
19:40:29.637000,-2835.0,-1601.0,-690.0,-789.0,128.0,1055.0,388.0,-214.0,-114.0
19:40:29.642000,-2783.0,-1553.0,-642.0,-773.0,106.0,1063.0,367.0,-193.0,-84.0
19:40:29.647000,-2730.0,-1500.0,-599.0,-753.0,103.0,1072.0,367.0,-193.0,-84.0
19:40:29.652000,-2676.0,-1446.0,-539.0,-720.0,103.0,1083.0,366.0,-171.0,-99.0
19:40:29.656000,-2622.0,-1381.0,-468.0,-697.0,103.0,1082.0,366.0,-171.0,-99.0
19:40:29.660000,-2622.0,-1381.0,-468.0,-705.0,118.0,1076.0,366.0,-171.0,-99.0
19:40:29.666000,-2524.0,-1231.0,-352.0,-737.0,154.0,1066.0,351.0,-162.0,-87.0
19:40:29.670000,-2480.0,-1146.0,-298.0,-773.0,187.0,1052.0,351.0,-162.0,-87.0
19:40:29.675000,-2480.0,-1146.0,-298.0,-800.0,215.0,1039.0,343.0,-135.0,-61.0
19:40:29.680000,-2433.0,-1054.0,-242.0,-816.0,241.0,1026.0,343.0,-135.0,-61.0
19:40:29.684000,-2386.0,-962.0,-205.0,-815.0,251.0,1019.0,343.0,-135.0,-61.0
19:40:29.689000,-2335.0,-873.0,-182.0,-799.0,243.0,1019.0,339.0,-120.0,-61.0
19:40:29.694000,-2285.0,-784.0,-175.0,-785.0,218.0,1013.0,339.0,-120.0,-61.0
19:40:29.699000,-2225.0,-683.0,-165.0,-789.0,167.0,988.0,328.0,-102.0,-48.0
19:40:29.703000,-2164.0,-581.0,-127.0,-791.0,107.0,964.0,328.0,-102.0,-48.0
19:40:29.707000,-2109.0,-501.0,-50.0,-761.0,88.0,939.0,328.0,-102.0,-48.0
19:40:29.713000,-2055.0,-420.0,39.0,-740.0,141.0,913.0,330.0,-99.0,-39.0
19:40:29.717000,-2014.0,-318.0,86.0,-753.0,239.0,888.0,330.0,-99.0,-39.0
19:40:29.722000,-1950.0,-228.0,101.0,-752.0,284.0,881.0,324.0,-90.0,-34.0
19:40:29.727000,-1935.0,-150.0,119.0,-705.0,291.0,863.0,324.0,-90.0,-34.0
19:40:29.732000,-1884.0,-98.0,132.0,-705.0,291.0,863.0,334.0,-79.0,-19.0
19:40:29.736000,-1832.0,-44.0,135.0,-638.0,314.0,817.0,334.0,-79.0,-19.0
19:40:29.740000,-1788.0,20.0,156.0,-599.0,284.0,794.0,334.0,-79.0,-19.0
19:40:29.746000,-1724.0,82.0,191.0,-608.0,223.0,782.0,330.0,-75.0,-15.0
19:40:29.750000,-1659.0,136.0,214.0,-648.0,209.0,777.0,330.0,-75.0,-15.0
19:40:29.755000,-1596.0,179.0,205.0,-670.0,238.0,782.0,328.0,-58.0,15.0
19:40:29.760000,-1554.0,210.0,178.0,-639.0,286.0,791.0,328.0,-58.0,15.0
19:40:29.764000,-1516.0,242.0,143.0,-560.0,337.0,788.0,328.0,-58.0,15.0
19:40:29.769000,-1485.0,273.0,135.0,-507.0,370.0,780.0,325.0,-58.0,40.0
19:40:29.774000,-1453.0,301.0,128.0,-530.0,390.0,773.0,325.0,-58.0,40.0
19:40:29.779000,-1420.0,322.0,86.0,-579.0,435.0,761.0,333.0,-48.0,36.0
19:40:29.783000,-1420.0,322.0,86.0,-589.0,460.0,750.0,333.0,-48.0,36.0
19:40:29.787000,-1385.0,344.0,62.0,-570.0,437.0,749.0,333.0,-48.0,36.0
19:40:29.793000,-1368.0,368.0,65.0,-562.0,445.0,751.0,330.0,-45.0,37.0
19:40:29.797000,-1342.0,392.0,46.0,-563.0,472.0,747.0,330.0,-45.0,37.0
19:40:29.802000,-1304.0,410.0,29.0,-557.0,449.0,740.0,342.0,-37.0,43.0
19:40:29.807000,-1266.0,428.0,53.0,-557.0,404.0,729.0,342.0,-37.0,43.0
19:40:29.814000,-1199.0,490.0,73.0,-620.0,435.0,694.0,342.0,-25.0,54.0
19:40:29.816000,-1199.0,490.0,73.0,-620.0,435.0,694.0,342.0,-25.0,54.0
19:40:29.820000,-1159.0,521.0,40.0,-625.0,469.0,681.0,342.0,-25.0,54.0
19:40:29.826000,-1125.0,555.0,25.0,-592.0,485.0,665.0,333.0,-36.0,60.0
19:40:29.830000,-1099.0,590.0,31.0,-575.0,492.0,648.0,333.0,-36.0,60.0
19:40:29.835000,-1065.0,627.0,16.0,-575.0,492.0,648.0,346.0,-28.0,82.0
19:40:29.840000,-1031.0,659.0,-18.0,-572.0,509.0,616.0,346.0,-28.0,82.0
19:40:29.844000,-998.0,683.0,-48.0,-553.0,499.0,610.0,346.0,-28.0,82.0
19:40:29.849000,-967.0,704.0,-65.0,-553.0,499.0,610.0,348.0,-22.0,81.0
19:40:29.854000,-924.0,723.0,-105.0,-522.0,491.0,595.0,348.0,-22.0,81.0
19:40:29.858000,-872.0,734.0,-149.0,-454.0,481.0,558.0,351.0,-15.0,93.0
19:40:29.863000,-820.0,744.0,-184.0,-454.0,481.0,558.0,351.0,-15.0,93.0
19:40:29.867000,-773.0,757.0,-212.0,-445.0,484.0,536.0,351.0,-15.0,93.0
19:40:29.873000,-723.0,763.0,-255.0,-470.0,498.0,518.0,354.0,-15.0,94.0
19:40:29.877000,-675.0,770.0,-295.0,-503.0,511.0,497.0,354.0,-15.0,94.0
19:40:29.882000,-639.0,781.0,-322.0,-521.0,519.0,477.0,346.0,-13.0,97.0
19:40:29.887000,-613.0,796.0,-348.0,-535.0,543.0,462.0,346.0,-13.0,97.0
