hh:mm:ss.ms,gyroX[mdps],gyroY[mdps],gyroZ[mdps],accX[mg],accY[mg],accZ[mg],magX[mG],magY[mG],magZ[mG]
19:44:01.957000,41.0,-316.0,-171.0,-1870.0,-74.0,-104.0,0.0,0.0,0.0
19:44:01.962000,39.0,-317.0,-276.0,-1782.0,-132.0,-133.0,0.0,0.0,0.0
19:44:01.966000,32.0,-347.0,-333.0,-1782.0,-132.0,-133.0,0.0,0.0,0.0
19:44:01.971000,-9.0,-334.0,-417.0,-1505.0,39.0,-136.0,0.0,0.0,0.0
19:44:01.976000,46.0,-336.0,-683.0,-1505.0,39.0,-136.0,0.0,0.0,0.0
19:44:01.980000,149.0,-327.0,-586.0,-1403.0,-115.0,-185.0,0.0,0.0,0.0
19:44:01.985000,192.0,-318.0,-521.0,-1403.0,-115.0,-185.0,0.0,0.0,0.0
19:44:01.990000,200.0,-345.0,-345.0,-1325.0,-331.0,-153.0,0.0,0.0,0.0
19:44:01.994000,43.0,-314.0,-259.0,-1325.0,-331.0,-153.0,0.0,0.0,0.0
19:44:01.999000,-56.0,-291.0,-339.0,-1325.0,-331.0,-153.0,0.0,0.0,0.0
19:44:02.004000,-71.0,-256.0,-238.0,-1231.0,-303.0,-52.0,0.0,0.0,0.0
19:44:02.009000,-128.0,-245.0,-81.0,-1231.0,-303.0,-52.0,0.0,0.0,0.0
19:44:02.013000,-160.0,-218.0,161.0,-1082.0,-559.0,-2.0,0.0,0.0,0.0
19:44:02.018000,-184.0,-236.0,179.0,-1082.0,-559.0,-2.0,0.0,0.0,0.0
19:44:02.023000,-111.0,-196.0,200.0,-743.0,-899.0,42.0,0.0,0.0,0.0
19:44:02.027000,-19.0,-176.0,254.0,-743.0,-899.0,42.0,0.0,0.0,0.0
19:44:02.032000,-39.0,-173.0,103.0,-466.0,-1102.0,56.0,0.0,0.0,0.0
19:44:02.037000,0.0,-165.0,20.0,-466.0,-1102.0,56.0,0.0,0.0,0.0
19:44:02.041000,109.0,-176.0,-32.0,-384.0,-1165.0,87.0,0.0,0.0,0.0
19:44:02.046000,109.0,-176.0,-32.0,-384.0,-1165.0,87.0,0.0,0.0,0.0
19:44:02.051000,169.0,-180.0,-178.0,-481.0,-1106.0,98.0,0.0,0.0,0.0
19:44:02.056000,229.0,-150.0,-272.0,-481.0,-1106.0,98.0,0.0,0.0,0.0
19:44:02.060000,275.0,-152.0,-521.0,-665.0,-949.0,58.0,0.0,0.0,0.0
19:44:02.065000,279.0,-151.0,-650.0,-665.0,-949.0,58.0,0.0,0.0,0.0
19:44:02.070000,144.0,-168.0,-830.0,-737.0,-649.0,97.0,0.0,0.0,0.0
19:44:02.074000,94.0,-199.0,-1048.0,-737.0,-649.0,97.0,0.0,0.0,0.0
19:44:02.079000,-21.0,-155.0,-837.0,-599.0,-539.0,127.0,0.0,0.0,0.0
19:44:02.084000,-56.0,-130.0,-791.0,-599.0,-539.0,127.0,0.0,0.0,0.0
19:44:02.088000,-4.0,-133.0,-918.0,-719.0,-650.0,80.0,0.0,0.0,0.0
19:44:02.093000,44.0,-147.0,-843.0,-719.0,-650.0,80.0,0.0,0.0,0.0
19:44:02.097000,-13.0,-174.0,-617.0,-822.0,-577.0,61.0,0.0,0.0,0.0
19:44:02.103000,-124.0,-228.0,-543.0,-822.0,-577.0,61.0,0.0,0.0,0.0
19:44:02.107000,-135.0,-185.0,-369.0,-822.0,-577.0,61.0,0.0,0.0,0.0
19:44:02.112000,-147.0,-234.0,-498.0,-660.0,-449.0,52.0,0.0,0.0,0.0
19:44:02.117000,-165.0,-251.0,-679.0,-660.0,-449.0,52.0,0.0,0.0,0.0
19:44:02.121000,-196.0,-221.0,-513.0,-736.0,-486.0,61.0,0.0,0.0,0.0
19:44:02.126000,-128.0,-156.0,-347.0,-736.0,-486.0,61.0,0.0,0.0,0.0
19:44:02.131000,-34.0,-135.0,-219.0,-830.0,-607.0,66.0,0.0,0.0,0.0
19:44:02.135000,42.0,-120.0,-228.0,-830.0,-607.0,66.0,0.0,0.0,0.0
19:44:02.140000,43.0,-105.0,-135.0,-812.0,-692.0,51.0,0.0,0.0,0.0
19:44:02.145000,55.0,-72.0,-14.0,-812.0,-692.0,51.0,0.0,0.0,0.0
19:44:02.150000,-23.0,-77.0,73.0,-767.0,-667.0,71.0,0.0,0.0,0.0
19:44:02.154000,-23.0,-77.0,73.0,-767.0,-667.0,71.0,0.0,0.0,0.0
19:44:02.159000,-39.0,-44.0,182.0,-741.0,-656.0,113.0,0.0,0.0,0.0
19:44:02.164000,144.0,-18.0,61.0,-741.0,-656.0,113.0,0.0,0.0,0.0
19:44:02.168000,263.0,0.0,-137.0,-798.0,-703.0,136.0,0.0,0.0,0.0
19:44:02.173000,304.0,4.0,-313.0,-798.0,-703.0,136.0,0.0,0.0,0.0
19:44:02.178000,361.0,5.0,-277.0,-765.0,-688.0,137.0,0.0,0.0,0.0
19:44:02.182000,415.0,24.0,-48.0,-765.0,-688.0,137.0,0.0,0.0,0.0
19:44:02.187000,367.0,11.0,-39.0,-701.0,-565.0,169.0,0.0,0.0,0.0
19:44:02.192000,314.0,39.0,-100.0,-701.0,-565.0,169.0,0.0,0.0,0.0
19:44:02.197000,254.0,97.0,-247.0,-842.0,-521.0,195.0,0.0,0.0,0.0
19:44:02.201000,210.0,126.0,-429.0,-842.0,-521.0,195.0,0.0,0.0,0.0
19:44:02.206000,170.0,189.0,-466.0,-949.0,-536.0,207.0,0.0,0.0,0.0
19:44:02.211000,242.0,194.0,-448.0,-949.0,-536.0,207.0,0.0,0.0,0.0
19:44:02.215000,238.0,186.0,-241.0,-779.0,-490.0,203.0,0.0,0.0,0.0
19:44:02.220000,230.0,189.0,-184.0,-779.0,-490.0,203.0,0.0,0.0,0.0
19:44:02.225000,187.0,164.0,-253.0,-779.0,-490.0,203.0,0.0,0.0,0.0
19:44:02.229000,230.0,156.0,-267.0,-756.0,-381.0,187.0,0.0,0.0,0.0
19:44:02.234000,170.0,168.0,-432.0,-756.0,-381.0,187.0,0.0,0.0,0.0
19:44:02.239000,198.0,205.0,-441.0,-962.0,-386.0,184.0,0.0,0.0,0.0
19:44:02.244000,196.0,223.0,-275.0,-962.0,-386.0,184.0,0.0,0.0,0.0
19:44:02.248000,151.0,244.0,-365.0,-977.0,-467.0,197.0,0.0,0.0,0.0
19:44:02.253000,135.0,242.0,-371.0,-977.0,-467.0,197.0,0.0,0.0,0.0
19:44:02.258000,196.0,254.0,-42.0,-838.0,-434.0,204.0,0.0,0.0,0.0
19:44:02.262000,196.0,254.0,144.0,-838.0,-434.0,204.0,0.0,0.0,0.0
19:44:02.267000,196.0,254.0,144.0,-817.0,-396.0,171.0,0.0,0.0,0.0
19:44:02.272000,130.0,238.0,-128.0,-817.0,-396.0,171.0,0.0,0.0,0.0
19:44:02.276000,140.0,239.0,-301.0,-903.0,-511.0,152.0,0.0,0.0,0.0
19:44:02.281000,130.0,243.0,-302.0,-903.0,-511.0,152.0,0.0,0.0,0.0
19:44:02.286000,144.0,258.0,-224.0,-895.0,-666.0,170.0,0.0,0.0,0.0
19:44:02.291000,197.0,239.0,-131.0,-895.0,-666.0,170.0,0.0,0.0,0.0
19:44:02.295000,175.0,277.0,-43.0,-860.0,-608.0,177.0,0.0,0.0,0.0
19:44:02.300000,217.0,282.0,91.0,-860.0,-608.0,177.0,0.0,0.0,0.0
19:44:02.305000,242.0,272.0,117.0,-790.0,-407.0,171.0,0.0,0.0,0.0
19:44:02.309000,312.0,263.0,35.0,-790.0,-407.0,171.0,0.0,0.0,0.0
19:44:02.314000,352.0,252.0,-172.0,-723.0,-350.0,183.0,0.0,0.0,0.0
19:44:02.319000,316.0,233.0,-392.0,-723.0,-350.0,183.0,0.0,0.0,0.0
19:44:02.323000,219.0,293.0,-632.0,-671.0,-319.0,155.0,0.0,0.0,0.0
19:44:02.328000,184.0,329.0,-901.0,-671.0,-319.0,155.0,0.0,0.0,0.0
19:44:02.333000,352.0,273.0,-819.0,-671.0,-319.0,155.0,0.0,0.0,0.0
19:44:02.338000,444.0,258.0,-431.0,-647.0,-540.0,61.0,0.0,0.0,0.0
19:44:02.342000,188.0,308.0,81.0,-647.0,-540.0,61.0,0.0,0.0,0.0
19:44:02.347000,156.0,280.0,212.0,-893.0,-650.0,37.0,0.0,0.0,0.0
19:44:02.352000,204.0,217.0,69.0,-893.0,-650.0,37.0,0.0,0.0,0.0
19:44:02.356000,340.0,170.0,-46.0,-1000.0,-418.0,51.0,0.0,0.0,0.0
19:44:02.361000,294.0,113.0,-58.0,-1000.0,-418.0,51.0,0.0,0.0,0.0
19:44:02.366000,175.0,132.0,-89.0,-723.0,-314.0,80.0,0.0,0.0,0.0
19:44:02.370000,100.0,141.0,-139.0,-723.0,-314.0,80.0,0.0,0.0,0.0
19:44:02.375000,100.0,141.0,-139.0,-739.0,-309.0,126.0,0.0,0.0,0.0
19:44:02.380000,126.0,92.0,-2.0,-739.0,-309.0,126.0,0.0,0.0,0.0
19:44:02.385000,120.0,104.0,133.0,-884.0,-442.0,97.0,0.0,0.0,0.0
19:44:02.389000,109.0,132.0,80.0,-884.0,-442.0,97.0,0.0,0.0,0.0
19:44:02.394000,12.0,134.0,120.0,-815.0,-231.0,88.0,0.0,0.0,0.0
19:44:02.399000,18.0,147.0,194.0,-815.0,-231.0,88.0,0.0,0.0,0.0
19:44:02.403000,39.0,135.0,67.0,-713.0,-168.0,82.0,0.0,0.0,0.0
19:44:02.408000,36.0,144.0,-44.0,-713.0,-168.0,82.0,0.0,0.0,0.0
19:44:02.413000,59.0,141.0,-38.0,-824.0,-527.0,24.0,0.0,0.0,0.0
19:44:02.417000,-6.0,126.0,53.0,-824.0,-527.0,24.0,0.0,0.0,0.0
19:44:02.422000,-52.0,113.0,200.0,-963.0,-473.0,8.0,0.0,0.0,0.0
19:44:02.427000,-93.0,93.0,313.0,-963.0,-473.0,8.0,0.0,0.0,0.0
19:44:02.432000,-93.0,46.0,272.0,-886.0,-363.0,18.0,0.0,0.0,0.0
19:44:02.436000,-119.0,48.0,247.0,-886.0,-363.0,18.0,0.0,0.0,0.0
19:44:02.441000,-72.0,16.0,272.0,-886.0,-363.0,18.0,0.0,0.0,0.0
19:44:02.446000,-65.0,4.0,210.0,-680.0,-504.0,2.0,0.0,0.0,0.0
19:44:02.450000,-58.0,1.0,63.0,-680.0,-504.0,2.0,0.0,0.0,0.0
19:44:02.455000,-128.0,25.0,3.0,-640.0,-492.0,-26.0,0.0,0.0,0.0
19:44:02.460000,-163.0,23.0,25.0,-640.0,-492.0,-26.0,0.0,0.0,0.0
19:44:02.464000,-213.0,-1.0,128.0,-921.0,-395.0,-17.0,0.0,0.0,0.0
19:44:02.469000,-188.0,-16.0,376.0,-921.0,-395.0,-17.0,0.0,0.0,0.0
19:44:02.474000,-149.0,-16.0,365.0,-999.0,-521.0,-5.0,0.0,0.0,0.0
19:44:02.479000,-169.0,-4.0,141.0,-999.0,-521.0,-5.0,0.0,0.0,0.0
19:44:02.483000,-169.0,-4.0,141.0,-924.0,-513.0,15.0,0.0,0.0,0.0
19:44:02.488000,-133.0,-2.0,114.0,-924.0,-513.0,15.0,0.0,0.0,0.0
19:44:02.493000,-139.0,2.0,224.0,-872.0,-396.0,41.0,0.0,0.0,0.0
19:44:02.497000,-160.0,13.0,364.0,-872.0,-396.0,41.0,0.0,0.0,0.0
19:44:02.502000,-167.0,44.0,239.0,-836.0,-439.0,22.0,0.0,0.0,0.0
19:44:02.507000,-182.0,46.0,-34.0,-836.0,-439.0,22.0,0.0,0.0,0.0
19:44:02.511000,-158.0,55.0,31.0,-863.0,-528.0,-9.0,0.0,0.0,0.0
19:44:02.516000,-152.0,65.0,178.0,-863.0,-528.0,-9.0,0.0,0.0,0.0
19:44:02.521000,-109.0,65.0,71.0,-888.0,-490.0,-16.0,0.0,0.0,0.0
19:44:02.526000,-105.0,76.0,-2.0,-888.0,-490.0,-16.0,0.0,0.0,0.0
19:44:02.530000,-123.0,88.0,62.0,-903.0,-523.0,-13.0,0.0,0.0,0.0
19:44:02.535000,-90.0,74.0,155.0,-903.0,-523.0,-13.0,0.0,0.0,0.0
19:44:02.540000,-100.0,86.0,243.0,-871.0,-596.0,-17.0,0.0,0.0,0.0
19:44:02.544000,-82.0,89.0,259.0,-871.0,-596.0,-17.0,0.0,0.0,0.0
19:44:02.549000,-35.0,88.0,158.0,-871.0,-596.0,-17.0,0.0,0.0,0.0
19:44:02.554000,0.0,66.0,7.0,-863.0,-528.0,-22.0,0.0,0.0,0.0
19:44:02.558000,0.0,64.0,7.0,-863.0,-528.0,-22.0,0.0,0.0,0.0
19:44:02.563000,-7.0,77.0,138.0,-844.0,-521.0,-18.0,0.0,0.0,0.0
19:44:02.568000,-22.0,95.0,147.0,-844.0,-521.0,-18.0,0.0,0.0,0.0
19:44:02.572000,-18.0,93.0,114.0,-813.0,-499.0,-11.0,0.0,0.0,0.0
19:44:02.577000,-32.0,92.0,127.0,-813.0,-499.0,-11.0,0.0,0.0,0.0
19:44:02.582000,-42.0,93.0,98.0,-871.0,-479.0,0.0,0.0,0.0,0.0
19:44:02.586000,-42.0,93.0,98.0,-871.0,-479.0,0.0,0.0,0.0,0.0
19:44:02.591000,-23.0,94.0,35.0,-950.0,-485.0,4.0,0.0,0.0,0.0
19:44:02.596000,-39.0,112.0,60.0,-950.0,-485.0,4.0,0.0,0.0,0.0
19:44:02.601000,-21.0,123.0,142.0,-960.0,-509.0,0.0,0.0,0.0,0.0
19:44:02.605000,-39.0,135.0,154.0,-960.0,-509.0,0.0,0.0,0.0,0.0
19:44:02.610000,-46.0,143.0,81.0,-916.0,-478.0,7.0,0.0,0.0,0.0
19:44:02.615000,-54.0,154.0,41.0,-916.0,-478.0,7.0,0.0,0.0,0.0
19:44:02.619000,-77.0,162.0,58.0,-877.0,-469.0,19.0,0.0,0.0,0.0
19:44:02.624000,-78.0,164.0,53.0,-877.0,-469.0,19.0,0.0,0.0,0.0
19:44:02.629000,-76.0,160.0,38.0,-866.0,-519.0,31.0,0.0,0.0,0.0
19:44:02.634000,-77.0,154.0,30.0,-866.0,-519.0,31.0,0.0,0.0,0.0
19:44:02.638000,-84.0,153.0,44.0,-829.0,-522.0,40.0,0.0,0.0,0.0
19:44:02.643000,-56.0,144.0,47.0,-829.0,-522.0,40.0,0.0,0.0,0.0
19:44:02.648000,-19.0,132.0,71.0,-809.0,-561.0,44.0,0.0,0.0,0.0
19:44:02.652000,-16.0,119.0,91.0,-809.0,-561.0,44.0,0.0,0.0,0.0
19:44:02.657000,-13.0,105.0,7.0,-809.0,-561.0,44.0,0.0,0.0,0.0
19:44:02.662000,4.0,96.0,-133.0,-867.0,-538.0,48.0,0.0,0.0,0.0
19:44:02.666000,9.0,91.0,-210.0,-867.0,-538.0,48.0,0.0,0.0,0.0
19:44:02.671000,28.0,84.0,-189.0,-852.0,-478.0,54.0,0.0,0.0,0.0
19:44:02.676000,33.0,76.0,-187.0,-852.0,-478.0,54.0,0.0,0.0,0.0
19:44:02.681000,30.0,70.0,-226.0,-843.0,-509.0,52.0,0.0,0.0,0.0
19:44:02.685000,39.0,76.0,-198.0,-843.0,-509.0,52.0,0.0,0.0,0.0
19:44:02.690000,55.0,78.0,-182.0,-890.0,-530.0,46.0,0.0,0.0,0.0
19:44:02.695000,58.0,58.0,-187.0,-890.0,-530.0,46.0,0.0,0.0,0.0
19:44:02.699000,30.0,53.0,-233.0,-857.0,-498.0,52.0,0.0,0.0,0.0
19:44:02.704000,30.0,53.0,-233.0,-857.0,-498.0,52.0,0.0,0.0,0.0
19:44:02.709000,-2.0,53.0,-268.0,-844.0,-469.0,51.0,0.0,0.0,0.0
19:44:02.713000,-28.0,52.0,-245.0,-844.0,-469.0,51.0,0.0,0.0,0.0
19:44:02.718000,-39.0,58.0,-245.0,-842.0,-430.0,40.0,0.0,0.0,0.0
19:44:02.723000,-29.0,51.0,-317.0,-842.0,-430.0,40.0,0.0,0.0,0.0
19:44:02.728000,-18.0,53.0,-296.0,-905.0,-481.0,33.0,0.0,0.0,0.0
19:44:02.732000,-14.0,54.0,-179.0,-905.0,-481.0,33.0,0.0,0.0,0.0
19:44:02.737000,6.0,59.0,-134.0,-970.0,-539.0,27.0,0.0,0.0,0.0
19:44:02.742000,30.0,62.0,-216.0,-970.0,-539.0,27.0,0.0,0.0,0.0
19:44:02.746000,46.0,70.0,-294.0,-899.0,-448.0,31.0,0.0,0.0,0.0
19:44:02.751000,62.0,77.0,-361.0,-899.0,-448.0,31.0,0.0,0.0,0.0
19:44:02.756000,61.0,94.0,-427.0,-864.0,-408.0,40.0,0.0,0.0,0.0
19:44:02.760000,55.0,115.0,-410.0,-864.0,-408.0,40.0,0.0,0.0,0.0
19:44:02.765000,46.0,128.0,-336.0,-864.0,-408.0,40.0,0.0,0.0,0.0
19:44:02.770000,40.0,137.0,-322.0,-897.0,-484.0,38.0,0.0,0.0,0.0
19:44:02.775000,34.0,151.0,-338.0,-897.0,-484.0,38.0,0.0,0.0,0.0
19:44:02.779000,32.0,160.0,-349.0,-921.0,-465.0,22.0,0.0,0.0,0.0
19:44:02.784000,25.0,168.0,-361.0,-921.0,-465.0,22.0,0.0,0.0,0.0
19:44:02.789000,25.0,174.0,-393.0,-931.0,-411.0,7.0,0.0,0.0,0.0
19:44:02.793000,34.0,177.0,-401.0,-931.0,-411.0,7.0,0.0,0.0,0.0
19:44:02.798000,40.0,177.0,-376.0,-912.0,-432.0,-3.0,0.0,0.0,0.0
19:44:02.803000,51.0,182.0,-363.0,-912.0,-432.0,-3.0,0.0,0.0,0.0
19:44:02.807000,65.0,188.0,-367.0,-870.0,-430.0,-12.0,0.0,0.0,0.0
19:44:02.812000,65.0,188.0,-367.0,-870.0,-430.0,-12.0,0.0,0.0,0.0
19:44:02.817000,77.0,191.0,-386.0,-866.0,-393.0,-16.0,0.0,0.0,0.0
19:44:02.822000,74.0,193.0,-405.0,-866.0,-393.0,-16.0,0.0,0.0,0.0
19:44:02.826000,62.0,194.0,-400.0,-893.0,-376.0,-22.0,0.0,0.0,0.0
19:44:02.831000,67.0,194.0,-406.0,-893.0,-376.0,-22.0,0.0,0.0,0.0
19:44:02.836000,72.0,196.0,-435.0,-908.0,-371.0,-32.0,0.0,0.0,0.0
19:44:02.840000,73.0,194.0,-445.0,-908.0,-371.0,-32.0,0.0,0.0,0.0
19:44:02.845000,74.0,193.0,-421.0,-906.0,-363.0,-40.0,0.0,0.0,0.0
19:44:02.850000,67.0,195.0,-360.0,-906.0,-363.0,-40.0,0.0,0.0,0.0
19:44:02.854000,57.0,193.0,-301.0,-924.0,-380.0,-44.0,0.0,0.0,0.0
19:44:02.859000,58.0,186.0,-276.0,-924.0,-380.0,-44.0,0.0,0.0,0.0
19:44:02.864000,56.0,186.0,-288.0,-959.0,-381.0,-48.0,0.0,0.0,0.0
19:44:02.869000,52.0,185.0,-277.0,-959.0,-381.0,-48.0,0.0,0.0,0.0
19:44:02.873000,40.0,182.0,-266.0,-959.0,-381.0,-48.0,0.0,0.0,0.0
19:44:02.878000,35.0,178.0,-259.0,-961.0,-363.0,-48.0,0.0,0.0,0.0
19:44:02.883000,32.0,171.0,-236.0,-961.0,-363.0,-48.0,0.0,0.0,0.0
19:44:02.887000,30.0,167.0,-214.0,-927.0,-371.0,-49.0,0.0,0.0,0.0
19:44:02.892000,28.0,165.0,-233.0,-927.0,-371.0,-49.0,0.0,0.0,0.0
19:44:02.897000,27.0,164.0,-263.0,-892.0,-358.0,-54.0,0.0,0.0,0.0
19:44:02.901000,25.0,161.0,-283.0,-892.0,-358.0,-54.0,0.0,0.0,0.0
19:44:02.906000,29.0,154.0,-295.0,-902.0,-352.0,-62.0,0.0,0.0,0.0
19:44:02.911000,34.0,148.0,-308.0,-902.0,-352.0,-62.0,0.0,0.0,0.0
19:44:02.916000,35.0,149.0,-343.0,-927.0,-361.0,-75.0,0.0,0.0,0.0
19:44:02.920000,35.0,149.0,-343.0,-927.0,-361.0,-75.0,0.0,0.0,0.0
19:44:02.925000,19.0,141.0,-348.0,-932.0,-322.0,-78.0,0.0,0.0,0.0
19:44:02.930000,2.0,133.0,-329.0,-932.0,-322.0,-78.0,0.0,0.0,0.0
19:44:02.934000,-20.0,130.0,-286.0,-925.0,-315.0,-71.0,0.0,0.0,0.0
19:44:02.939000,-33.0,128.0,-249.0,-925.0,-315.0,-71.0,0.0,0.0,0.0
19:44:02.944000,-30.0,121.0,-285.0,-967.0,-335.0,-72.0,0.0,0.0,0.0
19:44:02.948000,-22.0,112.0,-357.0,-967.0,-335.0,-72.0,0.0,0.0,0.0
19:44:02.953000,-30.0,109.0,-344.0,-970.0,-333.0,-76.0,0.0,0.0,0.0
19:44:02.958000,-39.0,109.0,-284.0,-970.0,-333.0,-76.0,0.0,0.0,0.0
19:44:02.963000,-54.0,107.0,-268.0,-934.0,-313.0,-75.0,0.0,0.0,0.0
19:44:02.967000,-63.0,108.0,-297.0,-934.0,-313.0,-75.0,0.0,0.0,0.0
19:44:02.972000,-70.0,105.0,-333.0,-942.0,-293.0,-77.0,0.0,0.0,0.0
19:44:02.977000,-79.0,102.0,-334.0,-942.0,-293.0,-77.0,0.0,0.0,0.0
19:44:02.981000,-84.0,98.0,-320.0,-942.0,-317.0,-77.0,0.0,0.0,0.0
19:44:02.986000,-84.0,95.0,-330.0,-939.0,-317.0,-80.0,0.0,0.0,0.0
19:44:02.991000,-88.0,93.0,-340.0,-939.0,-317.0,-80.0,0.0,0.0,0.0
19:44:02.995000,-85.0,88.0,-322.0,-941.0,-347.0,-82.0,0.0,0.0,0.0
19:44:03.000000,-79.0,82.0,-323.0,-941.0,-347.0,-82.0,0.0,0.0,0.0
19:44:03.005000,-74.0,75.0,-327.0,-935.0,-334.0,-84.0,0.0,0.0,0.0
19:44:03.010000,-66.0,71.0,-321.0,-935.0,-334.0,-84.0,0.0,0.0,0.0
19:44:03.014000,-58.0,70.0,-312.0,-914.0,-310.0,-89.0,0.0,0.0,0.0
19:44:03.019000,-48.0,70.0,-290.0,-914.0,-310.0,-89.0,0.0,0.0,0.0
19:44:03.024000,-39.0,66.0,-277.0,-924.0,-312.0,-93.0,0.0,0.0,0.0
19:44:03.028000,-39.0,66.0,-277.0,-924.0,-312.0,-93.0,0.0,0.0,0.0
19:44:03.033000,-35.0,64.0,-273.0,-960.0,-322.0,-95.0,0.0,0.0,0.0
19:44:03.038000,-37.0,58.0,-261.0,-960.0,-322.0,-95.0,0.0,0.0,0.0
19:44:03.042000,-27.0,55.0,-249.0,-969.0,-317.0,-101.0,0.0,0.0,0.0
19:44:03.047000,-11.0,54.0,-265.0,-969.0,-317.0,-101.0,0.0,0.0,0.0
19:44:03.052000,-2.0,53.0,-292.0,-962.0,-299.0,-108.0,0.0,0.0,0.0
19:44:03.057000,0.0,52.0,-310.0,-962.0,-299.0,-108.0,0.0,0.0,0.0
19:44:03.061000,-3.0,49.0,-322.0,-957.0,-283.0,-103.0,0.0,0.0,0.0
19:44:03.066000,-9.0,51.0,-343.0,-957.0,-283.0,-103.0,0.0,0.0,0.0
19:44:03.071000,-9.0,53.0,-369.0,-946.0,-269.0,-97.0,0.0,0.0,0.0
19:44:03.075000,-13.0,54.0,-375.0,-946.0,-269.0,-97.0,0.0,0.0,0.0
19:44:03.079000,-15.0,55.0,-352.0,-939.0,-270.0,-96.0,0.0,0.0,0.0
19:44:03.085000,-23.0,55.0,-317.0,-939.0,-270.0,-96.0,0.0,0.0,0.0
19:44:03.089000,-32.0,58.0,-302.0,-969.0,-264.0,-94.0,0.0,0.0,0.0
19:44:03.094000,-44.0,61.0,-309.0,-969.0,-264.0,-94.0,0.0,0.0,0.0
19:44:03.099000,-55.0,65.0,-317.0,-969.0,-264.0,-94.0,0.0,0.0,0.0
19:44:03.104000,-67.0,68.0,-344.0,-1005.0,-236.0,-90.0,0.0,0.0,0.0
19:44:03.108000,-74.0,75.0,-378.0,-1005.0,-236.0,-90.0,0.0,0.0,0.0
19:44:03.113000,-88.0,80.0,-402.0,-988.0,-198.0,-88.0,0.0,0.0,0.0
19:44:03.118000,-95.0,91.0,-394.0,-988.0,-198.0,-88.0,0.0,0.0,0.0
19:44:03.122000,-87.0,98.0,-388.0,-965.0,-186.0,-92.0,0.0,0.0,0.0
19:44:03.127000,-89.0,102.0,-406.0,-965.0,-186.0,-92.0,0.0,0.0,0.0
19:44:03.132000,-91.0,99.0,-404.0,-995.0,-193.0,-96.0,0.0,0.0,0.0
19:44:03.136000,-91.0,99.0,-404.0,-995.0,-193.0,-96.0,0.0,0.0,0.0
19:44:03.141000,-89.0,98.0,-392.0,-1026.0,-203.0,-101.0,0.0,0.0,0.0
19:44:03.146000,-93.0,98.0,-381.0,-1026.0,-203.0,-101.0,0.0,0.0,0.0
19:44:03.151000,-94.0,101.0,-381.0,-1012.0,-222.0,-106.0,0.0,0.0,0.0
19:44:03.155000,-74.0,99.0,-393.0,-1012.0,-222.0,-106.0,0.0,0.0,0.0
19:44:03.160000,-49.0,93.0,-416.0,-982.0,-238.0,-107.0,0.0,0.0,0.0
19:44:03.165000,-23.0,84.0,-419.0,-982.0,-238.0,-107.0,0.0,0.0,0.0
19:44:03.169000,4.0,72.0,-406.0,-949.0,-259.0,-106.0,0.0,0.0,0.0
19:44:03.174000,34.0,53.0,-409.0,-949.0,-259.0,-106.0,0.0,0.0,0.0
19:44:03.179000,63.0,35.0,-413.0,-933.0,-262.0,-105.0,0.0,0.0,0.0
19:44:03.183000,88.0,18.0,-410.0,-933.0,-262.0,-105.0,0.0,0.0,0.0
19:44:03.188000,111.0,0.0,-408.0,-936.0,-234.0,-106.0,0.0,0.0,0.0
19:44:03.193000,126.0,-14.0,-408.0,-936.0,-234.0,-106.0,0.0,0.0,0.0
19:44:03.198000,136.0,-30.0,-399.0,-935.0,-210.0,-105.0,0.0,0.0,0.0
19:44:03.202000,141.0,-44.0,-396.0,-935.0,-210.0,-105.0,0.0,0.0,0.0
19:44:03.207000,141.0,-54.0,-403.0,-935.0,-210.0,-105.0,0.0,0.0,0.0
19:44:03.212000,136.0,-60.0,-408.0,-944.0,-193.0,-104.0,0.0,0.0,0.0
19:44:03.216000,129.0,-64.0,-408.0,-944.0,-193.0,-104.0,0.0,0.0,0.0
19:44:03.221000,119.0,-63.0,-419.0,-963.0,-170.0,-104.0,0.0,0.0,0.0
19:44:03.226000,104.0,-58.0,-458.0,-963.0,-170.0,-104.0,0.0,0.0,0.0
19:44:03.230000,82.0,-49.0,-490.0,-978.0,-151.0,-96.0,0.0,0.0,0.0
19:44:03.235000,63.0,-37.0,-495.0,-978.0,-151.0,-96.0,0.0,0.0,0.0
19:44:03.240000,45.0,-22.0,-511.0,-984.0,-154.0,-89.0,0.0,0.0,0.0
19:44:03.245000,25.0,-7.0,-538.0,-984.0,-154.0,-89.0,0.0,0.0,0.0
19:44:03.249000,25.0,-7.0,-538.0,-998.0,-163.0,-86.0,0.0,0.0,0.0
19:44:03.254000,4.0,9.0,-566.0,-998.0,-163.0,-86.0,0.0,0.0,0.0
19:44:03.259000,-17.0,27.0,-595.0,-1014.0,-149.0,-84.0,0.0,0.0,0.0
19:44:03.263000,-33.0,44.0,-636.0,-1014.0,-149.0,-84.0,0.0,0.0,0.0
19:44:03.268000,-46.0,62.0,-673.0,-1015.0,-137.0,-86.0,0.0,0.0,0.0
19:44:03.273000,-53.0,79.0,-705.0,-1015.0,-137.0,-86.0,0.0,0.0,0.0
19:44:03.277000,-57.0,98.0,-745.0,-1024.0,-131.0,-95.0,0.0,0.0,0.0
19:44:03.282000,-58.0,117.0,-790.0,-1024.0,-131.0,-95.0,0.0,0.0,0.0
19:44:03.287000,-56.0,133.0,-835.0,-1049.0,-114.0,-105.0,0.0,0.0,0.0
19:44:03.292000,-56.0,147.0,-868.0,-1049.0,-114.0,-105.0,0.0,0.0,0.0
19:44:03.296000,-57.0,161.0,-889.0,-1082.0,-95.0,-113.0,0.0,0.0,0.0
19:44:03.301000,-56.0,172.0,-890.0,-1082.0,-95.0,-113.0,0.0,0.0,0.0
19:44:03.306000,-53.0,185.0,-884.0,-1106.0,-91.0,-121.0,0.0,0.0,0.0
19:44:03.310000,-44.0,193.0,-890.0,-1106.0,-91.0,-121.0,0.0,0.0,0.0
19:44:03.315000,-32.0,199.0,-901.0,-1107.0,-85.0,-123.0,0.0,0.0,0.0
19:44:03.320000,-20.0,205.0,-898.0,-1107.0,-85.0,-123.0,0.0,0.0,0.0
19:44:03.324000,-7.0,212.0,-887.0,-1107.0,-85.0,-123.0,0.0,0.0,0.0
19:44:03.329000,9.0,214.0,-884.0,-1099.0,-67.0,-123.0,0.0,0.0,0.0
19:44:03.334000,30.0,219.0,-889.0,-1099.0,-67.0,-123.0,0.0,0.0,0.0
19:44:03.339000,60.0,226.0,-884.0,-1097.0,-52.0,-131.0,0.0,0.0,0.0
19:44:03.343000,89.0,233.0,-883.0,-1097.0,-52.0,-131.0,0.0,0.0,0.0
19:44:03.348000,112.0,237.0,-889.0,-1108.0,-32.0,-144.0,0.0,0.0,0.0
19:44:03.353000,130.0,239.0,-888.0,-1108.0,-32.0,-144.0,0.0,0.0,0.0
19:44:03.357000,130.0,239.0,-888.0,-1126.0,-4.0,-153.0,0.0,0.0,0.0
19:44:03.362000,147.0,236.0,-879.0,-1126.0,-4.0,-153.0,0.0,0.0,0.0
19:44:03.367000,169.0,228.0,-854.0,-1111.0,17.0,-153.0,0.0,0.0,0.0
19:44:03.371000,194.0,221.0,-822.0,-1111.0,17.0,-153.0,0.0,0.0,0.0
19:44:03.376000,218.0,212.0,-785.0,-1080.0,29.0,-155.0,0.0,0.0,0.0
19:44:03.381000,245.0,205.0,-756.0,-1080.0,29.0,-155.0,0.0,0.0,0.0
19:44:03.386000,274.0,198.0,-750.0,-1081.0,47.0,-161.0,0.0,0.0,0.0
19:44:03.390000,304.0,186.0,-753.0,-1081.0,47.0,-161.0,0.0,0.0,0.0
19:44:03.395000,326.0,174.0,-756.0,-1083.0,79.0,-169.0,0.0,0.0,0.0
19:44:03.400000,340.0,161.0,-755.0,-1083.0,79.0,-169.0,0.0,0.0,0.0
19:44:03.404000,350.0,149.0,-754.0,-1051.0,127.0,-173.0,0.0,0.0,0.0
19:44:03.409000,359.0,138.0,-753.0,-1051.0,127.0,-173.0,0.0,0.0,0.0
19:44:03.414000,370.0,126.0,-754.0,-1016.0,167.0,-176.0,0.0,0.0,0.0
19:44:03.418000,371.0,118.0,-767.0,-1016.0,167.0,-176.0,0.0,0.0,0.0
19:44:03.423000,371.0,109.0,-777.0,-1016.0,167.0,-176.0,0.0,0.0,0.0
19:44:03.428000,371.0,99.0,-778.0,-998.0,190.0,-176.0,0.0,0.0,0.0
19:44:03.433000,368.0,89.0,-773.0,-979.0,205.0,-169.0,0.0,0.0,0.0
19:44:03.437000,358.0,79.0,-758.0,-979.0,205.0,-169.0,0.0,0.0,0.0
19:44:03.442000,345.0,73.0,-750.0,-979.0,205.0,-169.0,0.0,0.0,0.0
19:44:03.447000,333.0,65.0,-746.0,-969.0,241.0,-158.0,0.0,0.0,0.0
19:44:03.451000,317.0,57.0,-732.0,-969.0,241.0,-158.0,0.0,0.0,0.0
19:44:03.456000,294.0,49.0,-703.0,-960.0,294.0,-135.0,0.0,0.0,0.0
19:44:03.461000,271.0,58.0,-674.0,-960.0,294.0,-135.0,0.0,0.0,0.0
19:44:03.465000,271.0,58.0,-674.0,-952.0,343.0,-131.0,0.0,0.0,0.0
19:44:03.470000,256.0,58.0,-648.0,-952.0,343.0,-131.0,0.0,0.0,0.0
19:44:03.475000,245.0,56.0,-633.0,-975.0,371.0,-135.0,0.0,0.0,0.0
19:44:03.480000,233.0,58.0,-639.0,-975.0,371.0,-135.0,0.0,0.0,0.0
19:44:03.484000,219.0,63.0,-648.0,-1029.0,408.0,-124.0,0.0,0.0,0.0
19:44:03.489000,204.0,65.0,-642.0,-1029.0,408.0,-124.0,0.0,0.0,0.0
19:44:03.494000,184.0,63.0,-601.0,-1069.0,445.0,-115.0,0.0,0.0,0.0
19:44:03.498000,158.0,70.0,-530.0,-1069.0,445.0,-115.0,0.0,0.0,0.0
19:44:03.503000,142.0,74.0,-469.0,-1057.0,451.0,-105.0,0.0,0.0,0.0
19:44:03.508000,133.0,74.0,-443.0,-1057.0,451.0,-105.0,0.0,0.0,0.0
19:44:03.512000,116.0,90.0,-445.0,-1083.0,463.0,-104.0,0.0,0.0,0.0
19:44:03.517000,91.0,100.0,-406.0,-1083.0,463.0,-104.0,0.0,0.0,0.0
19:44:03.522000,77.0,102.0,-294.0,-1066.0,454.0,-110.0,0.0,0.0,0.0
19:44:03.527000,70.0,108.0,-236.0,-1066.0,454.0,-110.0,0.0,0.0,0.0
19:44:03.531000,46.0,130.0,-200.0,-1066.0,454.0,-110.0,0.0,0.0,0.0
19:44:03.536000,42.0,140.0,-145.0,-1038.0,430.0,-115.0,0.0,0.0,0.0
19:44:03.541000,51.0,140.0,-158.0,-1038.0,430.0,-115.0,0.0,0.0,0.0
19:44:03.545000,53.0,151.0,-191.0,-1081.0,435.0,-125.0,0.0,0.0,0.0
19:44:03.549000,58.0,155.0,-130.0,-1081.0,411.0,-133.0,0.0,0.0,0.0
19:44:03.555000,63.0,158.0,-39.0,-1081.0,411.0,-133.0,0.0,0.0,0.0
19:44:03.559000,77.0,174.0,-55.0,-1081.0,411.0,-133.0,0.0,0.0,0.0
19:44:03.564000,102.0,182.0,-119.0,-1057.0,360.0,-149.0,0.0,0.0,0.0
19:44:03.569000,98.0,187.0,-130.0,-1057.0,360.0,-149.0,0.0,0.0,0.0
19:44:03.574000,102.0,185.0,-84.0,-1007.0,345.0,-161.0,0.0,0.0,0.0
19:44:03.578000,102.0,185.0,-84.0,-1007.0,345.0,-161.0,0.0,0.0,0.0
19:44:03.583000,107.0,188.0,-51.0,-956.0,349.0,-166.0,0.0,0.0,0.0
19:44:03.588000,119.0,182.0,-39.0,-956.0,349.0,-166.0,0.0,0.0,0.0
19:44:03.592000,114.0,180.0,-23.0,-919.0,364.0,-179.0,0.0,0.0,0.0
19:44:03.597000,121.0,179.0,-1.0,-919.0,364.0,-179.0,0.0,0.0,0.0
19:44:03.602000,121.0,170.0,7.0,-912.0,382.0,-181.0,0.0,0.0,0.0
19:44:03.606000,119.0,151.0,28.0,-912.0,382.0,-181.0,0.0,0.0,0.0
19:44:03.611000,120.0,133.0,58.0,-901.0,381.0,-176.0,0.0,0.0,0.0
19:44:03.616000,119.0,113.0,99.0,-901.0,381.0,-176.0,0.0,0.0,0.0
19:44:03.621000,112.0,100.0,117.0,-853.0,388.0,-171.0,0.0,0.0,0.0
19:44:03.625000,102.0,87.0,158.0,-853.0,388.0,-171.0,0.0,0.0,0.0
19:44:03.630000,93.0,77.0,195.0,-823.0,391.0,-171.0,0.0,0.0,0.0
19:44:03.635000,86.0,65.0,240.0,-823.0,391.0,-171.0,0.0,0.0,0.0
19:44:03.639000,67.0,60.0,268.0,-823.0,391.0,-171.0,0.0,0.0,0.0
19:44:03.644000,53.0,55.0,286.0,-823.0,381.0,-174.0,0.0,0.0,0.0
19:44:03.649000,35.0,56.0,302.0,-823.0,381.0,-174.0,0.0,0.0,0.0
19:44:03.653000,25.0,57.0,308.0,-842.0,355.0,-179.0,0.0,0.0,0.0
19:44:03.658000,16.0,58.0,312.0,-842.0,355.0,-179.0,0.0,0.0,0.0
19:44:03.663000,9.0,56.0,320.0,-816.0,294.0,-177.0,0.0,0.0,0.0
19:44:03.668000,7.0,54.0,326.0,-816.0,294.0,-177.0,0.0,0.0,0.0
19:44:03.672000,7.0,49.0,325.0,-733.0,221.0,-168.0,0.0,0.0,0.0
19:44:03.677000,16.0,45.0,317.0,-733.0,221.0,-168.0,0.0,0.0,0.0
19:44:03.682000,30.0,42.0,311.0,-645.0,161.0,-169.0,0.0,0.0,0.0
19:44:03.686000,30.0,42.0,311.0,-645.0,161.0,-169.0,0.0,0.0,0.0
19:44:03.691000,43.0,37.0,296.0,-626.0,154.0,-179.0,0.0,0.0,0.0
19:44:03.696000,49.0,29.0,275.0,-626.0,154.0,-179.0,0.0,0.0,0.0
19:44:03.700000,52.0,17.0,271.0,-671.0,180.0,-178.0,0.0,0.0,0.0
19:44:03.705000,53.0,2.0,273.0,-671.0,180.0,-178.0,0.0,0.0,0.0
19:44:03.710000,54.0,-15.0,272.0,-678.0,176.0,-168.0,0.0,0.0,0.0
19:44:03.715000,53.0,-34.0,286.0,-678.0,176.0,-168.0,0.0,0.0,0.0
19:44:03.719000,51.0,-54.0,310.0,-649.0,132.0,-156.0,0.0,0.0,0.0
19:44:03.724000,53.0,-77.0,329.0,-649.0,132.0,-156.0,0.0,0.0,0.0
19:44:03.729000,59.0,-97.0,343.0,-648.0,86.0,-150.0,0.0,0.0,0.0
19:44:03.733000,63.0,-116.0,352.0,-648.0,86.0,-150.0,0.0,0.0,0.0
19:44:03.738000,67.0,-133.0,359.0,-689.0,70.0,-150.0,0.0,0.0,0.0
19:44:03.743000,67.0,-146.0,367.0,-689.0,70.0,-150.0,0.0,0.0,0.0
19:44:03.747000,69.0,-157.0,365.0,-689.0,70.0,-150.0,0.0,0.0,0.0
19:44:03.752000,68.0,-163.0,355.0,-742.0,72.0,-149.0,0.0,0.0,0.0
19:44:03.757000,66.0,-165.0,346.0,-742.0,72.0,-149.0,0.0,0.0,0.0
19:44:03.762000,61.0,-165.0,333.0,-775.0,75.0,-146.0,0.0,0.0,0.0
19:44:03.766000,57.0,-162.0,321.0,-775.0,75.0,-146.0,0.0,0.0,0.0
19:44:03.771000,53.0,-154.0,314.0,-779.0,72.0,-138.0,0.0,0.0,0.0
19:44:03.776000,53.0,-141.0,303.0,-779.0,72.0,-138.0,0.0,0.0,0.0
19:44:03.780000,53.0,-127.0,291.0,-771.0,66.0,-132.0,0.0,0.0,0.0
19:44:03.785000,55.0,-110.0,284.0,-771.0,66.0,-132.0,0.0,0.0,0.0
19:44:03.790000,53.0,-92.0,280.0,-764.0,68.0,-129.0,0.0,0.0,0.0
19:44:03.794000,53.0,-92.0,280.0,-764.0,68.0,-129.0,0.0,0.0,0.0
19:44:03.799000,50.0,-72.0,278.0,-761.0,77.0,-129.0,0.0,0.0,0.0
19:44:03.804000,45.0,-51.0,287.0,-761.0,77.0,-129.0,0.0,0.0,0.0
19:44:03.809000,35.0,-30.0,308.0,-746.0,73.0,-129.0,0.0,0.0,0.0
19:44:03.813000,25.0,-12.0,330.0,-746.0,73.0,-129.0,0.0,0.0,0.0
19:44:03.818000,11.0,5.0,345.0,-721.0,65.0,-126.0,0.0,0.0,0.0
19:44:03.823000,2.0,16.0,351.0,-721.0,65.0,-126.0,0.0,0.0,0.0
19:44:03.827000,-7.0,26.0,347.0,-681.0,62.0,-122.0,0.0,0.0,0.0
19:44:03.832000,-14.0,33.0,339.0,-681.0,62.0,-122.0,0.0,0.0,0.0
19:44:03.837000,-16.0,37.0,322.0,-640.0,49.0,-122.0,0.0,0.0,0.0
19:44:03.841000,-16.0,39.0,297.0,-640.0,49.0,-122.0,0.0,0.0,0.0
19:44:03.846000,-14.0,37.0,273.0,-622.0,31.0,-126.0,0.0,0.0,0.0
19:44:03.851000,-13.0,34.0,255.0,-622.0,31.0,-126.0,0.0,0.0,0.0
19:44:03.856000,-14.0,29.0,240.0,-622.0,23.0,-129.0,0.0,0.0,0.0
19:44:03.860000,-16.0,23.0,226.0,-612.0,23.0,-129.0,0.0,0.0,0.0
19:44:03.865000,-20.0,15.0,217.0,-612.0,23.0,-129.0,0.0,0.0,0.0
19:44:03.870000,-21.0,6.0,212.0,-594.0,21.0,-132.0,0.0,0.0,0.0
19:44:03.874000,-23.0,0.0,214.0,-594.0,21.0,-132.0,0.0,0.0,0.0
19:44:03.879000,-23.0,-7.0,217.0,-575.0,11.0,-136.0,0.0,0.0,0.0
19:44:03.884000,-20.0,-14.0,221.0,-575.0,11.0,-136.0,0.0,0.0,0.0
19:44:03.888000,-14.0,-21.0,227.0,-560.0,2.0,-137.0,0.0,0.0,0.0
19:44:03.893000,-8.0,-31.0,233.0,-560.0,2.0,-137.0,0.0,0.0,0.0
19:44:03.898000,2.0,-39.0,242.0,-549.0,0.0,-133.0,0.0,0.0,0.0
19:44:03.903000,14.0,-47.0,254.0,-549.0,0.0,-133.0,0.0,0.0,0.0
19:44:03.907000,14.0,-47.0,254.0,-536.0,-3.0,-127.0,0.0,0.0,0.0
19:44:03.912000,27.0,-55.0,265.0,-536.0,-3.0,-127.0,0.0,0.0,0.0
19:44:03.917000,37.0,-64.0,277.0,-539.0,0.0,-118.0,0.0,0.0,0.0
19:44:03.921000,46.0,-73.0,292.0,-539.0,0.0,-118.0,0.0,0.0,0.0
19:44:03.926000,53.0,-79.0,310.0,-549.0,6.0,-110.0,0.0,0.0,0.0
19:44:03.931000,58.0,-84.0,323.0,-549.0,6.0,-110.0,0.0,0.0,0.0
19:44:03.935000,59.0,-88.0,333.0,-565.0,20.0,-108.0,0.0,0.0,0.0
19:44:03.940000,53.0,-89.0,340.0,-565.0,20.0,-108.0,0.0,0.0,0.0
19:44:03.945000,42.0,-90.0,346.0,-597.0,50.0,-105.0,0.0,0.0,0.0
19:44:03.950000,27.0,-90.0,348.0,-597.0,50.0,-105.0,0.0,0.0,0.0
19:44:03.954000,11.0,-92.0,350.0,-609.0,71.0,-101.0,0.0,0.0,0.0
19:44:03.959000,-2.0,-95.0,347.0,-609.0,71.0,-101.0,0.0,0.0,0.0
19:44:03.964000,-16.0,-100.0,340.0,-588.0,71.0,-98.0,0.0,0.0,0.0
19:44:03.968000,-27.0,-105.0,330.0,-588.0,71.0,-98.0,0.0,0.0,0.0
19:44:03.973000,-37.0,-110.0,318.0,-588.0,71.0,-98.0,0.0,0.0,0.0
19:44:03.978000,-44.0,-117.0,305.0,-563.0,63.0,-94.0,0.0,0.0,0.0
19:44:03.982000,-49.0,-127.0,293.0,-563.0,63.0,-94.0,0.0,0.0,0.0
19:44:03.987000,-48.0,-137.0,277.0,-543.0,47.0,-86.0,0.0,0.0,0.0
19:44:03.992000,-44.0,-145.0,261.0,-543.0,47.0,-86.0,0.0,0.0,0.0
19:44:03.997000,-40.0,-150.0,245.0,-533.0,38.0,-84.0,0.0,0.0,0.0
19:44:04.001000,-37.0,-153.0,232.0,-533.0,38.0,-84.0,0.0,0.0,0.0
19:44:04.006000,-37.0,-153.0,224.0,-557.0,48.0,-85.0,0.0,0.0,0.0
19:44:04.011000,-39.0,-151.0,221.0,-557.0,48.0,-85.0,0.0,0.0,0.0
19:44:04.015000,-39.0,-151.0,221.0,-600.0,48.0,-78.0,0.0,0.0,0.0
19:44:04.020000,-39.0,-149.0,224.0,-600.0,48.0,-78.0,0.0,0.0,0.0
19:44:04.025000,-30.0,-144.0,225.0,-603.0,12.0,-80.0,0.0,0.0,0.0
19:44:04.029000,-14.0,-132.0,214.0,-603.0,12.0,-80.0,0.0,0.0,0.0
19:44:04.034000,0.0,-116.0,188.0,-619.0,10.0,-96.0,0.0,0.0,0.0
19:44:04.039000,10.0,-101.0,157.0,-619.0,10.0,-96.0,0.0,0.0,0.0
19:44:04.044000,21.0,-92.0,139.0,-687.0,50.0,-103.0,0.0,0.0,0.0
19:44:04.048000,37.0,-85.0,140.0,-687.0,50.0,-103.0,0.0,0.0,0.0
19:44:04.053000,60.0,-77.0,144.0,-717.0,45.0,-115.0,0.0,0.0,0.0
19:44:04.058000,89.0,-66.0,147.0,-717.0,45.0,-115.0,0.0,0.0,0.0
19:44:04.062000,116.0,-52.0,149.0,-717.0,39.0,-132.0,0.0,0.0,0.0
19:44:04.067000,135.0,-35.0,161.0,-717.0,39.0,-132.0,0.0,0.0,0.0
19:44:04.072000,147.0,-19.0,183.0,-729.0,72.0,-139.0,0.0,0.0,0.0
19:44:04.076000,152.0,-1.0,203.0,-729.0,72.0,-139.0,0.0,0.0,0.0
19:44:04.081000,152.0,14.0,210.0,-729.0,72.0,-139.0,0.0,0.0,0.0
19:44:04.086000,147.0,28.0,213.0,-751.0,114.0,-143.0,0.0,0.0,0.0
19:44:04.091000,142.0,39.0,220.0,-751.0,114.0,-143.0,0.0,0.0,0.0
19:44:04.095000,140.0,52.0,229.0,-764.0,137.0,-151.0,0.0,0.0,0.0
19:44:04.100000,137.0,65.0,231.0,-764.0,137.0,-151.0,0.0,0.0,0.0
19:44:04.105000,130.0,77.0,226.0,-767.0,140.0,-162.0,0.0,0.0,0.0
19:44:04.109000,118.0,85.0,221.0,-767.0,140.0,-162.0,0.0,0.0,0.0
19:44:04.114000,98.0,92.0,223.0,-782.0,162.0,-167.0,0.0,0.0,0.0
19:44:04.119000,77.0,96.0,227.0,-782.0,162.0,-167.0,0.0,0.0,0.0
19:44:04.123000,77.0,96.0,227.0,-790.0,190.0,-168.0,0.0,0.0,0.0
19:44:04.128000,53.0,102.0,226.0,-790.0,190.0,-168.0,0.0,0.0,0.0
19:44:04.133000,25.0,106.0,224.0,-800.0,213.0,-175.0,0.0,0.0,0.0
19:44:04.138000,-5.0,108.0,226.0,-800.0,213.0,-175.0,0.0,0.0,0.0
19:44:04.142000,-38.0,108.0,235.0,-827.0,226.0,-187.0,0.0,0.0,0.0
19:44:04.147000,-70.0,107.0,253.0,-827.0,226.0,-187.0,0.0,0.0,0.0
19:44:04.152000,-101.0,107.0,274.0,-850.0,216.0,-204.0,0.0,0.0,0.0
19:44:04.156000,-129.0,109.0,291.0,-850.0,216.0,-204.0,0.0,0.0,0.0
19:44:04.161000,-156.0,111.0,303.0,-885.0,193.0,-224.0,0.0,0.0,0.0
19:44:04.166000,-180.0,108.0,317.0,-885.0,193.0,-224.0,0.0,0.0,0.0
19:44:04.170000,-197.0,100.0,338.0,-908.0,144.0,-235.0,0.0,0.0,0.0
19:44:04.175000,-205.0,87.0,361.0,-908.0,144.0,-235.0,0.0,0.0,0.0
19:44:04.180000,-205.0,68.0,376.0,-880.0,75.0,-234.0,0.0,0.0,0.0
19:44:04.184000,-197.0,44.0,380.0,-880.0,75.0,-234.0,0.0,0.0,0.0
19:44:04.189000,-180.0,18.0,380.0,-880.0,75.0,-234.0,0.0,0.0,0.0
19:44:04.194000,-154.0,-7.0,372.0,-821.0,13.0,-228.0,0.0,0.0,0.0
19:44:04.199000,-123.0,-31.0,355.0,-821.0,13.0,-228.0,0.0,0.0,0.0
19:44:04.203000,-93.0,-51.0,328.0,-785.0,-19.0,-230.0,0.0,0.0,0.0
19:44:04.208000,-65.0,-67.0,291.0,-785.0,-19.0,-230.0,0.0,0.0,0.0
19:44:04.213000,-41.0,-79.0,242.0,-808.0,20.0,-242.0,0.0,0.0,0.0
19:44:04.217000,-23.0,-86.0,184.0,-808.0,20.0,-242.0,0.0,0.0,0.0
19:44:04.222000,-9.0,-92.0,119.0,-864.0,136.0,-250.0,0.0,0.0,0.0
19:44:04.227000,-1.0,-95.0,60.0,-864.0,136.0,-250.0,0.0,0.0,0.0
19:44:04.231000,-1.0,-95.0,60.0,-914.0,277.0,-254.0,0.0,0.0,0.0
19:44:04.236000,1.0,-95.0,11.0,-914.0,277.0,-254.0,0.0,0.0,0.0
19:44:04.241000,-3.0,-97.0,-21.0,-961.0,385.0,-246.0,0.0,0.0,0.0
19:44:04.246000,-15.0,-102.0,-36.0,-961.0,385.0,-246.0,0.0,0.0,0.0
19:44:04.250000,-33.0,-120.0,-24.0,-970.0,428.0,-215.0,0.0,0.0,0.0
19:44:04.255000,-51.0,-140.0,0.0,-970.0,428.0,-215.0,0.0,0.0,0.0
19:44:04.260000,-63.0,-162.0,10.0,-908.0,466.0,-176.0,0.0,0.0,0.0
19:44:04.264000,-79.0,-186.0,-12.0,-908.0,466.0,-176.0,0.0,0.0,0.0
19:44:04.269000,-98.0,-214.0,-45.0,-877.0,538.0,-131.0,0.0,0.0,0.0
19:44:04.274000,-110.0,-245.0,-60.0,-877.0,538.0,-131.0,0.0,0.0,0.0
19:44:04.278000,-107.0,-273.0,-57.0,-884.0,499.0,-89.0,0.0,0.0,0.0
19:44:04.283000,-90.0,-293.0,-63.0,-884.0,499.0,-89.0,0.0,0.0,0.0
19:44:04.288000,-72.0,-306.0,-84.0,-876.0,393.0,-65.0,0.0,0.0,0.0
19:44:04.293000,-46.0,-302.0,-111.0,-876.0,393.0,-65.0,0.0,0.0,0.0
19:44:04.297000,-24.0,-284.0,-170.0,-876.0,393.0,-65.0,0.0,0.0,0.0
19:44:04.302000,-5.0,-271.0,-212.0,-947.0,397.0,-54.0,0.0,0.0,0.0
19:44:04.307000,11.0,-258.0,-235.0,-947.0,397.0,-54.0,0.0,0.0,0.0
19:44:04.311000,14.0,-240.0,-286.0,-1090.0,462.0,-56.0,0.0,0.0,0.0
19:44:04.316000,25.0,-215.0,-350.0,-1090.0,462.0,-56.0,0.0,0.0,0.0
19:44:04.321000,24.0,-205.0,-403.0,-1211.0,540.0,-57.0,0.0,0.0,0.0
19:44:04.325000,16.0,-175.0,-420.0,-1211.0,540.0,-57.0,0.0,0.0,0.0
19:44:04.330000,0.0,-159.0,-473.0,-1259.0,643.0,-57.0,0.0,0.0,0.0
19:44:04.335000,-39.0,-143.0,-508.0,-1259.0,643.0,-57.0,0.0,0.0,0.0
19:44:04.340000,-83.0,-129.0,-480.0,-1316.0,740.0,-53.0,0.0,0.0,0.0
19:44:04.344000,-83.0,-129.0,-480.0,-1316.0,740.0,-53.0,0.0,0.0,0.0
19:44:04.349000,-132.0,-117.0,-425.0,-1362.0,715.0,-63.0,0.0,0.0,0.0
19:44:04.354000,-135.0,-88.0,-351.0,-1362.0,715.0,-63.0,0.0,0.0,0.0
19:44:04.358000,-148.0,-58.0,-151.0,-1247.0,702.0,-100.0,0.0,0.0,0.0
19:44:04.363000,-172.0,-42.0,-133.0,-1247.0,702.0,-100.0,0.0,0.0,0.0
19:44:04.368000,-184.0,-27.0,-175.0,-1226.0,742.0,-124.0,0.0,0.0,0.0
19:44:04.372000,-199.0,-15.0,-128.0,-1226.0,742.0,-124.0,0.0,0.0,0.0
19:44:04.377000,-213.0,-2.0,-48.0,-1320.0,612.0,-126.0,0.0,0.0,0.0
19:44:04.382000,-218.0,13.0,-16.0,-1320.0,612.0,-126.0,0.0,0.0,0.0
19:44:04.387000,-251.0,38.0,32.0,-1271.0,489.0,-138.0,0.0,0.0,0.0
19:44:04.391000,-260.0,59.0,100.0,-1271.0,489.0,-138.0,0.0,0.0,0.0
19:44:04.396000,-256.0,70.0,102.0,-1190.0,418.0,-155.0,0.0,0.0,0.0
19:44:04.401000,-255.0,82.0,53.0,-1190.0,418.0,-155.0,0.0,0.0,0.0
19:44:04.405000,-254.0,82.0,33.0,-1190.0,418.0,-155.0,0.0,0.0,0.0
19:44:04.410000,-257.0,91.0,48.0,-1124.0,319.0,-147.0,0.0,0.0,0.0
19:44:04.415000,-272.0,103.0,30.0,-1124.0,319.0,-147.0,0.0,0.0,0.0
19:44:04.419000,-266.0,102.0,11.0,-1035.0,247.0,-126.0,0.0,0.0,0.0
19:44:04.424000,-266.0,86.0,47.0,-1035.0,247.0,-126.0,0.0,0.0,0.0
19:44:04.429000,-275.0,77.0,103.0,-930.0,157.0,-110.0,0.0,0.0,0.0
19:44:04.434000,-261.0,77.0,28.0,-930.0,157.0,-110.0,0.0,0.0,0.0
19:44:04.438000,-269.0,56.0,-59.0,-845.0,83.0,-103.0,0.0,0.0,0.0
19:44:04.443000,-298.0,44.0,24.0,-845.0,83.0,-103.0,0.0,0.0,0.0
19:44:04.448000,-310.0,32.0,136.0,-828.0,15.0,-100.0,0.0,0.0,0.0
19:44:04.452000,-310.0,32.0,136.0,-828.0,15.0,-100.0,0.0,0.0,0.0
19:44:04.457000,-333.0,17.0,169.0,-882.0,-31.0,-92.0,0.0,0.0,0.0
19:44:04.462000,-353.0,-4.0,163.0,-882.0,-31.0,-92.0,0.0,0.0,0.0
19:44:04.466000,-354.0,-33.0,158.0,-928.0,-41.0,-88.0,0.0,0.0,0.0
19:44:04.471000,-354.0,-56.0,149.0,-928.0,-41.0,-88.0,0.0,0.0,0.0
19:44:04.476000,-347.0,-77.0,112.0,-931.0,-56.0,-88.0,0.0,0.0,0.0
19:44:04.481000,-348.0,-86.0,92.0,-931.0,-56.0,-88.0,0.0,0.0,0.0
19:44:04.485000,-338.0,-99.0,74.0,-973.0,-57.0,-93.0,0.0,0.0,0.0
19:44:04.490000,-329.0,-113.0,43.0,-973.0,-57.0,-93.0,0.0,0.0,0.0
19:44:04.495000,-324.0,-131.0,17.0,-1051.0,-49.0,-96.0,0.0,0.0,0.0
19:44:04.499000,-313.0,-146.0,0.0,-1051.0,-49.0,-96.0,0.0,0.0,0.0
19:44:04.504000,-304.0,-160.0,-23.0,-1107.0,-47.0,-93.0,0.0,0.0,0.0
19:44:04.509000,-291.0,-168.0,-29.0,-1107.0,-47.0,-93.0,0.0,0.0,0.0
19:44:04.513000,-280.0,-168.0,-1.0,-1107.0,-47.0,-93.0,0.0,0.0,0.0
19:44:04.518000,-266.0,-163.0,11.0,-1144.0,-63.0,-94.0,0.0,0.0,0.0
19:44:04.523000,-254.0,-150.0,12.0,-1144.0,-63.0,-94.0,0.0,0.0,0.0
19:44:04.528000,-247.0,-133.0,-23.0,-1225.0,-42.0,-105.0,0.0,0.0,0.0
19:44:04.532000,-251.0,-107.0,-72.0,-1343.0,16.0,-116.0,0.0,0.0,0.0
19:44:04.537000,-263.0,-84.0,-97.0,-1343.0,16.0,-116.0,0.0,0.0,0.0
19:44:04.542000,-263.0,-69.0,-116.0,-1343.0,16.0,-116.0,0.0,0.0,0.0
19:44:04.546000,-263.0,-69.0,-116.0,-1390.0,25.0,-122.0,0.0,0.0,0.0
19:44:04.551000,-270.0,-35.0,-176.0,-1390.0,25.0,-122.0,0.0,0.0,0.0
19:44:04.556000,-278.0,-23.0,-191.0,-1340.0,13.0,-128.0,0.0,0.0,0.0
19:44:04.560000,-278.0,-23.0,-191.0,-1340.0,13.0,-128.0,0.0,0.0,0.0
19:44:04.565000,-290.0,-10.0,-200.0,-1267.0,12.0,-130.0,0.0,0.0,0.0
19:44:04.570000,-295.0,-1.0,-221.0,-1267.0,12.0,-130.0,0.0,0.0,0.0
19:44:04.575000,-289.0,10.0,-242.0,-1232.0,-6.0,-126.0,0.0,0.0,0.0
19:44:04.579000,-303.0,30.0,-259.0,-1232.0,-6.0,-126.0,0.0,0.0,0.0
19:44:04.584000,-315.0,40.0,-257.0,-1250.0,-11.0,-123.0,0.0,0.0,0.0
19:44:04.589000,-313.0,43.0,-256.0,-1250.0,-11.0,-123.0,0.0,0.0,0.0
19:44:04.593000,-321.0,43.0,-239.0,-1210.0,-30.0,-121.0,0.0,0.0,0.0
19:44:04.598000,-324.0,35.0,-194.0,-1210.0,-30.0,-121.0,0.0,0.0,0.0
19:44:04.603000,-267.0,-10.0,-199.0,-1107.0,-9.0,-117.0,0.0,0.0,0.0
19:44:04.607000,-299.0,-49.0,-158.0,-1107.0,-9.0,-117.0,0.0,0.0,0.0
19:44:04.612000,-343.0,-60.0,-88.0,-1125.0,0.0,-123.0,0.0,0.0,0.0
19:44:04.617000,-291.0,-77.0,-102.0,-1125.0,0.0,-123.0,0.0,0.0,0.0
19:44:04.622000,-278.0,-111.0,-121.0,-1125.0,-25.0,-123.0,0.0,0.0,0.0
19:44:04.626000,-256.0,-151.0,-84.0,-1155.0,-25.0,-140.0,0.0,0.0,0.0
19:44:04.631000,-256.0,-182.0,-40.0,-1155.0,-25.0,-140.0,0.0,0.0,0.0
19:44:04.636000,-258.0,-212.0,-32.0,-1100.0,-9.0,-137.0,0.0,0.0,0.0
19:44:04.640000,-269.0,-249.0,4.0,-1100.0,-9.0,-137.0,0.0,0.0,0.0
19:44:04.645000,-290.0,-270.0,27.0,-1021.0,8.0,-114.0,0.0,0.0,0.0
19:44:04.650000,-298.0,-305.0,25.0,-1021.0,8.0,-114.0,0.0,0.0,0.0
19:44:04.654000,-321.0,-340.0,49.0,-939.0,-27.0,-94.0,0.0,0.0,0.0
19:44:04.659000,-361.0,-365.0,69.0,-939.0,-27.0,-94.0,0.0,0.0,0.0
19:44:04.664000,-395.0,-392.0,61.0,-960.0,-33.0,-69.0,0.0,0.0,0.0
19:44:04.669000,-395.0,-392.0,61.0,-960.0,-33.0,-69.0,0.0,0.0,0.0
19:44:04.673000,-382.0,-417.0,36.0,-969.0,-3.0,-58.0,0.0,0.0,0.0
19:44:04.678000,-403.0,-436.0,-8.0,-969.0,-3.0,-58.0,0.0,0.0,0.0
19:44:04.683000,-431.0,-450.0,-44.0,-929.0,-13.0,-51.0,0.0,0.0,0.0
19:44:04.687000,-474.0,-466.0,-49.0,-929.0,-13.0,-51.0,0.0,0.0,0.0
19:44:04.692000,-527.0,-480.0,-46.0,-949.0,-2.0,-18.0,0.0,0.0,0.0
19:44:04.697000,-581.0,-491.0,-47.0,-949.0,-2.0,-18.0,0.0,0.0,0.0
19:44:04.701000,-627.0,-493.0,-57.0,-1010.0,-17.0,3.0,0.0,0.0,0.0
19:44:04.706000,-670.0,-495.0,-102.0,-1010.0,-17.0,3.0,0.0,0.0,0.0
19:44:04.711000,-714.0,-497.0,-142.0,-1047.0,-41.0,13.0,0.0,0.0,0.0
19:44:04.716000,-777.0,-493.0,-170.0,-1047.0,-41.0,13.0,0.0,0.0,0.0
19:44:04.720000,-813.0,-480.0,-194.0,-1054.0,-30.0,18.0,0.0,0.0,0.0
19:44:04.725000,-854.0,-477.0,-226.0,-1054.0,-30.0,18.0,0.0,0.0,0.0
19:44:04.730000,-898.0,-472.0,-259.0,-1057.0,-7.0,31.0,0.0,0.0,0.0
19:44:04.734000,-966.0,-469.0,-261.0,-1057.0,-7.0,31.0,0.0,0.0,0.0
19:44:04.739000,-1004.0,-476.0,-270.0,-1057.0,-7.0,31.0,0.0,0.0,0.0
19:44:04.744000,-1032.0,-484.0,-319.0,-1069.0,-29.0,50.0,0.0,0.0,0.0
19:44:04.748000,-1059.0,-498.0,-338.0,-1069.0,-29.0,50.0,0.0,0.0,0.0
19:44:04.753000,-1110.0,-508.0,-343.0,-1062.0,-92.0,64.0,0.0,0.0,0.0
19:44:04.758000,-1126.0,-513.0,-372.0,-1062.0,-92.0,64.0,0.0,0.0,0.0
19:44:04.763000,-1098.0,-538.0,-428.0,-1029.0,-111.0,69.0,0.0,0.0,0.0
19:44:04.767000,-1133.0,-560.0,-483.0,-1029.0,-111.0,69.0,0.0,0.0,0.0
19:44:04.772000,-1170.0,-589.0,-516.0,-1029.0,-55.0,81.0,0.0,0.0,0.0
19:44:04.777000,-1215.0,-615.0,-505.0,-1029.0,-55.0,81.0,0.0,0.0,0.0
19:44:04.781000,-1215.0,-615.0,-505.0,-1039.0,-21.0,101.0,0.0,0.0,0.0
19:44:04.786000,-1255.0,-644.0,-494.0,-1039.0,-21.0,101.0,0.0,0.0,0.0
19:44:04.791000,-1278.0,-662.0,-512.0,-1037.0,-15.0,111.0,0.0,0.0,0.0
19:44:04.795000,-1294.0,-691.0,-527.0,-1037.0,-15.0,111.0,0.0,0.0,0.0
19:44:04.800000,-1318.0,-720.0,-528.0,-1025.0,48.0,133.0,0.0,0.0,0.0
19:44:04.805000,-1372.0,-745.0,-532.0,-1025.0,48.0,133.0,0.0,0.0,0.0
19:44:04.810000,-1412.0,-774.0,-517.0,-1006.0,30.0,172.0,0.0,0.0,0.0
19:44:04.814000,-1427.0,-799.0,-491.0,-1006.0,30.0,172.0,0.0,0.0,0.0
19:44:04.819000,-1452.0,-824.0,-511.0,-1014.0,29.0,221.0,0.0,0.0,0.0
19:44:04.824000,-1509.0,-858.0,-544.0,-1014.0,29.0,221.0,0.0,0.0,0.0
19:44:04.828000,-1544.0,-897.0,-545.0,-1035.0,77.0,295.0,0.0,0.0,0.0
19:44:04.833000,-1592.0,-934.0,-569.0,-1035.0,77.0,295.0,0.0,0.0,0.0
19:44:04.838000,-1646.0,-958.0,-630.0,-1021.0,126.0,371.0,0.0,0.0,0.0
19:44:04.842000,-1708.0,-974.0,-646.0,-1021.0,126.0,371.0,0.0,0.0,0.0
19:44:04.847000,-1745.0,-973.0,-641.0,-1021.0,126.0,371.0,0.0,0.0,0.0
19:44:04.852000,-1812.0,-961.0,-682.0,-1026.0,179.0,385.0,0.0,0.0,0.0
19:44:04.857000,-1868.0,-931.0,-739.0,-1026.0,179.0,385.0,0.0,0.0,0.0
19:44:04.861000,-1904.0,-910.0,-766.0,-1169.0,178.0,358.0,0.0,0.0,0.0
19:44:04.866000,-1926.0,-905.0,-754.0,-1169.0,178.0,358.0,0.0,0.0,0.0
19:44:04.871000,-1946.0,-904.0,-739.0,-1322.0,136.0,358.0,0.0,0.0,0.0
19:44:04.875000,-1978.0,-899.0,-731.0,-1322.0,136.0,358.0,0.0,0.0,0.0
19:44:04.880000,-2006.0,-893.0,-713.0,-1289.0,109.0,380.0,0.0,0.0,0.0
19:44:04.885000,-2018.0,-889.0,-701.0,-1289.0,109.0,380.0,0.0,0.0,0.0
19:44:04.889000,-2018.0,-889.0,-701.0,-1138.0,130.0,404.0,0.0,0.0,0.0
19:44:04.894000,-2023.0,-889.0,-705.0,-1138.0,130.0,404.0,0.0,0.0,0.0
19:44:04.899000,-2027.0,-894.0,-718.0,-1008.0,123.0,442.0,0.0,0.0,0.0
19:44:04.904000,-2036.0,-907.0,-724.0,-1008.0,123.0,442.0,0.0,0.0,0.0
19:44:04.908000,-2051.0,-924.0,-723.0,-972.0,134.0,479.0,0.0,0.0,0.0
19:44:04.913000,-2080.0,-937.0,-715.0,-972.0,134.0,479.0,0.0,0.0,0.0
19:44:04.918000,-2101.0,-943.0,-707.0,-994.0,221.0,490.0,0.0,0.0,0.0
19:44:04.922000,-2116.0,-956.0,-697.0,-994.0,221.0,490.0,0.0,0.0,0.0
19:44:04.927000,-2144.0,-951.0,-718.0,-1034.0,322.0,491.0,0.0,0.0,0.0
19:44:04.932000,-2175.0,-954.0,-763.0,-1034.0,322.0,491.0,0.0,0.0,0.0
19:44:04.936000,-2200.0,-961.0,-777.0,-1082.0,345.0,495.0,0.0,0.0,0.0
19:44:04.941000,-2235.0,-961.0,-758.0,-1082.0,345.0,495.0,0.0,0.0,0.0
19:44:04.946000,-2257.0,-954.0,-736.0,-1100.0,332.0,474.0,0.0,0.0,0.0
19:44:04.951000,-2254.0,-949.0,-703.0,-1100.0,332.0,474.0,0.0,0.0,0.0
19:44:04.955000,-2263.0,-940.0,-673.0,-1100.0,332.0,474.0,0.0,0.0,0.0
19:44:04.960000,-2268.0,-923.0,-641.0,-1128.0,323.0,452.0,0.0,0.0,0.0
19:44:04.965000,-2277.0,-905.0,-597.0,-1128.0,323.0,452.0,0.0,0.0,0.0
19:44:04.969000,-2275.0,-890.0,-568.0,-1158.0,295.0,451.0,0.0,0.0,0.0
19:44:04.974000,-2258.0,-868.0,-563.0,-1158.0,295.0,451.0,0.0,0.0,0.0
19:44:04.979000,-2253.0,-845.0,-568.0,-1116.0,261.0,451.0,0.0,0.0,0.0
19:44:04.983000,-2253.0,-845.0,-568.0,-1116.0,261.0,451.0,0.0,0.0,0.0
19:44:04.988000,-2228.0,-809.0,-588.0,-1062.0,274.0,445.0,0.0,0.0,0.0
19:44:04.993000,-2217.0,-793.0,-607.0,-1062.0,274.0,445.0,0.0,0.0,0.0
19:44:04.998000,-2217.0,-793.0,-607.0,-1058.0,309.0,441.0,0.0,0.0,0.0
19:44:05.002000,-2203.0,-779.0,-604.0,-1058.0,309.0,441.0,0.0,0.0,0.0
19:44:05.007000,-2181.0,-769.0,-592.0,-1053.0,314.0,440.0,0.0,0.0,0.0
19:44:05.012000,-2153.0,-759.0,-589.0,-1053.0,314.0,440.0,0.0,0.0,0.0
19:44:05.016000,-2118.0,-751.0,-593.0,-1016.0,297.0,431.0,0.0,0.0,0.0
19:44:05.021000,-2077.0,-742.0,-600.0,-1016.0,297.0,431.0,0.0,0.0,0.0
19:44:05.026000,-2031.0,-730.0,-606.0,-995.0,297.0,413.0,0.0,0.0,0.0
19:44:05.030000,-1985.0,-721.0,-598.0,-995.0,297.0,413.0,0.0,0.0,0.0
19:44:05.035000,-1948.0,-712.0,-583.0,-994.0,328.0,401.0,0.0,0.0,0.0
