hh:mm:ss.ms,gyroX[mdps],gyroY[mdps],gyroZ[mdps],accX[mg],accY[mg],accZ[mg],magX[mG],magY[mG],magZ[mG]
19:32:29.609000,214.0,145.0,-29.0,-1315.0,294.0,-163.0,0.0,0.0,0.0
19:32:29.614000,183.0,137.0,412.0,-1315.0,294.0,-163.0,0.0,0.0,0.0
19:32:29.619000,2.0,116.0,473.0,-1199.0,-41.0,-139.0,0.0,0.0,0.0
19:32:29.623000,37.0,136.0,630.0,-1199.0,-41.0,-139.0,0.0,0.0,0.0
19:32:29.628000,-48.0,105.0,778.0,-1150.0,-171.0,-19.0,0.0,0.0,0.0
19:32:29.633000,-396.0,91.0,728.0,-1150.0,-171.0,-19.0,0.0,0.0,0.0
19:32:29.637000,-275.0,102.0,655.0,-999.0,-420.0,0.0,0.0,0.0,0.0
19:32:29.642000,-203.0,100.0,478.0,-999.0,-420.0,0.0,0.0,0.0,0.0
19:32:29.647000,-125.0,119.0,291.0,-923.0,-913.0,-44.0,0.0,0.0,0.0
19:32:29.651000,-87.0,177.0,482.0,-923.0,-913.0,-44.0,0.0,0.0,0.0
19:32:29.656000,-319.0,142.0,619.0,-953.0,-956.0,27.0,0.0,0.0,0.0
19:32:29.661000,-97.0,180.0,835.0,-953.0,-956.0,27.0,0.0,0.0,0.0
19:32:29.666000,-39.0,200.0,756.0,-953.0,-956.0,27.0,0.0,0.0,0.0
19:32:29.670000,-92.0,225.0,621.0,-934.0,-782.0,75.0,0.0,0.0,0.0
19:32:29.675000,-233.0,240.0,405.0,-934.0,-782.0,75.0,0.0,0.0,0.0
19:32:29.680000,-149.0,286.0,88.0,-931.0,-847.0,38.0,0.0,0.0,0.0
19:32:29.684000,-118.0,271.0,-272.0,-931.0,-847.0,38.0,0.0,0.0,0.0
19:32:29.689000,-177.0,296.0,-388.0,-1050.0,-654.0,30.0,0.0,0.0,0.0
19:32:29.694000,-104.0,297.0,-112.0,-1050.0,-654.0,30.0,0.0,0.0,0.0
19:32:29.698000,-17.0,273.0,-30.0,-909.0,-589.0,-3.0,0.0,0.0,0.0
19:32:29.703000,-88.0,240.0,-324.0,-909.0,-589.0,-3.0,0.0,0.0,0.0
19:32:29.708000,-24.0,222.0,-365.0,-902.0,-636.0,-39.0,0.0,0.0,0.0
19:32:29.713000,-24.0,222.0,-365.0,-902.0,-636.0,-39.0,0.0,0.0,0.0
19:32:29.717000,151.0,164.0,-169.0,-1051.0,-592.0,-37.0,0.0,0.0,0.0
19:32:29.722000,176.0,74.0,-336.0,-1051.0,-592.0,-37.0,0.0,0.0,0.0
19:32:29.727000,122.0,55.0,-618.0,-733.0,-441.0,-34.0,0.0,0.0,0.0
19:32:29.731000,29.0,44.0,-478.0,-733.0,-441.0,-34.0,0.0,0.0,0.0
19:32:29.736000,-37.0,19.0,-291.0,-510.0,-352.0,-52.0,0.0,0.0,0.0
19:32:29.741000,-124.0,23.0,-268.0,-510.0,-352.0,-52.0,0.0,0.0,0.0
19:32:29.745000,-131.0,33.0,-95.0,-838.0,-482.0,-92.0,0.0,0.0,0.0
19:32:29.750000,-130.0,-28.0,14.0,-838.0,-482.0,-92.0,0.0,0.0,0.0
19:32:29.755000,-93.0,-29.0,-13.0,-1029.0,-474.0,-121.0,0.0,0.0,0.0
19:32:29.760000,-161.0,0.0,109.0,-1029.0,-474.0,-121.0,0.0,0.0,0.0
19:32:29.764000,-210.0,9.0,-113.0,-854.0,-286.0,-132.0,0.0,0.0,0.0
19:32:29.769000,-176.0,14.0,-465.0,-854.0,-286.0,-132.0,0.0,0.0,0.0
19:32:29.774000,-80.0,-9.0,-407.0,-854.0,-286.0,-132.0,0.0,0.0,0.0
19:32:29.778000,-64.0,-31.0,-205.0,-745.0,-457.0,-146.0,0.0,0.0,0.0
19:32:29.783000,-153.0,-61.0,-21.0,-745.0,-457.0,-146.0,0.0,0.0,0.0
19:32:29.788000,-128.0,-95.0,35.0,-691.0,-624.0,-138.0,0.0,0.0,0.0
19:32:29.792000,-42.0,-131.0,-4.0,-691.0,-624.0,-138.0,0.0,0.0,0.0
19:32:29.797000,23.0,-124.0,-165.0,-721.0,-390.0,-138.0,0.0,0.0,0.0
19:32:29.802000,69.0,-149.0,-366.0,-721.0,-390.0,-138.0,0.0,0.0,0.0
19:32:29.807000,44.0,-168.0,-494.0,-884.0,-366.0,-120.0,0.0,0.0,0.0
19:32:29.811000,48.0,-135.0,-516.0,-884.0,-366.0,-120.0,0.0,0.0,0.0
19:32:29.816000,56.0,-145.0,-581.0,-907.0,-410.0,-87.0,0.0,0.0,0.0
19:32:29.821000,56.0,-145.0,-581.0,-907.0,-410.0,-87.0,0.0,0.0,0.0
19:32:29.825000,-14.0,-91.0,-422.0,-882.0,-408.0,-78.0,0.0,0.0,0.0
19:32:29.830000,-63.0,-77.0,-381.0,-882.0,-408.0,-78.0,0.0,0.0,0.0
19:32:29.835000,-63.0,-91.0,-426.0,-1024.0,-415.0,-87.0,0.0,0.0,0.0
19:32:29.839000,3.0,-77.0,-348.0,-1024.0,-415.0,-87.0,0.0,0.0,0.0
19:32:29.844000,143.0,-134.0,-238.0,-1023.0,-428.0,-101.0,0.0,0.0,0.0
19:32:29.849000,106.0,-165.0,-10.0,-1023.0,-428.0,-101.0,0.0,0.0,0.0
19:32:29.854000,12.0,-156.0,0.0,-894.0,-293.0,-79.0,0.0,0.0,0.0
19:32:29.858000,88.0,-159.0,-178.0,-894.0,-293.0,-79.0,0.0,0.0,0.0
19:32:29.863000,126.0,-168.0,-351.0,-934.0,-175.0,-55.0,0.0,0.0,0.0
19:32:29.868000,4.0,-144.0,-361.0,-934.0,-175.0,-55.0,0.0,0.0,0.0
19:32:29.872000,-81.0,-119.0,-377.0,-1008.0,-231.0,-13.0,0.0,0.0,0.0
19:32:29.877000,-58.0,-102.0,-445.0,-1008.0,-231.0,-13.0,0.0,0.0,0.0
19:32:29.882000,-107.0,-37.0,-375.0,-1008.0,-231.0,-13.0,0.0,0.0,0.0
19:32:29.886000,-102.0,-35.0,-432.0,-998.0,-300.0,28.0,0.0,0.0,0.0
19:32:29.891000,-65.0,18.0,-206.0,-998.0,-300.0,28.0,0.0,0.0,0.0
19:32:29.896000,-39.0,23.0,-159.0,-1045.0,-423.0,29.0,0.0,0.0,0.0
19:32:29.901000,-36.0,60.0,-285.0,-1045.0,-423.0,29.0,0.0,0.0,0.0
19:32:29.905000,-21.0,68.0,-207.0,-1079.0,-389.0,23.0,0.0,0.0,0.0
19:32:29.910000,86.0,54.0,-80.0,-1079.0,-389.0,23.0,0.0,0.0,0.0
19:32:29.915000,165.0,40.0,-177.0,-958.0,-253.0,23.0,0.0,0.0,0.0
19:32:29.919000,191.0,53.0,-392.0,-958.0,-253.0,23.0,0.0,0.0,0.0
19:32:29.924000,180.0,59.0,-573.0,-914.0,-190.0,26.0,0.0,0.0,0.0
19:32:29.929000,180.0,59.0,-573.0,-914.0,-190.0,26.0,0.0,0.0,0.0
19:32:29.933000,191.0,71.0,-583.0,-958.0,-246.0,34.0,0.0,0.0,0.0
19:32:29.938000,137.0,81.0,-528.0,-958.0,-246.0,34.0,0.0,0.0,0.0
19:32:29.943000,52.0,103.0,-391.0,-988.0,-323.0,21.0,0.0,0.0,0.0
19:32:29.948000,64.0,86.0,-201.0,-988.0,-323.0,21.0,0.0,0.0,0.0
19:32:29.952000,-25.0,118.0,-220.0,-1047.0,-259.0,3.0,0.0,0.0,0.0
19:32:29.957000,-72.0,182.0,-380.0,-1047.0,-259.0,3.0,0.0,0.0,0.0
19:32:29.962000,-21.0,178.0,-518.0,-1095.0,-245.0,-27.0,0.0,0.0,0.0
19:32:29.966000,81.0,178.0,-462.0,-1095.0,-245.0,-27.0,0.0,0.0,0.0
19:32:29.971000,190.0,152.0,-264.0,-944.0,-255.0,-45.0,0.0,0.0,0.0
19:32:29.976000,249.0,144.0,-103.0,-944.0,-255.0,-45.0,0.0,0.0,0.0
19:32:29.980000,331.0,134.0,-252.0,-881.0,-77.0,-51.0,0.0,0.0,0.0
19:32:29.985000,346.0,156.0,-438.0,-881.0,-77.0,-51.0,0.0,0.0,0.0
19:32:29.990000,253.0,140.0,-480.0,-881.0,-91.0,-53.0,0.0,0.0,0.0
19:32:29.995000,247.0,128.0,-427.0,-1011.0,-91.0,-53.0,0.0,0.0,0.0
19:32:29.999000,264.0,85.0,-449.0,-1011.0,-91.0,-53.0,0.0,0.0,0.0
19:32:30.004000,181.0,99.0,-455.0,-962.0,-187.0,-53.0,0.0,0.0,0.0
19:32:30.009000,88.0,90.0,-535.0,-962.0,-187.0,-53.0,0.0,0.0,0.0
19:32:30.013000,-21.0,107.0,-511.0,-926.0,-101.0,-65.0,0.0,0.0,0.0
19:32:30.018000,-71.0,110.0,-370.0,-926.0,-101.0,-65.0,0.0,0.0,0.0
19:32:30.023000,-126.0,103.0,-248.0,-947.0,-131.0,-82.0,0.0,0.0,0.0
19:32:30.027000,-130.0,136.0,-279.0,-947.0,-131.0,-82.0,0.0,0.0,0.0
19:32:30.032000,-133.0,88.0,-324.0,-1074.0,-268.0,-102.0,0.0,0.0,0.0
19:32:30.037000,-138.0,63.0,-308.0,-1074.0,-268.0,-102.0,0.0,0.0,0.0
19:32:30.042000,-138.0,63.0,-308.0,-1007.0,-287.0,-110.0,0.0,0.0,0.0
19:32:30.046000,-17.0,94.0,-193.0,-1007.0,-287.0,-110.0,0.0,0.0,0.0
19:32:30.051000,33.0,89.0,-143.0,-759.0,-139.0,-102.0,0.0,0.0,0.0
19:32:30.056000,25.0,86.0,-130.0,-759.0,-139.0,-102.0,0.0,0.0,0.0
19:32:30.060000,101.0,82.0,-54.0,-772.0,18.0,-98.0,0.0,0.0,0.0
19:32:30.065000,189.0,42.0,-63.0,-772.0,18.0,-98.0,0.0,0.0,0.0
19:32:30.070000,235.0,1.0,-191.0,-857.0,-3.0,-78.0,0.0,0.0,0.0
19:32:30.074000,189.0,-21.0,-350.0,-857.0,-3.0,-78.0,0.0,0.0,0.0
19:32:30.079000,100.0,-3.0,-465.0,-847.0,-68.0,-40.0,0.0,0.0,0.0
19:32:30.084000,37.0,-7.0,-463.0,-847.0,-68.0,-40.0,0.0,0.0,0.0
19:32:30.089000,-12.0,0.0,-290.0,-874.0,-78.0,-29.0,0.0,0.0,0.0
19:32:30.093000,-74.0,-14.0,-179.0,-874.0,-78.0,-29.0,0.0,0.0,0.0
19:32:30.098000,-84.0,-2.0,-205.0,-1024.0,-151.0,-40.0,0.0,0.0,0.0
19:32:30.103000,-78.0,-2.0,-149.0,-1024.0,-151.0,-40.0,0.0,0.0,0.0
19:32:30.107000,-84.0,-21.0,-70.0,-1024.0,-151.0,-40.0,0.0,0.0,0.0
19:32:30.112000,-43.0,-32.0,21.0,-1052.0,-208.0,-42.0,0.0,0.0,0.0
19:32:30.117000,-23.0,-18.0,43.0,-1052.0,-208.0,-42.0,0.0,0.0,0.0
19:32:30.121000,-44.0,-1.0,7.0,-891.0,-87.0,-36.0,0.0,0.0,0.0
19:32:30.126000,-39.0,-26.0,-88.0,-891.0,-87.0,-36.0,0.0,0.0,0.0
19:32:30.131000,-25.0,-12.0,-189.0,-842.0,26.0,-28.0,0.0,0.0,0.0
19:32:30.136000,51.0,-9.0,-277.0,-842.0,26.0,-28.0,0.0,0.0,0.0
19:32:30.140000,30.0,-4.0,-326.0,-943.0,-111.0,-9.0,0.0,0.0,0.0
19:32:30.145000,13.0,7.0,-246.0,-943.0,-111.0,-9.0,0.0,0.0,0.0
19:32:30.150000,13.0,7.0,-246.0,-1026.0,-245.0,4.0,0.0,0.0,0.0
19:32:30.154000,6.0,2.0,-139.0,-1026.0,-245.0,4.0,0.0,0.0,0.0
19:32:30.159000,-48.0,7.0,-172.0,-1026.0,-147.0,8.0,0.0,0.0,0.0
19:32:30.164000,-30.0,46.0,-193.0,-1026.0,-147.0,8.0,0.0,0.0,0.0
19:32:30.168000,-52.0,23.0,-98.0,-1028.0,-137.0,-1.0,0.0,0.0,0.0
19:32:30.173000,-67.0,28.0,-131.0,-1028.0,-137.0,-1.0,0.0,0.0,0.0
19:32:30.178000,-53.0,32.0,-294.0,-1032.0,-114.0,-6.0,0.0,0.0,0.0
19:32:30.183000,-74.0,23.0,-314.0,-1032.0,-114.0,-6.0,0.0,0.0,0.0
19:32:30.187000,-69.0,44.0,-175.0,-883.0,12.0,0.0,0.0,0.0,0.0
19:32:30.192000,-59.0,48.0,36.0,-883.0,12.0,0.0,0.0,0.0,0.0
19:32:30.197000,29.0,25.0,114.0,-882.0,-21.0,4.0,0.0,0.0,0.0
19:32:30.201000,71.0,7.0,-53.0,-882.0,-21.0,4.0,0.0,0.0,0.0
19:32:30.206000,149.0,-10.0,-275.0,-1006.0,-79.0,0.0,0.0,0.0,0.0
19:32:30.211000,171.0,-13.0,-406.0,-1006.0,-79.0,0.0,0.0,0.0,0.0
19:32:30.215000,112.0,-23.0,-473.0,-1006.0,-79.0,0.0,0.0,0.0,0.0
19:32:30.220000,44.0,12.0,-503.0,-942.0,-76.0,9.0,0.0,0.0,0.0
19:32:30.225000,46.0,39.0,-453.0,-942.0,-53.0,13.0,0.0,0.0,0.0
19:32:30.230000,36.0,21.0,-252.0,-911.0,-53.0,13.0,0.0,0.0,0.0
19:32:30.234000,17.0,-6.0,-99.0,-911.0,-53.0,13.0,0.0,0.0,0.0
19:32:30.239000,-11.0,-23.0,-144.0,-984.0,-83.0,16.0,0.0,0.0,0.0
19:32:30.244000,-16.0,-16.0,-217.0,-984.0,-83.0,16.0,0.0,0.0,0.0
19:32:30.248000,-33.0,-21.0,-229.0,-1014.0,-117.0,16.0,0.0,0.0,0.0
19:32:30.253000,-79.0,0.0,-312.0,-1014.0,-117.0,16.0,0.0,0.0,0.0
19:32:30.258000,-79.0,0.0,-312.0,-1013.0,-70.0,-10.0,0.0,0.0,0.0
19:32:30.262000,-51.0,37.0,-410.0,-1013.0,-70.0,-10.0,0.0,0.0,0.0
19:32:30.267000,17.0,2.0,-298.0,-991.0,-78.0,-27.0,0.0,0.0,0.0
19:32:30.272000,-2.0,-18.0,-161.0,-991.0,-78.0,-27.0,0.0,0.0,0.0
19:32:30.277000,49.0,-46.0,-123.0,-919.0,-14.0,-26.0,0.0,0.0,0.0
19:32:30.281000,18.0,-67.0,-191.0,-919.0,-14.0,-26.0,0.0,0.0,0.0
19:32:30.286000,-39.0,-22.0,-273.0,-842.0,145.0,-33.0,0.0,0.0,0.0
19:32:30.291000,52.0,-30.0,-323.0,-842.0,145.0,-33.0,0.0,0.0,0.0
19:32:30.295000,65.0,-42.0,-336.0,-879.0,14.0,-32.0,0.0,0.0,0.0
19:32:30.300000,42.0,-51.0,-340.0,-879.0,14.0,-32.0,0.0,0.0,0.0
19:32:30.305000,30.0,-51.0,-351.0,-948.0,-96.0,-19.0,0.0,0.0,0.0
19:32:30.309000,-12.0,-38.0,-378.0,-948.0,-96.0,-19.0,0.0,0.0,0.0
19:32:30.314000,-45.0,-2.0,-403.0,-952.0,10.0,-23.0,0.0,0.0,0.0
19:32:30.319000,-46.0,25.0,-451.0,-952.0,10.0,-23.0,0.0,0.0,0.0
19:32:30.324000,-47.0,45.0,-459.0,-952.0,10.0,-23.0,0.0,0.0,0.0
19:32:30.328000,-44.0,56.0,-408.0,-1022.0,-25.0,-35.0,0.0,0.0,0.0
19:32:30.333000,-34.0,67.0,-342.0,-1022.0,-25.0,-35.0,0.0,0.0,0.0
19:32:30.338000,-12.0,84.0,-299.0,-1070.0,-111.0,-51.0,0.0,0.0,0.0
19:32:30.342000,-1.0,91.0,-273.0,-1070.0,-111.0,-51.0,0.0,0.0,0.0
19:32:30.347000,-5.0,100.0,-224.0,-1051.0,-58.0,-65.0,0.0,0.0,0.0
19:32:30.352000,0.0,100.0,-206.0,-1051.0,-58.0,-65.0,0.0,0.0,0.0
19:32:30.356000,0.0,100.0,-206.0,-1051.0,12.0,-62.0,0.0,0.0,0.0
19:32:30.361000,-3.0,114.0,-343.0,-1051.0,12.0,-62.0,0.0,0.0,0.0
19:32:30.366000,-3.0,114.0,-343.0,-1040.0,38.0,-58.0,0.0,0.0,0.0
19:32:30.371000,8.0,121.0,-375.0,-1040.0,38.0,-58.0,0.0,0.0,0.0
19:32:30.375000,18.0,114.0,-294.0,-972.0,28.0,-59.0,0.0,0.0,0.0
19:32:30.380000,13.0,111.0,-246.0,-972.0,28.0,-59.0,0.0,0.0,0.0
19:32:30.385000,29.0,121.0,-259.0,-962.0,26.0,-63.0,0.0,0.0,0.0
19:32:30.389000,42.0,126.0,-282.0,-962.0,26.0,-63.0,0.0,0.0,0.0
19:32:30.394000,35.0,121.0,-300.0,-1014.0,8.0,-63.0,0.0,0.0,0.0
19:32:30.399000,69.0,110.0,-245.0,-1014.0,8.0,-63.0,0.0,0.0,0.0
19:32:30.403000,97.0,104.0,-148.0,-995.0,-9.0,-61.0,0.0,0.0,0.0
19:32:30.408000,106.0,115.0,-86.0,-995.0,-9.0,-61.0,0.0,0.0,0.0
19:32:30.413000,133.0,111.0,-88.0,-1004.0,43.0,-62.0,0.0,0.0,0.0
19:32:30.417000,144.0,102.0,-129.0,-1004.0,43.0,-62.0,0.0,0.0,0.0
19:32:30.422000,153.0,95.0,-192.0,-1046.0,89.0,-56.0,0.0,0.0,0.0
19:32:30.427000,137.0,100.0,-259.0,-1046.0,89.0,-56.0,0.0,0.0,0.0
19:32:30.432000,114.0,120.0,-282.0,-1046.0,89.0,-56.0,0.0,0.0,0.0
19:32:30.436000,82.0,131.0,-272.0,-1078.0,58.0,-51.0,0.0,0.0,0.0
19:32:30.441000,62.0,128.0,-226.0,-1078.0,58.0,-51.0,0.0,0.0,0.0
19:32:30.446000,65.0,128.0,-226.0,-1128.0,28.0,-54.0,0.0,0.0,0.0
19:32:30.450000,58.0,121.0,-290.0,-1128.0,28.0,-54.0,0.0,0.0,0.0
19:32:30.455000,26.0,126.0,-319.0,-1118.0,93.0,-61.0,0.0,0.0,0.0
19:32:30.460000,-26.0,136.0,-312.0,-1118.0,93.0,-61.0,0.0,0.0,0.0
19:32:30.464000,-29.0,137.0,-343.0,-1033.0,169.0,-57.0,0.0,0.0,0.0
19:32:30.469000,-21.0,136.0,-373.0,-1033.0,169.0,-57.0,0.0,0.0,0.0
19:32:30.474000,-20.0,133.0,-396.0,-994.0,143.0,-54.0,0.0,0.0,0.0
19:32:30.479000,-20.0,133.0,-396.0,-994.0,143.0,-54.0,0.0,0.0,0.0
19:32:30.483000,-7.0,136.0,-380.0,-1023.0,70.0,-59.0,0.0,0.0,0.0
19:32:30.488000,14.0,128.0,-362.0,-1023.0,70.0,-59.0,0.0,0.0,0.0
19:32:30.493000,25.0,124.0,-372.0,-1071.0,49.0,-63.0,0.0,0.0,0.0
19:32:30.497000,27.0,118.0,-375.0,-1071.0,49.0,-63.0,0.0,0.0,0.0
19:32:30.502000,18.0,128.0,-346.0,-1082.0,97.0,-66.0,0.0,0.0,0.0
19:32:30.507000,25.0,137.0,-322.0,-1082.0,97.0,-66.0,0.0,0.0,0.0
19:32:30.511000,37.0,146.0,-347.0,-1081.0,145.0,-68.0,0.0,0.0,0.0
19:32:30.516000,51.0,151.0,-374.0,-1081.0,145.0,-68.0,0.0,0.0,0.0
19:32:30.521000,53.0,155.0,-348.0,-1091.0,109.0,-63.0,0.0,0.0,0.0
19:32:30.526000,42.0,162.0,-306.0,-1091.0,109.0,-63.0,0.0,0.0,0.0
19:32:30.530000,42.0,164.0,-305.0,-1082.0,97.0,-59.0,0.0,0.0,0.0
19:32:30.535000,48.0,168.0,-354.0,-1082.0,97.0,-59.0,0.0,0.0,0.0
19:32:30.540000,51.0,172.0,-404.0,-1082.0,97.0,-59.0,0.0,0.0,0.0
19:32:30.544000,50.0,173.0,-413.0,-1077.0,171.0,-59.0,0.0,0.0,0.0
19:32:30.549000,37.0,180.0,-401.0,-1077.0,171.0,-59.0,0.0,0.0,0.0
19:32:30.554000,26.0,188.0,-395.0,-1065.0,200.0,-57.0,0.0,0.0,0.0
19:32:30.558000,16.0,193.0,-406.0,-1065.0,200.0,-57.0,0.0,0.0,0.0
19:32:30.563000,4.0,201.0,-420.0,-1080.0,198.0,-59.0,0.0,0.0,0.0
19:32:30.568000,-9.0,210.0,-430.0,-1080.0,198.0,-59.0,0.0,0.0,0.0
19:32:30.573000,-25.0,216.0,-426.0,-1102.0,217.0,-64.0,0.0,0.0,0.0
19:32:30.577000,-42.0,221.0,-418.0,-1102.0,217.0,-64.0,0.0,0.0,0.0
19:32:30.582000,-60.0,227.0,-417.0,-1091.0,238.0,-66.0,0.0,0.0,0.0
19:32:30.587000,-60.0,227.0,-417.0,-1091.0,238.0,-66.0,0.0,0.0,0.0
19:32:30.591000,-71.0,235.0,-420.0,-1076.0,254.0,-75.0,0.0,0.0,0.0
19:32:30.596000,-80.0,247.0,-434.0,-1076.0,254.0,-75.0,0.0,0.0,0.0
19:32:30.601000,-96.0,256.0,-448.0,-1088.0,255.0,-82.0,0.0,0.0,0.0
19:32:30.605000,-108.0,259.0,-450.0,-1088.0,255.0,-82.0,0.0,0.0,0.0
19:32:30.610000,-109.0,260.0,-430.0,-1087.0,198.0,-91.0,0.0,0.0,0.0
19:32:30.615000,-107.0,261.0,-398.0,-1087.0,198.0,-91.0,0.0,0.0,0.0
19:32:30.620000,-100.0,266.0,-359.0,-1044.0,142.0,-107.0,0.0,0.0,0.0
19:32:30.624000,-88.0,268.0,-336.0,-1044.0,142.0,-107.0,0.0,0.0,0.0
19:32:30.629000,-68.0,269.0,-324.0,-1021.0,185.0,-127.0,0.0,0.0,0.0
19:32:30.634000,-56.0,269.0,-338.0,-1021.0,185.0,-127.0,0.0,0.0,0.0
19:32:30.638000,-57.0,275.0,-379.0,-1041.0,262.0,-144.0,0.0,0.0,0.0
19:32:30.643000,-60.0,280.0,-420.0,-1041.0,262.0,-144.0,0.0,0.0,0.0
19:32:30.648000,-63.0,279.0,-429.0,-1041.0,256.0,-144.0,0.0,0.0,0.0
19:32:30.652000,-61.0,273.0,-401.0,-1031.0,256.0,-145.0,0.0,0.0,0.0
19:32:30.657000,-59.0,267.0,-375.0,-1031.0,256.0,-145.0,0.0,0.0,0.0
19:32:30.662000,-61.0,262.0,-361.0,-1008.0,218.0,-155.0,0.0,0.0,0.0
19:32:30.667000,-66.0,254.0,-348.0,-1008.0,218.0,-155.0,0.0,0.0,0.0
19:32:30.671000,-64.0,248.0,-333.0,-1012.0,216.0,-170.0,0.0,0.0,0.0
19:32:30.676000,-61.0,242.0,-333.0,-1012.0,216.0,-170.0,0.0,0.0,0.0
19:32:30.681000,-60.0,231.0,-352.0,-1008.0,222.0,-180.0,0.0,0.0,0.0
19:32:30.685000,-60.0,220.0,-381.0,-1008.0,222.0,-180.0,0.0,0.0,0.0
19:32:30.690000,-59.0,212.0,-397.0,-973.0,243.0,-190.0,0.0,0.0,0.0
19:32:30.695000,-59.0,212.0,-397.0,-973.0,243.0,-190.0,0.0,0.0,0.0
19:32:30.699000,-55.0,203.0,-403.0,-934.0,264.0,-203.0,0.0,0.0,0.0
19:32:30.704000,-49.0,194.0,-411.0,-934.0,264.0,-203.0,0.0,0.0,0.0
19:32:30.709000,-46.0,187.0,-427.0,-925.0,277.0,-214.0,0.0,0.0,0.0
19:32:30.714000,-44.0,181.0,-431.0,-925.0,277.0,-214.0,0.0,0.0,0.0
19:32:30.718000,-37.0,177.0,-424.0,-925.0,284.0,-220.0,0.0,0.0,0.0
19:32:30.723000,-25.0,172.0,-419.0,-925.0,284.0,-220.0,0.0,0.0,0.0
19:32:30.728000,-16.0,170.0,-417.0,-935.0,296.0,-231.0,0.0,0.0,0.0
19:32:30.732000,-15.0,170.0,-423.0,-935.0,296.0,-231.0,0.0,0.0,0.0
19:32:30.737000,-14.0,166.0,-436.0,-961.0,333.0,-236.0,0.0,0.0,0.0
19:32:30.742000,-11.0,160.0,-447.0,-961.0,333.0,-236.0,0.0,0.0,0.0
19:32:30.746000,-8.0,150.0,-459.0,-964.0,346.0,-235.0,0.0,0.0,0.0
19:32:30.751000,-8.0,142.0,-459.0,-964.0,346.0,-235.0,0.0,0.0,0.0
19:32:30.756000,0.0,132.0,-444.0,-948.0,328.0,-237.0,0.0,0.0,0.0
19:32:30.761000,12.0,122.0,-427.0,-948.0,328.0,-237.0,0.0,0.0,0.0
19:32:30.765000,22.0,114.0,-419.0,-948.0,328.0,-237.0,0.0,0.0,0.0
19:32:30.770000,32.0,109.0,-411.0,-950.0,336.0,-246.0,0.0,0.0,0.0
19:32:30.775000,41.0,105.0,-413.0,-950.0,336.0,-246.0,0.0,0.0,0.0
19:32:30.779000,44.0,102.0,-417.0,-969.0,373.0,-256.0,0.0,0.0,0.0
19:32:30.784000,47.0,105.0,-414.0,-969.0,373.0,-256.0,0.0,0.0,0.0
19:32:30.789000,48.0,109.0,-398.0,-976.0,389.0,-266.0,0.0,0.0,0.0
19:32:30.793000,45.0,116.0,-380.0,-976.0,389.0,-266.0,0.0,0.0,0.0
19:32:30.798000,46.0,123.0,-386.0,-968.0,389.0,-275.0,0.0,0.0,0.0
19:32:30.803000,51.0,133.0,-413.0,-968.0,389.0,-275.0,0.0,0.0,0.0
19:32:30.808000,51.0,133.0,-413.0,-966.0,404.0,-285.0,0.0,0.0,0.0
19:32:30.812000,53.0,141.0,-438.0,-966.0,404.0,-285.0,0.0,0.0,0.0
19:32:30.817000,69.0,151.0,-441.0,-938.0,407.0,-305.0,0.0,0.0,0.0
19:32:30.822000,80.0,163.0,-422.0,-938.0,407.0,-305.0,0.0,0.0,0.0
19:32:30.826000,98.0,184.0,-384.0,-885.0,399.0,-335.0,0.0,0.0,0.0
19:32:30.831000,132.0,191.0,-339.0,-885.0,399.0,-335.0,0.0,0.0,0.0
19:32:30.836000,158.0,196.0,-295.0,-860.0,402.0,-351.0,0.0,0.0,0.0
19:32:30.840000,185.0,199.0,-264.0,-860.0,402.0,-351.0,0.0,0.0,0.0
19:32:30.845000,205.0,198.0,-251.0,-864.0,418.0,-347.0,0.0,0.0,0.0
19:32:30.850000,231.0,189.0,-241.0,-864.0,418.0,-347.0,0.0,0.0,0.0
19:32:30.855000,282.0,172.0,-231.0,-840.0,437.0,-350.0,0.0,0.0,0.0
19:32:30.859000,339.0,151.0,-224.0,-840.0,437.0,-350.0,0.0,0.0,0.0
19:32:30.864000,385.0,139.0,-228.0,-785.0,494.0,-359.0,0.0,0.0,0.0
19:32:30.869000,415.0,137.0,-221.0,-785.0,494.0,-359.0,0.0,0.0,0.0
19:32:30.873000,418.0,143.0,-188.0,-785.0,494.0,-359.0,0.0,0.0,0.0
19:32:30.878000,394.0,149.0,-152.0,-793.0,614.0,-354.0,0.0,0.0,0.0
19:32:30.883000,365.0,146.0,-137.0,-793.0,614.0,-354.0,0.0,0.0,0.0
19:32:30.887000,346.0,142.0,-119.0,-875.0,765.0,-319.0,0.0,0.0,0.0
19:32:30.892000,311.0,137.0,-79.0,-875.0,765.0,-319.0,0.0,0.0,0.0
19:32:30.897000,278.0,132.0,-16.0,-930.0,835.0,-274.0,0.0,0.0,0.0
19:32:30.902000,253.0,121.0,37.0,-930.0,835.0,-274.0,0.0,0.0,0.0
19:32:30.906000,262.0,107.0,72.0,-923.0,768.0,-246.0,0.0,0.0,0.0
19:32:30.911000,249.0,105.0,116.0,-923.0,768.0,-246.0,0.0,0.0,0.0
19:32:30.916000,249.0,105.0,116.0,-905.0,672.0,-235.0,0.0,0.0,0.0
19:32:30.920000,224.0,93.0,174.0,-905.0,672.0,-235.0,0.0,0.0,0.0
19:32:30.925000,197.0,82.0,246.0,-868.0,625.0,-219.0,0.0,0.0,0.0
19:32:30.930000,169.0,69.0,308.0,-868.0,625.0,-219.0,0.0,0.0,0.0
19:32:30.934000,131.0,58.0,319.0,-824.0,646.0,-198.0,0.0,0.0,0.0
19:32:30.939000,62.0,54.0,273.0,-824.0,646.0,-198.0,0.0,0.0,0.0
19:32:30.944000,2.0,51.0,214.0,-788.0,702.0,-181.0,0.0,0.0,0.0
19:32:30.949000,-32.0,51.0,158.0,-788.0,702.0,-181.0,0.0,0.0,0.0
19:32:30.953000,-70.0,53.0,118.0,-794.0,705.0,-173.0,0.0,0.0,0.0
19:32:30.958000,-104.0,52.0,145.0,-794.0,705.0,-173.0,0.0,0.0,0.0
19:32:30.963000,-144.0,49.0,213.0,-846.0,654.0,-197.0,0.0,0.0,0.0
19:32:30.967000,-165.0,50.0,256.0,-846.0,654.0,-197.0,0.0,0.0,0.0
19:32:30.972000,-156.0,57.0,244.0,-959.0,676.0,-254.0,0.0,0.0,0.0
19:32:30.977000,-149.0,68.0,174.0,-959.0,676.0,-254.0,0.0,0.0,0.0
19:32:30.981000,-158.0,59.0,63.0,-959.0,676.0,-254.0,0.0,0.0,0.0
19:32:30.986000,-154.0,41.0,0.0,-1081.0,693.0,-285.0,0.0,0.0,0.0
19:32:30.991000,-134.0,35.0,10.0,-1081.0,693.0,-285.0,0.0,0.0,0.0
19:32:30.996000,-105.0,28.0,111.0,-982.0,526.0,-289.0,0.0,0.0,0.0
19:32:31.000000,-87.0,14.0,212.0,-982.0,526.0,-289.0,0.0,0.0,0.0
19:32:31.005000,-64.0,-13.0,179.0,-835.0,382.0,-283.0,0.0,0.0,0.0
19:32:31.010000,-31.0,-27.0,67.0,-835.0,382.0,-283.0,0.0,0.0,0.0
19:32:31.014000,-18.0,-18.0,18.0,-756.0,444.0,-263.0,0.0,0.0,0.0
19:32:31.019000,-8.0,-16.0,13.0,-756.0,444.0,-263.0,0.0,0.0,0.0
19:32:31.024000,-8.0,-16.0,13.0,-681.0,521.0,-253.0,0.0,0.0,0.0
19:32:31.028000,2.0,-15.0,29.0,-681.0,521.0,-253.0,0.0,0.0,0.0
19:32:31.033000,49.0,-19.0,95.0,-724.0,508.0,-250.0,0.0,0.0,0.0
19:32:31.038000,116.0,-28.0,126.0,-724.0,508.0,-250.0,0.0,0.0,0.0
19:32:31.043000,172.0,-44.0,65.0,-803.0,486.0,-237.0,0.0,0.0,0.0
19:32:31.047000,217.0,-44.0,-5.0,-803.0,486.0,-237.0,0.0,0.0,0.0
19:32:31.052000,254.0,-45.0,-14.0,-808.0,507.0,-208.0,0.0,0.0,0.0
19:32:31.057000,280.0,-49.0,-6.0,-808.0,507.0,-208.0,0.0,0.0,0.0
19:32:31.061000,290.0,-60.0,28.0,-764.0,566.0,-170.0,0.0,0.0,0.0
19:32:31.066000,298.0,-83.0,84.0,-764.0,566.0,-170.0,0.0,0.0,0.0
19:32:31.071000,284.0,-113.0,144.0,-711.0,623.0,-131.0,0.0,0.0,0.0
19:32:31.075000,267.0,-144.0,190.0,-711.0,623.0,-131.0,0.0,0.0,0.0
19:32:31.080000,235.0,-168.0,228.0,-655.0,656.0,-111.0,0.0,0.0,0.0
19:32:31.085000,182.0,-189.0,282.0,-655.0,656.0,-111.0,0.0,0.0,0.0
19:32:31.090000,113.0,-207.0,309.0,-655.0,656.0,-111.0,0.0,0.0,0.0
19:32:31.094000,25.0,-215.0,292.0,-580.0,695.0,-104.0,0.0,0.0,0.0
19:32:31.099000,-65.0,-214.0,254.0,-580.0,695.0,-104.0,0.0,0.0,0.0
19:32:31.104000,-149.0,-196.0,210.0,-498.0,756.0,-117.0,0.0,0.0,0.0
19:32:31.108000,-226.0,-173.0,158.0,-498.0,756.0,-117.0,0.0,0.0,0.0
19:32:31.113000,-286.0,-154.0,100.0,-467.0,739.0,-157.0,0.0,0.0,0.0
19:32:31.118000,-323.0,-128.0,60.0,-467.0,739.0,-157.0,0.0,0.0,0.0
19:32:31.122000,-338.0,-109.0,51.0,-488.0,582.0,-206.0,0.0,0.0,0.0
19:32:31.127000,-329.0,-93.0,60.0,-488.0,582.0,-206.0,0.0,0.0,0.0
19:32:31.132000,-294.0,-75.0,77.0,-525.0,372.0,-249.0,0.0,0.0,0.0
19:32:31.137000,-294.0,-75.0,77.0,-525.0,372.0,-249.0,0.0,0.0,0.0
19:32:31.141000,-241.0,-64.0,93.0,-542.0,208.0,-272.0,0.0,0.0,0.0
19:32:31.146000,-173.0,-60.0,100.0,-542.0,208.0,-272.0,0.0,0.0,0.0
19:32:31.151000,-103.0,-56.0,98.0,-521.0,158.0,-265.0,0.0,0.0,0.0
19:32:31.155000,-39.0,-59.0,93.0,-521.0,158.0,-265.0,0.0,0.0,0.0
19:32:31.160000,9.0,-65.0,91.0,-487.0,223.0,-226.0,0.0,0.0,0.0
19:32:31.165000,39.0,-74.0,102.0,-487.0,223.0,-226.0,0.0,0.0,0.0
19:32:31.169000,57.0,-87.0,116.0,-478.0,322.0,-170.0,0.0,0.0,0.0
19:32:31.174000,62.0,-94.0,137.0,-478.0,322.0,-170.0,0.0,0.0,0.0
19:32:31.179000,62.0,-100.0,147.0,-503.0,393.0,-122.0,0.0,0.0,0.0
19:32:31.184000,54.0,-103.0,145.0,-503.0,393.0,-122.0,0.0,0.0,0.0
19:32:31.188000,35.0,-98.0,165.0,-551.0,434.0,-96.0,0.0,0.0,0.0
19:32:31.193000,16.0,-88.0,201.0,-551.0,434.0,-96.0,0.0,0.0,0.0
19:32:31.198000,-3.0,-74.0,203.0,-551.0,434.0,-96.0,0.0,0.0,0.0
19:32:31.202000,-23.0,-60.0,193.0,-624.0,462.0,-89.0,0.0,0.0,0.0
19:32:31.207000,-43.0,-46.0,210.0,-624.0,462.0,-89.0,0.0,0.0,0.0
19:32:31.212000,-58.0,-31.0,236.0,-691.0,443.0,-91.0,0.0,0.0,0.0
19:32:31.216000,-68.0,-14.0,254.0,-691.0,443.0,-91.0,0.0,0.0,0.0
19:32:31.221000,-75.0,1.0,254.0,-715.0,379.0,-105.0,0.0,0.0,0.0
19:32:31.226000,-87.0,16.0,245.0,-715.0,379.0,-105.0,0.0,0.0,0.0
19:32:31.231000,-104.0,35.0,241.0,-737.0,343.0,-119.0,0.0,0.0,0.0
19:32:31.235000,-121.0,52.0,251.0,-737.0,343.0,-119.0,0.0,0.0,0.0
19:32:31.240000,-130.0,65.0,258.0,-744.0,293.0,-121.0,0.0,0.0,0.0
19:32:31.245000,-130.0,65.0,258.0,-744.0,293.0,-121.0,0.0,0.0,0.0
19:32:31.249000,-131.0,76.0,235.0,-723.0,200.0,-119.0,0.0,0.0,0.0
19:32:31.254000,-126.0,82.0,199.0,-723.0,200.0,-119.0,0.0,0.0,0.0
19:32:31.259000,-121.0,81.0,180.0,-675.0,107.0,-112.0,0.0,0.0,0.0
19:32:31.263000,-113.0,71.0,179.0,-675.0,107.0,-112.0,0.0,0.0,0.0
19:32:31.268000,-99.0,58.0,191.0,-601.0,14.0,-95.0,0.0,0.0,0.0
19:32:31.273000,-85.0,41.0,196.0,-601.0,14.0,-95.0,0.0,0.0,0.0
19:32:31.278000,-74.0,23.0,198.0,-525.0,-40.0,-78.0,0.0,0.0,0.0
19:32:31.282000,-67.0,2.0,197.0,-525.0,-40.0,-78.0,0.0,0.0,0.0
19:32:31.287000,-70.0,-17.0,176.0,-486.0,-10.0,-66.0,0.0,0.0,0.0
19:32:31.292000,-83.0,-35.0,144.0,-486.0,-10.0,-66.0,0.0,0.0,0.0
19:32:31.296000,-105.0,-51.0,117.0,-488.0,44.0,-61.0,0.0,0.0,0.0
19:32:31.301000,-124.0,-63.0,103.0,-488.0,44.0,-61.0,0.0,0.0,0.0
19:32:31.306000,-137.0,-72.0,100.0,-488.0,44.0,-61.0,0.0,0.0,0.0
19:32:31.310000,-144.0,-75.0,98.0,-505.0,35.0,-61.0,0.0,0.0,0.0
19:32:31.315000,-150.0,-73.0,97.0,-533.0,8.0,-70.0,0.0,0.0,0.0
19:32:31.320000,-155.0,-66.0,95.0,-533.0,8.0,-70.0,0.0,0.0,0.0
19:32:31.325000,-161.0,-58.0,93.0,-533.0,8.0,-70.0,0.0,0.0,0.0
19:32:31.329000,-157.0,-51.0,87.0,-557.0,9.0,-79.0,0.0,0.0,0.0
19:32:31.334000,-148.0,-45.0,81.0,-557.0,9.0,-79.0,0.0,0.0,0.0
19:32:31.339000,-139.0,-39.0,83.0,-564.0,3.0,-85.0,0.0,0.0,0.0
19:32:31.343000,-126.0,-36.0,91.0,-564.0,3.0,-85.0,0.0,0.0,0.0
19:32:31.348000,-112.0,-36.0,99.0,-595.0,-7.0,-88.0,0.0,0.0,0.0
19:32:31.353000,-112.0,-36.0,99.0,-595.0,-7.0,-88.0,0.0,0.0,0.0
19:32:31.357000,-96.0,-39.0,102.0,-658.0,-20.0,-87.0,0.0,0.0,0.0
19:32:31.362000,-80.0,-46.0,106.0,-658.0,-20.0,-87.0,0.0,0.0,0.0
19:32:31.367000,-63.0,-54.0,107.0,-724.0,-27.0,-92.0,0.0,0.0,0.0
19:32:31.372000,-46.0,-64.0,100.0,-724.0,-27.0,-92.0,0.0,0.0,0.0
19:32:31.376000,-27.0,-78.0,95.0,-774.0,-16.0,-102.0,0.0,0.0,0.0
19:32:31.381000,-9.0,-93.0,104.0,-774.0,-16.0,-102.0,0.0,0.0,0.0
19:32:31.386000,7.0,-108.0,120.0,-788.0,0.0,-114.0,0.0,0.0,0.0
19:32:31.390000,24.0,-124.0,144.0,-788.0,0.0,-114.0,0.0,0.0,0.0
19:32:31.395000,35.0,-140.0,168.0,-784.0,29.0,-122.0,0.0,0.0,0.0
19:32:31.400000,43.0,-152.0,193.0,-784.0,29.0,-122.0,0.0,0.0,0.0
19:32:31.404000,50.0,-163.0,220.0,-786.0,60.0,-122.0,0.0,0.0,0.0
19:32:31.409000,60.0,-175.0,250.0,-786.0,60.0,-122.0,0.0,0.0,0.0
19:32:31.414000,71.0,-191.0,284.0,-786.0,35.0,-113.0,0.0,0.0,0.0
19:32:31.419000,88.0,-206.0,324.0,-796.0,35.0,-113.0,0.0,0.0,0.0
19:32:31.423000,109.0,-224.0,366.0,-796.0,35.0,-113.0,0.0,0.0,0.0
19:32:31.428000,129.0,-246.0,406.0,-814.0,-30.0,-93.0,0.0,0.0,0.0
19:32:31.433000,144.0,-270.0,440.0,-814.0,-30.0,-93.0,0.0,0.0,0.0
19:32:31.437000,150.0,-296.0,465.0,-841.0,-55.0,-71.0,0.0,0.0,0.0
19:32:31.442000,147.0,-318.0,484.0,-841.0,-55.0,-71.0,0.0,0.0,0.0
19:32:31.447000,137.0,-339.0,492.0,-872.0,-23.0,-46.0,0.0,0.0,0.0
19:32:31.451000,120.0,-356.0,494.0,-872.0,-23.0,-46.0,0.0,0.0,0.0
19:32:31.456000,100.0,-368.0,495.0,-866.0,9.0,-20.0,0.0,0.0,0.0
19:32:31.461000,73.0,-374.0,492.0,-866.0,9.0,-20.0,0.0,0.0,0.0
19:32:31.466000,73.0,-374.0,492.0,-831.0,56.0,-2.0,0.0,0.0,0.0
19:32:31.470000,41.0,-375.0,483.0,-831.0,56.0,-2.0,0.0,0.0,0.0
19:32:31.475000,7.0,-371.0,479.0,-829.0,155.0,1.0,0.0,0.0,0.0
19:32:31.480000,-23.0,-362.0,490.0,-829.0,155.0,1.0,0.0,0.0,0.0
19:32:31.484000,-43.0,-354.0,534.0,-864.0,199.0,-4.0,0.0,0.0,0.0
19:32:31.489000,-52.0,-347.0,621.0,-864.0,199.0,-4.0,0.0,0.0,0.0
19:32:31.494000,-59.0,-338.0,735.0,-903.0,156.0,-6.0,0.0,0.0,0.0
19:32:31.498000,-72.0,-332.0,858.0,-903.0,156.0,-6.0,0.0,0.0,0.0
19:32:31.503000,-94.0,-329.0,983.0,-950.0,129.0,-1.0,0.0,0.0,0.0
19:32:31.508000,-114.0,-332.0,1104.0,-950.0,129.0,-1.0,0.0,0.0,0.0
19:32:31.513000,-126.0,-344.0,1215.0,-979.0,76.0,-14.0,0.0,0.0,0.0
19:32:31.517000,-135.0,-363.0,1302.0,-979.0,76.0,-14.0,0.0,0.0,0.0
19:32:31.522000,-147.0,-391.0,1360.0,-960.0,15.0,-39.0,0.0,0.0,0.0
19:32:31.527000,-167.0,-423.0,1402.0,-960.0,15.0,-39.0,0.0,0.0,0.0
19:32:31.531000,-196.0,-455.0,1439.0,-960.0,15.0,-39.0,0.0,0.0,0.0
19:32:31.536000,-225.0,-485.0,1476.0,-890.0,36.0,-43.0,0.0,0.0,0.0
19:32:31.541000,-245.0,-515.0,1507.0,-890.0,36.0,-43.0,0.0,0.0,0.0
19:32:31.545000,-252.0,-541.0,1528.0,-803.0,25.0,-35.0,0.0,0.0,0.0
19:32:31.550000,-252.0,-562.0,1540.0,-803.0,25.0,-35.0,0.0,0.0,0.0
19:32:31.555000,-250.0,-569.0,1537.0,-735.0,-63.0,-23.0,0.0,0.0,0.0
19:32:31.560000,-239.0,-567.0,1526.0,-735.0,-63.0,-23.0,0.0,0.0,0.0
19:32:31.564000,-213.0,-558.0,1509.0,-703.0,-150.0,-10.0,0.0,0.0,0.0
19:32:31.569000,-175.0,-550.0,1479.0,-703.0,-150.0,-10.0,0.0,0.0,0.0
19:32:31.574000,-175.0,-550.0,1479.0,-752.0,-229.0,-15.0,0.0,0.0,0.0
19:32:31.578000,-133.0,-542.0,1432.0,-752.0,-229.0,-15.0,0.0,0.0,0.0
19:32:31.583000,-96.0,-527.0,1369.0,-874.0,-258.0,-23.0,0.0,0.0,0.0
19:32:31.588000,-66.0,-505.0,1302.0,-874.0,-258.0,-23.0,0.0,0.0,0.0
19:32:31.592000,-50.0,-476.0,1237.0,-1005.0,-186.0,-20.0,0.0,0.0,0.0
19:32:31.597000,-51.0,-442.0,1172.0,-1005.0,-186.0,-20.0,0.0,0.0,0.0
19:32:31.602000,-73.0,-407.0,1099.0,-1106.0,-47.0,-6.0,0.0,0.0,0.0
19:32:31.607000,-111.0,-370.0,1031.0,-1106.0,-47.0,-6.0,0.0,0.0,0.0
19:32:31.611000,-157.0,-331.0,984.0,-1149.0,49.0,-10.0,0.0,0.0,0.0
19:32:31.616000,-173.0,-315.0,939.0,-1149.0,49.0,-10.0,0.0,0.0,0.0
19:32:31.621000,-201.0,-294.0,879.0,-1130.0,53.0,-46.0,0.0,0.0,0.0
19:32:31.625000,-245.0,-261.0,857.0,-1130.0,53.0,-46.0,0.0,0.0,0.0
19:32:31.630000,-277.0,-230.0,891.0,-1074.0,-2.0,-79.0,0.0,0.0,0.0
19:32:31.635000,-304.0,-202.0,938.0,-1074.0,-2.0,-79.0,0.0,0.0,0.0
19:32:31.639000,-338.0,-161.0,948.0,-1074.0,-2.0,-79.0,0.0,0.0,0.0
19:32:31.644000,-375.0,-115.0,927.0,-1014.0,-57.0,-102.0,0.0,0.0,0.0
19:32:31.649000,-402.0,-81.0,891.0,-1014.0,-57.0,-102.0,0.0,0.0,0.0
19:32:31.654000,-417.0,-55.0,840.0,-986.0,-71.0,-126.0,0.0,0.0,0.0
19:32:31.658000,-417.0,-19.0,775.0,-986.0,-71.0,-126.0,0.0,0.0,0.0
19:32:31.663000,-410.0,9.0,702.0,-974.0,-100.0,-150.0,0.0,0.0,0.0
19:32:31.668000,-376.0,20.0,611.0,-974.0,-100.0,-150.0,0.0,0.0,0.0
19:32:31.672000,-368.0,-14.0,529.0,-968.0,-138.0,-138.0,0.0,0.0,0.0
19:32:31.677000,-358.0,-39.0,528.0,-968.0,-138.0,-138.0,0.0,0.0,0.0
19:32:31.681000,-358.0,-39.0,528.0,-925.0,-222.0,-110.0,0.0,0.0,0.0
19:32:31.686000,-307.0,-67.0,543.0,-925.0,-222.0,-110.0,0.0,0.0,0.0
19:32:31.691000,-189.0,-88.0,553.0,-829.0,-285.0,-111.0,0.0,0.0,0.0
19:32:31.696000,-109.0,-103.0,516.0,-829.0,-285.0,-111.0,0.0,0.0,0.0
19:32:31.701000,-77.0,-110.0,459.0,-701.0,-259.0,-96.0,0.0,0.0,0.0
19:32:31.705000,-46.0,-87.0,499.0,-701.0,-259.0,-96.0,0.0,0.0,0.0
19:32:31.710000,-11.0,-95.0,581.0,-592.0,-285.0,-60.0,0.0,0.0,0.0
19:32:31.715000,44.0,-110.0,651.0,-592.0,-285.0,-60.0,0.0,0.0,0.0
19:32:31.719000,84.0,-124.0,662.0,-637.0,-306.0,-35.0,0.0,0.0,0.0
19:32:31.724000,104.0,-130.0,647.0,-637.0,-306.0,-35.0,0.0,0.0,0.0
19:32:31.729000,111.0,-135.0,657.0,-746.0,-251.0,-9.0,0.0,0.0,0.0
19:32:31.733000,104.0,-140.0,657.0,-746.0,-251.0,-9.0,0.0,0.0,0.0
19:32:31.738000,97.0,-148.0,624.0,-781.0,-180.0,14.0,0.0,0.0,0.0
19:32:31.743000,78.0,-149.0,573.0,-781.0,-180.0,14.0,0.0,0.0,0.0
19:32:31.748000,59.0,-149.0,515.0,-781.0,-180.0,14.0,0.0,0.0,0.0
19:32:31.752000,30.0,-155.0,458.0,-788.0,-101.0,32.0,0.0,0.0,0.0
19:32:31.757000,-44.0,-154.0,438.0,-788.0,-101.0,32.0,0.0,0.0,0.0
19:32:31.762000,-63.0,-165.0,427.0,-777.0,-58.0,49.0,0.0,0.0,0.0
19:32:31.766000,-89.0,-184.0,419.0,-777.0,-58.0,49.0,0.0,0.0,0.0
19:32:31.771000,-110.0,-200.0,442.0,-777.0,-108.0,50.0,0.0,0.0,0.0
19:32:31.776000,-91.0,-221.0,487.0,-777.0,-108.0,50.0,0.0,0.0,0.0
19:32:31.780000,-70.0,-237.0,506.0,-774.0,-233.0,30.0,0.0,0.0,0.0
19:32:31.785000,-26.0,-241.0,515.0,-774.0,-233.0,30.0,0.0,0.0,0.0
19:32:31.790000,30.0,-249.0,533.0,-739.0,-327.0,4.0,0.0,0.0,0.0
19:32:31.795000,30.0,-249.0,533.0,-739.0,-327.0,4.0,0.0,0.0,0.0
19:32:31.799000,85.0,-252.0,552.0,-694.0,-387.0,-15.0,0.0,0.0,0.0
19:32:31.804000,134.0,-257.0,564.0,-694.0,-387.0,-15.0,0.0,0.0,0.0
19:32:31.809000,188.0,-252.0,570.0,-652.0,-450.0,-14.0,0.0,0.0,0.0
19:32:31.813000,190.0,-246.0,579.0,-652.0,-450.0,-14.0,0.0,0.0,0.0
19:32:31.818000,188.0,-231.0,601.0,-633.0,-478.0,-9.0,0.0,0.0,0.0
19:32:31.823000,193.0,-218.0,627.0,-633.0,-478.0,-9.0,0.0,0.0,0.0
19:32:31.827000,205.0,-210.0,592.0,-653.0,-392.0,-33.0,0.0,0.0,0.0
19:32:31.832000,202.0,-208.0,466.0,-653.0,-392.0,-33.0,0.0,0.0,0.0
19:32:31.837000,202.0,-196.0,327.0,-719.0,-199.0,-86.0,0.0,0.0,0.0
19:32:31.842000,189.0,-191.0,237.0,-719.0,-199.0,-86.0,0.0,0.0,0.0
19:32:31.846000,179.0,-189.0,182.0,-819.0,-44.0,-129.0,0.0,0.0,0.0
19:32:31.851000,160.0,-186.0,114.0,-819.0,-44.0,-129.0,0.0,0.0,0.0
19:32:31.855000,154.0,-191.0,23.0,-950.0,44.0,-153.0,0.0,0.0,0.0
19:32:31.860000,171.0,-200.0,-33.0,-950.0,44.0,-153.0,0.0,0.0,0.0
19:32:31.865000,180.0,-203.0,-39.0,-950.0,44.0,-153.0,0.0,0.0,0.0
19:32:31.870000,194.0,-198.0,-23.0,-1053.0,81.0,-163.0,0.0,0.0,0.0
19:32:31.874000,201.0,-191.0,-13.0,-1053.0,81.0,-163.0,0.0,0.0,0.0
19:32:31.879000,214.0,-177.0,-31.0,-1124.0,121.0,-158.0,0.0,0.0,0.0
19:32:31.884000,214.0,-179.0,-65.0,-1124.0,121.0,-158.0,0.0,0.0,0.0
19:32:31.889000,155.0,-137.0,-142.0,-1233.0,223.0,-121.0,0.0,0.0,0.0
19:32:31.893000,170.0,-125.0,-254.0,-1233.0,223.0,-121.0,0.0,0.0,0.0
19:32:31.898000,63.0,-94.0,-343.0,-1288.0,325.0,-65.0,0.0,0.0,0.0
19:32:31.903000,63.0,-94.0,-343.0,-1288.0,325.0,-65.0,0.0,0.0,0.0
19:32:31.907000,-4.0,-77.0,-385.0,-1293.0,314.0,-5.0,0.0,0.0,0.0
19:32:31.912000,-73.0,-67.0,-365.0,-1293.0,314.0,-5.0,0.0,0.0,0.0
19:32:31.917000,-133.0,-58.0,-327.0,-1337.0,18.0,46.0,0.0,0.0,0.0
19:32:31.921000,-135.0,-21.0,-235.0,-1337.0,18.0,46.0,0.0,0.0,0.0
19:32:31.926000,-56.0,25.0,-274.0,-1256.0,-172.0,-21.0,0.0,0.0,0.0
19:32:31.931000,13.0,51.0,-378.0,-1256.0,-172.0,-21.0,0.0,0.0,0.0
19:32:31.936000,42.0,86.0,-508.0,-1255.0,26.0,-130.0,0.0,0.0,0.0
19:32:31.940000,33.0,121.0,-767.0,-1255.0,26.0,-130.0,0.0,0.0,0.0
19:32:31.945000,38.0,144.0,-1011.0,-1493.0,172.0,-165.0,0.0,0.0,0.0
19:32:31.950000,44.0,167.0,-1092.0,-1493.0,172.0,-165.0,0.0,0.0,0.0
19:32:31.954000,95.0,166.0,-980.0,-1571.0,41.0,-181.0,0.0,0.0,0.0
19:32:31.959000,124.0,158.0,-819.0,-1571.0,41.0,-181.0,0.0,0.0,0.0
19:32:31.964000,137.0,171.0,-744.0,-1571.0,41.0,-181.0,0.0,0.0,0.0
19:32:31.968000,166.0,183.0,-736.0,-1494.0,-205.0,-165.0,0.0,0.0,0.0
19:32:31.973000,204.0,185.0,-753.0,-1417.0,-379.0,-128.0,0.0,0.0,0.0
19:32:31.978000,233.0,177.0,-768.0,-1417.0,-379.0,-128.0,0.0,0.0,0.0
19:32:31.983000,235.0,188.0,-715.0,-1417.0,-379.0,-128.0,0.0,0.0,0.0
19:32:31.987000,238.0,187.0,-667.0,-1257.0,-514.0,-84.0,0.0,0.0,0.0
19:32:31.992000,220.0,202.0,-623.0,-1257.0,-514.0,-84.0,0.0,0.0,0.0
19:32:31.997000,203.0,220.0,-644.0,-1058.0,-597.0,-46.0,0.0,0.0,0.0
19:32:32.001000,203.0,220.0,-644.0,-1058.0,-597.0,-46.0,0.0,0.0,0.0
19:32:32.006000,196.0,243.0,-709.0,-978.0,-604.0,-16.0,0.0,0.0,0.0
19:32:32.011000,196.0,243.0,-709.0,-978.0,-604.0,-16.0,0.0,0.0,0.0
19:32:32.015000,222.0,246.0,-701.0,-975.0,-632.0,6.0,0.0,0.0,0.0
19:32:32.020000,238.0,248.0,-722.0,-975.0,-632.0,6.0,0.0,0.0,0.0
19:32:32.025000,233.0,256.0,-743.0,-943.0,-632.0,25.0,0.0,0.0,0.0
19:32:32.029000,247.0,254.0,-838.0,-943.0,-632.0,25.0,0.0,0.0,0.0
19:32:32.034000,251.0,256.0,-947.0,-914.0,-531.0,41.0,0.0,0.0,0.0
19:32:32.039000,263.0,256.0,-1031.0,-914.0,-531.0,41.0,0.0,0.0,0.0
19:32:32.044000,304.0,260.0,-1055.0,-890.0,-475.0,36.0,0.0,0.0,0.0
19:32:32.048000,329.0,268.0,-991.0,-890.0,-475.0,36.0,0.0,0.0,0.0
19:32:32.053000,341.0,270.0,-898.0,-944.0,-428.0,23.0,0.0,0.0,0.0
19:32:32.058000,347.0,264.0,-821.0,-944.0,-428.0,23.0,0.0,0.0,0.0
19:32:32.062000,352.0,267.0,-838.0,-1122.0,-264.0,7.0,0.0,0.0,0.0
19:32:32.067000,347.0,279.0,-905.0,-1122.0,-264.0,7.0,0.0,0.0,0.0
19:32:32.072000,315.0,300.0,-959.0,-1122.0,-148.0,7.0,0.0,0.0,0.0
19:32:32.076000,291.0,313.0,-996.0,-1287.0,-148.0,-22.0,0.0,0.0,0.0
19:32:32.081000,269.0,326.0,-966.0,-1287.0,-148.0,-22.0,0.0,0.0,0.0
19:32:32.086000,273.0,328.0,-888.0,-1325.0,-149.0,-49.0,0.0,0.0,0.0
19:32:32.091000,276.0,324.0,-823.0,-1325.0,-151.0,-69.0,0.0,0.0,0.0
19:32:32.095000,270.0,316.0,-745.0,-1279.0,-151.0,-69.0,0.0,0.0,0.0
19:32:32.100000,260.0,303.0,-676.0,-1279.0,-151.0,-69.0,0.0,0.0,0.0
19:32:32.105000,252.0,289.0,-646.0,-1241.0,-104.0,-85.0,0.0,0.0,0.0
19:32:32.109000,237.0,281.0,-629.0,-1241.0,-104.0,-85.0,0.0,0.0,0.0
19:32:32.114000,196.0,275.0,-600.0,-1237.0,-44.0,-98.0,0.0,0.0,0.0
19:32:32.119000,196.0,275.0,-600.0,-1237.0,-44.0,-98.0,0.0,0.0,0.0
19:32:32.123000,151.0,269.0,-586.0,-1250.0,15.0,-108.0,0.0,0.0,0.0
19:32:32.128000,116.0,261.0,-594.0,-1250.0,15.0,-108.0,0.0,0.0,0.0
19:32:32.133000,96.0,256.0,-586.0,-1235.0,50.0,-122.0,0.0,0.0,0.0
19:32:32.138000,81.0,250.0,-523.0,-1235.0,50.0,-122.0,0.0,0.0,0.0
19:32:32.142000,69.0,242.0,-420.0,-1211.0,35.0,-145.0,0.0,0.0,0.0
19:32:32.147000,69.0,235.0,-329.0,-1211.0,35.0,-145.0,0.0,0.0,0.0
19:32:32.152000,93.0,219.0,-284.0,-1271.0,52.0,-172.0,0.0,0.0,0.0
19:32:32.156000,101.0,207.0,-303.0,-1271.0,52.0,-172.0,0.0,0.0,0.0
19:32:32.161000,102.0,197.0,-353.0,-1328.0,95.0,-193.0,0.0,0.0,0.0
19:32:32.166000,95.0,189.0,-389.0,-1328.0,95.0,-193.0,0.0,0.0,0.0
19:32:32.170000,80.0,185.0,-394.0,-1290.0,115.0,-201.0,0.0,0.0,0.0
19:32:32.175000,74.0,184.0,-357.0,-1290.0,115.0,-201.0,0.0,0.0,0.0
19:32:32.180000,66.0,183.0,-303.0,-1270.0,139.0,-207.0,0.0,0.0,0.0
19:32:32.185000,50.0,187.0,-282.0,-1270.0,139.0,-207.0,0.0,0.0,0.0
19:32:32.189000,46.0,186.0,-289.0,-1270.0,139.0,-207.0,0.0,0.0,0.0
19:32:32.194000,35.0,187.0,-281.0,-1291.0,168.0,-207.0,0.0,0.0,0.0
19:32:32.199000,30.0,189.0,-259.0,-1291.0,168.0,-207.0,0.0,0.0,0.0
19:32:32.203000,32.0,193.0,-225.0,-1269.0,173.0,-189.0,0.0,0.0,0.0
19:32:32.208000,34.0,207.0,-209.0,-1269.0,173.0,-189.0,0.0,0.0,0.0
19:32:32.213000,63.0,213.0,-225.0,-1210.0,154.0,-164.0,0.0,0.0,0.0
19:32:32.217000,88.0,217.0,-234.0,-1210.0,154.0,-164.0,0.0,0.0,0.0
19:32:32.222000,82.0,219.0,-233.0,-1200.0,159.0,-138.0,0.0,0.0,0.0
19:32:32.227000,70.0,228.0,-273.0,-1200.0,159.0,-138.0,0.0,0.0,0.0
19:32:32.232000,70.0,228.0,-273.0,-1248.0,154.0,-113.0,0.0,0.0,0.0
19:32:32.236000,46.0,229.0,-365.0,-1248.0,154.0,-113.0,0.0,0.0,0.0
19:32:32.241000,42.0,222.0,-402.0,-1254.0,153.0,-106.0,0.0,0.0,0.0
19:32:32.246000,42.0,218.0,-370.0,-1254.0,153.0,-106.0,0.0,0.0,0.0
19:32:32.250000,39.0,211.0,-321.0,-1188.0,186.0,-119.0,0.0,0.0,0.0
19:32:32.255000,24.0,198.0,-291.0,-1188.0,186.0,-119.0,0.0,0.0,0.0
19:32:32.260000,-9.0,191.0,-281.0,-1173.0,261.0,-137.0,0.0,0.0,0.0
19:32:32.264000,-22.0,177.0,-277.0,-1173.0,261.0,-137.0,0.0,0.0,0.0
19:32:32.269000,-30.0,170.0,-268.0,-1198.0,304.0,-154.0,0.0,0.0,0.0
19:32:32.274000,-46.0,166.0,-262.0,-1198.0,304.0,-154.0,0.0,0.0,0.0
19:32:32.279000,-54.0,157.0,-270.0,-1212.0,278.0,-164.0,0.0,0.0,0.0
19:32:32.283000,-59.0,156.0,-259.0,-1212.0,278.0,-164.0,0.0,0.0,0.0
19:32:32.288000,-43.0,149.0,-221.0,-1185.0,246.0,-168.0,0.0,0.0,0.0
19:32:32.293000,-49.0,146.0,-160.0,-1185.0,246.0,-168.0,0.0,0.0,0.0
19:32:32.297000,-51.0,138.0,-124.0,-1185.0,246.0,-168.0,0.0,0.0,0.0
19:32:32.302000,-60.0,130.0,-133.0,-1154.0,197.0,-170.0,0.0,0.0,0.0
19:32:32.307000,-76.0,128.0,-86.0,-1154.0,197.0,-170.0,0.0,0.0,0.0
19:32:32.311000,-98.0,135.0,-7.0,-1141.0,141.0,-173.0,0.0,0.0,0.0
19:32:32.316000,-103.0,133.0,-18.0,-1141.0,141.0,-173.0,0.0,0.0,0.0
19:32:32.321000,-88.0,133.0,-119.0,-1154.0,118.0,-177.0,0.0,0.0,0.0
19:32:32.325000,-88.0,133.0,-119.0,-1154.0,118.0,-177.0,0.0,0.0,0.0
19:32:32.330000,-66.0,131.0,-277.0,-1170.0,105.0,-185.0,0.0,0.0,0.0
19:32:32.335000,-54.0,128.0,-319.0,-1170.0,105.0,-185.0,0.0,0.0,0.0
19:32:32.340000,-54.0,128.0,-319.0,-1098.0,94.0,-188.0,0.0,0.0,0.0
19:32:32.344000,-41.0,126.0,-357.0,-1098.0,94.0,-188.0,0.0,0.0,0.0
19:32:32.349000,-35.0,125.0,-345.0,-1039.0,110.0,-189.0,0.0,0.0,0.0
19:32:32.354000,-43.0,119.0,-291.0,-1039.0,110.0,-189.0,0.0,0.0,0.0
19:32:32.358000,-46.0,114.0,-258.0,-1065.0,121.0,-195.0,0.0,0.0,0.0
19:32:32.363000,-37.0,106.0,-275.0,-1065.0,121.0,-195.0,0.0,0.0,0.0
19:32:32.368000,-18.0,97.0,-297.0,-1105.0,105.0,-205.0,0.0,0.0,0.0
19:32:32.373000,0.0,88.0,-273.0,-1105.0,105.0,-205.0,0.0,0.0,0.0
19:32:32.377000,4.0,81.0,-237.0,-1108.0,92.0,-212.0,0.0,0.0,0.0
19:32:32.382000,8.0,75.0,-250.0,-1108.0,92.0,-212.0,0.0,0.0,0.0
19:32:32.387000,13.0,69.0,-278.0,-1107.0,146.0,-215.0,0.0,0.0,0.0
19:32:32.391000,9.0,63.0,-288.0,-1107.0,146.0,-215.0,0.0,0.0,0.0
19:32:32.396000,1.0,56.0,-298.0,-1076.0,209.0,-211.0,0.0,0.0,0.0
19:32:32.401000,-16.0,53.0,-301.0,-1076.0,209.0,-211.0,0.0,0.0,0.0
19:32:32.405000,-39.0,49.0,-287.0,-1076.0,209.0,-211.0,0.0,0.0,0.0
19:32:32.410000,-44.0,46.0,-268.0,-1023.0,211.0,-209.0,0.0,0.0,0.0
19:32:32.415000,-39.0,39.0,-247.0,-1023.0,211.0,-209.0,0.0,0.0,0.0
19:32:32.420000,-40.0,40.0,-238.0,-1034.0,194.0,-215.0,0.0,0.0,0.0
19:32:32.424000,-41.0,46.0,-261.0,-1034.0,194.0,-215.0,0.0,0.0,0.0
19:32:32.429000,-50.0,53.0,-315.0,-1115.0,223.0,-222.0,0.0,0.0,0.0
19:32:32.434000,-67.0,65.0,-344.0,-1115.0,223.0,-222.0,0.0,0.0,0.0
19:32:32.438000,-77.0,74.0,-333.0,-1180.0,254.0,-227.0,0.0,0.0,0.0
19:32:32.443000,-75.0,82.0,-305.0,-1180.0,254.0,-227.0,0.0,0.0,0.0
19:32:32.448000,-75.0,82.0,-305.0,-1194.0,250.0,-235.0,0.0,0.0,0.0
19:32:32.452000,-65.0,102.0,-261.0,-1194.0,250.0,-235.0,0.0,0.0,0.0
19:32:32.457000,-60.0,125.0,-209.0,-1202.0,231.0,-248.0,0.0,0.0,0.0
19:32:32.462000,-54.0,151.0,-164.0,-1202.0,231.0,-248.0,0.0,0.0,0.0
19:32:32.467000,-48.0,173.0,-130.0,-1246.0,205.0,-257.0,0.0,0.0,0.0
19:32:32.471000,-30.0,193.0,-140.0,-1246.0,205.0,-257.0,0.0,0.0,0.0
19:32:32.476000,4.0,210.0,-209.0,-1322.0,185.0,-272.0,0.0,0.0,0.0
19:32:32.481000,38.0,221.0,-288.0,-1322.0,185.0,-272.0,0.0,0.0,0.0
19:32:32.485000,75.0,234.0,-336.0,-1327.0,164.0,-290.0,0.0,0.0,0.0
19:32:32.490000,119.0,238.0,-360.0,-1327.0,164.0,-290.0,0.0,0.0,0.0
19:32:32.495000,153.0,243.0,-375.0,-1228.0,163.0,-303.0,0.0,0.0,0.0
19:32:32.499000,182.0,247.0,-378.0,-1228.0,163.0,-303.0,0.0,0.0,0.0
19:32:32.504000,219.0,236.0,-371.0,-1079.0,252.0,-317.0,0.0,0.0,0.0
19:32:32.509000,245.0,217.0,-357.0,-1079.0,252.0,-317.0,0.0,0.0,0.0
19:32:32.514000,239.0,194.0,-324.0,-1079.0,252.0,-317.0,0.0,0.0,0.0
19:32:32.518000,211.0,177.0,-282.0,-954.0,442.0,-327.0,0.0,0.0,0.0
19:32:32.523000,172.0,163.0,-279.0,-954.0,442.0,-327.0,0.0,0.0,0.0
19:32:32.528000,120.0,154.0,-319.0,-916.0,665.0,-321.0,0.0,0.0,0.0
19:32:32.532000,65.0,144.0,-359.0,-916.0,665.0,-321.0,0.0,0.0,0.0
19:32:32.537000,31.0,128.0,-336.0,-927.0,742.0,-305.0,0.0,0.0,0.0
19:32:32.542000,23.0,105.0,-259.0,-927.0,742.0,-305.0,0.0,0.0,0.0
19:32:32.546000,22.0,83.0,-202.0,-931.0,616.0,-295.0,0.0,0.0,0.0
19:32:32.551000,4.0,60.0,-163.0,-931.0,616.0,-295.0,0.0,0.0,0.0
19:32:32.556000,-28.0,29.0,-137.0,-939.0,489.0,-280.0,0.0,0.0,0.0
19:32:32.561000,-28.0,29.0,-137.0,-939.0,489.0,-280.0,0.0,0.0,0.0
19:32:32.565000,-46.0,2.0,-150.0,-932.0,494.0,-260.0,0.0,0.0,0.0
19:32:32.570000,-31.0,-18.0,-203.0,-932.0,494.0,-260.0,0.0,0.0,0.0
19:32:32.575000,-22.0,-11.0,-283.0,-894.0,560.0,-255.0,0.0,0.0,0.0
19:32:32.579000,-23.0,-4.0,-350.0,-894.0,560.0,-255.0,0.0,0.0,0.0
19:32:32.584000,-53.0,11.0,-374.0,-888.0,536.0,-248.0,0.0,0.0,0.0
19:32:32.589000,-46.0,23.0,-378.0,-888.0,536.0,-248.0,0.0,0.0,0.0
19:32:32.593000,-15.0,36.0,-408.0,-957.0,386.0,-244.0,0.0,0.0,0.0
19:32:32.598000,61.0,39.0,-456.0,-957.0,386.0,-244.0,0.0,0.0,0.0
19:32:32.603000,155.0,25.0,-469.0,-940.0,251.0,-247.0,0.0,0.0,0.0
19:32:32.608000,243.0,20.0,-450.0,-940.0,251.0,-247.0,0.0,0.0,0.0
19:32:32.612000,371.0,-4.0,-473.0,-792.0,264.0,-239.0,0.0,0.0,0.0
19:32:32.617000,474.0,-42.0,-506.0,-792.0,264.0,-239.0,0.0,0.0,0.0
19:32:32.622000,485.0,-74.0,-530.0,-686.0,340.0,-205.0,0.0,0.0,0.0
19:32:32.626000,458.0,-109.0,-436.0,-686.0,340.0,-205.0,0.0,0.0,0.0
19:32:32.631000,476.0,-153.0,-287.0,-686.0,340.0,-205.0,0.0,0.0,0.0
19:32:32.636000,464.0,-191.0,-201.0,-676.0,427.0,-163.0,0.0,0.0,0.0
19:32:32.640000,427.0,-221.0,-200.0,-676.0,427.0,-163.0,0.0,0.0,0.0
19:32:32.645000,417.0,-232.0,-253.0,-680.0,561.0,-125.0,0.0,0.0,0.0
19:32:32.650000,378.0,-231.0,-255.0,-680.0,561.0,-125.0,0.0,0.0,0.0
19:32:32.655000,296.0,-224.0,-214.0,-560.0,716.0,-86.0,0.0,0.0,0.0
19:32:32.659000,168.0,-203.0,-179.0,-560.0,716.0,-86.0,0.0,0.0,0.0
19:32:32.664000,15.0,-165.0,-184.0,-445.0,876.0,-50.0,0.0,0.0,0.0
19:32:32.669000,15.0,-165.0,-184.0,-445.0,876.0,-50.0,0.0,0.0,0.0
19:32:32.673000,-135.0,-119.0,-193.0,-472.0,947.0,-24.0,0.0,0.0,0.0
19:32:32.678000,-221.0,-93.0,-253.0,-472.0,947.0,-24.0,0.0,0.0,0.0
19:32:32.683000,-277.0,-51.0,-319.0,-530.0,799.0,-39.0,0.0,0.0,0.0
19:32:32.687000,-330.0,-25.0,-291.0,-530.0,799.0,-39.0,0.0,0.0,0.0
