hh:mm:ss.ms,gyroX[mdps],gyroY[mdps],gyroZ[mdps],accX[mg],accY[mg],accZ[mg],magX[mG],magY[mG],magZ[mG]
19:39:08.022000,-1631.0,-1329.0,-1409.0,-697.0,241.0,-1036.0,324.0,-568.0,439.0
19:39:08.027000,-1680.0,-1446.0,-1404.0,-752.0,182.0,-958.0,355.0,-580.0,429.0
19:39:08.032000,-1571.0,-1365.0,-1340.0,-759.0,258.0,-1033.0,355.0,-580.0,429.0
19:39:08.037000,-1304.0,-1420.0,-1381.0,-879.0,356.0,-1139.0,357.0,-595.0,429.0
19:39:08.041000,-1387.0,-1479.0,-1411.0,-957.0,334.0,-1041.0,357.0,-595.0,429.0
19:39:08.045000,-1163.0,-1510.0,-1555.0,-967.0,229.0,-1022.0,357.0,-595.0,429.0
19:39:08.051000,-953.0,-1479.0,-1570.0,-946.0,209.0,-1113.0,369.0,-603.0,417.0
19:39:08.055000,-946.0,-1474.0,-1456.0,-790.0,243.0,-1087.0,369.0,-603.0,417.0
19:39:08.060000,-880.0,-1442.0,-1449.0,-716.0,276.0,-1069.0,381.0,-597.0,406.0
19:39:08.065000,-932.0,-1478.0,-1363.0,-725.0,184.0,-1068.0,381.0,-597.0,406.0
19:39:08.069000,-932.0,-1478.0,-1363.0,-717.0,76.0,-1061.0,381.0,-597.0,406.0
19:39:08.074000,-878.0,-1512.0,-1311.0,-920.0,166.0,-1116.0,397.0,-594.0,402.0
19:39:08.079000,-777.0,-1529.0,-1523.0,-1075.0,70.0,-1032.0,397.0,-594.0,402.0
19:39:08.084000,-898.0,-1568.0,-1333.0,-678.0,-246.0,-1063.0,415.0,-603.0,388.0
19:39:08.088000,-859.0,-1513.0,-1027.0,-733.0,-431.0,-1046.0,415.0,-603.0,388.0
19:39:08.092000,-877.0,-1554.0,-950.0,-1027.0,-408.0,-997.0,415.0,-603.0,388.0
19:39:08.098000,-919.0,-1486.0,-674.0,-653.0,-330.0,-972.0,412.0,-606.0,379.0
19:39:08.102000,-895.0,-1538.0,-450.0,-430.0,-458.0,-901.0,412.0,-606.0,379.0
19:39:08.107000,-801.0,-1510.0,-634.0,-306.0,-613.0,-891.0,436.0,-606.0,376.0
19:39:08.112000,-947.0,-1402.0,-726.0,-94.0,-578.0,-802.0,436.0,-606.0,376.0
19:39:08.116000,-756.0,-1537.0,-815.0,-154.0,-599.0,-773.0,436.0,-606.0,376.0
19:39:08.121000,-661.0,-1531.0,-847.0,-332.0,-678.0,-828.0,439.0,-606.0,355.0
19:39:08.126000,-701.0,-1355.0,-977.0,-457.0,-711.0,-821.0,439.0,-606.0,355.0
19:39:08.131000,-605.0,-1344.0,-1082.0,-416.0,-917.0,-802.0,448.0,-616.0,367.0
19:39:08.135000,-574.0,-1358.0,-886.0,-416.0,-917.0,-802.0,448.0,-616.0,367.0
19:39:08.139000,-693.0,-1391.0,-717.0,-277.0,-1019.0,-814.0,448.0,-616.0,367.0
19:39:08.145000,-639.0,-1379.0,-1024.0,-333.0,-846.0,-840.0,442.0,-613.0,360.0
19:39:08.149000,-539.0,-1322.0,-1447.0,-464.0,-647.0,-975.0,442.0,-613.0,360.0
19:39:08.154000,-652.0,-1268.0,-1344.0,-348.0,-724.0,-1031.0,477.0,-604.0,336.0
19:39:08.159000,-765.0,-1388.0,-1193.0,-347.0,-639.0,-958.0,477.0,-604.0,336.0
19:39:08.163000,-765.0,-1388.0,-1193.0,-647.0,-150.0,-1023.0,477.0,-604.0,336.0
19:39:08.168000,-725.0,-1341.0,-1317.0,-763.0,-136.0,-1120.0,487.0,-603.0,330.0
19:39:08.173000,-716.0,-1467.0,-1278.0,-702.0,-481.0,-1077.0,487.0,-603.0,330.0
19:39:08.178000,-716.0,-1467.0,-1278.0,-566.0,-440.0,-1031.0,499.0,-595.0,319.0
19:39:08.182000,-937.0,-1469.0,-1145.0,-379.0,-387.0,-975.0,499.0,-595.0,319.0
19:39:08.186000,-1110.0,-1483.0,-1009.0,-321.0,-329.0,-1055.0,499.0,-595.0,319.0
19:39:08.191000,-1052.0,-1390.0,-882.0,-368.0,-308.0,-1143.0,507.0,-603.0,312.0
19:39:08.196000,-987.0,-1330.0,-751.0,-439.0,-415.0,-1045.0,507.0,-603.0,312.0
19:39:08.201000,-992.0,-1415.0,-682.0,-382.0,-428.0,-980.0,513.0,-588.0,298.0
19:39:08.206000,-1170.0,-1498.0,-629.0,-193.0,-316.0,-1059.0,513.0,-588.0,298.0
19:39:08.213000,-918.0,-1564.0,-879.0,-264.0,-325.0,-1005.0,519.0,-586.0,280.0
19:39:08.215000,-918.0,-1564.0,-879.0,-264.0,-325.0,-1005.0,519.0,-586.0,280.0
19:39:08.219000,-854.0,-1619.0,-1038.0,-227.0,-606.0,-966.0,519.0,-586.0,280.0
19:39:08.225000,-792.0,-1698.0,-1028.0,-193.0,-635.0,-885.0,508.0,-589.0,286.0
19:39:08.229000,-795.0,-1803.0,-1089.0,-297.0,-357.0,-833.0,508.0,-589.0,286.0
19:39:08.234000,-858.0,-1805.0,-1216.0,-297.0,-357.0,-833.0,537.0,-586.0,249.0
19:39:08.239000,-985.0,-1871.0,-1273.0,-447.0,74.0,-664.0,537.0,-586.0,249.0
19:39:08.243000,-1172.0,-1911.0,-1153.0,-466.0,74.0,-664.0,537.0,-586.0,249.0
19:39:08.248000,-1199.0,-1987.0,-678.0,-336.0,70.0,-648.0,549.0,-585.0,244.0
19:39:08.253000,-1182.0,-1918.0,-625.0,-756.0,-80.0,-615.0,549.0,-585.0,244.0
19:39:08.257000,-1084.0,-1905.0,-996.0,-756.0,-80.0,-615.0,552.0,-585.0,244.0
19:39:08.262000,-938.0,-1908.0,-1180.0,-947.0,-369.0,-560.0,552.0,-585.0,244.0
19:39:08.266000,-898.0,-1927.0,-1038.0,-806.0,-522.0,-520.0,552.0,-585.0,244.0
19:39:08.272000,-922.0,-1908.0,-991.0,-704.0,-463.0,-460.0,546.0,-577.0,210.0
19:39:08.276000,-1064.0,-1846.0,-1004.0,-786.0,-281.0,-417.0,546.0,-577.0,210.0
19:39:08.281000,-1113.0,-1876.0,-948.0,-883.0,-258.0,-358.0,553.0,-568.0,201.0
19:39:08.286000,-1079.0,-1778.0,-875.0,-966.0,-382.0,-378.0,553.0,-568.0,201.0
19:39:08.290000,-1079.0,-1778.0,-875.0,-1072.0,-584.0,-398.0,553.0,-568.0,201.0
19:39:08.295000,-1059.0,-1710.0,-798.0,-1163.0,-584.0,-368.0,567.0,-564.0,187.0
19:39:08.300000,-1012.0,-1683.0,-739.0,-1163.0,-373.0,-359.0,567.0,-564.0,187.0
19:39:08.304000,-982.0,-1679.0,-714.0,-1039.0,-244.0,-358.0,567.0,-565.0,159.0
19:39:08.309000,-910.0,-1621.0,-745.0,-1047.0,-232.0,-387.0,567.0,-565.0,159.0
19:39:08.313000,-832.0,-1505.0,-851.0,-1142.0,-332.0,-379.0,567.0,-565.0,159.0
19:39:08.319000,-703.0,-1421.0,-779.0,-1137.0,-424.0,-357.0,571.0,-547.0,154.0
19:39:08.323000,-651.0,-1365.0,-642.0,-1165.0,-353.0,-331.0,571.0,-547.0,154.0
19:39:08.328000,-629.0,-1330.0,-634.0,-1178.0,-273.0,-327.0,574.0,-549.0,144.0
19:39:08.333000,-536.0,-1288.0,-672.0,-1174.0,-330.0,-344.0,574.0,-549.0,144.0
19:39:08.337000,-485.0,-1208.0,-705.0,-1161.0,-362.0,-359.0,574.0,-549.0,144.0
19:39:08.342000,-462.0,-1096.0,-717.0,-1120.0,-391.0,-359.0,555.0,-549.0,142.0
19:39:08.347000,-406.0,-1029.0,-646.0,-1086.0,-428.0,-332.0,555.0,-549.0,142.0
19:39:08.351000,-379.0,-987.0,-590.0,-1086.0,-428.0,-332.0,565.0,-535.0,126.0
19:39:08.356000,-312.0,-899.0,-565.0,-1124.0,-399.0,-343.0,565.0,-535.0,126.0
19:39:08.360000,-300.0,-842.0,-563.0,-1191.0,-415.0,-366.0,565.0,-535.0,126.0
19:39:08.366000,-308.0,-814.0,-445.0,-1125.0,-477.0,-348.0,571.0,-537.0,117.0
19:39:08.370000,-319.0,-781.0,-295.0,-992.0,-497.0,-337.0,571.0,-537.0,117.0
19:39:08.375000,-380.0,-728.0,-397.0,-1036.0,-405.0,-354.0,561.0,-535.0,121.0
19:39:08.380000,-360.0,-687.0,-609.0,-1153.0,-150.0,-359.0,561.0,-535.0,121.0
19:39:08.384000,-360.0,-687.0,-609.0,-1070.0,-175.0,-338.0,561.0,-535.0,121.0
19:39:08.389000,-302.0,-625.0,-423.0,-908.0,-342.0,-335.0,574.0,-528.0,97.0
19:39:08.394000,-321.0,-625.0,-438.0,-849.0,-313.0,-320.0,574.0,-528.0,97.0
19:39:08.398000,-321.0,-625.0,-438.0,-860.0,-266.0,-288.0,568.0,-519.0,100.0
19:39:08.403000,-302.0,-640.0,-490.0,-878.0,-263.0,-295.0,568.0,-519.0,100.0
19:39:08.407000,-264.0,-632.0,-499.0,-899.0,-245.0,-296.0,568.0,-519.0,100.0
19:39:08.413000,-265.0,-589.0,-557.0,-920.0,-220.0,-271.0,583.0,-532.0,102.0
19:39:08.417000,-245.0,-574.0,-583.0,-932.0,-239.0,-245.0,583.0,-532.0,102.0
19:39:08.421000,-245.0,-569.0,-484.0,-938.0,-227.0,-229.0,573.0,-523.0,87.0
19:39:08.427000,-254.0,-553.0,-403.0,-975.0,-174.0,-230.0,573.0,-523.0,87.0
19:39:08.431000,-215.0,-534.0,-472.0,-970.0,-136.0,-236.0,579.0,-517.0,87.0
19:39:08.436000,-179.0,-501.0,-565.0,-958.0,-165.0,-228.0,579.0,-517.0,87.0
19:39:08.440000,-191.0,-472.0,-503.0,-942.0,-181.0,-206.0,579.0,-517.0,87.0
19:39:08.445000,-259.0,-412.0,-417.0,-977.0,-167.0,-192.0,580.0,-505.0,88.0
19:39:08.450000,-273.0,-386.0,-382.0,-1055.0,-155.0,-202.0,580.0,-505.0,88.0
19:39:08.455000,-247.0,-357.0,-390.0,-1055.0,-155.0,-202.0,577.0,-513.0,85.0
19:39:08.460000,-226.0,-341.0,-339.0,-954.0,-144.0,-214.0,577.0,-513.0,85.0
19:39:08.464000,-202.0,-338.0,-281.0,-954.0,-144.0,-214.0,577.0,-513.0,85.0
19:39:08.469000,-190.0,-326.0,-290.0,-925.0,-89.0,-217.0,577.0,-502.0,75.0
19:39:08.474000,-222.0,-318.0,-289.0,-925.0,-73.0,-207.0,577.0,-502.0,75.0
19:39:08.478000,-234.0,-301.0,-247.0,-900.0,-96.0,-208.0,580.0,-501.0,70.0
19:39:08.483000,-263.0,-275.0,-294.0,-913.0,-80.0,-208.0,580.0,-501.0,70.0
19:39:08.487000,-259.0,-264.0,-314.0,-951.0,-66.0,-201.0,580.0,-501.0,70.0
19:39:08.492000,-250.0,-259.0,-224.0,-924.0,-131.0,-209.0,582.0,-502.0,61.0
19:39:08.497000,-279.0,-275.0,-185.0,-864.0,-127.0,-205.0,582.0,-502.0,61.0
19:39:08.502000,-306.0,-253.0,-243.0,-843.0,-18.0,-207.0,580.0,-498.0,73.0
19:39:08.507000,-306.0,-253.0,-243.0,-872.0,15.0,-224.0,580.0,-498.0,73.0
19:39:08.511000,-312.0,-216.0,-264.0,-902.0,-67.0,-219.0,580.0,-498.0,73.0
19:39:08.516000,-326.0,-205.0,-223.0,-916.0,-139.0,-196.0,570.0,-495.0,73.0
19:39:08.521000,-354.0,-186.0,-219.0,-943.0,-164.0,-202.0,570.0,-495.0,73.0
19:39:08.525000,-336.0,-134.0,-214.0,-969.0,-162.0,-198.0,585.0,-487.0,66.0
19:39:08.530000,-296.0,-126.0,-205.0,-989.0,-142.0,-179.0,585.0,-487.0,66.0
19:39:08.534000,-295.0,-133.0,-232.0,-948.0,-108.0,-182.0,585.0,-487.0,66.0
19:39:08.539000,-322.0,-106.0,-168.0,-845.0,-121.0,-185.0,585.0,-495.0,54.0
19:39:08.544000,-330.0,-84.0,-19.0,-861.0,-116.0,-180.0,585.0,-495.0,54.0
19:39:08.549000,-332.0,-90.0,-61.0,-924.0,-79.0,-178.0,571.0,-487.0,72.0
19:39:08.554000,-301.0,-98.0,-175.0,-866.0,-102.0,-181.0,571.0,-487.0,72.0
19:39:08.558000,-248.0,-116.0,-218.0,-779.0,-125.0,-167.0,571.0,-487.0,72.0
19:39:08.563000,-238.0,-118.0,-214.0,-782.0,-159.0,-172.0,589.0,-483.0,66.0
19:39:08.568000,-239.0,-91.0,-177.0,-782.0,-191.0,-172.0,589.0,-483.0,66.0
19:39:08.572000,-252.0,-86.0,-133.0,-864.0,-212.0,-181.0,592.0,-480.0,69.0
19:39:08.577000,-239.0,-93.0,-166.0,-948.0,-201.0,-177.0,592.0,-480.0,69.0
19:39:08.581000,-217.0,-113.0,-154.0,-969.0,-167.0,-183.0,592.0,-480.0,69.0
19:39:08.586000,-195.0,-134.0,-81.0,-930.0,-146.0,-195.0,583.0,-483.0,66.0
19:39:08.591000,-233.0,-133.0,-23.0,-916.0,-100.0,-197.0,583.0,-483.0,66.0
19:39:08.596000,-242.0,-123.0,-5.0,-943.0,-32.0,-200.0,589.0,-486.0,55.0
19:39:08.601000,-233.0,-135.0,30.0,-944.0,-27.0,-203.0,589.0,-486.0,55.0
19:39:08.605000,-233.0,-135.0,30.0,-913.0,-104.0,-202.0,589.0,-486.0,55.0
19:39:08.610000,-257.0,-140.0,46.0,-960.0,-122.0,-197.0,595.0,-487.0,49.0
19:39:08.615000,-257.0,-140.0,46.0,-1009.0,-86.0,-185.0,595.0,-487.0,49.0
19:39:08.619000,-264.0,-156.0,-46.0,-979.0,-99.0,-191.0,594.0,-486.0,54.0
19:39:08.624000,-244.0,-172.0,-53.0,-942.0,-145.0,-200.0,594.0,-486.0,54.0
19:39:08.628000,-263.0,-179.0,-12.0,-934.0,-162.0,-210.0,594.0,-486.0,54.0
19:39:08.633000,-298.0,-175.0,40.0,-970.0,-133.0,-225.0,589.0,-487.0,51.0
19:39:08.638000,-314.0,-174.0,70.0,-995.0,-96.0,-228.0,589.0,-487.0,51.0
19:39:08.643000,-329.0,-182.0,98.0,-987.0,-101.0,-224.0,573.0,-480.0,48.0
19:39:08.648000,-343.0,-173.0,115.0,-1010.0,-109.0,-230.0,573.0,-480.0,48.0
19:39:08.652000,-347.0,-165.0,42.0,-1036.0,-90.0,-237.0,573.0,-480.0,48.0
19:39:08.656000,-322.0,-179.0,-46.0,-997.0,-102.0,-243.0,589.0,-486.0,46.0
19:39:08.662000,-284.0,-193.0,-51.0,-938.0,-141.0,-242.0,589.0,-486.0,46.0
19:39:08.666000,-297.0,-184.0,16.0,-938.0,-141.0,-242.0,601.0,-478.0,40.0
19:39:08.671000,-312.0,-175.0,27.0,-1051.0,-102.0,-228.0,601.0,-478.0,40.0
19:39:08.675000,-326.0,-165.0,10.0,-1055.0,-162.0,-225.0,601.0,-478.0,40.0
19:39:08.680000,-321.0,-165.0,66.0,-1055.0,-162.0,-225.0,588.0,-475.0,67.0
19:39:08.685000,-330.0,-172.0,121.0,-1031.0,-244.0,-222.0,588.0,-475.0,67.0
19:39:08.690000,-326.0,-188.0,93.0,-1016.0,-226.0,-216.0,588.0,-489.0,43.0
19:39:08.695000,-329.0,-203.0,10.0,-972.0,-132.0,-209.0,588.0,-489.0,43.0
19:39:08.699000,-331.0,-207.0,-10.0,-887.0,-93.0,-204.0,588.0,-489.0,43.0
19:39:08.704000,-326.0,-219.0,39.0,-818.0,-130.0,-199.0,592.0,-474.0,40.0
19:39:08.709000,-338.0,-226.0,35.0,-855.0,-148.0,-188.0,592.0,-474.0,40.0
19:39:08.713000,-371.0,-219.0,-19.0,-928.0,-123.0,-186.0,597.0,-478.0,40.0
19:39:08.718000,-389.0,-221.0,-49.0,-933.0,-111.0,-184.0,597.0,-478.0,40.0
19:39:08.725000,-405.0,-230.0,-58.0,-974.0,-80.0,-149.0,588.0,-481.0,34.0
19:39:08.727000,-405.0,-230.0,-58.0,-974.0,-80.0,-149.0,588.0,-481.0,34.0
19:39:08.731000,-441.0,-246.0,-79.0,-986.0,-106.0,-137.0,588.0,-481.0,34.0
19:39:08.737000,-477.0,-256.0,-96.0,-953.0,-135.0,-136.0,591.0,-474.0,37.0
19:39:08.742000,-499.0,-268.0,-95.0,-933.0,-168.0,-134.0,591.0,-474.0,37.0
19:39:08.746000,-506.0,-272.0,-88.0,-946.0,-169.0,-125.0,588.0,-475.0,28.0
19:39:08.751000,-499.0,-295.0,-88.0,-953.0,-157.0,-115.0,588.0,-475.0,28.0
19:39:08.755000,-511.0,-312.0,-92.0,-930.0,-143.0,-109.0,588.0,-475.0,28.0
19:39:08.760000,-512.0,-332.0,-98.0,-895.0,-142.0,-106.0,592.0,-477.0,30.0
19:39:08.764000,-484.0,-357.0,-110.0,-884.0,-150.0,-107.0,592.0,-477.0,30.0
19:39:08.770000,-458.0,-378.0,-119.0,-911.0,-141.0,-108.0,586.0,-474.0,39.0
19:39:08.774000,-440.0,-378.0,-125.0,-937.0,-147.0,-98.0,586.0,-474.0,39.0
19:39:08.778000,-435.0,-391.0,-54.0,-975.0,-162.0,-84.0,586.0,-474.0,39.0
19:39:08.784000,-447.0,-396.0,32.0,-1043.0,-121.0,-83.0,591.0,-468.0,28.0
19:39:08.789000,-459.0,-397.0,23.0,-1043.0,-121.0,-83.0,591.0,-468.0,28.0
19:39:08.793000,-471.0,-401.0,-57.0,-1085.0,-40.0,-81.0,589.0,-457.0,24.0
19:39:08.798000,-500.0,-393.0,-118.0,-1073.0,22.0,-78.0,589.0,-457.0,24.0
19:39:08.802000,-538.0,-385.0,-114.0,-1040.0,57.0,-79.0,589.0,-457.0,24.0
19:39:08.807000,-587.0,-381.0,-96.0,-1036.0,88.0,-78.0,585.0,-462.0,34.0
19:39:08.812000,-649.0,-373.0,-79.0,-1055.0,131.0,-73.0,585.0,-462.0,34.0
19:39:08.817000,-731.0,-362.0,-23.0,-1061.0,150.0,-66.0,585.0,-462.0,34.0
19:39:08.821000,-806.0,-345.0,37.0,-1081.0,140.0,-64.0,585.0,-462.0,34.0
19:39:08.825000,-806.0,-345.0,37.0,-1148.0,142.0,-61.0,585.0,-462.0,34.0
19:39:08.831000,-935.0,-341.0,-53.0,-1199.0,151.0,-51.0,588.0,-465.0,4.0
19:39:08.835000,-935.0,-341.0,-53.0,-1151.0,116.0,-38.0,588.0,-465.0,4.0
19:39:08.840000,-1008.0,-344.0,-77.0,-1053.0,67.0,-33.0,595.0,-450.0,4.0
19:39:08.845000,-1060.0,-349.0,-25.0,-1015.0,81.0,-24.0,595.0,-450.0,4.0
19:39:08.849000,-1108.0,-366.0,14.0,-1033.0,135.0,0.0,595.0,-450.0,4.0
19:39:08.854000,-1173.0,-386.0,-2.0,-1035.0,151.0,19.0,594.0,-445.0,10.0
19:39:08.859000,-1235.0,-406.0,-25.0,-1005.0,130.0,33.0,594.0,-445.0,10.0
19:39:08.864000,-1281.0,-437.0,-46.0,-965.0,116.0,52.0,580.0,-453.0,-6.0
19:39:08.868000,-1328.0,-473.0,-67.0,-937.0,113.0,65.0,580.0,-453.0,-6.0
19:39:08.872000,-1362.0,-511.0,-79.0,-917.0,120.0,73.0,580.0,-453.0,-6.0
19:39:08.878000,-1400.0,-555.0,-78.0,-912.0,136.0,87.0,583.0,-441.0,-4.0
19:39:08.882000,-1434.0,-611.0,-76.0,-912.0,154.0,100.0,583.0,-441.0,-4.0
19:39:08.887000,-1486.0,-660.0,-79.0,-912.0,154.0,100.0,594.0,-439.0,-9.0
19:39:08.892000,-1544.0,-709.0,-112.0,-915.0,190.0,112.0,594.0,-439.0,-9.0
19:39:08.896000,-1601.0,-762.0,-154.0,-921.0,243.0,128.0,594.0,-439.0,-9.0
19:39:08.901000,-1667.0,-812.0,-175.0,-920.0,297.0,171.0,591.0,-433.0,-19.0
19:39:08.906000,-1746.0,-858.0,-171.0,-922.0,297.0,171.0,591.0,-433.0,-19.0
19:39:08.911000,-1820.0,-914.0,-143.0,-940.0,298.0,205.0,585.0,-415.0,-27.0
19:39:08.915000,-1905.0,-958.0,-126.0,-970.0,290.0,232.0,585.0,-415.0,-27.0
19:39:08.919000,-1970.0,-1017.0,-135.0,-994.0,285.0,261.0,585.0,-415.0,-27.0
19:39:08.925000,-2062.0,-1065.0,-166.0,-974.0,286.0,293.0,580.0,-414.0,-24.0
19:39:08.929000,-2143.0,-1118.0,-205.0,-931.0,300.0,325.0,580.0,-414.0,-24.0
19:39:08.934000,-2231.0,-1161.0,-226.0,-883.0,316.0,355.0,570.0,-403.0,-39.0
19:39:08.939000,-2308.0,-1215.0,-232.0,-833.0,312.0,385.0,570.0,-403.0,-39.0
19:39:08.943000,-2308.0,-1215.0,-232.0,-808.0,305.0,411.0,570.0,-403.0,-39.0
19:39:08.948000,-2375.0,-1260.0,-242.0,-795.0,310.0,432.0,573.0,-385.0,-45.0
19:39:08.953000,-2470.0,-1295.0,-231.0,-803.0,356.0,462.0,573.0,-385.0,-45.0
19:39:08.958000,-2574.0,-1339.0,-263.0,-813.0,432.0,492.0,561.0,-372.0,-55.0
19:39:08.962000,-2691.0,-1374.0,-331.0,-798.0,450.0,522.0,561.0,-372.0,-55.0
19:39:08.966000,-2793.0,-1421.0,-351.0,-779.0,416.0,550.0,561.0,-372.0,-55.0
19:39:08.972000,-2893.0,-1464.0,-304.0,-797.0,397.0,574.0,552.0,-354.0,-61.0
19:39:08.976000,-2989.0,-1509.0,-260.0,-844.0,430.0,595.0,552.0,-354.0,-61.0
19:39:08.981000,-3098.0,-1543.0,-284.0,-855.0,450.0,619.0,543.0,-345.0,-60.0
19:39:08.986000,-3182.0,-1592.0,-295.0,-817.0,419.0,649.0,543.0,-345.0,-60.0
19:39:08.990000,-3293.0,-1637.0,-289.0,-768.0,385.0,679.0,543.0,-345.0,-60.0
19:39:08.995000,-3383.0,-1689.0,-266.0,-726.0,355.0,706.0,528.0,-316.0,-60.0
19:39:09.000000,-3467.0,-1737.0,-265.0,-711.0,348.0,726.0,528.0,-316.0,-60.0
19:39:09.005000,-3532.0,-1782.0,-286.0,-711.0,348.0,726.0,526.0,-306.0,-75.0
19:39:09.009000,-3579.0,-1821.0,-241.0,-674.0,326.0,741.0,526.0,-306.0,-75.0
19:39:09.013000,-3649.0,-1841.0,-186.0,-630.0,279.0,754.0,526.0,-306.0,-75.0
19:39:09.019000,-3687.0,-1876.0,-185.0,-634.0,259.0,773.0,520.0,-283.0,-63.0
19:39:09.023000,-3735.0,-1891.0,-204.0,-653.0,259.0,789.0,520.0,-283.0,-63.0
19:39:09.028000,-3747.0,-1908.0,-188.0,-660.0,244.0,793.0,501.0,-243.0,-54.0
19:39:09.033000,-3756.0,-1933.0,-156.0,-657.0,206.0,797.0,501.0,-243.0,-54.0
19:39:09.037000,-3750.0,-1959.0,-176.0,-655.0,185.0,803.0,501.0,-243.0,-54.0
19:39:09.042000,-3720.0,-1978.0,-248.0,-649.0,195.0,799.0,498.0,-228.0,-73.0
19:39:09.047000,-3675.0,-2013.0,-228.0,-607.0,148.0,797.0,498.0,-228.0,-73.0
19:39:09.052000,-3631.0,-2013.0,-185.0,-562.0,79.0,804.0,499.0,-204.0,-61.0
19:39:09.056000,-3631.0,-2044.0,-185.0,-570.0,62.0,800.0,499.0,-204.0,-61.0
19:39:09.060000,-3583.0,-2059.0,-201.0,-613.0,66.0,790.0,499.0,-204.0,-61.0
19:39:09.066000,-3510.0,-2074.0,-280.0,-633.0,54.0,785.0,486.0,-186.0,-61.0
19:39:09.070000,-3448.0,-2076.0,-340.0,-606.0,15.0,773.0,486.0,-186.0,-61.0
19:39:09.075000,-3360.0,-2079.0,-312.0,-604.0,1.0,763.0,460.0,-168.0,-51.0
19:39:09.080000,-3273.0,-2077.0,-320.0,-642.0,37.0,752.0,460.0,-168.0,-51.0
19:39:09.085000,-3191.0,-2064.0,-388.0,-663.0,73.0,739.0,460.0,-154.0,-49.0
19:39:09.089000,-3114.0,-2052.0,-434.0,-668.0,91.0,728.0,460.0,-154.0,-49.0
19:39:09.093000,-3040.0,-2032.0,-436.0,-687.0,103.0,716.0,460.0,-154.0,-49.0
19:39:09.099000,-2984.0,-2020.0,-415.0,-721.0,146.0,718.0,448.0,-139.0,-31.0
19:39:09.103000,-2937.0,-2016.0,-408.0,-744.0,215.0,720.0,448.0,-139.0,-31.0
19:39:09.108000,-2894.0,-2011.0,-409.0,-744.0,215.0,720.0,430.0,-121.0,-40.0
19:39:09.112000,-2863.0,-1997.0,-368.0,-721.0,284.0,727.0,430.0,-121.0,-40.0
19:39:09.117000,-2837.0,-1972.0,-318.0,-721.0,284.0,727.0,430.0,-121.0,-40.0
19:39:09.122000,-2809.0,-1934.0,-300.0,-732.0,316.0,730.0,408.0,-97.0,-19.0
19:39:09.127000,-2767.0,-1894.0,-289.0,-745.0,325.0,728.0,408.0,-97.0,-19.0
19:39:09.132000,-2732.0,-1845.0,-275.0,-749.0,318.0,724.0,409.0,-87.0,-6.0
19:39:09.136000,-2695.0,-1790.0,-231.0,-758.0,308.0,718.0,409.0,-87.0,-6.0
19:39:09.140000,-2646.0,-1727.0,-186.0,-782.0,292.0,706.0,409.0,-87.0,-6.0
19:39:09.146000,-2588.0,-1664.0,-154.0,-825.0,268.0,696.0,396.0,-67.0,-9.0
19:39:09.150000,-2517.0,-1594.0,-125.0,-858.0,232.0,685.0,396.0,-67.0,-9.0
19:39:09.154000,-2517.0,-1594.0,-125.0,-882.0,187.0,672.0,390.0,-66.0,10.0
19:39:09.160000,-2341.0,-1451.0,-77.0,-897.0,143.0,657.0,390.0,-66.0,10.0
19:39:09.164000,-2341.0,-1451.0,-77.0,-898.0,99.0,635.0,390.0,-66.0,10.0
19:39:09.169000,-2244.0,-1375.0,-58.0,-889.0,50.0,615.0,373.0,-52.0,15.0
19:39:09.174000,-2139.0,-1311.0,-49.0,-865.0,24.0,590.0,373.0,-52.0,15.0
19:39:09.179000,-2037.0,-1241.0,-45.0,-846.0,20.0,558.0,376.0,-52.0,27.0
19:39:09.183000,-1934.0,-1170.0,-37.0,-843.0,30.0,535.0,376.0,-52.0,27.0
19:39:09.187000,-1840.0,-1105.0,-16.0,-838.0,56.0,518.0,376.0,-52.0,27.0
19:39:09.193000,-1752.0,-1042.0,9.0,-825.0,96.0,502.0,375.0,-30.0,48.0
19:39:09.197000,-1675.0,-977.0,33.0,-806.0,143.0,492.0,375.0,-30.0,48.0
19:39:09.201000,-1603.0,-917.0,48.0,-781.0,189.0,481.0,363.0,-31.0,49.0
19:39:09.207000,-1537.0,-854.0,49.0,-744.0,212.0,467.0,363.0,-31.0,49.0
19:39:09.211000,-1471.0,-800.0,40.0,-716.0,221.0,458.0,363.0,-31.0,49.0
19:39:09.216000,-1414.0,-746.0,22.0,-700.0,228.0,453.0,367.0,-19.0,64.0
19:39:09.221000,-1363.0,-688.0,9.0,-680.0,223.0,445.0,367.0,-19.0,64.0
19:39:09.226000,-1313.0,-639.0,14.0,-680.0,223.0,445.0,367.0,-27.0,66.0
19:39:09.230000,-1267.0,-606.0,10.0,-668.0,221.0,449.0,367.0,-27.0,66.0
19:39:09.234000,-1225.0,-572.0,-11.0,-661.0,244.0,457.0,367.0,-27.0,66.0
19:39:09.240000,-1183.0,-539.0,-36.0,-650.0,274.0,450.0,373.0,-15.0,78.0
19:39:09.244000,-1143.0,-513.0,-62.0,-639.0,342.0,442.0,373.0,-15.0,78.0
19:39:09.249000,-1110.0,-492.0,-110.0,-631.0,342.0,442.0,370.0,-6.0,84.0
19:39:09.254000,-1077.0,-469.0,-157.0,-625.0,364.0,440.0,370.0,-6.0,84.0
19:39:09.258000,-1077.0,-469.0,-157.0,-617.0,355.0,433.0,370.0,-6.0,84.0
19:39:09.263000,-1006.0,-431.0,-177.0,-619.0,335.0,433.0,363.0,-7.0,99.0
19:39:09.268000,-976.0,-413.0,-175.0,-640.0,329.0,436.0,363.0,-7.0,99.0
19:39:09.273000,-976.0,-413.0,-175.0,-657.0,333.0,436.0,360.0,0.0,100.0
19:39:09.277000,-949.0,-394.0,-165.0,-657.0,337.0,437.0,360.0,0.0,100.0
19:39:09.281000,-923.0,-375.0,-145.0,-640.0,338.0,438.0,360.0,0.0,100.0
19:39:09.287000,-893.0,-353.0,-108.0,-622.0,340.0,433.0,360.0,3.0,109.0
19:39:09.291000,-858.0,-326.0,-72.0,-624.0,355.0,426.0,360.0,3.0,109.0
19:39:09.296000,-813.0,-298.0,-59.0,-641.0,371.0,426.0,355.0,3.0,121.0
19:39:09.301000,-765.0,-265.0,-70.0,-662.0,374.0,415.0,355.0,3.0,121.0
19:39:09.305000,-713.0,-228.0,-95.0,-681.0,358.0,402.0,355.0,3.0,121.0
19:39:09.310000,-656.0,-195.0,-124.0,-699.0,339.0,397.0,364.0,7.0,114.0
19:39:09.315000,-598.0,-161.0,-163.0,-707.0,329.0,388.0,364.0,7.0,114.0
19:39:09.320000,-536.0,-128.0,-206.0,-707.0,339.0,382.0,348.0,-4.0,115.0
19:39:09.324000,-476.0,-100.0,-263.0,-718.0,368.0,390.0,348.0,-4.0,115.0
19:39:09.328000,-422.0,-77.0,-321.0,-700.0,395.0,392.0,348.0,-4.0,115.0
19:39:09.334000,-375.0,-56.0,-350.0,-700.0,395.0,392.0,348.0,7.0,121.0
19:39:09.338000,-344.0,-45.0,-359.0,-647.0,443.0,411.0,348.0,7.0,121.0
19:39:09.343000,-317.0,-39.0,-380.0,-647.0,443.0,411.0,334.0,13.0,135.0
19:39:09.348000,-290.0,-37.0,-387.0,-624.0,451.0,421.0,334.0,13.0,135.0
19:39:09.352000,-268.0,-40.0,-378.0,-567.0,423.0,429.0,334.0,13.0,135.0
19:39:09.357000,-233.0,-46.0,-382.0,-524.0,397.0,434.0,343.0,12.0,132.0
19:39:09.362000,-182.0,-53.0,-399.0,-505.0,394.0,427.0,343.0,12.0,132.0
19:39:09.367000,-140.0,-66.0,-416.0,-482.0,408.0,430.0,342.0,12.0,135.0
19:39:09.371000,-98.0,-67.0,-439.0,-465.0,400.0,433.0,342.0,12.0,135.0
19:39:09.375000,-98.0,-67.0,-439.0,-480.0,378.0,423.0,342.0,12.0,135.0
19:39:09.381000,-41.0,-73.0,-455.0,-514.0,371.0,421.0,345.0,15.0,136.0
19:39:09.385000,4.0,-73.0,-467.0,-534.0,391.0,414.0,345.0,15.0,136.0
19:39:09.390000,61.0,-74.0,-483.0,-541.0,429.0,398.0,336.0,16.0,129.0
19:39:09.395000,109.0,-55.0,-500.0,-561.0,456.0,397.0,336.0,16.0,129.0
19:39:09.399000,144.0,-34.0,-536.0,-597.0,462.0,392.0,336.0,16.0,129.0
19:39:09.404000,175.0,-7.0,-578.0,-628.0,427.0,381.0,334.0,16.0,133.0
19:39:09.409000,204.0,21.0,-595.0,-638.0,425.0,372.0,334.0,16.0,133.0
19:39:09.414000,250.0,45.0,-584.0,-636.0,495.0,368.0,327.0,18.0,133.0
19:39:09.418000,287.0,68.0,-581.0,-631.0,552.0,376.0,327.0,18.0,133.0
19:39:09.422000,327.0,86.0,-597.0,-614.0,547.0,381.0,327.0,18.0,133.0
19:39:09.428000,371.0,105.0,-626.0,-590.0,530.0,385.0,325.0,16.0,127.0
19:39:09.432000,426.0,116.0,-665.0,-573.0,510.0,394.0,325.0,16.0,127.0
19:39:09.437000,490.0,124.0,-700.0,-573.0,510.0,394.0,318.0,19.0,133.0
19:39:09.442000,557.0,131.0,-719.0,-538.0,477.0,402.0,318.0,19.0,133.0
19:39:09.446000,619.0,136.0,-736.0,-538.0,477.0,402.0,318.0,19.0,133.0
19:39:09.451000,686.0,132.0,-739.0,-513.0,464.0,403.0,309.0,24.0,120.0
19:39:09.456000,733.0,139.0,-733.0,-496.0,462.0,400.0,309.0,24.0,120.0
19:39:09.461000,782.0,133.0,-718.0,-480.0,483.0,400.0,303.0,21.0,115.0
19:39:09.465000,818.0,126.0,-686.0,-469.0,525.0,395.0,303.0,21.0,115.0
19:39:09.469000,849.0,111.0,-644.0,-477.0,580.0,391.0,303.0,21.0,115.0
19:39:09.475000,870.0,96.0,-608.0,-498.0,676.0,400.0,303.0,12.0,100.0
19:39:09.479000,870.0,96.0,-608.0,-501.0,833.0,417.0,303.0,12.0,100.0
19:39:09.484000,848.0,71.0,-553.0,-466.0,701.0,435.0,289.0,9.0,103.0
19:39:09.489000,908.0,51.0,-498.0,-438.0,482.0,411.0,289.0,9.0,103.0
19:39:09.493000,908.0,51.0,-498.0,-466.0,560.0,406.0,289.0,9.0,103.0
19:39:09.498000,912.0,50.0,-471.0,-502.0,681.0,416.0,286.0,12.0,94.0
19:39:09.503000,928.0,47.0,-471.0,-523.0,780.0,422.0,286.0,12.0,94.0
19:39:09.508000,934.0,41.0,-469.0,-537.0,882.0,456.0,285.0,12.0,88.0
19:39:09.512000,953.0,28.0,-459.0,-538.0,857.0,497.0,285.0,12.0,88.0
19:39:09.516000,926.0,28.0,-453.0,-528.0,569.0,528.0,285.0,12.0,88.0
19:39:09.522000,892.0,35.0,-438.0,-541.0,477.0,493.0,274.0,9.0,78.0
19:39:09.526000,994.0,55.0,-413.0,-587.0,676.0,500.0,274.0,9.0,78.0
19:39:09.530000,1020.0,72.0,-425.0,-605.0,813.0,560.0,283.0,7.0,70.0
19:39:09.536000,1057.0,70.0,-464.0,-591.0,859.0,576.0,283.0,7.0,70.0
19:39:09.540000,1120.0,84.0,-501.0,-474.0,1058.0,544.0,283.0,7.0,70.0
19:39:09.545000,1325.0,109.0,-618.0,-357.0,754.0,611.0,277.0,1.0,58.0
19:39:09.550000,1260.0,104.0,-596.0,-419.0,179.0,647.0,277.0,1.0,58.0
19:39:09.555000,1292.0,119.0,-500.0,-419.0,179.0,647.0,268.0,-4.0,55.0
19:39:09.559000,1493.0,140.0,-500.0,-569.0,219.0,552.0,268.0,-4.0,55.0
19:39:09.563000,1551.0,164.0,-448.0,-657.0,404.0,559.0,268.0,-4.0,55.0
19:39:09.569000,1592.0,161.0,-352.0,-642.0,546.0,604.0,259.0,-9.0,46.0
19:39:09.573000,1692.0,145.0,-189.0,-579.0,624.0,598.0,259.0,-9.0,46.0
19:39:09.577000,1731.0,142.0,-41.0,-529.0,588.0,593.0,265.0,-12.0,34.0
19:39:09.583000,1800.0,151.0,43.0,-552.0,512.0,591.0,265.0,-12.0,34.0
19:39:09.587000,1800.0,151.0,43.0,-613.0,485.0,598.0,265.0,-12.0,34.0
19:39:09.592000,1862.0,166.0,77.0,-654.0,498.0,632.0,256.0,-18.0,13.0
19:39:09.597000,1922.0,217.0,33.0,-662.0,543.0,637.0,256.0,-18.0,13.0
19:39:09.602000,1922.0,217.0,33.0,-655.0,568.0,626.0,265.0,-30.0,6.0
19:39:09.606000,1939.0,273.0,42.0,-669.0,567.0,659.0,265.0,-30.0,6.0
19:39:09.610000,1932.0,299.0,23.0,-705.0,564.0,665.0,265.0,-30.0,6.0
19:39:09.616000,1963.0,343.0,-25.0,-710.0,510.0,633.0,270.0,-43.0,-10.0
19:39:09.620000,2022.0,397.0,-63.0,-697.0,412.0,640.0,270.0,-43.0,-10.0
19:39:09.624000,2079.0,430.0,-100.0,-689.0,337.0,624.0,271.0,-52.0,-30.0
19:39:09.630000,2163.0,490.0,-107.0,-685.0,307.0,584.0,271.0,-52.0,-30.0
19:39:09.634000,2270.0,541.0,-98.0,-715.0,296.0,583.0,271.0,-52.0,-30.0
19:39:09.639000,2373.0,583.0,-83.0,-753.0,253.0,596.0,265.0,-55.0,-40.0
19:39:09.644000,2472.0,641.0,-14.0,-759.0,189.0,609.0,265.0,-55.0,-40.0
19:39:09.649000,2583.0,689.0,91.0,-759.0,189.0,609.0,271.0,-70.0,-52.0
19:39:09.653000,2680.0,742.0,174.0,-807.0,169.0,670.0,271.0,-70.0,-52.0
19:39:09.657000,2779.0,800.0,259.0,-772.0,186.0,693.0,271.0,-70.0,-52.0
19:39:09.663000,2871.0,865.0,333.0,-772.0,186.0,693.0,282.0,-82.0,-66.0
19:39:09.667000,2937.0,928.0,336.0,-750.0,220.0,726.0,282.0,-82.0,-66.0
19:39:09.671000,2991.0,1015.0,351.0,-859.0,259.0,780.0,282.0,-97.0,-87.0
19:39:09.677000,3045.0,1102.0,395.0,-859.0,259.0,780.0,282.0,-97.0,-87.0
19:39:09.681000,3070.0,1194.0,437.0,-898.0,267.0,809.0,282.0,-97.0,-87.0
19:39:09.686000,3098.0,1297.0,473.0,-909.0,266.0,833.0,292.0,-123.0,-111.0
19:39:09.691000,3143.0,1401.0,507.0,-879.0,261.0,849.0,292.0,-123.0,-111.0
19:39:09.696000,3189.0,1496.0,508.0,-867.0,252.0,872.0,309.0,-142.0,-129.0
19:39:09.700000,3233.0,1586.0,538.0,-865.0,212.0,911.0,309.0,-142.0,-129.0
19:39:09.704000,3233.0,1586.0,538.0,-814.0,157.0,964.0,309.0,-142.0,-129.0
19:39:09.710000,3289.0,1663.0,615.0,-745.0,108.0,1001.0,315.0,-168.0,-135.0
19:39:09.714000,3352.0,1726.0,735.0,-680.0,74.0,1017.0,315.0,-168.0,-135.0
19:39:09.719000,3402.0,1795.0,839.0,-670.0,85.0,1046.0,337.0,-183.0,-133.0
19:39:09.724000,3446.0,1843.0,914.0,-718.0,109.0,1073.0,337.0,-183.0,-133.0
19:39:09.728000,3472.0,1899.0,947.0,-786.0,115.0,1092.0,337.0,-183.0,-133.0
19:39:09.733000,3487.0,1955.0,975.0,-811.0,86.0,1105.0,358.0,-210.0,-156.0
19:39:09.738000,3500.0,2007.0,1057.0,-772.0,86.0,1091.0,358.0,-210.0,-156.0
19:39:09.743000,3518.0,2073.0,1152.0,-777.0,131.0,1076.0,361.0,-229.0,-162.0
19:39:09.747000,3523.0,2130.0,1165.0,-849.0,113.0,1078.0,361.0,-229.0,-162.0
19:39:09.751000,3501.0,2179.0,1127.0,-845.0,36.0,1045.0,361.0,-229.0,-162.0
19:39:09.757000,3509.0,2232.0,1108.0,-781.0,-58.0,1006.0,409.0,-274.0,-175.0
19:39:09.761000,3513.0,2262.0,1108.0,-731.0,-135.0,980.0,409.0,-274.0,-175.0
19:39:09.766000,3512.0,2283.0,1103.0,-731.0,-135.0,980.0,403.0,-306.0,-171.0
19:39:09.771000,3509.0,2266.0,1089.0,-696.0,-182.0,926.0,403.0,-306.0,-171.0
19:39:09.775000,3477.0,2254.0,1033.0,-719.0,-182.0,926.0,403.0,-306.0,-171.0
19:39:09.780000,3431.0,2217.0,942.0,-755.0,-176.0,900.0,441.0,-330.0,-171.0
19:39:09.785000,3364.0,2179.0,857.0,-763.0,-126.0,876.0,441.0,-330.0,-171.0
19:39:09.790000,3310.0,2154.0,886.0,-631.0,-51.0,810.0,463.0,-363.0,-168.0
19:39:09.794000,3213.0,2090.0,882.0,-523.0,-20.0,759.0,463.0,-363.0,-168.0
19:39:09.798000,3159.0,2031.0,795.0,-578.0,-69.0,730.0,463.0,-363.0,-168.0
19:39:09.804000,3105.0,1978.0,702.0,-660.0,-163.0,703.0,484.0,-391.0,-159.0
19:39:09.808000,3044.0,1921.0,633.0,-729.0,-245.0,723.0,484.0,-391.0,-159.0
19:39:09.813000,2956.0,1859.0,583.0,-710.0,-239.0,747.0,478.0,-409.0,-136.0
19:39:09.818000,2956.0,1859.0,583.0,-643.0,-149.0,772.0,478.0,-409.0,-136.0
19:39:09.822000,2842.0,1801.0,545.0,-593.0,-16.0,787.0,478.0,-409.0,-136.0
19:39:09.827000,2706.0,1746.0,507.0,-572.0,87.0,785.0,514.0,-444.0,-136.0
19:39:09.832000,2566.0,1693.0,455.0,-567.0,138.0,772.0,514.0,-444.0,-136.0
19:39:09.837000,2416.0,1642.0,378.0,-558.0,159.0,763.0,513.0,-463.0,-123.0
19:39:09.841000,2256.0,1586.0,296.0,-544.0,167.0,740.0,513.0,-463.0,-123.0
19:39:09.845000,2088.0,1544.0,224.0,-551.0,190.0,691.0,513.0,-463.0,-123.0
19:39:09.851000,1920.0,1509.0,149.0,-592.0,246.0,651.0,534.0,-474.0,-103.0
19:39:09.855000,1738.0,1479.0,79.0,-647.0,316.0,614.0,534.0,-474.0,-103.0
19:39:09.860000,1556.0,1456.0,40.0,-696.0,358.0,569.0,538.0,-493.0,-114.0
19:39:09.865000,1380.0,1425.0,19.0,-730.0,345.0,529.0,538.0,-493.0,-114.0
19:39:09.869000,1223.0,1392.0,-7.0,-741.0,268.0,478.0,538.0,-493.0,-114.0
19:39:09.874000,1110.0,1365.0,-36.0,-726.0,112.0,427.0,549.0,-495.0,-105.0
19:39:09.879000,1029.0,1333.0,-49.0,-699.0,-77.0,389.0,549.0,-495.0,-105.0
19:39:09.884000,966.0,1297.0,-49.0,-699.0,-77.0,389.0,550.0,-505.0,-91.0
19:39:09.888000,921.0,1253.0,-51.0,-652.0,-301.0,308.0,550.0,-505.0,-91.0
19:39:09.892000,899.0,1217.0,-49.0,-652.0,-301.0,308.0,550.0,-505.0,-91.0
19:39:09.898000,889.0,1183.0,-38.0,-611.0,-332.0,263.0,562.0,-504.0,-84.0
19:39:09.902000,856.0,1145.0,-23.0,-566.0,-355.0,239.0,562.0,-504.0,-84.0
19:39:09.907000,834.0,1113.0,-26.0,-531.0,-316.0,211.0,579.0,-511.0,-64.0
19:39:09.912000,805.0,1078.0,-84.0,-556.0,-235.0,171.0,579.0,-511.0,-64.0
19:39:09.916000,805.0,1078.0,-84.0,-609.0,-195.0,154.0,579.0,-511.0,-64.0
19:39:09.921000,717.0,990.0,-139.0,-619.0,-207.0,133.0,582.0,-513.0,-70.0
19:39:09.926000,672.0,939.0,-122.0,-614.0,-260.0,117.0,582.0,-513.0,-70.0
19:39:09.931000,672.0,939.0,-122.0,-610.0,-290.0,99.0,588.0,-511.0,-54.0
19:39:09.935000,646.0,891.0,-139.0,-612.0,-278.0,77.0,588.0,-511.0,-54.0
19:39:09.939000,618.0,842.0,-183.0,-609.0,-284.0,71.0,588.0,-511.0,-54.0
19:39:09.945000,588.0,790.0,-212.0,-601.0,-312.0,60.0,588.0,-519.0,-30.0
19:39:09.949000,559.0,739.0,-219.0,-615.0,-324.0,55.0,588.0,-519.0,-30.0
19:39:09.954000,527.0,686.0,-231.0,-640.0,-310.0,57.0,597.0,-517.0,-42.0
19:39:09.959000,492.0,634.0,-248.0,-653.0,-280.0,55.0,597.0,-517.0,-42.0
19:39:09.966000,408.0,539.0,-297.0,-685.0,-241.0,62.0,598.0,-523.0,-36.0
19:39:09.968000,408.0,539.0,-297.0,-685.0,-241.0,62.0,598.0,-523.0,-36.0
19:39:09.972000,359.0,485.0,-302.0,-685.0,-271.0,63.0,598.0,-523.0,-36.0
19:39:09.978000,314.0,436.0,-300.0,-684.0,-316.0,53.0,600.0,-511.0,-15.0
19:39:09.982000,275.0,394.0,-296.0,-690.0,-362.0,37.0,600.0,-511.0,-15.0
19:39:09.987000,247.0,362.0,-294.0,-690.0,-362.0,37.0,603.0,-525.0,-24.0
19:39:09.992000,224.0,338.0,-293.0,-719.0,-394.0,16.0,603.0,-525.0,-24.0
19:39:09.996000,198.0,314.0,-291.0,-767.0,-410.0,2.0,603.0,-525.0,-24.0
19:39:10.001000,164.0,291.0,-282.0,-808.0,-420.0,-3.0,604.0,-517.0,-31.0
19:39:10.006000,129.0,265.0,-268.0,-827.0,-427.0,-5.0,604.0,-517.0,-31.0
19:39:10.010000,106.0,243.0,-280.0,-842.0,-423.0,-14.0,619.0,-514.0,-19.0
19:39:10.015000,86.0,221.0,-312.0,-862.0,-411.0,-28.0,619.0,-514.0,-19.0
19:39:10.019000,66.0,198.0,-343.0,-877.0,-411.0,-32.0,619.0,-514.0,-19.0
19:39:10.025000,46.0,178.0,-361.0,-882.0,-416.0,-37.0,603.0,-517.0,-16.0
19:39:10.029000,26.0,156.0,-360.0,-880.0,-417.0,-41.0,603.0,-517.0,-16.0
19:39:10.034000,7.0,133.0,-352.0,-876.0,-415.0,-46.0,597.0,-511.0,-4.0
19:39:10.039000,7.0,133.0,-352.0,-878.0,-406.0,-55.0,597.0,-511.0,-4.0
19:39:10.043000,-7.0,114.0,-352.0,-897.0,-399.0,-68.0,597.0,-511.0,-4.0
19:39:10.048000,-16.0,91.0,-352.0,-913.0,-399.0,-73.0,615.0,-511.0,-7.0
19:39:10.053000,-24.0,68.0,-335.0,-930.0,-405.0,-74.0,615.0,-511.0,-7.0
19:39:10.057000,-25.0,48.0,-308.0,-967.0,-413.0,-75.0,606.0,-508.0,-21.0
19:39:10.062000,-22.0,33.0,-284.0,-975.0,-425.0,-75.0,606.0,-508.0,-21.0
19:39:10.066000,-10.0,17.0,-242.0,-971.0,-430.0,-78.0,606.0,-508.0,-21.0
19:39:10.072000,0.0,6.0,-206.0,-997.0,-426.0,-75.0,612.0,-501.0,-6.0
19:39:10.076000,11.0,-1.0,-175.0,-1034.0,-428.0,-71.0,612.0,-501.0,-6.0
19:39:10.081000,24.0,0.0,-147.0,-1074.0,-432.0,-68.0,610.0,-507.0,-12.0
19:39:10.086000,35.0,5.0,-125.0,-1089.0,-442.0,-62.0,610.0,-507.0,-12.0
19:39:10.090000,39.0,14.0,-95.0,-1085.0,-456.0,-58.0,610.0,-507.0,-12.0
19:39:10.095000,43.0,25.0,-67.0,-1079.0,-458.0,-56.0,618.0,-504.0,7.0
19:39:10.100000,42.0,39.0,-58.0,-1079.0,-458.0,-56.0,618.0,-504.0,7.0
19:39:10.104000,35.0,56.0,-62.0,-1068.0,-452.0,-48.0,618.0,-507.0,-12.0
19:39:10.109000,24.0,65.0,-74.0,-1058.0,-440.0,-37.0,618.0,-507.0,-12.0
19:39:10.113000,23.0,70.0,-113.0,-1070.0,-409.0,-35.0,618.0,-507.0,-12.0
19:39:10.119000,19.0,72.0,-133.0,-1085.0,-387.0,-33.0,619.0,-508.0,0.0
19:39:10.123000,12.0,66.0,-123.0,-1065.0,-402.0,-24.0,619.0,-508.0,0.0
19:39:10.128000,5.0,60.0,-115.0,-1031.0,-421.0,-23.0,615.0,-502.0,-3.0
19:39:10.133000,5.0,51.0,-129.0,-1018.0,-421.0,-30.0,615.0,-502.0,-3.0
19:39:10.137000,5.0,51.0,-129.0,-1016.0,-411.0,-26.0,615.0,-502.0,-3.0
19:39:10.142000,0.0,7.0,-130.0,-1014.0,-381.0,-23.0,630.0,-505.0,-16.0
19:39:10.147000,0.0,7.0,-130.0,-1015.0,-348.0,-19.0,630.0,-505.0,-16.0
19:39:10.151000,-24.0,-7.0,-135.0,-1000.0,-332.0,-10.0,621.0,-492.0,-10.0
19:39:10.156000,-53.0,-22.0,-135.0,-975.0,-322.0,-5.0,621.0,-492.0,-10.0
19:39:10.160000,-88.0,-25.0,-137.0,-962.0,-314.0,-13.0,621.0,-492.0,-10.0
19:39:10.166000,-109.0,-30.0,-124.0,-960.0,-323.0,-14.0,619.0,-501.0,-16.0
19:39:10.170000,-123.0,-49.0,-107.0,-965.0,-340.0,-2.0,619.0,-501.0,-16.0
19:39:10.175000,-155.0,-58.0,-100.0,-964.0,-339.0,-12.0,598.0,-498.0,6.0
19:39:10.180000,-144.0,-72.0,-94.0,-976.0,-354.0,-1.0,598.0,-498.0,6.0
19:39:10.184000,-177.0,-89.0,-91.0,-998.0,-345.0,7.0,598.0,-498.0,6.0
19:39:10.189000,-186.0,-95.0,-93.0,-1002.0,-333.0,-2.0,612.0,-495.0,-1.0
19:39:10.194000,-190.0,-102.0,-105.0,-1006.0,-353.0,3.0,612.0,-495.0,-1.0
19:39:10.198000,-193.0,-110.0,-105.0,-1006.0,-353.0,3.0,615.0,-493.0,-7.0
19:39:10.203000,-207.0,-115.0,-72.0,-971.0,-391.0,27.0,615.0,-493.0,-7.0
19:39:10.207000,-200.0,-130.0,-53.0,-970.0,-381.0,25.0,615.0,-493.0,-7.0
19:39:10.213000,-177.0,-130.0,-52.0,-970.0,-381.0,25.0,621.0,-495.0,12.0
19:39:10.217000,-168.0,-145.0,-39.0,-970.0,-392.0,48.0,621.0,-495.0,12.0
19:39:10.222000,-135.0,-142.0,-21.0,-975.0,-404.0,55.0,613.0,-486.0,-6.0
19:39:10.227000,-100.0,-155.0,-5.0,-984.0,-409.0,50.0,613.0,-486.0,-6.0
19:39:10.231000,-80.0,-145.0,17.0,-995.0,-423.0,60.0,613.0,-486.0,-6.0
19:39:10.236000,-59.0,-143.0,28.0,-1001.0,-419.0,66.0,607.0,-486.0,-13.0
19:39:10.241000,-40.0,-128.0,19.0,-1007.0,-389.0,71.0,607.0,-486.0,-13.0
19:39:10.245000,-39.0,-112.0,2.0,-1018.0,-360.0,73.0,610.0,-484.0,-7.0
19:39:10.250000,-46.0,-88.0,-19.0,-1020.0,-349.0,74.0,610.0,-484.0,-7.0
19:39:10.257000,-58.0,-74.0,-41.0,-1009.0,-295.0,64.0,606.0,-496.0,-9.0
19:39:10.260000,-58.0,-74.0,-41.0,-1009.0,-295.0,64.0,606.0,-496.0,-9.0
19:39:10.264000,-84.0,-52.0,-74.0,-998.0,-269.0,57.0,606.0,-496.0,-9.0
19:39:10.269000,-100.0,-43.0,-121.0,-981.0,-268.0,52.0,597.0,-490.0,-9.0
19:39:10.274000,-119.0,-40.0,-164.0,-965.0,-286.0,42.0,597.0,-490.0,-9.0
19:39:10.278000,-128.0,-44.0,-201.0,-947.0,-314.0,22.0,615.0,-483.0,-13.0
19:39:10.283000,-129.0,-53.0,-214.0,-936.0,-341.0,0.0,615.0,-483.0,-13.0
19:39:10.287000,-124.0,-67.0,-210.0,-944.0,-359.0,-20.0,615.0,-483.0,-13.0
19:39:10.292000,-122.0,-84.0,-198.0,-959.0,-363.0,-37.0,610.0,-478.0,3.0
19:39:10.297000,-121.0,-100.0,-188.0,-967.0,-360.0,-53.0,610.0,-478.0,3.0
19:39:10.301000,-119.0,-114.0,-181.0,-960.0,-365.0,-69.0,622.0,-484.0,-15.0
19:39:10.307000,-116.0,-124.0,-163.0,-934.0,-383.0,-87.0,622.0,-484.0,-15.0
19:39:10.311000,-113.0,-135.0,-135.0,-902.0,-400.0,-100.0,622.0,-484.0,-15.0
19:39:10.316000,-119.0,-142.0,-114.0,-886.0,-399.0,-116.0,610.0,-481.0,-16.0
19:39:10.321000,-125.0,-149.0,-105.0,-886.0,-399.0,-116.0,610.0,-481.0,-16.0
19:39:10.325000,-139.0,-155.0,-101.0,-883.0,-386.0,-131.0,612.0,-481.0,-10.0
19:39:10.330000,-154.0,-161.0,-107.0,-882.0,-367.0,-137.0,612.0,-481.0,-10.0
19:39:10.334000,-171.0,-163.0,-124.0,-885.0,-345.0,-149.0,612.0,-481.0,-10.0
19:39:10.339000,-190.0,-168.0,-147.0,-888.0,-330.0,-159.0,606.0,-487.0,-9.0
19:39:10.344000,-207.0,-174.0,-175.0,-884.0,-326.0,-160.0,606.0,-487.0,-9.0
19:39:10.349000,-220.0,-178.0,-205.0,-873.0,-328.0,-162.0,615.0,-481.0,-13.0
19:39:10.354000,-233.0,-182.0,-228.0,-866.0,-337.0,-165.0,615.0,-481.0,-13.0
19:39:10.358000,-233.0,-182.0,-228.0,-863.0,-349.0,-159.0,615.0,-481.0,-13.0
19:39:10.363000,-251.0,-186.0,-255.0,-862.0,-353.0,-154.0,601.0,-481.0,-16.0
19:39:10.368000,-251.0,-186.0,-255.0,-861.0,-349.0,-151.0,601.0,-481.0,-16.0
19:39:10.372000,-256.0,-186.0,-265.0,-856.0,-341.0,-146.0,606.0,-477.0,-16.0
19:39:10.377000,-260.0,-187.0,-265.0,-855.0,-329.0,-139.0,606.0,-477.0,-16.0
19:39:10.381000,-264.0,-191.0,-259.0,-857.0,-307.0,-131.0,606.0,-477.0,-16.0
19:39:10.386000,-270.0,-194.0,-257.0,-866.0,-276.0,-123.0,613.0,-472.0,-18.0
19:39:10.391000,-279.0,-202.0,-262.0,-880.0,-249.0,-106.0,613.0,-472.0,-18.0
19:39:10.396000,-294.0,-213.0,-266.0,-882.0,-244.0,-88.0,594.0,-468.0,-16.0
19:39:10.401000,-303.0,-221.0,-260.0,-872.0,-258.0,-73.0,594.0,-468.0,-16.0
19:39:10.405000,-312.0,-231.0,-256.0,-869.0,-257.0,-61.0,594.0,-468.0,-16.0
19:39:10.410000,-319.0,-240.0,-261.0,-880.0,-227.0,-46.0,606.0,-471.0,-16.0
19:39:10.415000,-329.0,-249.0,-277.0,-901.0,-186.0,-29.0,606.0,-471.0,-16.0
19:39:10.419000,-343.0,-255.0,-296.0,-901.0,-186.0,-29.0,612.0,-462.0,-25.0
19:39:10.424000,-361.0,-256.0,-309.0,-930.0,-158.0,1.0,612.0,-462.0,-25.0
19:39:10.428000,-380.0,-259.0,-304.0,-933.0,-180.0,16.0,612.0,-462.0,-25.0
19:39:10.433000,-396.0,-258.0,-289.0,-933.0,-180.0,16.0,606.0,-450.0,-7.0
19:39:10.438000,-412.0,-257.0,-269.0,-930.0,-210.0,27.0,606.0,-450.0,-7.0
19:39:10.443000,-426.0,-253.0,-250.0,-920.0,-231.0,37.0,609.0,-448.0,-22.0
19:39:10.447000,-436.0,-247.0,-233.0,-910.0,-237.0,43.0,609.0,-448.0,-22.0
19:39:10.452000,-445.0,-242.0,-221.0,-907.0,-229.0,47.0,609.0,-448.0,-22.0
19:39:10.457000,-460.0,-239.0,-212.0,-915.0,-208.0,54.0,598.0,-453.0,-22.0
19:39:10.462000,-469.0,-242.0,-204.0,-924.0,-191.0,63.0,598.0,-453.0,-22.0
19:39:10.466000,-481.0,-241.0,-187.0,-915.0,-193.0,70.0,606.0,-454.0,-27.0
19:39:10.471000,-492.0,-236.0,-184.0,-906.0,-197.0,75.0,606.0,-454.0,-27.0
19:39:10.475000,-492.0,-236.0,-184.0,-919.0,-197.0,74.0,606.0,-454.0,-27.0
19:39:10.480000,-493.0,-233.0,-198.0,-926.0,-214.0,72.0,604.0,-454.0,-31.0
19:39:10.485000,-490.0,-229.0,-190.0,-924.0,-230.0,77.0,604.0,-454.0,-31.0
19:39:10.490000,-487.0,-231.0,-163.0,-930.0,-220.0,80.0,598.0,-441.0,-27.0
19:39:10.494000,-480.0,-227.0,-150.0,-946.0,-197.0,77.0,598.0,-441.0,-27.0
19:39:10.499000,-470.0,-219.0,-149.0,-970.0,-206.0,81.0,598.0,-441.0,-27.0
19:39:10.504000,-459.0,-215.0,-142.0,-976.0,-239.0,81.0,604.0,-441.0,-30.0
19:39:10.509000,-439.0,-209.0,-118.0,-969.0,-272.0,86.0,604.0,-441.0,-30.0
19:39:10.513000,-415.0,-211.0,-78.0,-961.0,-303.0,93.0,604.0,-427.0,-36.0
19:39:10.518000,-387.0,-203.0,-32.0,-948.0,-332.0,98.0,604.0,-427.0,-36.0
19:39:10.522000,-355.0,-193.0,9.0,-935.0,-360.0,111.0,604.0,-427.0,-36.0
19:39:10.527000,-320.0,-174.0,39.0,-923.0,-380.0,116.0,585.0,-439.0,-27.0
19:39:10.532000,-277.0,-156.0,63.0,-920.0,-392.0,120.0,585.0,-439.0,-27.0
19:39:10.537000,-235.0,-135.0,95.0,-920.0,-392.0,120.0,594.0,-421.0,-31.0
19:39:10.541000,-197.0,-102.0,137.0,-928.0,-396.0,120.0,594.0,-421.0,-31.0
19:39:10.546000,-153.0,-70.0,175.0,-949.0,-392.0,113.0,594.0,-421.0,-31.0
19:39:10.551000,-110.0,-37.0,197.0,-969.0,-395.0,110.0,600.0,-432.0,-31.0
19:39:10.556000,-69.0,-9.0,200.0,-983.0,-399.0,111.0,600.0,-432.0,-31.0
19:39:10.560000,-29.0,14.0,206.0,-958.0,-370.0,114.0,595.0,-426.0,-22.0
19:39:10.565000,7.0,44.0,207.0,-958.0,-370.0,114.0,595.0,-426.0,-22.0
19:39:10.570000,41.0,64.0,205.0,-940.0,-352.0,125.0,595.0,-426.0,-22.0
19:39:10.574000,72.0,81.0,212.0,-911.0,-351.0,140.0,595.0,-426.0,-22.0
19:39:10.578000,72.0,81.0,212.0,-878.0,-359.0,147.0,595.0,-426.0,-22.0
19:39:10.584000,102.0,93.0,218.0,-860.0,-356.0,153.0,603.0,-442.0,-30.0
19:39:10.588000,121.0,100.0,220.0,-845.0,-327.0,169.0,603.0,-442.0,-30.0
19:39:10.593000,130.0,95.0,211.0,-826.0,-274.0,192.0,604.0,-439.0,-31.0
19:39:10.598000,127.0,88.0,200.0,-830.0,-218.0,188.0,604.0,-439.0,-31.0
19:39:10.602000,108.0,100.0,198.0,-846.0,-192.0,175.0,604.0,-439.0,-31.0
19:39:10.607000,81.0,126.0,215.0,-865.0,-206.0,161.0,595.0,-439.0,-25.0
19:39:10.612000,57.0,161.0,242.0,-890.0,-235.0,140.0,595.0,-439.0,-25.0
19:39:10.617000,37.0,200.0,253.0,-917.0,-249.0,119.0,582.0,-441.0,-24.0
19:39:10.621000,21.0,239.0,233.0,-953.0,-243.0,106.0,582.0,-441.0,-24.0
19:39:10.625000,7.0,277.0,190.0,-979.0,-239.0,119.0,582.0,-441.0,-24.0
19:39:10.631000,-8.0,301.0,136.0,-981.0,-254.0,133.0,600.0,-439.0,-27.0
19:39:10.635000,-22.0,324.0,75.0,-961.0,-286.0,137.0,600.0,-439.0,-27.0
19:39:10.640000,-35.0,338.0,28.0,-961.0,-286.0,137.0,598.0,-439.0,-25.0
19:39:10.645000,-52.0,344.0,-2.0,-911.0,-332.0,151.0,598.0,-439.0,-25.0
19:39:10.649000,-72.0,355.0,-26.0,-911.0,-332.0,151.0,598.0,-439.0,-25.0
19:39:10.654000,-88.0,382.0,-46.0,-915.0,-335.0,133.0,603.0,-444.0,-13.0
19:39:10.659000,-95.0,409.0,-58.0,-947.0,-351.0,113.0,603.0,-444.0,-13.0
19:39:10.664000,-89.0,429.0,-60.0,-986.0,-397.0,108.0,610.0,-439.0,-28.0
19:39:10.668000,-74.0,444.0,-64.0,-1008.0,-452.0,106.0,610.0,-439.0,-28.0
19:39:10.672000,-48.0,455.0,-74.0,-1010.0,-490.0,103.0,610.0,-439.0,-28.0
19:39:10.678000,-14.0,460.0,-88.0,-1000.0,-506.0,108.0,601.0,-444.0,-24.0
19:39:10.682000,24.0,458.0,-104.0,-983.0,-518.0,123.0,601.0,-444.0,-24.0
19:39:10.687000,67.0,459.0,-123.0,-959.0,-538.0,141.0,610.0,-444.0,-9.0
19:39:10.692000,116.0,457.0,-141.0,-930.0,-566.0,151.0,610.0,-444.0,-9.0
19:39:10.696000,116.0,457.0,-141.0,-906.0,-603.0,156.0,610.0,-444.0,-9.0
19:39:10.701000,172.0,457.0,-150.0,-905.0,-632.0,155.0,606.0,-444.0,13.0
19:39:10.706000,221.0,461.0,-153.0,-931.0,-632.0,155.0,606.0,-444.0,13.0
19:39:10.711000,262.0,469.0,-157.0,-975.0,-608.0,154.0,606.0,-444.0,13.0
19:39:10.715000,296.0,483.0,-170.0,-1015.0,-582.0,154.0,606.0,-444.0,13.0
19:39:10.719000,323.0,501.0,-178.0,-1031.0,-571.0,157.0,606.0,-444.0,13.0
19:39:10.725000,344.0,525.0,-179.0,-1041.0,-562.0,159.0,622.0,-438.0,-1.0
19:39:10.729000,359.0,550.0,-186.0,-1064.0,-541.0,160.0,622.0,-438.0,-1.0
19:39:10.734000,369.0,575.0,-197.0,-1095.0,-518.0,161.0,625.0,-442.0,1.0
19:39:10.739000,373.0,592.0,-207.0,-1112.0,-503.0,164.0,625.0,-442.0,1.0
19:39:10.743000,375.0,599.0,-226.0,-1093.0,-503.0,167.0,625.0,-442.0,1.0
19:39:10.748000,378.0,595.0,-252.0,-1038.0,-520.0,171.0,630.0,-433.0,12.0
19:39:10.753000,384.0,584.0,-271.0,-966.0,-541.0,174.0,630.0,-433.0,12.0
19:39:10.758000,388.0,565.0,-271.0,-966.0,-541.0,174.0,616.0,-435.0,9.0
19:39:10.762000,390.0,547.0,-261.0,-914.0,-533.0,180.0,616.0,-435.0,9.0
19:39:10.766000,380.0,534.0,-270.0,-906.0,-477.0,182.0,616.0,-435.0,9.0
19:39:10.772000,368.0,536.0,-291.0,-931.0,-390.0,173.0,630.0,-445.0,22.0
19:39:10.776000,357.0,543.0,-310.0,-958.0,-325.0,157.0,630.0,-445.0,22.0
19:39:10.781000,350.0,557.0,-324.0,-973.0,-310.0,147.0,624.0,-441.0,21.0
19:39:10.786000,358.0,581.0,-335.0,-988.0,-333.0,126.0,624.0,-441.0,21.0
19:39:10.793000,375.0,604.0,-329.0,-985.0,-379.0,82.0,624.0,-438.0,33.0
19:39:10.795000,399.0,631.0,-317.0,-985.0,-379.0,82.0,624.0,-438.0,33.0
19:39:10.799000,399.0,631.0,-317.0,-974.0,-360.0,63.0,624.0,-438.0,33.0
19:39:10.805000,415.0,655.0,-305.0,-968.0,-329.0,40.0,639.0,-432.0,33.0
19:39:10.809000,423.0,685.0,-284.0,-993.0,-303.0,7.0,639.0,-432.0,33.0
19:39:10.814000,417.0,725.0,-256.0,-1053.0,-300.0,-30.0,636.0,-436.0,36.0
19:39:10.819000,406.0,774.0,-199.0,-1085.0,-392.0,-65.0,636.0,-436.0,36.0
19:39:10.823000,415.0,826.0,-56.0,-1070.0,-526.0,-86.0,636.0,-436.0,36.0
19:39:10.828000,438.0,858.0,65.0,-1035.0,-498.0,-86.0,643.0,-433.0,39.0
19:39:10.833000,444.0,873.0,58.0,-973.0,-320.0,-82.0,643.0,-433.0,39.0
19:39:10.837000,420.0,898.0,5.0,-913.0,-143.0,-89.0,642.0,-439.0,54.0
19:39:10.842000,366.0,924.0,-2.0,-889.0,-34.0,-77.0,642.0,-439.0,54.0
19:39:10.846000,293.0,928.0,55.0,-855.0,-14.0,-63.0,642.0,-439.0,54.0
19:39:10.852000,224.0,917.0,129.0,-799.0,-67.0,-76.0,651.0,-445.0,57.0
19:39:10.856000,179.0,905.0,149.0,-755.0,-142.0,-68.0,651.0,-445.0,57.0
19:39:10.861000,153.0,875.0,124.0,-755.0,-142.0,-68.0,645.0,-450.0,73.0
19:39:10.866000,147.0,830.0,116.0,-695.0,-211.0,-53.0,645.0,-450.0,73.0
19:39:10.870000,155.0,788.0,122.0,-633.0,-255.0,-58.0,645.0,-450.0,73.0
19:39:10.875000,179.0,742.0,111.0,-616.0,-267.0,-77.0,651.0,-442.0,79.0
19:39:10.880000,216.0,697.0,120.0,-631.0,-292.0,-110.0,651.0,-442.0,79.0
19:39:10.884000,256.0,661.0,167.0,-764.0,-475.0,-205.0,658.0,-444.0,88.0
19:39:10.889000,323.0,630.0,205.0,-764.0,-475.0,-205.0,658.0,-444.0,88.0
19:39:10.893000,394.0,588.0,233.0,-862.0,-522.0,-203.0,658.0,-444.0,88.0
19:39:10.899000,450.0,549.0,252.0,-863.0,-498.0,-191.0,664.0,-438.0,84.0
19:39:10.903000,471.0,525.0,241.0,-808.0,-377.0,-191.0,664.0,-438.0,84.0
19:39:10.908000,453.0,497.0,230.0,-767.0,-205.0,-186.0,657.0,-442.0,97.0
19:39:10.913000,453.0,497.0,230.0,-732.0,-84.0,-179.0,657.0,-442.0,97.0
19:39:10.917000,406.0,475.0,246.0,-721.0,-43.0,-169.0,657.0,-442.0,97.0
19:39:10.922000,345.0,458.0,262.0,-750.0,-56.0,-157.0,661.0,-436.0,91.0
19:39:10.926000,279.0,440.0,251.0,-783.0,-90.0,-157.0,661.0,-436.0,91.0
19:39:10.932000,205.0,420.0,220.0,-808.0,-107.0,-157.0,660.0,-448.0,100.0
19:39:10.936000,126.0,398.0,186.0,-867.0,-100.0,-162.0,660.0,-448.0,100.0
19:39:10.940000,42.0,370.0,135.0,-957.0,-112.0,-170.0,660.0,-448.0,100.0
19:39:10.946000,-34.0,336.0,73.0,-1018.0,-186.0,-166.0,666.0,-453.0,105.0
19:39:10.950000,-99.0,298.0,14.0,-1021.0,-287.0,-171.0,666.0,-453.0,105.0
19:39:10.955000,-151.0,262.0,-42.0,-992.0,-370.0,-187.0,670.0,-453.0,103.0
19:39:10.960000,-190.0,221.0,-100.0,-971.0,-437.0,-202.0,670.0,-453.0,103.0
19:39:10.964000,-211.0,173.0,-149.0,-981.0,-495.0,-206.0,670.0,-453.0,103.0
19:39:10.969000,-218.0,116.0,-194.0,-1001.0,-549.0,-198.0,657.0,-453.0,114.0
19:39:10.974000,-217.0,58.0,-229.0,-1016.0,-580.0,-209.0,657.0,-453.0,114.0
19:39:10.979000,-209.0,9.0,-265.0,-1016.0,-580.0,-209.0,661.0,-451.0,121.0
19:39:10.983000,-200.0,-31.0,-311.0,-1050.0,-566.0,-226.0,661.0,-451.0,121.0
19:39:10.987000,-197.0,-66.0,-360.0,-1094.0,-514.0,-243.0,661.0,-451.0,121.0
19:39:10.992000,-207.0,-91.0,-406.0,-1119.0,-447.0,-265.0,661.0,-448.0,102.0
19:39:10.997000,-233.0,-114.0,-454.0,-1121.0,-382.0,-277.0,661.0,-448.0,102.0
19:39:11.002000,-278.0,-133.0,-501.0,-1107.0,-305.0,-290.0,663.0,-442.0,109.0
19:39:11.007000,-348.0,-158.0,-534.0,-1084.0,-212.0,-307.0,663.0,-442.0,109.0
19:39:11.011000,-348.0,-158.0,-534.0,-1056.0,-110.0,-310.0,663.0,-442.0,109.0
19:39:11.016000,-544.0,-226.0,-536.0,-1017.0,-17.0,-312.0,660.0,-430.0,114.0
19:39:11.021000,-644.0,-256.0,-514.0,-980.0,7.0,-317.0,660.0,-430.0,114.0
19:39:11.026000,-644.0,-256.0,-514.0,-975.0,-12.0,-303.0,676.0,-433.0,102.0
19:39:11.030000,-753.0,-301.0,-551.0,-948.0,-7.0,-287.0,676.0,-433.0,102.0
19:39:11.034000,-861.0,-346.0,-607.0,-863.0,4.0,-281.0,676.0,-433.0,102.0
19:39:11.040000,-962.0,-397.0,-626.0,-797.0,20.0,-265.0,661.0,-427.0,102.0
19:39:11.044000,-1063.0,-452.0,-648.0,-758.0,35.0,-253.0,661.0,-427.0,102.0
19:39:11.049000,-1157.0,-501.0,-693.0,-724.0,3.0,-260.0,669.0,-417.0,100.0
19:39:11.054000,-1232.0,-536.0,-757.0,-724.0,-80.0,-268.0,669.0,-417.0,100.0
19:39:11.058000,-1283.0,-578.0,-820.0,-769.0,-189.0,-274.0,669.0,-417.0,100.0
19:39:11.063000,-1308.0,-614.0,-862.0,-844.0,-280.0,-283.0,669.0,-421.0,97.0
19:39:11.068000,-1322.0,-648.0,-912.0,-936.0,-305.0,-282.0,669.0,-421.0,97.0
19:39:11.073000,-1334.0,-679.0,-1005.0,-936.0,-305.0,-282.0,655.0,-406.0,87.0
19:39:11.077000,-1355.0,-700.0,-1132.0,-1092.0,-228.0,-290.0,655.0,-406.0,87.0
19:39:11.081000,-1383.0,-702.0,-1264.0,-1181.0,-257.0,-292.0,655.0,-406.0,87.0
19:39:11.087000,-1407.0,-699.0,-1420.0,-1181.0,-257.0,-292.0,663.0,-400.0,82.0
19:39:11.091000,-1424.0,-691.0,-1610.0,-1301.0,-365.0,-273.0,663.0,-400.0,82.0
19:39:11.096000,-1402.0,-679.0,-1749.0,-1361.0,-517.0,-274.0,649.0,-375.0,75.0
19:39:11.101000,-1355.0,-688.0,-1820.0,-1279.0,-667.0,-276.0,649.0,-375.0,75.0
