hh:mm:ss.ms,gyroX[mdps],gyroY[mdps],gyroZ[mdps],accX[mg],accY[mg],accZ[mg],magX[mG],magY[mG],magZ[mG]
19:45:10.004000,74.0,25.0,-596.0,-1643.0,-170.0,-132.0,0.0,0.0,0.0
19:45:10.009000,-46.0,20.0,-637.0,-1450.0,-159.0,-131.0,0.0,0.0,0.0
19:45:10.013000,-203.0,47.0,-274.0,-1450.0,-159.0,-131.0,0.0,0.0,0.0
19:45:10.018000,-255.0,56.0,33.0,-1113.0,-162.0,-129.0,0.0,0.0,0.0
19:45:10.023000,-261.0,82.0,150.0,-1113.0,-162.0,-129.0,0.0,0.0,0.0
19:45:10.027000,-282.0,62.0,319.0,-1105.0,-313.0,-135.0,0.0,0.0,0.0
19:45:10.032000,-233.0,4.0,281.0,-1105.0,-313.0,-135.0,0.0,0.0,0.0
19:45:10.037000,-140.0,-7.0,191.0,-1168.0,-599.0,-137.0,0.0,0.0,0.0
19:45:10.041000,2.0,-64.0,168.0,-1168.0,-599.0,-137.0,0.0,0.0,0.0
19:45:10.046000,88.0,-149.0,60.0,-862.0,-913.0,-124.0,0.0,0.0,0.0
19:45:10.051000,88.0,-149.0,60.0,-862.0,-913.0,-124.0,0.0,0.0,0.0
19:45:10.056000,9.0,-177.0,104.0,-453.0,-1081.0,-89.0,0.0,0.0,0.0
19:45:10.060000,-53.0,-201.0,206.0,-453.0,-1081.0,-89.0,0.0,0.0,0.0
19:45:10.065000,-28.0,-258.0,101.0,-260.0,-1095.0,-72.0,0.0,0.0,0.0
19:45:10.070000,46.0,-222.0,107.0,-260.0,-1095.0,-72.0,0.0,0.0,0.0
19:45:10.074000,80.0,-298.0,-89.0,-372.0,-1159.0,-61.0,0.0,0.0,0.0
19:45:10.079000,-65.0,-296.0,-267.0,-372.0,-1159.0,-61.0,0.0,0.0,0.0
19:45:10.084000,-110.0,-278.0,-267.0,-507.0,-909.0,-44.0,0.0,0.0,0.0
19:45:10.088000,-97.0,-315.0,-624.0,-507.0,-909.0,-44.0,0.0,0.0,0.0
19:45:10.093000,-179.0,-296.0,-841.0,-488.0,-753.0,-29.0,0.0,0.0,0.0
19:45:10.098000,-178.0,-266.0,-715.0,-488.0,-753.0,-29.0,0.0,0.0,0.0
19:45:10.103000,-182.0,-252.0,-630.0,-671.0,-862.0,-35.0,0.0,0.0,0.0
19:45:10.107000,-64.0,-223.0,-733.0,-671.0,-862.0,-35.0,0.0,0.0,0.0
19:45:10.112000,106.0,-226.0,-664.0,-671.0,-862.0,-35.0,0.0,0.0,0.0
19:45:10.117000,177.0,-271.0,-569.0,-852.0,-977.0,-104.0,0.0,0.0,0.0
19:45:10.121000,113.0,-256.0,-506.0,-852.0,-977.0,-104.0,0.0,0.0,0.0
19:45:10.126000,47.0,-273.0,-654.0,-855.0,-755.0,-133.0,0.0,0.0,0.0
19:45:10.131000,-21.0,-325.0,-865.0,-855.0,-755.0,-133.0,0.0,0.0,0.0
19:45:10.135000,-88.0,-299.0,-756.0,-695.0,-446.0,-77.0,0.0,0.0,0.0
19:45:10.140000,-47.0,-275.0,-627.0,-695.0,-446.0,-77.0,0.0,0.0,0.0
19:45:10.145000,-14.0,-257.0,-486.0,-622.0,-532.0,-59.0,0.0,0.0,0.0
19:45:10.150000,47.0,-233.0,-360.0,-622.0,-532.0,-59.0,0.0,0.0,0.0
19:45:10.154000,56.0,-231.0,-396.0,-773.0,-652.0,-81.0,0.0,0.0,0.0
19:45:10.159000,56.0,-231.0,-396.0,-773.0,-652.0,-81.0,0.0,0.0,0.0
19:45:10.164000,27.0,-249.0,-317.0,-879.0,-629.0,-47.0,0.0,0.0,0.0
19:45:10.168000,-98.0,-240.0,-113.0,-879.0,-629.0,-47.0,0.0,0.0,0.0
19:45:10.173000,-142.0,-252.0,4.0,-771.0,-509.0,-13.0,0.0,0.0,0.0
19:45:10.178000,-243.0,-212.0,-9.0,-771.0,-509.0,-13.0,0.0,0.0,0.0
19:45:10.182000,-308.0,-189.0,-131.0,-619.0,-382.0,11.0,0.0,0.0,0.0
19:45:10.187000,-282.0,-158.0,-279.0,-619.0,-382.0,11.0,0.0,0.0,0.0
19:45:10.192000,-199.0,-168.0,-489.0,-792.0,-532.0,24.0,0.0,0.0,0.0
19:45:10.197000,-66.0,-211.0,-454.0,-792.0,-532.0,24.0,0.0,0.0,0.0
19:45:10.201000,-35.0,-222.0,-140.0,-977.0,-769.0,17.0,0.0,0.0,0.0
19:45:10.206000,-43.0,-204.0,102.0,-977.0,-769.0,17.0,0.0,0.0,0.0
19:45:10.211000,-72.0,-187.0,-6.0,-837.0,-626.0,30.0,0.0,0.0,0.0
19:45:10.215000,-39.0,-201.0,-164.0,-837.0,-626.0,30.0,0.0,0.0,0.0
19:45:10.220000,1.0,-194.0,-244.0,-837.0,-626.0,30.0,0.0,0.0,0.0
19:45:10.225000,-21.0,-172.0,-348.0,-718.0,-518.0,28.0,0.0,0.0,0.0
19:45:10.229000,-81.0,-133.0,-476.0,-718.0,-518.0,28.0,0.0,0.0,0.0
19:45:10.234000,-133.0,-105.0,-457.0,-887.0,-533.0,26.0,0.0,0.0,0.0
19:45:10.239000,-168.0,-93.0,-390.0,-887.0,-533.0,26.0,0.0,0.0,0.0
19:45:10.244000,-201.0,-70.0,-336.0,-912.0,-530.0,37.0,0.0,0.0,0.0
19:45:10.248000,-151.0,-60.0,-128.0,-912.0,-530.0,37.0,0.0,0.0,0.0
19:45:10.253000,-97.0,-49.0,15.0,-731.0,-619.0,22.0,0.0,0.0,0.0
19:45:10.258000,-139.0,-53.0,-90.0,-731.0,-619.0,22.0,0.0,0.0,0.0
19:45:10.262000,-101.0,-36.0,-39.0,-857.0,-592.0,-8.0,0.0,0.0,0.0
19:45:10.267000,-101.0,-36.0,-39.0,-857.0,-592.0,-8.0,0.0,0.0,0.0
19:45:10.272000,30.0,-62.0,109.0,-994.0,-578.0,-38.0,0.0,0.0,0.0
19:45:10.276000,44.0,-66.0,-23.0,-994.0,-578.0,-38.0,0.0,0.0,0.0
19:45:10.281000,98.0,-68.0,-212.0,-966.0,-607.0,-67.0,0.0,0.0,0.0
19:45:10.285000,123.0,-32.0,-237.0,-966.0,-607.0,-67.0,0.0,0.0,0.0
19:45:10.291000,153.0,-40.0,-26.0,-849.0,-599.0,-48.0,0.0,0.0,0.0
19:45:10.295000,131.0,-25.0,176.0,-849.0,-599.0,-48.0,0.0,0.0,0.0
19:45:10.300000,142.0,-23.0,83.0,-782.0,-550.0,-36.0,0.0,0.0,0.0
19:45:10.305000,207.0,10.0,18.0,-782.0,-550.0,-36.0,0.0,0.0,0.0
19:45:10.309000,243.0,49.0,99.0,-867.0,-628.0,-75.0,0.0,0.0,0.0
19:45:10.314000,371.0,77.0,93.0,-867.0,-628.0,-75.0,0.0,0.0,0.0
19:45:10.319000,471.0,39.0,-33.0,-924.0,-718.0,-83.0,0.0,0.0,0.0
19:45:10.323000,406.0,58.0,-189.0,-924.0,-718.0,-83.0,0.0,0.0,0.0
19:45:10.328000,415.0,76.0,-389.0,-924.0,-650.0,-83.0,0.0,0.0,0.0
19:45:10.333000,438.0,100.0,-466.0,-865.0,-650.0,-66.0,0.0,0.0,0.0
19:45:10.338000,441.0,133.0,-290.0,-865.0,-650.0,-66.0,0.0,0.0,0.0
19:45:10.342000,487.0,89.0,-240.0,-823.0,-728.0,-73.0,0.0,0.0,0.0
19:45:10.347000,378.0,91.0,-215.0,-823.0,-728.0,-73.0,0.0,0.0,0.0
19:45:10.352000,320.0,79.0,-219.0,-781.0,-649.0,-60.0,0.0,0.0,0.0
19:45:10.356000,338.0,74.0,-199.0,-781.0,-649.0,-60.0,0.0,0.0,0.0
19:45:10.361000,410.0,58.0,-210.0,-704.0,-541.0,-52.0,0.0,0.0,0.0
19:45:10.366000,440.0,42.0,-427.0,-704.0,-541.0,-52.0,0.0,0.0,0.0
19:45:10.370000,447.0,32.0,-551.0,-826.0,-574.0,-59.0,0.0,0.0,0.0
19:45:10.375000,447.0,32.0,-551.0,-826.0,-574.0,-59.0,0.0,0.0,0.0
19:45:10.380000,400.0,32.0,-455.0,-874.0,-536.0,-37.0,0.0,0.0,0.0
19:45:10.385000,347.0,48.0,-466.0,-874.0,-536.0,-37.0,0.0,0.0,0.0
19:45:10.389000,278.0,51.0,-485.0,-844.0,-482.0,-15.0,0.0,0.0,0.0
19:45:10.394000,240.0,60.0,-347.0,-844.0,-482.0,-15.0,0.0,0.0,0.0
19:45:10.399000,265.0,99.0,-130.0,-840.0,-392.0,-2.0,0.0,0.0,0.0
19:45:10.403000,285.0,63.0,-139.0,-840.0,-392.0,-2.0,0.0,0.0,0.0
19:45:10.408000,212.0,88.0,-378.0,-866.0,-368.0,1.0,0.0,0.0,0.0
19:45:10.413000,253.0,93.0,-301.0,-866.0,-368.0,1.0,0.0,0.0,0.0
19:45:10.417000,361.0,55.0,-160.0,-904.0,-458.0,-3.0,0.0,0.0,0.0
19:45:10.422000,340.0,35.0,-269.0,-904.0,-458.0,-3.0,0.0,0.0,0.0
19:45:10.427000,319.0,29.0,-436.0,-835.0,-474.0,-20.0,0.0,0.0,0.0
19:45:10.432000,291.0,37.0,-442.0,-835.0,-474.0,-20.0,0.0,0.0,0.0
19:45:10.436000,212.0,26.0,-398.0,-729.0,-320.0,-23.0,0.0,0.0,0.0
19:45:10.441000,125.0,29.0,-249.0,-729.0,-320.0,-23.0,0.0,0.0,0.0
19:45:10.446000,105.0,16.0,-112.0,-729.0,-320.0,-23.0,0.0,0.0,0.0
19:45:10.450000,107.0,-22.0,-229.0,-719.0,-236.0,-24.0,0.0,0.0,0.0
19:45:10.455000,46.0,-13.0,-367.0,-719.0,-236.0,-24.0,0.0,0.0,0.0
19:45:10.460000,72.0,-30.0,-227.0,-787.0,-342.0,-25.0,0.0,0.0,0.0
19:45:10.464000,37.0,-32.0,-68.0,-787.0,-342.0,-25.0,0.0,0.0,0.0
19:45:10.469000,-2.0,-32.0,-77.0,-843.0,-400.0,-9.0,0.0,0.0,0.0
19:45:10.474000,-49.0,-24.0,-97.0,-843.0,-400.0,-9.0,0.0,0.0,0.0
19:45:10.479000,-95.0,-7.0,-16.0,-880.0,-314.0,7.0,0.0,0.0,0.0
19:45:10.483000,-150.0,1.0,-10.0,-880.0,-314.0,7.0,0.0,0.0,0.0
19:45:10.488000,-150.0,1.0,-10.0,-898.0,-277.0,17.0,0.0,0.0,0.0
19:45:10.493000,-149.0,15.0,-184.0,-898.0,-277.0,17.0,0.0,0.0,0.0
19:45:10.497000,-112.0,24.0,-290.0,-902.0,-336.0,11.0,0.0,0.0,0.0
19:45:10.502000,-93.0,30.0,-200.0,-902.0,-336.0,11.0,0.0,0.0,0.0
19:45:10.507000,-114.0,42.0,-81.0,-901.0,-401.0,7.0,0.0,0.0,0.0
19:45:10.511000,-118.0,49.0,-37.0,-901.0,-401.0,7.0,0.0,0.0,0.0
19:45:10.516000,-135.0,67.0,-74.0,-914.0,-413.0,5.0,0.0,0.0,0.0
19:45:10.520000,-116.0,89.0,-135.0,-914.0,-413.0,5.0,0.0,0.0,0.0
19:45:10.526000,-53.0,94.0,-130.0,-887.0,-459.0,-11.0,0.0,0.0,0.0
19:45:10.530000,-39.0,89.0,-37.0,-887.0,-459.0,-11.0,0.0,0.0,0.0
19:45:10.535000,-31.0,85.0,-22.0,-839.0,-462.0,-10.0,0.0,0.0,0.0
19:45:10.540000,-10.0,84.0,-60.0,-839.0,-462.0,-10.0,0.0,0.0,0.0
19:45:10.544000,-30.0,84.0,-65.0,-783.0,-420.0,5.0,0.0,0.0,0.0
19:45:10.549000,-32.0,94.0,-33.0,-783.0,-420.0,5.0,0.0,0.0,0.0
19:45:10.554000,15.0,74.0,-14.0,-783.0,-420.0,5.0,0.0,0.0,0.0
19:45:10.558000,2.0,80.0,98.0,-786.0,-420.0,8.0,0.0,0.0,0.0
19:45:10.563000,7.0,102.0,95.0,-786.0,-420.0,8.0,0.0,0.0,0.0
19:45:10.568000,-44.0,104.0,-43.0,-918.0,-404.0,0.0,0.0,0.0,0.0
19:45:10.573000,-33.0,95.0,-47.0,-918.0,-404.0,0.0,0.0,0.0,0.0
19:45:10.577000,-40.0,83.0,-25.0,-969.0,-435.0,-15.0,0.0,0.0,0.0
19:45:10.582000,-53.0,99.0,-98.0,-969.0,-435.0,-15.0,0.0,0.0,0.0
19:45:10.587000,-36.0,93.0,-203.0,-942.0,-422.0,-30.0,0.0,0.0,0.0
19:45:10.591000,-54.0,95.0,-225.0,-942.0,-422.0,-30.0,0.0,0.0,0.0
19:45:10.596000,-54.0,95.0,-225.0,-947.0,-383.0,-28.0,0.0,0.0,0.0
19:45:10.601000,-53.0,84.0,-193.0,-947.0,-383.0,-28.0,0.0,0.0,0.0
19:45:10.605000,-72.0,82.0,-132.0,-944.0,-405.0,-18.0,0.0,0.0,0.0
19:45:10.610000,-88.0,92.0,-119.0,-944.0,-405.0,-18.0,0.0,0.0,0.0
19:45:10.615000,-124.0,114.0,-202.0,-1019.0,-361.0,-15.0,0.0,0.0,0.0
19:45:10.620000,-145.0,124.0,-296.0,-1019.0,-361.0,-15.0,0.0,0.0,0.0
19:45:10.624000,-156.0,126.0,-287.0,-1096.0,-394.0,-19.0,0.0,0.0,0.0
19:45:10.629000,-147.0,135.0,-314.0,-1096.0,-394.0,-19.0,0.0,0.0,0.0
19:45:10.634000,-158.0,152.0,-340.0,-1128.0,-436.0,-21.0,0.0,0.0,0.0
19:45:10.638000,-184.0,163.0,-313.0,-1128.0,-436.0,-21.0,0.0,0.0,0.0
19:45:10.643000,-231.0,179.0,-378.0,-1156.0,-355.0,-7.0,0.0,0.0,0.0
19:45:10.648000,-263.0,208.0,-383.0,-1156.0,-355.0,-7.0,0.0,0.0,0.0
19:45:10.652000,-265.0,238.0,-301.0,-1146.0,-423.0,-1.0,0.0,0.0,0.0
19:45:10.657000,-260.0,256.0,-297.0,-1146.0,-423.0,-1.0,0.0,0.0,0.0
19:45:10.662000,-169.0,284.0,-469.0,-1146.0,-423.0,-1.0,0.0,0.0,0.0
19:45:10.667000,-130.0,316.0,-651.0,-1238.0,-562.0,-33.0,0.0,0.0,0.0
19:45:10.671000,-77.0,345.0,-672.0,-1238.0,-562.0,-33.0,0.0,0.0,0.0
19:45:10.676000,-89.0,361.0,-514.0,-1212.0,-643.0,-52.0,0.0,0.0,0.0
19:45:10.681000,-51.0,330.0,-457.0,-1212.0,-643.0,-52.0,0.0,0.0,0.0
19:45:10.685000,-20.0,361.0,-611.0,-1076.0,-548.0,-41.0,0.0,0.0,0.0
19:45:10.690000,28.0,393.0,-759.0,-1076.0,-548.0,-41.0,0.0,0.0,0.0
19:45:10.695000,137.0,382.0,-741.0,-1083.0,-485.0,-59.0,0.0,0.0,0.0
19:45:10.699000,190.0,361.0,-688.0,-1083.0,-485.0,-59.0,0.0,0.0,0.0
19:45:10.704000,190.0,361.0,-688.0,-1071.0,-612.0,-79.0,0.0,0.0,0.0
19:45:10.709000,226.0,337.0,-673.0,-1071.0,-612.0,-79.0,0.0,0.0,0.0
19:45:10.714000,228.0,372.0,-688.0,-1046.0,-639.0,-82.0,0.0,0.0,0.0
19:45:10.718000,262.0,373.0,-704.0,-1046.0,-639.0,-82.0,0.0,0.0,0.0
19:45:10.723000,289.0,364.0,-791.0,-1036.0,-581.0,-88.0,0.0,0.0,0.0
19:45:10.728000,338.0,347.0,-849.0,-1036.0,-581.0,-88.0,0.0,0.0,0.0
19:45:10.732000,373.0,346.0,-842.0,-1018.0,-529.0,-101.0,0.0,0.0,0.0
19:45:10.737000,389.0,351.0,-885.0,-1018.0,-529.0,-101.0,0.0,0.0,0.0
19:45:10.742000,411.0,365.0,-951.0,-1031.0,-480.0,-104.0,0.0,0.0,0.0
19:45:10.746000,420.0,367.0,-982.0,-1031.0,-480.0,-104.0,0.0,0.0,0.0
19:45:10.751000,398.0,371.0,-965.0,-1060.0,-464.0,-81.0,0.0,0.0,0.0
19:45:10.755000,406.0,373.0,-940.0,-1060.0,-464.0,-81.0,0.0,0.0,0.0
19:45:10.761000,399.0,390.0,-1011.0,-1068.0,-493.0,-68.0,0.0,0.0,0.0
19:45:10.765000,420.0,420.0,-1102.0,-1068.0,-493.0,-68.0,0.0,0.0,0.0
19:45:10.770000,434.0,437.0,-1166.0,-1068.0,-493.0,-68.0,0.0,0.0,0.0
19:45:10.775000,447.0,452.0,-1179.0,-1050.0,-492.0,-64.0,0.0,0.0,0.0
19:45:10.779000,452.0,462.0,-1192.0,-1050.0,-492.0,-64.0,0.0,0.0,0.0
19:45:10.784000,469.0,478.0,-1204.0,-1030.0,-470.0,-62.0,0.0,0.0,0.0
19:45:10.789000,477.0,497.0,-1211.0,-1030.0,-470.0,-62.0,0.0,0.0,0.0
19:45:10.793000,479.0,512.0,-1197.0,-1023.0,-427.0,-69.0,0.0,0.0,0.0
19:45:10.798000,493.0,520.0,-1215.0,-1023.0,-427.0,-69.0,0.0,0.0,0.0
19:45:10.803000,506.0,525.0,-1292.0,-1049.0,-382.0,-86.0,0.0,0.0,0.0
19:45:10.808000,519.0,532.0,-1343.0,-1049.0,-382.0,-86.0,0.0,0.0,0.0
19:45:10.812000,519.0,532.0,-1343.0,-1023.0,-330.0,-102.0,0.0,0.0,0.0
19:45:10.817000,528.0,527.0,-1314.0,-1023.0,-330.0,-102.0,0.0,0.0,0.0
19:45:10.822000,534.0,522.0,-1247.0,-916.0,-295.0,-100.0,0.0,0.0,0.0
19:45:10.826000,548.0,511.0,-1222.0,-916.0,-295.0,-100.0,0.0,0.0,0.0
19:45:10.831000,564.0,506.0,-1232.0,-892.0,-259.0,-101.0,0.0,0.0,0.0
19:45:10.836000,580.0,501.0,-1246.0,-892.0,-259.0,-101.0,0.0,0.0,0.0
19:45:10.840000,583.0,490.0,-1256.0,-944.0,-188.0,-115.0,0.0,0.0,0.0
19:45:10.845000,584.0,478.0,-1232.0,-944.0,-188.0,-115.0,0.0,0.0,0.0
19:45:10.850000,585.0,467.0,-1192.0,-957.0,-138.0,-128.0,0.0,0.0,0.0
19:45:10.855000,588.0,450.0,-1159.0,-957.0,-138.0,-128.0,0.0,0.0,0.0
19:45:10.859000,601.0,431.0,-1143.0,-929.0,-94.0,-143.0,0.0,0.0,0.0
19:45:10.864000,609.0,417.0,-1136.0,-929.0,-94.0,-143.0,0.0,0.0,0.0
19:45:10.869000,611.0,406.0,-1113.0,-901.0,-57.0,-162.0,0.0,0.0,0.0
19:45:10.873000,613.0,393.0,-1080.0,-901.0,-57.0,-162.0,0.0,0.0,0.0
19:45:10.878000,608.0,379.0,-1059.0,-901.0,-57.0,-162.0,0.0,0.0,0.0
19:45:10.883000,602.0,360.0,-1037.0,-902.0,-34.0,-175.0,0.0,0.0,0.0
19:45:10.887000,589.0,338.0,-998.0,-902.0,-34.0,-175.0,0.0,0.0,0.0
19:45:10.892000,581.0,321.0,-966.0,-901.0,-6.0,-182.0,0.0,0.0,0.0
19:45:10.897000,570.0,301.0,-955.0,-901.0,-6.0,-182.0,0.0,0.0,0.0
19:45:10.902000,555.0,280.0,-942.0,-874.0,38.0,-185.0,0.0,0.0,0.0
19:45:10.906000,543.0,259.0,-907.0,-874.0,38.0,-185.0,0.0,0.0,0.0
19:45:10.911000,527.0,240.0,-865.0,-849.0,76.0,-188.0,0.0,0.0,0.0
19:45:10.916000,511.0,222.0,-829.0,-849.0,76.0,-188.0,0.0,0.0,0.0
19:45:10.920000,504.0,204.0,-819.0,-811.0,111.0,-192.0,0.0,0.0,0.0
19:45:10.925000,504.0,204.0,-819.0,-811.0,111.0,-192.0,0.0,0.0,0.0
19:45:10.930000,483.0,194.0,-837.0,-849.0,182.0,-192.0,0.0,0.0,0.0
19:45:10.934000,464.0,183.0,-857.0,-849.0,182.0,-192.0,0.0,0.0,0.0
19:45:10.939000,452.0,170.0,-875.0,-798.0,230.0,-227.0,0.0,0.0,0.0
19:45:10.944000,426.0,178.0,-874.0,-798.0,230.0,-227.0,0.0,0.0,0.0
19:45:10.949000,375.0,193.0,-821.0,-939.0,317.0,-240.0,0.0,0.0,0.0
19:45:10.953000,337.0,191.0,-748.0,-939.0,317.0,-240.0,0.0,0.0,0.0
19:45:10.958000,316.0,188.0,-788.0,-987.0,373.0,-228.0,0.0,0.0,0.0
19:45:10.963000,331.0,191.0,-930.0,-987.0,373.0,-228.0,0.0,0.0,0.0
19:45:10.967000,324.0,198.0,-951.0,-833.0,369.0,-248.0,0.0,0.0,0.0
19:45:10.972000,280.0,207.0,-817.0,-833.0,369.0,-248.0,0.0,0.0,0.0
19:45:10.977000,263.0,210.0,-744.0,-777.0,363.0,-251.0,0.0,0.0,0.0
19:45:10.981000,257.0,215.0,-765.0,-777.0,363.0,-251.0,0.0,0.0,0.0
19:45:10.986000,214.0,231.0,-717.0,-777.0,363.0,-251.0,0.0,0.0,0.0
19:45:10.991000,180.0,239.0,-718.0,-884.0,404.0,-265.0,0.0,0.0,0.0
19:45:10.996000,200.0,230.0,-731.0,-884.0,404.0,-265.0,0.0,0.0,0.0
19:45:11.000000,184.0,233.0,-523.0,-888.0,465.0,-269.0,0.0,0.0,0.0
19:45:11.005000,109.0,260.0,-540.0,-888.0,465.0,-269.0,0.0,0.0,0.0
19:45:11.010000,191.0,237.0,-705.0,-766.0,544.0,-226.0,0.0,0.0,0.0
19:45:11.014000,172.0,242.0,-606.0,-766.0,544.0,-226.0,0.0,0.0,0.0
19:45:11.019000,123.0,277.0,-506.0,-861.0,588.0,-235.0,0.0,0.0,0.0
19:45:11.024000,126.0,314.0,-501.0,-861.0,588.0,-235.0,0.0,0.0,0.0
19:45:11.028000,102.0,343.0,-399.0,-827.0,477.0,-366.0,0.0,0.0,0.0
19:45:11.033000,102.0,343.0,-399.0,-827.0,477.0,-366.0,0.0,0.0,0.0
19:45:11.038000,57.0,366.0,-366.0,-1041.0,412.0,-492.0,0.0,0.0,0.0
19:45:11.043000,55.0,359.0,-448.0,-1041.0,412.0,-492.0,0.0,0.0,0.0
19:45:11.047000,46.0,348.0,-459.0,-1360.0,376.0,-516.0,0.0,0.0,0.0
19:45:11.052000,61.0,316.0,-291.0,-1360.0,376.0,-516.0,0.0,0.0,0.0
19:45:11.057000,48.0,263.0,-50.0,-1241.0,241.0,-456.0,0.0,0.0,0.0
19:45:11.061000,33.0,226.0,81.0,-1241.0,241.0,-456.0,0.0,0.0,0.0
19:45:11.066000,26.0,221.0,115.0,-957.0,227.0,-392.0,0.0,0.0,0.0
19:45:11.071000,51.0,189.0,115.0,-957.0,227.0,-392.0,0.0,0.0,0.0
19:45:11.075000,63.0,130.0,97.0,-825.0,295.0,-350.0,0.0,0.0,0.0
19:45:11.080000,70.0,79.0,15.0,-825.0,295.0,-350.0,0.0,0.0,0.0
19:45:11.085000,86.0,46.0,-60.0,-684.0,292.0,-312.0,0.0,0.0,0.0
19:45:11.090000,129.0,-16.0,-37.0,-684.0,292.0,-312.0,0.0,0.0,0.0
19:45:11.094000,137.0,-64.0,13.0,-684.0,292.0,-312.0,0.0,0.0,0.0
19:45:11.099000,151.0,-114.0,26.0,-519.0,286.0,-274.0,0.0,0.0,0.0
19:45:11.104000,168.0,-137.0,44.0,-519.0,286.0,-274.0,0.0,0.0,0.0
19:45:11.108000,179.0,-151.0,18.0,-538.0,231.0,-265.0,0.0,0.0,0.0
19:45:11.113000,188.0,-170.0,-10.0,-538.0,231.0,-265.0,0.0,0.0,0.0
19:45:11.118000,197.0,-192.0,0.0,-711.0,209.0,-280.0,0.0,0.0,0.0
19:45:11.122000,172.0,-177.0,-31.0,-711.0,209.0,-280.0,0.0,0.0,0.0
19:45:11.127000,158.0,-156.0,-106.0,-823.0,294.0,-302.0,0.0,0.0,0.0
19:45:11.132000,144.0,-156.0,-128.0,-823.0,294.0,-302.0,0.0,0.0,0.0
19:45:11.137000,133.0,-166.0,-114.0,-907.0,378.0,-316.0,0.0,0.0,0.0
19:45:11.141000,133.0,-166.0,-114.0,-907.0,378.0,-316.0,0.0,0.0,0.0
19:45:11.146000,126.0,-157.0,-97.0,-953.0,344.0,-311.0,0.0,0.0,0.0
19:45:11.151000,117.0,-141.0,-101.0,-953.0,344.0,-311.0,0.0,0.0,0.0
19:45:11.155000,108.0,-145.0,-129.0,-965.0,314.0,-300.0,0.0,0.0,0.0
19:45:11.160000,100.0,-150.0,-133.0,-965.0,314.0,-300.0,0.0,0.0,0.0
19:45:11.165000,91.0,-152.0,-128.0,-934.0,366.0,-277.0,0.0,0.0,0.0
19:45:11.169000,79.0,-149.0,-128.0,-934.0,366.0,-277.0,0.0,0.0,0.0
19:45:11.174000,70.0,-144.0,-144.0,-874.0,394.0,-268.0,0.0,0.0,0.0
19:45:11.179000,64.0,-140.0,-146.0,-874.0,394.0,-268.0,0.0,0.0,0.0
19:45:11.184000,50.0,-135.0,-114.0,-878.0,363.0,-256.0,0.0,0.0,0.0
19:45:11.188000,37.0,-128.0,-84.0,-878.0,363.0,-256.0,0.0,0.0,0.0
19:45:11.193000,28.0,-115.0,-91.0,-874.0,360.0,-255.0,0.0,0.0,0.0
19:45:11.198000,18.0,-107.0,-121.0,-874.0,360.0,-255.0,0.0,0.0,0.0
19:45:11.202000,0.0,-97.0,-116.0,-874.0,398.0,-259.0,0.0,0.0,0.0
19:45:11.207000,-17.0,-88.0,-84.0,-845.0,398.0,-259.0,0.0,0.0,0.0
19:45:11.212000,-30.0,-86.0,-56.0,-845.0,398.0,-259.0,0.0,0.0,0.0
19:45:11.216000,-37.0,-90.0,-46.0,-836.0,395.0,-250.0,0.0,0.0,0.0
19:45:11.221000,-34.0,-98.0,-44.0,-836.0,395.0,-250.0,0.0,0.0,0.0
19:45:11.225000,-28.0,-110.0,-39.0,-834.0,355.0,-233.0,0.0,0.0,0.0
19:45:11.231000,-25.0,-120.0,-30.0,-834.0,355.0,-233.0,0.0,0.0,0.0
19:45:11.235000,-22.0,-135.0,-10.0,-794.0,342.0,-218.0,0.0,0.0,0.0
19:45:11.240000,-18.0,-149.0,5.0,-794.0,342.0,-218.0,0.0,0.0,0.0
19:45:11.245000,-14.0,-165.0,16.0,-771.0,371.0,-212.0,0.0,0.0,0.0
19:45:11.249000,-9.0,-344.0,16.0,-771.0,371.0,-212.0,0.0,0.0,0.0
19:45:11.254000,-9.0,-180.0,19.0,-807.0,386.0,-214.0,0.0,0.0,0.0
19:45:11.259000,-7.0,-193.0,29.0,-807.0,386.0,-214.0,0.0,0.0,0.0
19:45:11.263000,-11.0,-202.0,46.0,-854.0,378.0,-222.0,0.0,0.0,0.0
19:45:11.268000,-21.0,-208.0,78.0,-854.0,378.0,-222.0,0.0,0.0,0.0
19:45:11.273000,-39.0,-210.0,115.0,-892.0,389.0,-228.0,0.0,0.0,0.0
19:45:11.278000,-64.0,-210.0,144.0,-892.0,389.0,-228.0,0.0,0.0,0.0
19:45:11.282000,-92.0,-207.0,169.0,-907.0,429.0,-229.0,0.0,0.0,0.0
19:45:11.287000,-127.0,-203.0,204.0,-907.0,429.0,-229.0,0.0,0.0,0.0
19:45:11.292000,-167.0,-197.0,257.0,-893.0,453.0,-225.0,0.0,0.0,0.0
19:45:11.296000,-201.0,-193.0,314.0,-893.0,453.0,-225.0,0.0,0.0,0.0
19:45:11.301000,-235.0,-184.0,372.0,-875.0,430.0,-219.0,0.0,0.0,0.0
19:45:11.306000,-262.0,-178.0,428.0,-875.0,430.0,-219.0,0.0,0.0,0.0
19:45:11.310000,-284.0,-172.0,479.0,-841.0,372.0,-213.0,0.0,0.0,0.0
19:45:11.315000,-301.0,-165.0,529.0,-841.0,372.0,-213.0,0.0,0.0,0.0
19:45:11.320000,-310.0,-161.0,579.0,-841.0,372.0,-213.0,0.0,0.0,0.0
19:45:11.325000,-317.0,-157.0,620.0,-791.0,316.0,-206.0,0.0,0.0,0.0
19:45:11.329000,-321.0,-152.0,652.0,-791.0,316.0,-206.0,0.0,0.0,0.0
19:45:11.334000,-319.0,-150.0,671.0,-753.0,289.0,-199.0,0.0,0.0,0.0
19:45:11.339000,-316.0,-146.0,675.0,-753.0,289.0,-199.0,0.0,0.0,0.0
19:45:11.343000,-308.0,-143.0,661.0,-725.0,272.0,-191.0,0.0,0.0,0.0
19:45:11.380000,-230.0,-130.0,483.0,-575.0,150.0,-149.0,0.0,0.0,0.0
19:45:11.386000,-222.0,-129.0,451.0,-575.0,150.0,-149.0,0.0,0.0,0.0
19:45:11.390000,-215.0,-128.0,420.0,-606.0,147.0,-146.0,0.0,0.0,0.0
19:45:11.395000,-212.0,-126.0,404.0,-606.0,147.0,-146.0,0.0,0.0,0.0
19:45:11.400000,-208.0,-128.0,396.0,-623.0,121.0,-145.0,0.0,0.0,0.0
19:45:11.404000,-203.0,-128.0,390.0,-623.0,121.0,-145.0,0.0,0.0,0.0
19:45:11.409000,-196.0,-128.0,394.0,-615.0,79.0,-144.0,0.0,0.0,0.0
19:45:11.414000,-188.0,-128.0,401.0,-615.0,79.0,-144.0,0.0,0.0,0.0
19:45:11.419000,-179.0,-131.0,406.0,-620.0,50.0,-145.0,0.0,0.0,0.0
19:45:11.423000,-170.0,-133.0,405.0,-620.0,50.0,-145.0,0.0,0.0,0.0
19:45:11.428000,-158.0,-134.0,396.0,-620.0,50.0,-145.0,0.0,0.0,0.0
19:45:11.433000,-143.0,-132.0,385.0,-652.0,32.0,-147.0,0.0,0.0,0.0
19:45:11.437000,-128.0,-127.0,377.0,-682.0,9.0,-155.0,0.0,0.0,0.0
19:45:11.442000,-115.0,-120.0,368.0,-682.0,9.0,-155.0,0.0,0.0,0.0
19:45:11.447000,-103.0,-107.0,353.0,-682.0,9.0,-155.0,0.0,0.0,0.0
19:45:11.451000,-95.0,-96.0,338.0,-712.0,1.0,-166.0,0.0,0.0,0.0
19:45:11.456000,-91.0,-84.0,326.0,-712.0,1.0,-166.0,0.0,0.0,0.0
19:45:11.461000,-89.0,-71.0,317.0,-742.0,16.0,-173.0,0.0,0.0,0.0
19:45:11.466000,-92.0,-59.0,313.0,-742.0,16.0,-173.0,0.0,0.0,0.0
19:45:11.470000,-92.0,-59.0,313.0,-744.0,29.0,-176.0,0.0,0.0,0.0
19:45:11.475000,-96.0,-49.0,313.0,-744.0,29.0,-176.0,0.0,0.0,0.0
19:45:11.480000,-100.0,-39.0,317.0,-725.0,34.0,-176.0,0.0,0.0,0.0
19:45:11.484000,-103.0,-33.0,324.0,-725.0,34.0,-176.0,0.0,0.0,0.0
19:45:11.489000,-107.0,-30.0,336.0,-698.0,29.0,-173.0,0.0,0.0,0.0
19:45:11.494000,-109.0,-29.0,357.0,-698.0,29.0,-173.0,0.0,0.0,0.0
19:45:11.498000,-111.0,-30.0,380.0,-676.0,11.0,-170.0,0.0,0.0,0.0
19:45:11.503000,-110.0,-34.0,399.0,-676.0,11.0,-170.0,0.0,0.0,0.0
19:45:11.508000,-109.0,-39.0,410.0,-662.0,-9.0,-168.0,0.0,0.0,0.0
19:45:11.513000,-107.0,-48.0,419.0,-662.0,-9.0,-168.0,0.0,0.0,0.0
19:45:11.517000,-103.0,-54.0,420.0,-639.0,-29.0,-165.0,0.0,0.0,0.0
19:45:11.522000,-100.0,-60.0,410.0,-639.0,-29.0,-165.0,0.0,0.0,0.0
19:45:11.527000,-98.0,-65.0,401.0,-617.0,-36.0,-165.0,0.0,0.0,0.0
19:45:11.531000,-98.0,-70.0,393.0,-617.0,-36.0,-165.0,0.0,0.0,0.0
19:45:11.536000,-97.0,-78.0,379.0,-617.0,-36.0,-165.0,0.0,0.0,0.0
19:45:11.541000,-98.0,-89.0,358.0,-631.0,-20.0,-161.0,0.0,0.0,0.0
19:45:11.545000,-98.0,-101.0,340.0,-631.0,-20.0,-161.0,0.0,0.0,0.0
19:45:11.550000,-98.0,-114.0,334.0,-655.0,-5.0,-150.0,0.0,0.0,0.0
19:45:11.555000,-94.0,-125.0,340.0,-655.0,-5.0,-150.0,0.0,0.0,0.0
19:45:11.559000,-91.0,-136.0,353.0,-645.0,-19.0,-137.0,0.0,0.0,0.0
19:45:11.564000,-88.0,-145.0,372.0,-645.0,-19.0,-137.0,0.0,0.0,0.0
19:45:11.569000,-85.0,-149.0,393.0,-634.0,-49.0,-127.0,0.0,0.0,0.0
19:45:11.574000,-89.0,-147.0,408.0,-634.0,-49.0,-127.0,0.0,0.0,0.0
19:45:11.578000,-89.0,-147.0,408.0,-665.0,-54.0,-125.0,0.0,0.0,0.0
19:45:11.583000,-96.0,-142.0,417.0,-665.0,-54.0,-125.0,0.0,0.0,0.0
19:45:11.588000,-109.0,-138.0,419.0,-713.0,-40.0,-125.0,0.0,0.0,0.0
19:45:11.592000,-123.0,-134.0,416.0,-713.0,-40.0,-125.0,0.0,0.0,0.0
19:45:11.597000,-134.0,-129.0,404.0,-725.0,-31.0,-127.0,0.0,0.0,0.0
19:45:11.602000,-144.0,-123.0,386.0,-725.0,-31.0,-127.0,0.0,0.0,0.0
19:45:11.606000,-153.0,-118.0,368.0,-710.0,-28.0,-127.0,0.0,0.0,0.0
19:45:11.611000,-158.0,-114.0,347.0,-710.0,-28.0,-127.0,0.0,0.0,0.0
19:45:11.616000,-161.0,-113.0,324.0,-696.0,-31.0,-122.0,0.0,0.0,0.0
19:45:11.621000,-162.0,-114.0,304.0,-696.0,-31.0,-122.0,0.0,0.0,0.0
19:45:11.625000,-160.0,-114.0,289.0,-676.0,-49.0,-118.0,0.0,0.0,0.0
19:45:11.630000,-156.0,-117.0,280.0,-676.0,-49.0,-118.0,0.0,0.0,0.0
19:45:11.635000,-149.0,-119.0,270.0,-660.0,-79.0,-116.0,0.0,0.0,0.0
19:45:11.639000,-138.0,-121.0,259.0,-660.0,-79.0,-116.0,0.0,0.0,0.0
19:45:11.644000,-126.0,-128.0,240.0,-660.0,-79.0,-116.0,0.0,0.0,0.0
19:45:11.649000,-114.0,-137.0,216.0,-662.0,-101.0,-115.0,0.0,0.0,0.0
19:45:11.653000,-102.0,-147.0,186.0,-662.0,-101.0,-115.0,0.0,0.0,0.0
19:45:11.658000,-89.0,-156.0,156.0,-661.0,-107.0,-115.0,0.0,0.0,0.0
19:45:11.663000,-77.0,-167.0,125.0,-661.0,-107.0,-115.0,0.0,0.0,0.0
19:45:11.668000,-63.0,-179.0,84.0,-647.0,-116.0,-119.0,0.0,0.0,0.0
19:45:11.672000,-51.0,-196.0,37.0,-647.0,-116.0,-119.0,0.0,0.0,0.0
19:45:11.677000,-40.0,-216.0,-16.0,-645.0,-115.0,-123.0,0.0,0.0,0.0
19:45:11.682000,-30.0,-240.0,-74.0,-645.0,-115.0,-123.0,0.0,0.0,0.0
19:45:11.686000,-19.0,-266.0,-137.0,-636.0,-97.0,-125.0,0.0,0.0,0.0
19:45:11.691000,-19.0,-266.0,-137.0,-636.0,-97.0,-125.0,0.0,0.0,0.0
19:45:11.696000,-9.0,-296.0,-202.0,-606.0,-81.0,-134.0,0.0,0.0,0.0
19:45:11.700000,0.0,-326.0,-260.0,-606.0,-81.0,-134.0,0.0,0.0,0.0
19:45:11.705000,7.0,-354.0,-310.0,-591.0,-56.0,-146.0,0.0,0.0,0.0
19:45:11.710000,10.0,-380.0,-345.0,-591.0,-56.0,-146.0,0.0,0.0,0.0
19:45:11.715000,9.0,-399.0,-367.0,-626.0,4.0,-159.0,0.0,0.0,0.0
19:45:11.719000,3.0,-411.0,-375.0,-626.0,4.0,-159.0,0.0,0.0,0.0
19:45:11.724000,-12.0,-417.0,-366.0,-714.0,101.0,-167.0,0.0,0.0,0.0
19:45:11.729000,-33.0,-417.0,-331.0,-714.0,101.0,-167.0,0.0,0.0,0.0
19:45:11.733000,-58.0,-416.0,-267.0,-808.0,180.0,-160.0,0.0,0.0,0.0
19:45:11.738000,-80.0,-411.0,-179.0,-808.0,180.0,-160.0,0.0,0.0,0.0
19:45:11.743000,-96.0,-402.0,-84.0,-857.0,192.0,-146.0,0.0,0.0,0.0
19:45:11.747000,-105.0,-393.0,7.0,-857.0,192.0,-146.0,0.0,0.0,0.0
19:45:11.752000,-103.0,-380.0,88.0,-857.0,192.0,-146.0,0.0,0.0,0.0
19:45:11.757000,-93.0,-363.0,158.0,-865.0,166.0,-138.0,0.0,0.0,0.0
19:45:11.762000,-79.0,-340.0,212.0,-865.0,166.0,-138.0,0.0,0.0,0.0
19:45:11.766000,-67.0,-314.0,254.0,-871.0,157.0,-137.0,0.0,0.0,0.0
19:45:11.771000,-58.0,-283.0,295.0,-871.0,157.0,-137.0,0.0,0.0,0.0
19:45:11.776000,-53.0,-252.0,338.0,-895.0,170.0,-137.0,0.0,0.0,0.0
19:45:11.780000,-49.0,-219.0,377.0,-895.0,170.0,-137.0,0.0,0.0,0.0
19:45:11.785000,-48.0,-186.0,408.0,-918.0,176.0,-134.0,0.0,0.0,0.0
19:45:11.790000,-51.0,-155.0,434.0,-918.0,176.0,-134.0,0.0,0.0,0.0
19:45:11.794000,-56.0,-126.0,453.0,-933.0,182.0,-127.0,0.0,0.0,0.0
19:45:11.799000,-56.0,-126.0,453.0,-933.0,182.0,-127.0,0.0,0.0,0.0
19:45:11.804000,-63.0,-96.0,469.0,-934.0,182.0,-117.0,0.0,0.0,0.0
19:45:11.809000,-66.0,-72.0,483.0,-934.0,182.0,-117.0,0.0,0.0,0.0
19:45:11.813000,-70.0,-47.0,494.0,-917.0,157.0,-110.0,0.0,0.0,0.0
19:45:11.818000,-74.0,-25.0,499.0,-917.0,157.0,-110.0,0.0,0.0,0.0
19:45:11.823000,-79.0,-2.0,493.0,-923.0,131.0,-107.0,0.0,0.0,0.0
19:45:11.827000,-84.0,19.0,480.0,-923.0,131.0,-107.0,0.0,0.0,0.0
19:45:11.832000,-90.0,41.0,467.0,-948.0,113.0,-110.0,0.0,0.0,0.0
19:45:11.837000,-98.0,61.0,457.0,-948.0,113.0,-110.0,0.0,0.0,0.0
19:45:11.841000,-110.0,80.0,449.0,-954.0,116.0,-120.0,0.0,0.0,0.0
19:45:11.846000,-126.0,94.0,446.0,-954.0,116.0,-120.0,0.0,0.0,0.0
19:45:11.850000,-143.0,106.0,445.0,-944.0,131.0,-129.0,0.0,0.0,0.0
19:45:11.856000,-158.0,116.0,441.0,-944.0,131.0,-129.0,0.0,0.0,0.0
19:45:11.860000,-172.0,123.0,439.0,-944.0,131.0,-129.0,0.0,0.0,0.0
19:45:11.865000,-181.0,128.0,437.0,-919.0,112.0,-137.0,0.0,0.0,0.0
19:45:11.870000,-186.0,131.0,426.0,-919.0,112.0,-137.0,0.0,0.0,0.0
19:45:11.874000,-191.0,132.0,405.0,-890.0,95.0,-150.0,0.0,0.0,0.0
19:45:11.879000,-196.0,126.0,383.0,-890.0,95.0,-150.0,0.0,0.0,0.0
19:45:11.884000,-198.0,118.0,372.0,-877.0,112.0,-165.0,0.0,0.0,0.0
19:45:11.888000,-198.0,109.0,364.0,-877.0,112.0,-165.0,0.0,0.0,0.0
19:45:11.893000,-196.0,102.0,358.0,-866.0,133.0,-181.0,0.0,0.0,0.0
19:45:11.898000,-196.0,98.0,345.0,-866.0,133.0,-181.0,0.0,0.0,0.0
19:45:11.903000,-198.0,95.0,331.0,-855.0,165.0,-201.0,0.0,0.0,0.0
19:45:11.907000,-198.0,95.0,331.0,-855.0,165.0,-201.0,0.0,0.0,0.0
19:45:11.912000,-202.0,96.0,316.0,-877.0,211.0,-223.0,0.0,0.0,0.0
19:45:11.917000,-211.0,94.0,305.0,-877.0,211.0,-223.0,0.0,0.0,0.0
19:45:11.921000,-218.0,95.0,304.0,-909.0,231.0,-239.0,0.0,0.0,0.0
19:45:11.926000,-221.0,95.0,294.0,-909.0,231.0,-239.0,0.0,0.0,0.0
19:45:11.931000,-221.0,92.0,263.0,-899.0,226.0,-243.0,0.0,0.0,0.0
19:45:11.935000,-211.0,79.0,239.0,-899.0,226.0,-243.0,0.0,0.0,0.0
19:45:11.940000,-191.0,74.0,211.0,-837.0,234.0,-250.0,0.0,0.0,0.0
19:45:11.945000,-176.0,67.0,154.0,-837.0,234.0,-250.0,0.0,0.0,0.0
19:45:11.950000,-163.0,59.0,98.0,-818.0,311.0,-258.0,0.0,0.0,0.0
19:45:11.954000,-146.0,58.0,51.0,-818.0,311.0,-258.0,0.0,0.0,0.0
19:45:11.959000,-123.0,49.0,16.0,-886.0,351.0,-261.0,0.0,0.0,0.0
19:45:11.964000,-99.0,32.0,0.0,-886.0,351.0,-261.0,0.0,0.0,0.0
19:45:11.968000,-62.0,29.0,-17.0,-886.0,351.0,-261.0,0.0,0.0,0.0
19:45:11.973000,-25.0,18.0,-51.0,-969.0,296.0,-272.0,0.0,0.0,0.0
19:45:11.978000,-9.0,-1.0,-45.0,-969.0,296.0,-272.0,0.0,0.0,0.0
19:45:11.982000,18.0,-10.0,-16.0,-986.0,292.0,-272.0,0.0,0.0,0.0
19:45:11.987000,45.0,-28.0,-72.0,-986.0,292.0,-272.0,0.0,0.0,0.0
19:45:11.992000,35.0,-54.0,-148.0,-1000.0,383.0,-256.0,0.0,0.0,0.0
19:45:11.997000,44.0,-56.0,-141.0,-1000.0,383.0,-256.0,0.0,0.0,0.0
19:45:12.001000,66.0,-50.0,-117.0,-1051.0,445.0,-256.0,0.0,0.0,0.0
19:45:12.006000,58.0,-60.0,-137.0,-1051.0,445.0,-256.0,0.0,0.0,0.0
19:45:12.011000,43.0,-48.0,-128.0,-1135.0,462.0,-249.0,0.0,0.0,0.0
19:45:12.015000,43.0,-48.0,-128.0,-1135.0,462.0,-249.0,0.0,0.0,0.0
19:45:12.020000,19.0,-26.0,6.0,-1174.0,481.0,-249.0,0.0,0.0,0.0
19:45:12.025000,9.0,0.0,13.0,-1174.0,481.0,-249.0,0.0,0.0,0.0
19:45:12.029000,33.0,15.0,-121.0,-1188.0,425.0,-280.0,0.0,0.0,0.0
19:45:12.034000,55.0,32.0,-195.0,-1188.0,425.0,-280.0,0.0,0.0,0.0
19:45:12.039000,65.0,41.0,-206.0,-1292.0,389.0,-299.0,0.0,0.0,0.0
19:45:12.044000,80.0,51.0,-249.0,-1292.0,389.0,-299.0,0.0,0.0,0.0
19:45:12.048000,77.0,54.0,-298.0,-1327.0,408.0,-297.0,0.0,0.0,0.0
19:45:12.053000,98.0,40.0,-275.0,-1327.0,408.0,-297.0,0.0,0.0,0.0
19:45:12.058000,131.0,35.0,-205.0,-1246.0,364.0,-296.0,0.0,0.0,0.0
19:45:12.062000,151.0,27.0,-190.0,-1246.0,364.0,-296.0,0.0,0.0,0.0
19:45:12.067000,157.0,22.0,-250.0,-1245.0,379.0,-284.0,0.0,0.0,0.0
19:45:12.072000,154.0,17.0,-275.0,-1245.0,379.0,-284.0,0.0,0.0,0.0
19:45:12.076000,172.0,5.0,-239.0,-1264.0,410.0,-263.0,0.0,0.0,0.0
19:45:12.081000,186.0,-9.0,-202.0,-1264.0,410.0,-263.0,0.0,0.0,0.0
19:45:12.086000,191.0,-25.0,-177.0,-1264.0,410.0,-263.0,0.0,0.0,0.0
19:45:12.091000,192.0,-37.0,-144.0,-1197.0,397.0,-239.0,0.0,0.0,0.0
19:45:12.095000,178.0,-44.0,-142.0,-1197.0,397.0,-239.0,0.0,0.0,0.0
19:45:12.100000,167.0,-56.0,-119.0,-1146.0,393.0,-197.0,0.0,0.0,0.0
19:45:12.105000,186.0,-80.0,-68.0,-1146.0,393.0,-197.0,0.0,0.0,0.0
19:45:12.109000,193.0,-94.0,-20.0,-1111.0,300.0,-163.0,0.0,0.0,0.0
19:45:12.114000,177.0,-106.0,31.0,-1111.0,300.0,-163.0,0.0,0.0,0.0
19:45:12.119000,147.0,-112.0,58.0,-1076.0,257.0,-136.0,0.0,0.0,0.0
19:45:12.123000,114.0,-128.0,65.0,-1076.0,257.0,-136.0,0.0,0.0,0.0
19:45:12.128000,114.0,-128.0,65.0,-1006.0,246.0,-91.0,0.0,0.0,0.0
19:45:12.133000,83.0,-138.0,130.0,-1006.0,246.0,-91.0,0.0,0.0,0.0
19:45:12.138000,65.0,-149.0,226.0,-913.0,136.0,-51.0,0.0,0.0,0.0
19:45:12.142000,50.0,-163.0,280.0,-913.0,136.0,-51.0,0.0,0.0,0.0
19:45:12.147000,32.0,-173.0,295.0,-885.0,50.0,-24.0,0.0,0.0,0.0
19:45:12.152000,7.0,-180.0,296.0,-885.0,50.0,-24.0,0.0,0.0,0.0
19:45:12.156000,-13.0,-181.0,293.0,-916.0,9.0,-9.0,0.0,0.0,0.0
19:45:12.161000,-28.0,-179.0,289.0,-916.0,9.0,-9.0,0.0,0.0,0.0
19:45:12.166000,-45.0,-172.0,270.0,-956.0,-18.0,-5.0,0.0,0.0,0.0
19:45:12.170000,-63.0,-162.0,252.0,-956.0,-18.0,-5.0,0.0,0.0,0.0
19:45:12.175000,-78.0,-148.0,232.0,-991.0,-40.0,-8.0,0.0,0.0,0.0
19:45:12.180000,-83.0,-137.0,204.0,-991.0,-40.0,-8.0,0.0,0.0,0.0
19:45:12.185000,-86.0,-133.0,178.0,-1028.0,-64.0,-14.0,0.0,0.0,0.0
19:45:12.189000,-84.0,-133.0,163.0,-1028.0,-64.0,-14.0,0.0,0.0,0.0
19:45:12.194000,-79.0,-137.0,142.0,-1028.0,-64.0,-14.0,0.0,0.0,0.0
19:45:12.199000,-79.0,-142.0,121.0,-1054.0,-97.0,-16.0,0.0,0.0,0.0
19:45:12.203000,-70.0,-144.0,109.0,-1054.0,-97.0,-16.0,0.0,0.0,0.0
19:45:12.208000,-54.0,-147.0,78.0,-1042.0,-135.0,-26.0,0.0,0.0,0.0
19:45:12.213000,-54.0,-144.0,35.0,-1042.0,-135.0,-26.0,0.0,0.0,0.0
19:45:12.217000,-51.0,-141.0,9.0,-1061.0,-108.0,-46.0,0.0,0.0,0.0
19:45:12.222000,-55.0,-137.0,-7.0,-1061.0,-108.0,-46.0,0.0,0.0,0.0
19:45:12.227000,-54.0,-135.0,-22.0,-1133.0,-42.0,-67.0,0.0,0.0,0.0
19:45:12.232000,-57.0,-133.0,-23.0,-1133.0,-42.0,-67.0,0.0,0.0,0.0
19:45:12.236000,-57.0,-133.0,-23.0,-1185.0,-23.0,-76.0,0.0,0.0,0.0
19:45:12.241000,-47.0,-135.0,-2.0,-1185.0,-23.0,-76.0,0.0,0.0,0.0
19:45:12.246000,-39.0,-141.0,28.0,-1179.0,-61.0,-77.0,0.0,0.0,0.0
19:45:12.250000,-42.0,-129.0,30.0,-1179.0,-61.0,-77.0,0.0,0.0,0.0
19:45:12.255000,-57.0,-105.0,-9.0,-1191.0,-77.0,-85.0,0.0,0.0,0.0
19:45:12.260000,-65.0,-98.0,-37.0,-1191.0,-77.0,-85.0,0.0,0.0,0.0
19:45:12.264000,-85.0,-90.0,52.0,-1172.0,-80.0,-90.0,0.0,0.0,0.0
19:45:12.269000,-109.0,-75.0,133.0,-1172.0,-80.0,-90.0,0.0,0.0,0.0
19:45:12.274000,-120.0,-71.0,198.0,-1141.0,-93.0,-103.0,0.0,0.0,0.0
19:45:12.279000,-100.0,-60.0,202.0,-1141.0,-93.0,-103.0,0.0,0.0,0.0
19:45:12.283000,-163.0,-25.0,118.0,-1184.0,-77.0,-126.0,0.0,0.0,0.0
19:45:12.288000,-80.0,-23.0,1.0,-1184.0,-77.0,-126.0,0.0,0.0,0.0
19:45:12.293000,-88.0,-14.0,-7.0,-1167.0,-74.0,-111.0,0.0,0.0,0.0
19:45:12.297000,-96.0,-4.0,90.0,-1167.0,-74.0,-111.0,0.0,0.0,0.0
19:45:12.302000,-145.0,0.0,158.0,-1167.0,-74.0,-111.0,0.0,0.0,0.0
19:45:12.307000,-97.0,-3.0,135.0,-1147.0,-64.0,-94.0,0.0,0.0,0.0
19:45:12.311000,-86.0,-4.0,91.0,-1147.0,-64.0,-94.0,0.0,0.0,0.0
19:45:12.316000,-67.0,-3.0,129.0,-1168.0,-53.0,-95.0,0.0,0.0,0.0
19:45:12.321000,-69.0,-4.0,211.0,-1168.0,-53.0,-95.0,0.0,0.0,0.0
19:45:12.326000,-62.0,3.0,189.0,-1167.0,-67.0,-92.0,0.0,0.0,0.0
19:45:12.330000,-63.0,2.0,129.0,-1167.0,-67.0,-92.0,0.0,0.0,0.0
19:45:12.334000,-63.0,2.0,129.0,-1163.0,-105.0,-93.0,0.0,0.0,0.0
19:45:12.340000,-12.0,-4.0,67.0,-1163.0,-105.0,-93.0,0.0,0.0,0.0
19:45:12.344000,-12.0,-4.0,67.0,-1131.0,-128.0,-100.0,0.0,0.0,0.0
19:45:12.349000,-8.0,-6.0,116.0,-1131.0,-128.0,-100.0,0.0,0.0,0.0
19:45:12.354000,-11.0,-4.0,147.0,-1082.0,-129.0,-109.0,0.0,0.0,0.0
19:45:12.358000,-5.0,-7.0,115.0,-1082.0,-129.0,-109.0,0.0,0.0,0.0
19:45:12.363000,7.0,-18.0,86.0,-1034.0,-117.0,-114.0,0.0,0.0,0.0
19:45:12.368000,-2.0,-19.0,104.0,-1034.0,-117.0,-114.0,0.0,0.0,0.0
19:45:12.373000,-1.0,-17.0,109.0,-1042.0,-112.0,-117.0,0.0,0.0,0.0
19:45:12.377000,-22.0,-14.0,84.0,-1042.0,-112.0,-117.0,0.0,0.0,0.0
19:45:12.382000,-24.0,-19.0,42.0,-1092.0,-105.0,-118.0,0.0,0.0,0.0
19:45:12.387000,-48.0,-14.0,30.0,-1092.0,-105.0,-118.0,0.0,0.0,0.0
19:45:12.391000,-53.0,-22.0,94.0,-1066.0,-111.0,-117.0,0.0,0.0,0.0
19:45:12.396000,-77.0,-23.0,170.0,-1066.0,-111.0,-117.0,0.0,0.0,0.0
19:45:12.401000,-103.0,-32.0,182.0,-1052.0,-99.0,-116.0,0.0,0.0,0.0
19:45:12.405000,-102.0,-39.0,112.0,-1052.0,-99.0,-116.0,0.0,0.0,0.0
19:45:12.410000,-128.0,-41.0,62.0,-1052.0,-99.0,-116.0,0.0,0.0,0.0
19:45:12.415000,-137.0,-56.0,66.0,-1046.0,-82.0,-116.0,0.0,0.0,0.0
19:45:12.420000,-137.0,-68.0,49.0,-1046.0,-82.0,-116.0,0.0,0.0,0.0
19:45:12.424000,-141.0,-84.0,15.0,-988.0,-103.0,-121.0,0.0,0.0,0.0
19:45:12.429000,-159.0,-88.0,7.0,-988.0,-103.0,-121.0,0.0,0.0,0.0
19:45:12.434000,-179.0,-93.0,-2.0,-951.0,-51.0,-123.0,0.0,0.0,0.0
19:45:12.438000,-209.0,-93.0,-23.0,-951.0,-51.0,-123.0,0.0,0.0,0.0
19:45:12.443000,-207.0,-95.0,-56.0,-972.0,0.0,-123.0,0.0,0.0,0.0
19:45:12.448000,-244.0,-73.0,-104.0,-972.0,0.0,-123.0,0.0,0.0,0.0
19:45:12.452000,-244.0,-73.0,-104.0,-1027.0,-45.0,-133.0,0.0,0.0,0.0
19:45:12.457000,-219.0,-74.0,-139.0,-1027.0,-45.0,-133.0,0.0,0.0,0.0
19:45:12.462000,-231.0,-61.0,-149.0,-1074.0,-97.0,-141.0,0.0,0.0,0.0
19:45:12.467000,-230.0,-54.0,-169.0,-1074.0,-97.0,-141.0,0.0,0.0,0.0
19:45:12.471000,-243.0,-51.0,-192.0,-1100.0,-65.0,-140.0,0.0,0.0,0.0
19:45:12.476000,-261.0,-60.0,-240.0,-1100.0,-65.0,-140.0,0.0,0.0,0.0
19:45:12.481000,-271.0,-70.0,-291.0,-1070.0,-10.0,-135.0,0.0,0.0,0.0
19:45:12.485000,-285.0,-72.0,-333.0,-1070.0,-10.0,-135.0,0.0,0.0,0.0
19:45:12.490000,-316.0,-58.0,-354.0,-1034.0,-18.0,-132.0,0.0,0.0,0.0
19:45:12.495000,-341.0,-63.0,-344.0,-1034.0,-18.0,-132.0,0.0,0.0,0.0
19:45:12.499000,-350.0,-72.0,-323.0,-1019.0,-53.0,-128.0,0.0,0.0,0.0
19:45:12.504000,-327.0,-83.0,-334.0,-1019.0,-53.0,-128.0,0.0,0.0,0.0
19:45:12.509000,-374.0,-67.0,-329.0,-1004.0,-38.0,-121.0,0.0,0.0,0.0
19:45:12.514000,-391.0,-54.0,-290.0,-1004.0,-38.0,-121.0,0.0,0.0,0.0
19:45:12.518000,-413.0,-51.0,-263.0,-1004.0,-38.0,-121.0,0.0,0.0,0.0
19:45:12.523000,-436.0,-51.0,-252.0,-1032.0,-27.0,-122.0,0.0,0.0,0.0
19:45:12.528000,-445.0,-46.0,-258.0,-1032.0,-27.0,-122.0,0.0,0.0,0.0
19:45:12.532000,-469.0,-37.0,-247.0,-1071.0,-28.0,-144.0,0.0,0.0,0.0
19:45:12.537000,-483.0,-39.0,-238.0,-1071.0,-28.0,-144.0,0.0,0.0,0.0
19:45:12.542000,-498.0,-32.0,-221.0,-1061.0,-19.0,-147.0,0.0,0.0,0.0
19:45:12.546000,-509.0,-37.0,-202.0,-1061.0,-19.0,-147.0,0.0,0.0,0.0
19:45:12.551000,-519.0,-32.0,-199.0,-1015.0,-22.0,-136.0,0.0,0.0,0.0
19:45:12.556000,-543.0,-21.0,-203.0,-1015.0,-22.0,-136.0,0.0,0.0,0.0
19:45:12.561000,-551.0,-28.0,-201.0,-967.0,-13.0,-143.0,0.0,0.0,0.0
19:45:12.565000,-551.0,-28.0,-201.0,-967.0,-13.0,-143.0,0.0,0.0,0.0
19:45:12.570000,-563.0,-50.0,-191.0,-924.0,-11.0,-139.0,0.0,0.0,0.0
19:45:12.575000,-574.0,-72.0,-172.0,-924.0,-11.0,-139.0,0.0,0.0,0.0
19:45:12.579000,-593.0,-98.0,-154.0,-876.0,-1.0,-121.0,0.0,0.0,0.0
19:45:12.584000,-609.0,-133.0,-140.0,-876.0,-1.0,-121.0,0.0,0.0,0.0
19:45:12.589000,-614.0,-176.0,-131.0,-832.0,25.0,-90.0,0.0,0.0,0.0
19:45:12.593000,-611.0,-231.0,-123.0,-832.0,25.0,-90.0,0.0,0.0,0.0
19:45:12.598000,-607.0,-281.0,-118.0,-762.0,64.0,-41.0,0.0,0.0,0.0
19:45:12.603000,-619.0,-328.0,-123.0,-762.0,64.0,-41.0,0.0,0.0,0.0
19:45:12.608000,-614.0,-371.0,-141.0,-706.0,103.0,33.0,0.0,0.0,0.0
19:45:12.612000,-616.0,-425.0,-167.0,-706.0,103.0,33.0,0.0,0.0,0.0
19:45:12.617000,-614.0,-477.0,-224.0,-668.0,126.0,126.0,0.0,0.0,0.0
19:45:12.622000,-585.0,-498.0,-371.0,-668.0,126.0,126.0,0.0,0.0,0.0
19:45:12.626000,-578.0,-471.0,-506.0,-668.0,126.0,126.0,0.0,0.0,0.0
19:45:12.631000,-585.0,-472.0,-585.0,-756.0,110.0,81.0,0.0,0.0,0.0
19:45:12.636000,-611.0,-469.0,-541.0,-756.0,110.0,81.0,0.0,0.0,0.0
19:45:12.640000,-672.0,-465.0,-444.0,-1120.0,-12.0,-39.0,0.0,0.0,0.0
19:45:12.645000,-734.0,-467.0,-371.0,-1120.0,-12.0,-39.0,0.0,0.0,0.0
19:45:12.650000,-772.0,-484.0,-275.0,-1550.0,-63.0,-65.0,0.0,0.0,0.0
19:45:12.655000,-815.0,-504.0,-144.0,-1550.0,-63.0,-65.0,0.0,0.0,0.0
19:45:12.659000,-870.0,-506.0,-5.0,-1580.0,-20.0,-47.0,0.0,0.0,0.0
19:45:12.664000,-901.0,-485.0,38.0,-1580.0,-20.0,-47.0,0.0,0.0,0.0
19:45:12.669000,-929.0,-451.0,32.0,-1265.0,-7.0,-46.0,0.0,0.0,0.0
19:45:12.673000,-929.0,-451.0,32.0,-1265.0,-7.0,-46.0,0.0,0.0,0.0
19:45:12.678000,-950.0,-427.0,58.0,-1082.0,9.0,-36.0,0.0,0.0,0.0
19:45:12.683000,-967.0,-417.0,141.0,-1082.0,9.0,-36.0,0.0,0.0,0.0
19:45:12.687000,-983.0,-406.0,210.0,-1100.0,-11.0,14.0,0.0,0.0,0.0
19:45:12.692000,-996.0,-382.0,155.0,-1100.0,-11.0,14.0,0.0,0.0,0.0
19:45:12.697000,-982.0,-366.0,26.0,-1021.0,-61.0,52.0,0.0,0.0,0.0
19:45:12.702000,-920.0,-368.0,-143.0,-1021.0,-61.0,52.0,0.0,0.0,0.0
19:45:12.706000,-886.0,-361.0,-233.0,-834.0,-119.0,60.0,0.0,0.0,0.0
19:45:12.711000,-843.0,-363.0,-205.0,-834.0,-119.0,60.0,0.0,0.0,0.0
19:45:12.716000,-822.0,-363.0,-165.0,-838.0,-188.0,48.0,0.0,0.0,0.0
19:45:12.720000,-796.0,-373.0,-182.0,-838.0,-188.0,48.0,0.0,0.0,0.0
19:45:12.725000,-760.0,-394.0,-247.0,-959.0,-185.0,47.0,0.0,0.0,0.0
19:45:12.730000,-754.0,-419.0,-304.0,-959.0,-185.0,47.0,0.0,0.0,0.0
19:45:12.734000,-718.0,-438.0,-319.0,-959.0,-185.0,47.0,0.0,0.0,0.0
19:45:12.739000,-696.0,-435.0,-308.0,-983.0,-135.0,56.0,0.0,0.0,0.0
19:45:12.744000,-675.0,-431.0,-320.0,-983.0,-135.0,56.0,0.0,0.0,0.0
19:45:12.749000,-655.0,-433.0,-352.0,-1010.0,-109.0,51.0,0.0,0.0,0.0
19:45:12.753000,-647.0,-442.0,-382.0,-1010.0,-109.0,51.0,0.0,0.0,0.0
19:45:12.758000,-646.0,-469.0,-398.0,-1089.0,-63.0,54.0,0.0,0.0,0.0
19:45:12.763000,-667.0,-508.0,-406.0,-1089.0,-63.0,54.0,0.0,0.0,0.0
19:45:12.767000,-703.0,-538.0,-437.0,-1081.0,28.0,120.0,0.0,0.0,0.0
19:45:12.772000,-742.0,-543.0,-468.0,-1081.0,28.0,120.0,0.0,0.0,0.0
19:45:12.777000,-758.0,-542.0,-469.0,-986.0,112.0,187.0,0.0,0.0,0.0
19:45:12.781000,-758.0,-542.0,-469.0,-986.0,112.0,187.0,0.0,0.0,0.0
19:45:12.786000,-770.0,-536.0,-458.0,-960.0,109.0,189.0,0.0,0.0,0.0
19:45:12.791000,-777.0,-530.0,-473.0,-960.0,109.0,189.0,0.0,0.0,0.0
19:45:12.795000,-786.0,-519.0,-507.0,-1046.0,89.0,172.0,0.0,0.0,0.0
19:45:12.800000,-802.0,-503.0,-522.0,-1046.0,89.0,172.0,0.0,0.0,0.0
19:45:12.805000,-842.0,-483.0,-502.0,-1137.0,112.0,166.0,0.0,0.0,0.0
19:45:12.810000,-878.0,-461.0,-466.0,-1137.0,112.0,166.0,0.0,0.0,0.0
19:45:12.814000,-919.0,-429.0,-432.0,-1178.0,133.0,146.0,0.0,0.0,0.0
19:45:12.819000,-963.0,-396.0,-411.0,-1178.0,133.0,146.0,0.0,0.0,0.0
19:45:12.824000,-1004.0,-367.0,-401.0,-1158.0,141.0,121.0,0.0,0.0,0.0
19:45:12.828000,-1026.0,-343.0,-405.0,-1158.0,141.0,121.0,0.0,0.0,0.0
19:45:12.833000,-1049.0,-321.0,-414.0,-1085.0,118.0,102.0,0.0,0.0,0.0
19:45:12.838000,-1071.0,-296.0,-408.0,-1085.0,118.0,102.0,0.0,0.0,0.0
19:45:12.843000,-1082.0,-276.0,-392.0,-1085.0,74.0,102.0,0.0,0.0,0.0
19:45:12.847000,-1082.0,-273.0,-369.0,-1013.0,74.0,78.0,0.0,0.0,0.0
19:45:12.852000,-1084.0,-289.0,-317.0,-968.0,38.0,78.0,0.0,0.0,0.0
19:45:12.857000,-1082.0,-319.0,-265.0,-968.0,38.0,78.0,0.0,0.0,0.0
19:45:12.861000,-1072.0,-351.0,-260.0,-968.0,38.0,78.0,0.0,0.0,0.0
19:45:12.866000,-1054.0,-385.0,-295.0,-906.0,34.0,102.0,0.0,0.0,0.0
19:45:12.871000,-1035.0,-421.0,-348.0,-906.0,34.0,102.0,0.0,0.0,0.0
19:45:12.875000,-1023.0,-464.0,-383.0,-797.0,70.0,130.0,0.0,0.0,0.0
19:45:12.880000,-1013.0,-508.0,-398.0,-797.0,70.0,130.0,0.0,0.0,0.0
19:45:12.885000,-1002.0,-547.0,-450.0,-693.0,95.0,168.0,0.0,0.0,0.0
19:45:12.890000,-1002.0,-547.0,-450.0,-693.0,95.0,168.0,0.0,0.0,0.0
19:45:12.894000,-1005.0,-583.0,-514.0,-712.0,171.0,213.0,0.0,0.0,0.0
19:45:12.899000,-1027.0,-625.0,-499.0,-712.0,171.0,213.0,0.0,0.0,0.0
19:45:12.904000,-1052.0,-654.0,-462.0,-809.0,214.0,237.0,0.0,0.0,0.0
19:45:12.908000,-1071.0,-658.0,-493.0,-809.0,214.0,237.0,0.0,0.0,0.0
19:45:12.913000,-1086.0,-655.0,-615.0,-920.0,192.0,237.0,0.0,0.0,0.0
19:45:12.918000,-1134.0,-662.0,-712.0,-920.0,192.0,237.0,0.0,0.0,0.0
19:45:12.922000,-1192.0,-665.0,-696.0,-994.0,204.0,239.0,0.0,0.0,0.0
19:45:12.927000,-1227.0,-656.0,-663.0,-994.0,204.0,239.0,0.0,0.0,0.0
19:45:12.932000,-1269.0,-633.0,-651.0,-963.0,262.0,240.0,0.0,0.0,0.0
19:45:12.937000,-1311.0,-603.0,-674.0,-963.0,262.0,240.0,0.0,0.0,0.0
19:45:12.941000,-1353.0,-574.0,-719.0,-937.0,336.0,244.0,0.0,0.0,0.0
19:45:12.946000,-1395.0,-557.0,-742.0,-937.0,336.0,244.0,0.0,0.0,0.0
19:45:12.951000,-1400.0,-553.0,-767.0,-991.0,294.0,252.0,0.0,0.0,0.0
19:45:12.955000,-1412.0,-554.0,-769.0,-991.0,294.0,252.0,0.0,0.0,0.0
19:45:12.960000,-1410.0,-563.0,-735.0,-991.0,294.0,252.0,0.0,0.0,0.0
19:45:12.965000,-1397.0,-564.0,-709.0,-1032.0,176.0,251.0,0.0,0.0,0.0
19:45:12.969000,-1402.0,-558.0,-719.0,-1032.0,176.0,251.0,0.0,0.0,0.0
19:45:12.974000,-1404.0,-555.0,-728.0,-999.0,165.0,255.0,0.0,0.0,0.0
19:45:12.979000,-1410.0,-546.0,-733.0,-999.0,165.0,255.0,0.0,0.0,0.0
19:45:12.984000,-1423.0,-534.0,-730.0,-979.0,261.0,266.0,0.0,0.0,0.0
19:45:12.988000,-1431.0,-525.0,-735.0,-979.0,261.0,266.0,0.0,0.0,0.0
19:45:12.993000,-1444.0,-513.0,-732.0,-1001.0,318.0,281.0,0.0,0.0,0.0
19:45:12.998000,-1450.0,-499.0,-729.0,-1001.0,318.0,281.0,0.0,0.0,0.0
19:45:13.002000,-1450.0,-499.0,-729.0,-1027.0,338.0,291.0,0.0,0.0,0.0
19:45:13.007000,-1458.0,-490.0,-733.0,-1027.0,338.0,291.0,0.0,0.0,0.0
19:45:13.012000,-1463.0,-485.0,-730.0,-1045.0,350.0,305.0,0.0,0.0,0.0
19:45:13.016000,-1464.0,-474.0,-729.0,-1045.0,350.0,305.0,0.0,0.0,0.0
19:45:13.021000,-1460.0,-468.0,-735.0,-1053.0,346.0,325.0,0.0,0.0,0.0
19:45:13.026000,-1452.0,-461.0,-741.0,-1053.0,346.0,325.0,0.0,0.0,0.0
19:45:13.031000,-1444.0,-453.0,-749.0,-1043.0,341.0,340.0,0.0,0.0,0.0
19:45:13.035000,-1429.0,-445.0,-759.0,-1043.0,341.0,340.0,0.0,0.0,0.0
19:45:13.040000,-1419.0,-438.0,-771.0,-1030.0,358.0,345.0,0.0,0.0,0.0
19:45:13.045000,-1407.0,-423.0,-779.0,-1030.0,358.0,345.0,0.0,0.0,0.0
19:45:13.049000,-1400.0,-408.0,-779.0,-1028.0,387.0,347.0,0.0,0.0,0.0
19:45:13.054000,-1397.0,-394.0,-781.0,-1028.0,387.0,347.0,0.0,0.0,0.0
19:45:13.059000,-1387.0,-380.0,-790.0,-1015.0,412.0,350.0,0.0,0.0,0.0
19:45:13.063000,-1380.0,-368.0,-791.0,-1015.0,412.0,350.0,0.0,0.0,0.0
19:45:13.068000,-1372.0,-359.0,-793.0,-1015.0,412.0,350.0,0.0,0.0,0.0
19:45:13.073000,-1362.0,-354.0,-795.0,-986.0,434.0,353.0,0.0,0.0,0.0
19:45:13.078000,-1353.0,-347.0,-793.0,-986.0,434.0,353.0,0.0,0.0,0.0
19:45:13.082000,-1342.0,-336.0,-793.0,-946.0,453.0,351.0,0.0,0.0,0.0
19:45:13.087000,-1326.0,-323.0,-795.0,-946.0,453.0,351.0,0.0,0.0,0.0
19:45:13.092000,-1311.0,-308.0,-796.0,-918.0,473.0,338.0,0.0,0.0,0.0
19:45:13.096000,-1311.0,-308.0,-796.0,-918.0,473.0,338.0,0.0,0.0,0.0
19:45:13.101000,-1271.0,-284.0,-795.0,-924.0,487.0,318.0,0.0,0.0,0.0
19:45:13.106000,-1248.0,-269.0,-793.0,-924.0,487.0,318.0,0.0,0.0,0.0
19:45:13.110000,-1248.0,-269.0,-793.0,-930.0,486.0,292.0,0.0,0.0,0.0
19:45:13.115000,-1222.0,-254.0,-788.0,-930.0,486.0,292.0,0.0,0.0,0.0
