hh:mm:ss.ms,gyroX[mdps],gyroY[mdps],gyroZ[mdps],accX[mg],accY[mg],accZ[mg],magX[mG],magY[mG],magZ[mG]
19:41:44.189000,-1753.0,-1796.0,-1148.0,-897.0,699.0,-860.0,237.0,-490.0,520.0
19:41:44.194000,-1870.0,-1804.0,-965.0,-1044.0,711.0,-801.0,237.0,-490.0,520.0
19:41:44.198000,-1942.0,-1840.0,-1096.0,-1044.0,711.0,-801.0,246.0,-510.0,505.0
19:41:44.203000,-1864.0,-1775.0,-1045.0,-800.0,310.0,-940.0,246.0,-510.0,505.0
19:41:44.207000,-1827.0,-1654.0,-788.0,-800.0,310.0,-940.0,246.0,-510.0,505.0
19:41:44.213000,-1770.0,-1554.0,-827.0,-773.0,212.0,-967.0,264.0,-507.0,514.0
19:41:44.217000,-1777.0,-1488.0,-919.0,-462.0,291.0,-840.0,264.0,-507.0,514.0
19:41:44.222000,-1826.0,-1474.0,-912.0,-462.0,291.0,-840.0,273.0,-523.0,504.0
19:41:44.227000,-1740.0,-1512.0,-1023.0,-262.0,165.0,-841.0,273.0,-523.0,504.0
19:41:44.231000,-1731.0,-1515.0,-1086.0,-102.0,-17.0,-875.0,273.0,-523.0,504.0
19:41:44.236000,-1753.0,-1515.0,-982.0,190.0,-197.0,-855.0,277.0,-534.0,499.0
19:41:44.241000,-1712.0,-1479.0,-1028.0,321.0,-240.0,-881.0,277.0,-534.0,499.0
19:41:44.245000,-1745.0,-1481.0,-1192.0,227.0,-273.0,-873.0,301.0,-553.0,492.0
19:41:44.250000,-1810.0,-1484.0,-1164.0,220.0,-421.0,-868.0,301.0,-553.0,492.0
19:41:44.254000,-1810.0,-1484.0,-1164.0,281.0,-432.0,-951.0,301.0,-553.0,492.0
19:41:44.260000,-1813.0,-1467.0,-1172.0,335.0,-370.0,-967.0,315.0,-564.0,493.0
19:41:44.264000,-1821.0,-1462.0,-1183.0,335.0,-490.0,-987.0,315.0,-564.0,493.0
19:41:44.269000,-1858.0,-1433.0,-1095.0,175.0,-533.0,-1061.0,327.0,-573.0,475.0
19:41:44.274000,-1920.0,-1360.0,-1075.0,-40.0,-340.0,-1085.0,327.0,-573.0,475.0
19:41:44.278000,-1985.0,-1321.0,-1275.0,-80.0,-284.0,-1095.0,327.0,-573.0,475.0
19:41:44.283000,-1972.0,-1337.0,-1388.0,-20.0,-381.0,-1108.0,333.0,-582.0,469.0
19:41:44.288000,-2053.0,-1338.0,-1367.0,-63.0,-318.0,-1133.0,333.0,-582.0,469.0
19:41:44.292000,-2123.0,-1288.0,-1339.0,-188.0,-214.0,-1180.0,355.0,-580.0,460.0
19:41:44.297000,-2091.0,-1262.0,-1402.0,-283.0,-247.0,-1200.0,355.0,-580.0,460.0
19:41:44.301000,-2125.0,-1229.0,-1600.0,-265.0,-256.0,-1194.0,355.0,-580.0,460.0
19:41:44.307000,-2065.0,-1273.0,-1782.0,-111.0,-349.0,-1177.0,358.0,-598.0,451.0
19:41:44.311000,-2000.0,-1332.0,-1669.0,-4.0,-603.0,-1189.0,358.0,-598.0,451.0
19:41:44.316000,-1978.0,-1358.0,-1403.0,-4.0,-603.0,-1189.0,373.0,-597.0,439.0
19:41:44.321000,-1958.0,-1346.0,-1299.0,-37.0,-626.0,-1216.0,373.0,-597.0,439.0
19:41:44.325000,-1947.0,-1357.0,-1528.0,-126.0,-457.0,-1188.0,373.0,-597.0,439.0
19:41:44.330000,-1893.0,-1381.0,-1672.0,-133.0,-420.0,-1160.0,400.0,-603.0,424.0
19:41:44.344000,-1747.0,-1417.0,-1300.0,-35.0,-752.0,-1121.0,391.0,-618.0,421.0
19:41:44.349000,-1657.0,-1409.0,-1460.0,-120.0,-576.0,-1122.0,420.0,-615.0,405.0
19:41:44.354000,-1560.0,-1425.0,-1498.0,-205.0,-563.0,-1126.0,420.0,-615.0,405.0
19:41:44.358000,-1560.0,-1425.0,-1498.0,-155.0,-648.0,-1076.0,420.0,-615.0,405.0
19:41:44.363000,-1538.0,-1422.0,-1359.0,-111.0,-683.0,-1024.0,423.0,-625.0,388.0
19:41:44.368000,-1556.0,-1418.0,-1194.0,-149.0,-675.0,-980.0,423.0,-625.0,388.0
19:41:44.372000,-1557.0,-1437.0,-1142.0,-246.0,-622.0,-956.0,439.0,-616.0,378.0
19:41:44.377000,-1542.0,-1430.0,-1229.0,-245.0,-663.0,-920.0,439.0,-616.0,378.0
19:41:44.381000,-1521.0,-1479.0,-1160.0,-186.0,-677.0,-873.0,439.0,-616.0,378.0
19:41:44.386000,-1530.0,-1484.0,-1105.0,-284.0,-451.0,-851.0,444.0,-621.0,382.0
19:41:44.391000,-1552.0,-1441.0,-1272.0,-396.0,-291.0,-820.0,444.0,-621.0,382.0
19:41:44.396000,-1528.0,-1413.0,-1378.0,-444.0,-462.0,-773.0,444.0,-621.0,382.0
19:41:44.401000,-1526.0,-1418.0,-1254.0,-467.0,-682.0,-716.0,444.0,-621.0,382.0
19:41:44.405000,-1519.0,-1442.0,-1214.0,-445.0,-624.0,-699.0,444.0,-621.0,382.0
19:41:44.410000,-1489.0,-1435.0,-1431.0,-331.0,-539.0,-707.0,486.0,-625.0,328.0
19:41:44.415000,-1385.0,-1439.0,-1565.0,-238.0,-648.0,-689.0,486.0,-625.0,328.0
19:41:44.419000,-1236.0,-1466.0,-1498.0,-238.0,-648.0,-689.0,481.0,-618.0,330.0
19:41:44.424000,-1143.0,-1462.0,-1430.0,-438.0,-734.0,-622.0,481.0,-618.0,330.0
19:41:44.428000,-1117.0,-1460.0,-1362.0,-438.0,-734.0,-622.0,481.0,-618.0,330.0
19:41:44.433000,-1104.0,-1459.0,-1379.0,-542.0,-617.0,-578.0,490.0,-621.0,316.0
19:41:44.438000,-1091.0,-1464.0,-1551.0,-644.0,-508.0,-549.0,490.0,-621.0,316.0
19:41:44.443000,-1039.0,-1447.0,-1562.0,-635.0,-538.0,-537.0,502.0,-619.0,306.0
19:41:44.447000,-1001.0,-1424.0,-1426.0,-537.0,-611.0,-538.0,502.0,-619.0,306.0
19:41:44.452000,-983.0,-1410.0,-1297.0,-488.0,-552.0,-514.0,502.0,-619.0,306.0
19:41:44.457000,-978.0,-1376.0,-1310.0,-615.0,-491.0,-498.0,520.0,-601.0,298.0
19:41:44.462000,-947.0,-1348.0,-1327.0,-718.0,-453.0,-488.0,520.0,-601.0,298.0
19:41:44.466000,-947.0,-1317.0,-1316.0,-720.0,-454.0,-480.0,526.0,-591.0,286.0
19:41:44.471000,-949.0,-1292.0,-1306.0,-736.0,-494.0,-472.0,526.0,-591.0,286.0
19:41:44.475000,-949.0,-1292.0,-1306.0,-726.0,-503.0,-456.0,526.0,-591.0,286.0
19:41:44.480000,-924.0,-1293.0,-1308.0,-670.0,-489.0,-434.0,535.0,-595.0,271.0
19:41:44.485000,-919.0,-1279.0,-1197.0,-639.0,-464.0,-435.0,535.0,-595.0,271.0
19:41:44.490000,-907.0,-1243.0,-1130.0,-697.0,-424.0,-444.0,547.0,-585.0,255.0
19:41:44.494000,-877.0,-1224.0,-1147.0,-734.0,-485.0,-441.0,547.0,-585.0,255.0
19:41:44.499000,-861.0,-1189.0,-1094.0,-744.0,-567.0,-444.0,547.0,-585.0,255.0
19:41:44.504000,-839.0,-1163.0,-992.0,-805.0,-540.0,-456.0,547.0,-585.0,241.0
19:41:44.508000,-795.0,-1145.0,-1019.0,-836.0,-461.0,-468.0,547.0,-585.0,241.0
19:41:44.513000,-796.0,-1106.0,-1099.0,-776.0,-440.0,-463.0,555.0,-586.0,249.0
19:41:44.518000,-770.0,-1092.0,-1078.0,-706.0,-485.0,-476.0,555.0,-586.0,249.0
19:41:44.523000,-732.0,-1063.0,-975.0,-706.0,-485.0,-476.0,556.0,-573.0,228.0
19:41:44.527000,-725.0,-1025.0,-923.0,-782.0,-509.0,-485.0,556.0,-573.0,228.0
19:41:44.531000,-713.0,-1005.0,-985.0,-808.0,-491.0,-485.0,556.0,-573.0,228.0
19:41:44.537000,-686.0,-1003.0,-943.0,-808.0,-491.0,-485.0,565.0,-570.0,220.0
19:41:44.541000,-626.0,-989.0,-853.0,-764.0,-541.0,-500.0,565.0,-570.0,220.0
19:41:44.546000,-567.0,-971.0,-874.0,-769.0,-542.0,-522.0,567.0,-571.0,207.0
19:41:44.551000,-515.0,-968.0,-905.0,-743.0,-505.0,-527.0,567.0,-571.0,207.0
19:41:44.555000,-516.0,-942.0,-859.0,-743.0,-505.0,-527.0,567.0,-571.0,207.0
19:41:44.560000,-490.0,-932.0,-779.0,-726.0,-492.0,-531.0,571.0,-561.0,204.0
19:41:44.565000,-471.0,-900.0,-821.0,-790.0,-464.0,-552.0,571.0,-561.0,204.0
19:41:44.570000,-428.0,-900.0,-802.0,-832.0,-477.0,-563.0,573.0,-564.0,199.0
19:41:44.574000,-411.0,-882.0,-741.0,-785.0,-521.0,-564.0,573.0,-564.0,199.0
19:41:44.578000,-411.0,-882.0,-741.0,-780.0,-514.0,-568.0,573.0,-564.0,199.0
19:41:44.583000,-387.0,-870.0,-728.0,-840.0,-458.0,-569.0,576.0,-555.0,184.0
19:41:44.588000,-343.0,-875.0,-777.0,-839.0,-452.0,-569.0,576.0,-555.0,184.0
19:41:44.593000,-314.0,-877.0,-742.0,-803.0,-483.0,-570.0,588.0,-546.0,184.0
19:41:44.598000,-294.0,-875.0,-653.0,-833.0,-436.0,-573.0,588.0,-546.0,184.0
19:41:44.602000,-276.0,-865.0,-683.0,-861.0,-374.0,-568.0,588.0,-546.0,184.0
19:41:44.607000,-257.0,-871.0,-715.0,-808.0,-394.0,-556.0,582.0,-541.0,166.0
19:41:44.612000,-263.0,-857.0,-654.0,-777.0,-410.0,-538.0,582.0,-541.0,166.0
19:41:44.617000,-273.0,-854.0,-578.0,-825.0,-354.0,-523.0,589.0,-546.0,171.0
19:41:44.621000,-285.0,-845.0,-583.0,-857.0,-344.0,-520.0,589.0,-546.0,171.0
19:41:44.625000,-268.0,-848.0,-603.0,-812.0,-400.0,-516.0,589.0,-546.0,171.0
19:41:44.631000,-231.0,-866.0,-562.0,-745.0,-406.0,-506.0,579.0,-532.0,162.0
19:41:44.635000,-227.0,-864.0,-516.0,-729.0,-362.0,-494.0,579.0,-532.0,162.0
19:41:44.640000,-229.0,-856.0,-503.0,-737.0,-344.0,-480.0,577.0,-535.0,163.0
19:41:44.645000,-217.0,-856.0,-495.0,-737.0,-344.0,-480.0,577.0,-535.0,163.0
19:41:44.650000,-220.0,-856.0,-456.0,-735.0,-369.0,-463.0,591.0,-531.0,160.0
19:41:44.654000,-207.0,-851.0,-421.0,-730.0,-376.0,-449.0,591.0,-531.0,160.0
19:41:44.658000,-185.0,-849.0,-406.0,-746.0,-389.0,-441.0,591.0,-531.0,160.0
19:41:44.664000,-184.0,-830.0,-488.0,-794.0,-377.0,-429.0,586.0,-534.0,144.0
19:41:44.668000,-166.0,-824.0,-575.0,-833.0,-335.0,-410.0,586.0,-534.0,144.0
19:41:44.672000,-153.0,-819.0,-574.0,-817.0,-348.0,-388.0,597.0,-522.0,142.0
19:41:44.678000,-146.0,-814.0,-544.0,-782.0,-385.0,-366.0,597.0,-522.0,142.0
19:41:44.682000,-146.0,-814.0,-544.0,-796.0,-378.0,-351.0,597.0,-522.0,142.0
19:41:44.687000,-114.0,-805.0,-585.0,-823.0,-341.0,-340.0,594.0,-517.0,138.0
19:41:44.692000,-114.0,-805.0,-585.0,-814.0,-323.0,-322.0,594.0,-517.0,138.0
19:41:44.697000,-96.0,-806.0,-587.0,-788.0,-321.0,-308.0,603.0,-520.0,135.0
19:41:44.701000,-95.0,-799.0,-550.0,-788.0,-313.0,-297.0,603.0,-520.0,135.0
19:41:44.705000,-82.0,-797.0,-528.0,-821.0,-313.0,-281.0,603.0,-520.0,135.0
19:41:44.711000,-84.0,-790.0,-513.0,-858.0,-300.0,-259.0,595.0,-511.0,130.0
19:41:44.715000,-86.0,-791.0,-496.0,-894.0,-236.0,-242.0,595.0,-511.0,130.0
19:41:44.720000,-93.0,-791.0,-481.0,-929.0,-161.0,-232.0,598.0,-516.0,133.0
19:41:44.725000,-109.0,-781.0,-484.0,-953.0,-118.0,-227.0,598.0,-516.0,133.0
19:41:44.729000,-125.0,-771.0,-472.0,-962.0,-108.0,-214.0,598.0,-516.0,133.0
19:41:44.734000,-161.0,-759.0,-455.0,-970.0,-113.0,-197.0,588.0,-505.0,109.0
19:41:44.739000,-173.0,-751.0,-448.0,-988.0,-122.0,-189.0,588.0,-505.0,109.0
19:41:44.744000,-166.0,-749.0,-463.0,-988.0,-122.0,-189.0,594.0,-495.0,114.0
19:41:44.748000,-170.0,-742.0,-440.0,-930.0,-166.0,-152.0,594.0,-495.0,114.0
19:41:44.752000,-172.0,-739.0,-359.0,-930.0,-147.0,-140.0,594.0,-495.0,114.0
19:41:44.758000,-178.0,-725.0,-305.0,-919.0,-147.0,-140.0,592.0,-495.0,108.0
19:41:44.762000,-174.0,-713.0,-277.0,-947.0,-109.0,-123.0,592.0,-495.0,108.0
19:41:44.767000,-161.0,-698.0,-274.0,-947.0,-109.0,-123.0,603.0,-502.0,105.0
19:41:44.772000,-171.0,-675.0,-242.0,-958.0,-134.0,-110.0,603.0,-502.0,105.0
19:41:44.776000,-165.0,-663.0,-207.0,-963.0,-160.0,-97.0,603.0,-502.0,105.0
19:41:44.781000,-151.0,-649.0,-216.0,-981.0,-169.0,-93.0,591.0,-493.0,109.0
19:41:44.786000,-145.0,-634.0,-206.0,-988.0,-177.0,-88.0,591.0,-493.0,109.0
19:41:44.791000,-149.0,-616.0,-184.0,-977.0,-181.0,-80.0,583.0,-487.0,94.0
19:41:44.795000,-149.0,-599.0,-223.0,-979.0,-160.0,-74.0,583.0,-487.0,94.0
19:41:44.799000,-149.0,-599.0,-223.0,-979.0,-138.0,-71.0,583.0,-487.0,94.0
19:41:44.805000,-138.0,-585.0,-282.0,-944.0,-169.0,-74.0,595.0,-489.0,81.0
19:41:44.809000,-125.0,-564.0,-257.0,-935.0,-207.0,-79.0,595.0,-489.0,81.0
19:41:44.814000,-117.0,-541.0,-215.0,-986.0,-186.0,-78.0,591.0,-486.0,81.0
19:41:44.819000,-109.0,-524.0,-215.0,-1019.0,-156.0,-81.0,591.0,-486.0,81.0
19:41:44.823000,-112.0,-503.0,-198.0,-1012.0,-151.0,-86.0,591.0,-486.0,81.0
19:41:44.828000,-121.0,-486.0,-159.0,-1016.0,-128.0,-88.0,589.0,-490.0,78.0
19:41:44.833000,-123.0,-469.0,-177.0,-1036.0,-122.0,-95.0,589.0,-490.0,78.0
19:41:44.838000,-123.0,-448.0,-193.0,-1036.0,-171.0,-106.0,583.0,-498.0,81.0
19:41:44.842000,-122.0,-426.0,-141.0,-1038.0,-203.0,-114.0,583.0,-498.0,81.0
19:41:44.846000,-112.0,-409.0,-104.0,-1055.0,-191.0,-118.0,583.0,-498.0,81.0
19:41:44.852000,-114.0,-385.0,-112.0,-1047.0,-192.0,-122.0,577.0,-481.0,79.0
19:41:44.856000,-114.0,-361.0,-95.0,-1043.0,-192.0,-131.0,577.0,-481.0,79.0
19:41:44.861000,-107.0,-339.0,-77.0,-1043.0,-192.0,-131.0,588.0,-487.0,76.0
19:41:44.866000,-107.0,-313.0,-66.0,-1071.0,-171.0,-139.0,588.0,-487.0,76.0
19:41:44.870000,-121.0,-282.0,-61.0,-1094.0,-153.0,-143.0,588.0,-487.0,76.0
19:41:44.875000,-129.0,-259.0,-62.0,-1110.0,-145.0,-144.0,589.0,-484.0,67.0
19:41:44.880000,-123.0,-243.0,-66.0,-1117.0,-150.0,-145.0,589.0,-484.0,67.0
19:41:44.885000,-128.0,-224.0,-52.0,-1094.0,-167.0,-150.0,580.0,-492.0,63.0
19:41:44.889000,-137.0,-204.0,-51.0,-1066.0,-171.0,-150.0,580.0,-492.0,63.0
19:41:44.893000,-143.0,-195.0,-63.0,-1054.0,-147.0,-148.0,580.0,-492.0,63.0
19:41:44.899000,-157.0,-185.0,-62.0,-1043.0,-126.0,-149.0,573.0,-487.0,78.0
19:41:44.903000,-172.0,-182.0,-47.0,-1028.0,-124.0,-149.0,573.0,-487.0,78.0
19:41:44.908000,-185.0,-180.0,-42.0,-1021.0,-119.0,-149.0,588.0,-489.0,57.0
19:41:44.913000,-185.0,-180.0,-42.0,-1032.0,-104.0,-149.0,588.0,-489.0,57.0
19:41:44.917000,-213.0,-180.0,-51.0,-1042.0,-86.0,-150.0,588.0,-489.0,57.0
19:41:44.922000,-245.0,-182.0,-45.0,-1043.0,-79.0,-148.0,591.0,-495.0,61.0
19:41:44.927000,-270.0,-194.0,-37.0,-1039.0,-81.0,-144.0,591.0,-495.0,61.0
19:41:44.969000,-480.0,-301.0,-43.0,-952.0,-65.0,-115.0,577.0,-478.0,69.0
19:41:44.974000,-508.0,-319.0,25.0,-952.0,-65.0,-115.0,577.0,-478.0,69.0
19:41:44.979000,-536.0,-332.0,32.0,-972.0,-59.0,-108.0,577.0,-478.0,69.0
19:41:44.983000,-559.0,-345.0,-4.0,-1005.0,-44.0,-104.0,585.0,-466.0,49.0
19:41:44.988000,-590.0,-357.0,-1.0,-989.0,-52.0,-98.0,585.0,-466.0,49.0
19:41:44.992000,-613.0,-382.0,32.0,-941.0,-73.0,-84.0,585.0,-466.0,49.0
19:41:44.997000,-623.0,-410.0,47.0,-917.0,-86.0,-70.0,571.0,-480.0,43.0
19:41:45.002000,-639.0,-433.0,43.0,-934.0,-102.0,-66.0,571.0,-480.0,43.0
19:41:45.007000,-650.0,-462.0,18.0,-961.0,-103.0,-59.0,588.0,-478.0,40.0
19:41:45.011000,-676.0,-490.0,0.0,-966.0,-81.0,-45.0,588.0,-478.0,40.0
19:41:45.016000,-676.0,-490.0,0.0,-943.0,-53.0,-23.0,580.0,-483.0,34.0
19:41:45.021000,-721.0,-513.0,-2.0,-892.0,-27.0,-2.0,580.0,-483.0,34.0
19:41:45.025000,-763.0,-537.0,41.0,-868.0,0.0,12.0,580.0,-483.0,34.0
19:41:45.030000,-812.0,-548.0,76.0,-923.0,62.0,31.0,586.0,-474.0,34.0
19:41:45.035000,-891.0,-543.0,42.0,-991.0,119.0,54.0,586.0,-474.0,34.0
19:41:45.040000,-961.0,-546.0,-15.0,-985.0,93.0,69.0,586.0,-474.0,30.0
19:41:45.044000,-1021.0,-553.0,2.0,-949.0,35.0,77.0,586.0,-474.0,30.0
19:41:45.048000,-1071.0,-557.0,35.0,-964.0,20.0,86.0,586.0,-474.0,30.0
19:41:45.054000,-1110.0,-564.0,23.0,-990.0,14.0,100.0,580.0,-456.0,16.0
19:41:45.058000,-1148.0,-588.0,21.0,-979.0,11.0,116.0,580.0,-456.0,16.0
19:41:45.063000,-1198.0,-604.0,9.0,-949.0,37.0,133.0,576.0,-457.0,25.0
19:41:45.068000,-1237.0,-627.0,-20.0,-920.0,58.0,156.0,576.0,-457.0,25.0
19:41:45.072000,-1281.0,-654.0,-37.0,-902.0,66.0,179.0,576.0,-457.0,25.0
19:41:45.077000,-1345.0,-676.0,-62.0,-895.0,72.0,202.0,582.0,-454.0,3.0
19:41:45.082000,-1390.0,-710.0,-67.0,-895.0,72.0,202.0,582.0,-454.0,3.0
19:41:45.087000,-1442.0,-749.0,-48.0,-892.0,54.0,223.0,573.0,-445.0,6.0
19:41:45.091000,-1502.0,-783.0,-49.0,-898.0,42.0,241.0,573.0,-445.0,6.0
19:41:45.095000,-1551.0,-834.0,-81.0,-911.0,66.0,263.0,573.0,-445.0,6.0
19:41:45.101000,-1591.0,-889.0,-127.0,-909.0,101.0,284.0,567.0,-448.0,-1.0
19:41:45.105000,-1643.0,-928.0,-157.0,-893.0,98.0,300.0,567.0,-448.0,-1.0
19:41:45.110000,-1677.0,-988.0,-211.0,-895.0,80.0,323.0,573.0,-441.0,-6.0
19:41:45.115000,-1733.0,-1038.0,-274.0,-891.0,90.0,345.0,573.0,-441.0,-6.0
19:41:45.119000,-1733.0,-1038.0,-274.0,-849.0,96.0,367.0,573.0,-441.0,-6.0
19:41:45.124000,-1870.0,-1136.0,-296.0,-818.0,107.0,391.0,549.0,-429.0,-4.0
19:41:45.129000,-1870.0,-1136.0,-296.0,-823.0,142.0,415.0,549.0,-429.0,-4.0
19:41:45.134000,-1969.0,-1178.0,-319.0,-838.0,182.0,447.0,550.0,-418.0,-18.0
19:41:45.138000,-2079.0,-1222.0,-331.0,-849.0,208.0,474.0,550.0,-418.0,-18.0
19:41:45.142000,-2186.0,-1264.0,-341.0,-863.0,242.0,498.0,550.0,-418.0,-18.0
19:41:45.148000,-2287.0,-1305.0,-399.0,-861.0,254.0,524.0,550.0,-399.0,-28.0
19:41:45.152000,-2402.0,-1337.0,-412.0,-848.0,242.0,557.0,550.0,-399.0,-28.0
19:41:45.157000,-2534.0,-1364.0,-424.0,-851.0,262.0,594.0,537.0,-390.0,-25.0
19:41:45.162000,-2658.0,-1396.0,-457.0,-882.0,287.0,618.0,537.0,-390.0,-25.0
19:41:45.166000,-2778.0,-1418.0,-543.0,-923.0,308.0,644.0,537.0,-390.0,-25.0
19:41:45.171000,-2888.0,-1454.0,-629.0,-909.0,292.0,681.0,541.0,-378.0,-45.0
19:41:45.176000,-3000.0,-1494.0,-640.0,-888.0,279.0,710.0,541.0,-378.0,-45.0
19:41:45.181000,-3101.0,-1530.0,-662.0,-888.0,279.0,710.0,540.0,-360.0,-52.0
19:41:45.185000,-3198.0,-1561.0,-717.0,-920.0,343.0,767.0,540.0,-360.0,-52.0
19:41:45.189000,-3288.0,-1584.0,-781.0,-946.0,327.0,804.0,540.0,-360.0,-52.0
19:41:45.195000,-3376.0,-1619.0,-809.0,-967.0,302.0,842.0,514.0,-330.0,-52.0
19:41:45.199000,-3452.0,-1662.0,-846.0,-967.0,302.0,842.0,514.0,-330.0,-52.0
19:41:45.204000,-3514.0,-1695.0,-837.0,-963.0,291.0,862.0,514.0,-307.0,-57.0
19:41:45.209000,-3585.0,-1722.0,-833.0,-935.0,280.0,885.0,514.0,-307.0,-57.0
19:41:45.213000,-3667.0,-1747.0,-874.0,-927.0,331.0,918.0,514.0,-307.0,-57.0
19:41:45.218000,-3743.0,-1775.0,-872.0,-908.0,383.0,952.0,502.0,-282.0,-60.0
19:41:45.223000,-3803.0,-1806.0,-849.0,-870.0,372.0,987.0,502.0,-282.0,-60.0
19:41:45.228000,-3847.0,-1829.0,-790.0,-851.0,334.0,1008.0,501.0,-255.0,-66.0
19:41:45.232000,-3888.0,-1859.0,-795.0,-885.0,321.0,1028.0,501.0,-255.0,-66.0
19:41:45.236000,-3888.0,-1859.0,-795.0,-922.0,343.0,1052.0,501.0,-255.0,-66.0
19:41:45.242000,-3918.0,-1888.0,-844.0,-886.0,310.0,1064.0,475.0,-238.0,-51.0
19:41:45.246000,-3924.0,-1921.0,-792.0,-832.0,230.0,1073.0,475.0,-238.0,-51.0
19:41:45.251000,-3933.0,-1946.0,-678.0,-821.0,242.0,1084.0,472.0,-213.0,-49.0
19:41:45.256000,-3943.0,-1965.0,-676.0,-851.0,313.0,1088.0,472.0,-213.0,-49.0
19:41:45.260000,-3931.0,-1978.0,-738.0,-860.0,330.0,1091.0,472.0,-213.0,-49.0
19:41:45.265000,-3913.0,-1997.0,-779.0,-844.0,334.0,1100.0,463.0,-192.0,-43.0
19:41:45.270000,-3877.0,-2023.0,-812.0,-835.0,344.0,1100.0,463.0,-192.0,-43.0
19:41:45.275000,-3843.0,-2028.0,-816.0,-826.0,309.0,1095.0,429.0,-153.0,-25.0
19:41:45.279000,-3810.0,-2024.0,-780.0,-827.0,285.0,1098.0,429.0,-153.0,-25.0
19:41:45.283000,-3756.0,-2032.0,-763.0,-801.0,270.0,1096.0,429.0,-153.0,-25.0
19:41:45.289000,-3707.0,-2034.0,-704.0,-749.0,224.0,1088.0,427.0,-130.0,-9.0
19:41:45.293000,-3675.0,-2027.0,-611.0,-743.0,241.0,1067.0,427.0,-130.0,-9.0
19:41:45.298000,-3643.0,-2003.0,-578.0,-743.0,241.0,1067.0,400.0,-121.0,-6.0
19:41:45.303000,-3595.0,-1981.0,-605.0,-777.0,305.0,1044.0,400.0,-121.0,-6.0
19:41:45.307000,-3535.0,-1950.0,-625.0,-800.0,330.0,1017.0,400.0,-121.0,-6.0
19:41:45.312000,-3488.0,-1910.0,-590.0,-788.0,315.0,983.0,396.0,-105.0,7.0
19:41:45.317000,-3446.0,-1881.0,-508.0,-762.0,293.0,960.0,396.0,-105.0,7.0
19:41:45.321000,-3402.0,-1851.0,-429.0,-796.0,360.0,889.0,397.0,-88.0,25.0
19:41:45.326000,-3368.0,-1809.0,-410.0,-796.0,360.0,889.0,397.0,-88.0,25.0
19:41:45.331000,-3329.0,-1780.0,-464.0,-838.0,449.0,860.0,370.0,-76.0,42.0
19:41:45.336000,-3280.0,-1758.0,-501.0,-833.0,509.0,838.0,370.0,-76.0,42.0
19:41:45.340000,-3280.0,-1758.0,-501.0,-769.0,495.0,817.0,370.0,-76.0,42.0
19:41:45.345000,-3188.0,-1724.0,-410.0,-712.0,449.0,800.0,373.0,-60.0,43.0
19:41:45.350000,-3188.0,-1724.0,-410.0,-696.0,413.0,771.0,373.0,-60.0,43.0
19:41:45.355000,-3120.0,-1704.0,-389.0,-700.0,395.0,735.0,366.0,-37.0,87.0
19:41:45.359000,-3045.0,-1677.0,-411.0,-707.0,401.0,706.0,366.0,-37.0,87.0
19:41:45.363000,-2963.0,-1660.0,-453.0,-712.0,436.0,676.0,366.0,-37.0,87.0
19:41:45.369000,-2880.0,-1633.0,-495.0,-719.0,472.0,643.0,354.0,-28.0,118.0
19:41:45.373000,-2801.0,-1601.0,-524.0,-722.0,477.0,618.0,354.0,-28.0,118.0
19:41:45.378000,-2725.0,-1573.0,-523.0,-717.0,455.0,596.0,339.0,-24.0,106.0
19:41:45.383000,-2646.0,-1547.0,-499.0,-722.0,428.0,575.0,339.0,-24.0,106.0
19:41:45.387000,-2576.0,-1519.0,-482.0,-721.0,402.0,557.0,339.0,-24.0,106.0
19:41:45.392000,-2512.0,-1482.0,-471.0,-703.0,410.0,526.0,339.0,-18.0,124.0
19:41:45.397000,-2437.0,-1439.0,-472.0,-698.0,458.0,503.0,339.0,-18.0,124.0
19:41:45.402000,-2369.0,-1411.0,-485.0,-698.0,458.0,503.0,348.0,-6.0,145.0
19:41:45.406000,-2316.0,-1376.0,-489.0,-703.0,532.0,478.0,348.0,-6.0,145.0
19:41:45.410000,-2266.0,-1339.0,-476.0,-703.0,532.0,478.0,348.0,-6.0,145.0
19:41:45.416000,-2205.0,-1297.0,-466.0,-704.0,533.0,455.0,336.0,-13.0,162.0
19:41:45.420000,-2128.0,-1248.0,-471.0,-711.0,533.0,425.0,336.0,-13.0,162.0
19:41:45.425000,-2055.0,-1200.0,-453.0,-711.0,529.0,405.0,319.0,-7.0,181.0
19:41:45.430000,-1987.0,-1153.0,-411.0,-686.0,522.0,388.0,319.0,-7.0,181.0
19:41:45.434000,-1925.0,-1109.0,-373.0,-669.0,515.0,373.0,319.0,-7.0,181.0
19:41:45.439000,-1860.0,-1058.0,-362.0,-684.0,513.0,354.0,313.0,1.0,192.0
19:41:45.444000,-1799.0,-1005.0,-373.0,-713.0,524.0,325.0,313.0,1.0,192.0
19:41:45.448000,-1799.0,-1005.0,-373.0,-730.0,542.0,300.0,319.0,10.0,201.0
19:41:45.453000,-1652.0,-896.0,-383.0,-724.0,557.0,275.0,319.0,10.0,201.0
19:41:45.457000,-1652.0,-896.0,-383.0,-706.0,575.0,260.0,319.0,10.0,201.0
19:41:45.463000,-1588.0,-846.0,-378.0,-690.0,594.0,256.0,306.0,10.0,219.0
19:41:45.467000,-1544.0,-800.0,-360.0,-677.0,612.0,247.0,306.0,10.0,219.0
19:41:45.472000,-1514.0,-749.0,-361.0,-667.0,640.0,226.0,313.0,4.0,223.0
19:41:45.477000,-1487.0,-698.0,-381.0,-660.0,661.0,204.0,313.0,4.0,223.0
19:41:45.481000,-1457.0,-648.0,-392.0,-656.0,664.0,185.0,313.0,4.0,223.0
19:41:45.486000,-1426.0,-606.0,-388.0,-667.0,677.0,164.0,322.0,12.0,229.0
19:41:45.491000,-1389.0,-567.0,-417.0,-682.0,710.0,142.0,322.0,12.0,229.0
19:41:45.495000,-1353.0,-532.0,-480.0,-662.0,729.0,124.0,295.0,13.0,262.0
19:41:45.500000,-1306.0,-507.0,-569.0,-609.0,719.0,109.0,295.0,13.0,262.0
19:41:45.504000,-1248.0,-490.0,-640.0,-542.0,663.0,101.0,295.0,13.0,262.0
19:41:45.509000,-1199.0,-476.0,-631.0,-492.0,595.0,96.0,295.0,7.0,265.0
19:41:45.514000,-1152.0,-471.0,-592.0,-487.0,594.0,88.0,295.0,7.0,265.0
19:41:45.519000,-1100.0,-464.0,-630.0,-487.0,594.0,88.0,289.0,7.0,265.0
19:41:45.524000,-1041.0,-455.0,-709.0,-498.0,642.0,72.0,289.0,7.0,265.0
19:41:45.528000,-984.0,-453.0,-732.0,-470.0,670.0,65.0,289.0,7.0,265.0
19:41:45.533000,-937.0,-448.0,-707.0,-430.0,662.0,65.0,295.0,9.0,271.0
19:41:45.538000,-892.0,-448.0,-697.0,-413.0,668.0,63.0,295.0,9.0,271.0
19:41:45.542000,-856.0,-445.0,-715.0,-406.0,706.0,62.0,280.0,7.0,279.0
19:41:45.547000,-837.0,-443.0,-730.0,-391.0,749.0,66.0,280.0,7.0,279.0
19:41:45.551000,-821.0,-439.0,-728.0,-377.0,777.0,66.0,280.0,7.0,279.0
19:41:45.557000,-813.0,-438.0,-721.0,-371.0,784.0,65.0,276.0,10.0,286.0
19:41:45.561000,-799.0,-442.0,-709.0,-360.0,773.0,64.0,276.0,10.0,286.0
19:41:45.566000,-799.0,-442.0,-709.0,-346.0,759.0,56.0,280.0,3.0,288.0
19:41:45.571000,-772.0,-448.0,-707.0,-336.0,755.0,49.0,280.0,3.0,288.0
19:41:45.575000,-747.0,-451.0,-723.0,-320.0,741.0,48.0,280.0,3.0,288.0
19:41:45.580000,-726.0,-453.0,-711.0,-309.0,703.0,42.0,268.0,10.0,297.0
19:41:45.585000,-695.0,-452.0,-664.0,-329.0,681.0,29.0,268.0,10.0,297.0
19:41:45.589000,-651.0,-454.0,-667.0,-353.0,701.0,16.0,258.0,9.0,304.0
19:41:45.594000,-606.0,-446.0,-721.0,-346.0,723.0,8.0,258.0,9.0,304.0
19:41:45.598000,-578.0,-429.0,-723.0,-340.0,736.0,10.0,258.0,9.0,304.0
19:41:45.604000,-560.0,-412.0,-665.0,-365.0,766.0,15.0,267.0,9.0,309.0
19:41:45.608000,-548.0,-393.0,-627.0,-394.0,799.0,24.0,267.0,9.0,309.0
19:41:45.613000,-543.0,-374.0,-610.0,-389.0,806.0,35.0,268.0,1.0,310.0
19:41:45.618000,-541.0,-358.0,-580.0,-362.0,795.0,47.0,268.0,1.0,310.0
19:41:45.622000,-545.0,-340.0,-540.0,-340.0,795.0,52.0,268.0,1.0,310.0
19:41:45.627000,-543.0,-316.0,-504.0,-332.0,808.0,52.0,258.0,0.0,322.0
19:41:45.632000,-547.0,-285.0,-476.0,-332.0,808.0,52.0,258.0,0.0,322.0
19:41:45.636000,-549.0,-256.0,-453.0,-364.0,832.0,53.0,249.0,-1.0,342.0
19:41:45.641000,-547.0,-227.0,-450.0,-364.0,832.0,53.0,249.0,-1.0,342.0
19:41:45.645000,-547.0,-202.0,-464.0,-388.0,840.0,52.0,249.0,-1.0,342.0
19:41:45.651000,-546.0,-176.0,-473.0,-385.0,833.0,56.0,240.0,-4.0,316.0
19:41:45.655000,-543.0,-151.0,-459.0,-357.0,808.0,58.0,240.0,-4.0,316.0
19:41:45.660000,-536.0,-131.0,-422.0,-328.0,770.0,61.0,244.0,9.0,333.0
19:41:45.665000,-522.0,-115.0,-394.0,-318.0,740.0,63.0,244.0,9.0,333.0
19:41:45.669000,-522.0,-115.0,-394.0,-319.0,726.0,62.0,244.0,9.0,333.0
19:41:45.674000,-473.0,-93.0,-375.0,-314.0,715.0,61.0,250.0,-3.0,331.0
19:41:45.679000,-473.0,-93.0,-375.0,-295.0,696.0,59.0,250.0,-3.0,331.0
19:41:45.683000,-441.0,-86.0,-361.0,-274.0,683.0,55.0,232.0,-6.0,342.0
19:41:45.688000,-404.0,-82.0,-346.0,-257.0,687.0,49.0,232.0,-6.0,342.0
19:41:45.693000,-364.0,-80.0,-338.0,-248.0,704.0,42.0,223.0,-3.0,339.0
19:41:45.698000,-326.0,-81.0,-337.0,-245.0,721.0,42.0,223.0,-3.0,339.0
19:41:45.702000,-291.0,-86.0,-336.0,-233.0,724.0,53.0,223.0,-3.0,339.0
19:41:45.707000,-264.0,-102.0,-321.0,-210.0,713.0,70.0,238.0,-1.0,342.0
19:41:45.712000,-235.0,-126.0,-296.0,-183.0,686.0,82.0,238.0,-1.0,342.0
19:41:45.716000,-203.0,-149.0,-271.0,-149.0,656.0,88.0,223.0,-10.0,342.0
19:41:45.721000,-162.0,-168.0,-251.0,-119.0,641.0,93.0,223.0,-10.0,342.0
19:41:45.725000,-120.0,-183.0,-234.0,-105.0,652.0,101.0,223.0,-10.0,342.0
19:41:45.731000,-86.0,-193.0,-222.0,-105.0,687.0,112.0,231.0,-9.0,348.0
19:41:45.735000,-57.0,-200.0,-215.0,-114.0,733.0,119.0,231.0,-9.0,348.0
19:41:45.740000,-37.0,-196.0,-211.0,-114.0,733.0,119.0,226.0,-3.0,345.0
19:41:45.745000,-30.0,-182.0,-213.0,-138.0,782.0,124.0,226.0,-3.0,345.0
19:41:45.749000,-34.0,-167.0,-226.0,-174.0,823.0,136.0,226.0,-3.0,345.0
19:41:45.754000,-47.0,-149.0,-232.0,-195.0,840.0,148.0,220.0,-10.0,342.0
19:41:45.759000,-61.0,-130.0,-212.0,-192.0,829.0,150.0,220.0,-10.0,342.0
19:41:45.763000,-75.0,-107.0,-198.0,-188.0,827.0,148.0,225.0,-15.0,336.0
19:41:45.768000,-87.0,-84.0,-218.0,-201.0,838.0,144.0,225.0,-15.0,336.0
19:41:45.772000,-87.0,-84.0,-218.0,-214.0,852.0,137.0,225.0,-15.0,336.0
19:41:45.778000,-81.0,-35.0,-268.0,-207.0,853.0,129.0,225.0,4.0,354.0
19:41:45.782000,-68.0,-15.0,-259.0,-186.0,830.0,122.0,225.0,4.0,354.0
19:41:45.787000,-68.0,-15.0,-259.0,-173.0,803.0,114.0,220.0,-4.0,348.0
19:41:45.792000,-54.0,0.0,-239.0,-176.0,796.0,104.0,220.0,-4.0,348.0
19:41:45.796000,-39.0,14.0,-227.0,-182.0,812.0,92.0,220.0,-4.0,348.0
19:41:45.801000,-14.0,22.0,-222.0,-176.0,831.0,88.0,220.0,-13.0,348.0
19:41:45.806000,10.0,22.0,-218.0,-151.0,836.0,87.0,220.0,-13.0,348.0
19:41:45.810000,37.0,18.0,-208.0,-114.0,825.0,85.0,214.0,-3.0,346.0
19:41:45.815000,55.0,9.0,-188.0,-79.0,815.0,84.0,214.0,-3.0,346.0
19:41:45.819000,81.0,-4.0,-166.0,-50.0,824.0,84.0,214.0,-3.0,346.0
19:41:45.825000,107.0,-21.0,-152.0,-25.0,843.0,87.0,216.0,-7.0,349.0
19:41:45.829000,128.0,-42.0,-144.0,-2.0,870.0,87.0,216.0,-7.0,349.0
19:41:45.834000,138.0,-58.0,-126.0,6.0,896.0,82.0,210.0,-4.0,348.0
19:41:45.839000,136.0,-70.0,-91.0,-7.0,914.0,72.0,210.0,-4.0,348.0
19:41:45.843000,128.0,-80.0,-58.0,-36.0,918.0,62.0,210.0,-4.0,348.0
19:41:45.848000,122.0,-90.0,-45.0,-36.0,918.0,62.0,213.0,-12.0,348.0
19:41:45.853000,119.0,-98.0,-51.0,-61.0,911.0,50.0,213.0,-12.0,348.0
19:41:45.857000,121.0,-101.0,-65.0,-74.0,910.0,36.0,213.0,-6.0,349.0
19:41:45.862000,128.0,-102.0,-74.0,-80.0,900.0,22.0,213.0,-6.0,349.0
19:41:45.866000,138.0,-103.0,-88.0,-89.0,875.0,8.0,213.0,-6.0,349.0
19:41:45.872000,153.0,-104.0,-114.0,-93.0,856.0,-2.0,208.0,1.0,346.0
19:41:45.876000,174.0,-107.0,-135.0,-85.0,836.0,-9.0,208.0,1.0,346.0
19:41:45.881000,199.0,-112.0,-146.0,-67.0,808.0,-15.0,213.0,1.0,342.0
19:41:45.886000,231.0,-116.0,-165.0,-56.0,792.0,-18.0,213.0,1.0,342.0
19:41:45.890000,231.0,-116.0,-165.0,-59.0,801.0,-21.0,213.0,1.0,342.0
19:41:45.895000,271.0,-124.0,-201.0,-70.0,821.0,-20.0,207.0,1.0,346.0
19:41:45.900000,312.0,-133.0,-245.0,-74.0,828.0,-17.0,207.0,1.0,346.0
19:41:45.904000,352.0,-142.0,-278.0,-72.0,821.0,-14.0,202.0,-4.0,343.0
19:41:45.909000,392.0,-149.0,-300.0,-67.0,804.0,-12.0,202.0,-4.0,343.0
19:41:45.913000,433.0,-154.0,-307.0,-70.0,796.0,-12.0,202.0,-4.0,343.0
19:41:45.919000,471.0,-157.0,-306.0,-90.0,813.0,-10.0,208.0,-9.0,331.0
19:41:45.923000,507.0,-161.0,-311.0,-115.0,841.0,-5.0,208.0,-9.0,331.0
19:41:45.928000,538.0,-162.0,-317.0,-126.0,861.0,2.0,201.0,-4.0,327.0
19:41:45.933000,569.0,-163.0,-317.0,-119.0,869.0,10.0,201.0,-4.0,327.0
19:41:45.937000,599.0,-161.0,-310.0,-113.0,876.0,15.0,210.0,-3.0,328.0
19:41:45.942000,634.0,-160.0,-305.0,-121.0,879.0,19.0,210.0,-3.0,328.0
19:41:45.946000,671.0,-158.0,-305.0,-137.0,883.0,24.0,210.0,-3.0,328.0
19:41:45.951000,706.0,-160.0,-309.0,-144.0,884.0,36.0,205.0,3.0,319.0
19:41:45.956000,741.0,-164.0,-308.0,-144.0,868.0,48.0,205.0,3.0,319.0
19:41:45.961000,777.0,-166.0,-302.0,-132.0,868.0,48.0,189.0,-6.0,313.0
19:41:45.966000,812.0,-166.0,-297.0,-116.0,857.0,53.0,189.0,-6.0,313.0
19:41:45.970000,843.0,-165.0,-296.0,-143.0,921.0,75.0,189.0,-6.0,313.0
19:41:45.974000,866.0,-171.0,-301.0,-143.0,921.0,75.0,201.0,10.0,327.0
19:41:45.980000,892.0,-177.0,-308.0,-157.0,955.0,97.0,201.0,10.0,327.0
19:41:45.984000,920.0,-184.0,-318.0,-143.0,962.0,115.0,193.0,0.0,300.0
19:41:45.989000,956.0,-189.0,-324.0,-101.0,953.0,126.0,193.0,0.0,300.0
19:41:45.993000,956.0,-189.0,-324.0,-73.0,958.0,141.0,193.0,0.0,300.0
19:41:45.998000,1035.0,-188.0,-348.0,-66.0,956.0,155.0,199.0,10.0,289.0
19:41:46.003000,1035.0,-188.0,-348.0,-72.0,909.0,160.0,199.0,10.0,289.0
19:41:46.008000,1079.0,-185.0,-314.0,-103.0,848.0,166.0,198.0,-1.0,303.0
19:41:46.013000,1124.0,-182.0,-281.0,-126.0,838.0,170.0,198.0,-1.0,303.0
19:41:46.020000,1223.0,-169.0,-270.0,-167.0,861.0,192.0,192.0,13.0,285.0
19:41:46.022000,1223.0,-169.0,-270.0,-167.0,861.0,192.0,192.0,13.0,285.0
19:41:46.026000,1281.0,-156.0,-270.0,-164.0,875.0,196.0,192.0,13.0,285.0
19:41:46.031000,1333.0,-135.0,-269.0,-167.0,870.0,208.0,171.0,9.0,282.0
19:41:46.036000,1382.0,-112.0,-257.0,-190.0,855.0,221.0,171.0,9.0,282.0
19:41:46.041000,1435.0,-89.0,-237.0,-203.0,849.0,228.0,186.0,9.0,262.0
19:41:46.045000,1484.0,-64.0,-210.0,-207.0,837.0,240.0,186.0,9.0,262.0
19:41:46.049000,1533.0,-41.0,-174.0,-210.0,816.0,260.0,186.0,9.0,262.0
19:41:46.055000,1582.0,-22.0,-134.0,-213.0,788.0,284.0,187.0,15.0,250.0
19:41:46.059000,1631.0,-3.0,-91.0,-211.0,756.0,303.0,187.0,15.0,250.0
19:41:46.064000,1682.0,22.0,-52.0,-211.0,756.0,303.0,183.0,10.0,261.0
19:41:46.069000,1737.0,55.0,-14.0,-209.0,735.0,314.0,183.0,10.0,261.0
19:41:46.073000,1786.0,94.0,16.0,-219.0,741.0,325.0,183.0,10.0,261.0
19:41:46.078000,1829.0,138.0,23.0,-252.0,782.0,342.0,184.0,10.0,226.0
19:41:46.083000,1857.0,187.0,23.0,-287.0,817.0,362.0,184.0,10.0,226.0
19:41:46.088000,1881.0,234.0,11.0,-311.0,816.0,380.0,187.0,0.0,213.0
19:41:46.092000,1912.0,282.0,-21.0,-326.0,800.0,389.0,187.0,0.0,213.0
19:41:46.096000,1947.0,331.0,-62.0,-332.0,786.0,397.0,187.0,0.0,213.0
19:41:46.102000,1979.0,371.0,-114.0,-330.0,787.0,416.0,186.0,6.0,196.0
19:41:46.106000,2027.0,392.0,-159.0,-303.0,780.0,438.0,186.0,6.0,196.0
19:41:46.111000,2089.0,403.0,-176.0,-240.0,738.0,461.0,184.0,9.0,181.0
19:41:46.116000,2089.0,403.0,-176.0,-165.0,682.0,490.0,184.0,9.0,181.0
19:41:46.120000,2149.0,416.0,-193.0,-114.0,629.0,520.0,184.0,9.0,181.0
19:41:46.125000,2235.0,413.0,-210.0,-91.0,569.0,540.0,181.0,-3.0,162.0
19:41:46.130000,2331.0,403.0,-193.0,-83.0,538.0,572.0,181.0,-3.0,162.0
19:41:46.135000,2412.0,387.0,-159.0,-98.0,553.0,614.0,178.0,0.0,147.0
19:41:46.139000,2492.0,369.0,-127.0,-150.0,574.0,642.0,178.0,0.0,147.0
19:41:46.143000,2576.0,363.0,-101.0,-208.0,593.0,668.0,178.0,0.0,147.0
19:41:46.149000,2660.0,359.0,-79.0,-238.0,596.0,704.0,180.0,-7.0,126.0
19:41:46.153000,2723.0,368.0,-47.0,-280.0,589.0,749.0,180.0,-7.0,126.0
19:41:46.158000,2767.0,387.0,-15.0,-340.0,604.0,799.0,178.0,-15.0,105.0
19:41:46.163000,2790.0,415.0,0.0,-367.0,625.0,844.0,178.0,-15.0,105.0
19:41:46.167000,2805.0,448.0,23.0,-384.0,639.0,879.0,178.0,-15.0,105.0
19:41:46.172000,2793.0,504.0,19.0,-409.0,670.0,917.0,172.0,-18.0,93.0
19:41:46.177000,2776.0,549.0,-37.0,-409.0,670.0,917.0,172.0,-18.0,93.0
19:41:46.182000,2760.0,587.0,-108.0,-406.0,699.0,956.0,186.0,-31.0,54.0
19:41:46.186000,2733.0,633.0,-157.0,-372.0,682.0,982.0,186.0,-31.0,54.0
19:41:46.190000,2723.0,669.0,-201.0,-338.0,653.0,994.0,186.0,-31.0,54.0
19:41:46.196000,2719.0,695.0,-239.0,-316.0,629.0,1000.0,186.0,-43.0,36.0
19:41:46.200000,2726.0,720.0,-272.0,-309.0,601.0,1000.0,186.0,-43.0,36.0
19:41:46.205000,2746.0,747.0,-314.0,-336.0,596.0,990.0,184.0,-45.0,7.0
19:41:46.210000,2767.0,795.0,-341.0,-381.0,594.0,978.0,184.0,-45.0,7.0
19:41:46.214000,2767.0,795.0,-341.0,-422.0,567.0,961.0,184.0,-45.0,7.0
19:41:46.219000,2788.0,906.0,-273.0,-473.0,529.0,953.0,177.0,-63.0,3.0
19:41:46.224000,2788.0,906.0,-273.0,-533.0,498.0,943.0,177.0,-63.0,3.0
19:41:46.229000,2793.0,975.0,-230.0,-619.0,465.0,915.0,195.0,-73.0,-18.0
19:41:46.233000,2822.0,1047.0,-172.0,-685.0,407.0,905.0,195.0,-73.0,-18.0
19:41:46.237000,2851.0,1093.0,-149.0,-664.0,306.0,915.0,195.0,-73.0,-18.0
19:41:46.243000,2857.0,1147.0,-88.0,-588.0,218.0,923.0,184.0,-79.0,-30.0
19:41:46.247000,2860.0,1197.0,18.0,-522.0,222.0,922.0,184.0,-79.0,-30.0
19:41:46.252000,2869.0,1246.0,71.0,-497.0,255.0,907.0,187.0,-115.0,-69.0
19:41:46.257000,2891.0,1295.0,53.0,-497.0,237.0,905.0,187.0,-115.0,-69.0
19:41:46.261000,2908.0,1339.0,23.0,-501.0,175.0,910.0,187.0,-115.0,-69.0
19:41:46.266000,2933.0,1388.0,8.0,-515.0,27.0,920.0,211.0,-129.0,-81.0
19:41:46.271000,2970.0,1428.0,-11.0,-443.0,11.0,954.0,211.0,-129.0,-81.0
19:41:46.276000,2965.0,1432.0,51.0,-443.0,11.0,954.0,219.0,-141.0,-94.0
19:41:46.280000,2980.0,1465.0,59.0,-446.0,71.0,897.0,219.0,-141.0,-94.0
19:41:46.284000,2992.0,1488.0,31.0,-446.0,71.0,897.0,219.0,-141.0,-94.0
19:41:46.290000,3054.0,1526.0,-9.0,-486.0,47.0,889.0,229.0,-162.0,-111.0
19:41:46.294000,3096.0,1529.0,-44.0,-455.0,-167.0,908.0,229.0,-162.0,-111.0
19:41:46.299000,3129.0,1521.0,-31.0,-455.0,-167.0,908.0,234.0,-169.0,-124.0
19:41:46.304000,3194.0,1520.0,7.0,-398.0,-272.0,908.0,234.0,-169.0,-124.0
19:41:46.308000,3253.0,1517.0,1.0,-365.0,-287.0,912.0,234.0,-169.0,-124.0
19:41:46.313000,3309.0,1513.0,-19.0,-342.0,-273.0,952.0,247.0,-196.0,-136.0
19:41:46.318000,3383.0,1511.0,-19.0,-322.0,-260.0,983.0,247.0,-196.0,-136.0
19:41:46.323000,3428.0,1519.0,-15.0,-327.0,-244.0,1021.0,267.0,-229.0,-153.0
19:41:46.327000,3469.0,1511.0,-13.0,-347.0,-214.0,1083.0,267.0,-229.0,-153.0
19:41:46.331000,3469.0,1511.0,-13.0,-365.0,-173.0,1149.0,267.0,-229.0,-153.0
19:41:46.337000,3490.0,1500.0,-28.0,-375.0,-143.0,1209.0,261.0,-261.0,-159.0
19:41:46.341000,3491.0,1505.0,-39.0,-382.0,-156.0,1252.0,261.0,-261.0,-159.0
19:41:46.346000,3504.0,1519.0,-39.0,-398.0,-219.0,1292.0,288.0,-280.0,-175.0
19:41:46.351000,3504.0,1549.0,2.0,-435.0,-264.0,1331.0,288.0,-280.0,-175.0
19:41:46.355000,3510.0,1563.0,46.0,-496.0,-241.0,1354.0,288.0,-280.0,-175.0
19:41:46.360000,3521.0,1566.0,37.0,-550.0,-192.0,1374.0,298.0,-309.0,-177.0
19:41:46.365000,3527.0,1580.0,2.0,-575.0,-164.0,1382.0,298.0,-309.0,-177.0
19:41:46.370000,3525.0,1617.0,-26.0,-583.0,-169.0,1400.0,313.0,-324.0,-178.0
19:41:46.374000,3514.0,1629.0,-32.0,-575.0,-173.0,1434.0,313.0,-324.0,-178.0
19:41:46.378000,3483.0,1645.0,-28.0,-555.0,-145.0,1463.0,313.0,-324.0,-178.0
19:41:46.384000,3437.0,1649.0,-28.0,-520.0,-112.0,1482.0,330.0,-369.0,-174.0
19:41:46.388000,3393.0,1644.0,-23.0,-469.0,-103.0,1487.0,330.0,-369.0,-174.0
19:41:46.393000,3338.0,1653.0,-2.0,-469.0,-103.0,1487.0,343.0,-400.0,-177.0
19:41:46.398000,3271.0,1673.0,26.0,-439.0,-116.0,1483.0,343.0,-400.0,-177.0
19:41:46.402000,3199.0,1693.0,43.0,-457.0,-114.0,1470.0,343.0,-400.0,-177.0
19:41:46.407000,3129.0,1710.0,34.0,-520.0,-92.0,1456.0,358.0,-423.0,-181.0
19:41:46.412000,3053.0,1738.0,20.0,-587.0,-78.0,1435.0,358.0,-423.0,-181.0
19:41:46.417000,2977.0,1762.0,0.0,-640.0,-80.0,1402.0,358.0,-442.0,-184.0
19:41:46.421000,2910.0,1799.0,-32.0,-676.0,-113.0,1354.0,358.0,-442.0,-184.0
19:41:46.425000,2862.0,1829.0,-61.0,-690.0,-175.0,1304.0,358.0,-442.0,-184.0
19:41:46.431000,2819.0,1846.0,-78.0,-691.0,-232.0,1267.0,379.0,-465.0,-177.0
19:41:46.435000,2769.0,1866.0,-76.0,-687.0,-271.0,1227.0,379.0,-465.0,-177.0
19:41:46.440000,2716.0,1883.0,-65.0,-671.0,-283.0,1189.0,388.0,-475.0,-168.0
19:41:46.445000,2716.0,1883.0,-65.0,-644.0,-274.0,1154.0,388.0,-475.0,-168.0
19:41:46.449000,2669.0,1893.0,-63.0,-617.0,-268.0,1113.0,388.0,-475.0,-168.0
19:41:46.454000,2615.0,1903.0,-60.0,-595.0,-254.0,1059.0,408.0,-492.0,-153.0
19:41:46.459000,2557.0,1915.0,-56.0,-606.0,-210.0,1015.0,408.0,-492.0,-153.0
19:41:46.464000,2482.0,1913.0,-64.0,-649.0,-128.0,981.0,408.0,-514.0,-151.0
19:41:46.468000,2391.0,1904.0,-84.0,-684.0,-64.0,940.0,408.0,-514.0,-151.0
19:41:46.472000,2288.0,1887.0,-87.0,-668.0,-62.0,898.0,408.0,-514.0,-151.0
19:41:46.478000,2182.0,1863.0,-42.0,-631.0,-90.0,851.0,444.0,-544.0,-124.0
19:41:46.482000,2080.0,1843.0,4.0,-622.0,-112.0,809.0,444.0,-544.0,-124.0
19:41:46.487000,1979.0,1818.0,21.0,-615.0,-116.0,776.0,456.0,-544.0,-118.0
19:41:46.492000,1885.0,1785.0,24.0,-601.0,-113.0,741.0,456.0,-544.0,-118.0
19:41:46.496000,1788.0,1752.0,34.0,-589.0,-113.0,712.0,456.0,-544.0,-118.0
19:41:46.501000,1680.0,1715.0,53.0,-581.0,-106.0,685.0,460.0,-568.0,-106.0
19:41:46.506000,1572.0,1678.0,73.0,-581.0,-106.0,685.0,460.0,-568.0,-106.0
19:41:46.511000,1461.0,1642.0,92.0,-580.0,-109.0,612.0,480.0,-559.0,-93.0
19:41:46.515000,1348.0,1611.0,124.0,-580.0,-109.0,612.0,480.0,-559.0,-93.0
19:41:46.519000,1241.0,1577.0,156.0,-596.0,-132.0,571.0,480.0,-559.0,-93.0
19:41:46.525000,1140.0,1538.0,168.0,-624.0,-153.0,536.0,462.0,-576.0,-79.0
19:41:46.529000,1047.0,1507.0,166.0,-650.0,-178.0,499.0,462.0,-576.0,-79.0
19:41:46.534000,968.0,1472.0,162.0,-661.0,-208.0,464.0,490.0,-583.0,-69.0
19:41:46.539000,889.0,1443.0,170.0,-664.0,-240.0,434.0,490.0,-583.0,-69.0
19:41:46.543000,889.0,1443.0,170.0,-671.0,-270.0,411.0,490.0,-583.0,-69.0
19:41:46.548000,739.0,1374.0,225.0,-673.0,-299.0,389.0,502.0,-592.0,-54.0
19:41:46.552000,739.0,1374.0,225.0,-675.0,-322.0,364.0,502.0,-592.0,-54.0
19:41:46.558000,674.0,1341.0,238.0,-683.0,-332.0,338.0,493.0,-600.0,-34.0
19:41:46.562000,620.0,1306.0,233.0,-685.0,-341.0,313.0,493.0,-600.0,-34.0
19:41:46.567000,565.0,1271.0,226.0,-679.0,-351.0,292.0,513.0,-598.0,-51.0
19:41:46.572000,517.0,1236.0,222.0,-683.0,-359.0,272.0,513.0,-598.0,-51.0
19:41:46.576000,467.0,1200.0,214.0,-677.0,-391.0,247.0,513.0,-598.0,-51.0
19:41:46.581000,423.0,1166.0,209.0,-658.0,-442.0,222.0,519.0,-601.0,-36.0
19:41:46.586000,384.0,1132.0,227.0,-649.0,-487.0,201.0,519.0,-601.0,-36.0
19:41:46.591000,345.0,1095.0,256.0,-650.0,-520.0,179.0,526.0,-612.0,-30.0
19:41:46.595000,307.0,1061.0,264.0,-666.0,-531.0,157.0,526.0,-612.0,-30.0
19:41:46.599000,275.0,1023.0,235.0,-676.0,-526.0,137.0,526.0,-612.0,-30.0
19:41:46.605000,246.0,987.0,198.0,-665.0,-530.0,115.0,519.0,-604.0,-25.0
19:41:46.609000,213.0,957.0,179.0,-660.0,-562.0,99.0,519.0,-604.0,-25.0
19:41:46.614000,185.0,917.0,189.0,-660.0,-562.0,99.0,519.0,-609.0,-18.0
19:41:46.619000,160.0,877.0,181.0,-681.0,-603.0,83.0,519.0,-609.0,-18.0
19:41:46.623000,145.0,835.0,142.0,-713.0,-619.0,63.0,519.0,-609.0,-18.0
19:41:46.628000,136.0,797.0,76.0,-727.0,-623.0,39.0,537.0,-607.0,-6.0
19:41:46.633000,126.0,763.0,27.0,-712.0,-637.0,14.0,537.0,-607.0,-6.0
19:41:46.638000,114.0,718.0,14.0,-686.0,-660.0,-2.0,544.0,-609.0,3.0
19:41:46.642000,105.0,667.0,10.0,-661.0,-682.0,-14.0,544.0,-609.0,3.0
19:41:46.650000,99.0,612.0,-16.0,-627.0,-701.0,-33.0,537.0,-609.0,0.0
19:41:46.652000,104.0,556.0,-69.0,-627.0,-701.0,-33.0,537.0,-609.0,0.0
19:41:46.656000,104.0,556.0,-69.0,-608.0,-703.0,-50.0,537.0,-609.0,0.0
19:41:46.661000,114.0,507.0,-121.0,-595.0,-718.0,-64.0,529.0,-615.0,-1.0
19:41:46.666000,123.0,462.0,-149.0,-604.0,-738.0,-74.0,529.0,-615.0,-1.0
19:41:46.670000,133.0,413.0,-150.0,-637.0,-746.0,-81.0,544.0,-610.0,6.0
19:41:46.675000,136.0,366.0,-151.0,-676.0,-732.0,-88.0,544.0,-610.0,6.0
19:41:46.679000,137.0,324.0,-175.0,-706.0,-705.0,-96.0,544.0,-610.0,6.0
19:41:46.685000,136.0,281.0,-204.0,-717.0,-685.0,-98.0,538.0,-609.0,10.0
19:41:46.689000,135.0,233.0,-226.0,-714.0,-673.0,-99.0,538.0,-609.0,10.0
19:41:46.694000,128.0,191.0,-247.0,-709.0,-666.0,-98.0,543.0,-621.0,12.0
19:41:46.699000,120.0,148.0,-265.0,-700.0,-674.0,-93.0,543.0,-621.0,12.0
19:41:46.703000,110.0,105.0,-271.0,-684.0,-704.0,-86.0,543.0,-621.0,12.0
19:41:46.708000,100.0,63.0,-262.0,-667.0,-741.0,-82.0,547.0,-609.0,24.0
19:41:46.713000,93.0,24.0,-251.0,-667.0,-767.0,-84.0,547.0,-609.0,24.0
19:41:46.717000,95.0,-10.0,-254.0,-667.0,-767.0,-84.0,546.0,-604.0,19.0
19:41:46.722000,102.0,-39.0,-277.0,-685.0,-773.0,-85.0,546.0,-604.0,19.0
19:41:46.726000,114.0,-61.0,-296.0,-710.0,-768.0,-86.0,546.0,-604.0,19.0
19:41:46.732000,129.0,-82.0,-304.0,-738.0,-771.0,-86.0,546.0,-609.0,18.0
19:41:46.736000,142.0,-102.0,-295.0,-814.0,-800.0,-79.0,546.0,-609.0,18.0
19:41:46.741000,158.0,-122.0,-280.0,-814.0,-800.0,-79.0,549.0,-600.0,21.0
19:41:46.746000,178.0,-137.0,-281.0,-858.0,-809.0,-79.0,549.0,-600.0,21.0
19:41:46.750000,200.0,-147.0,-296.0,-893.0,-809.0,-83.0,549.0,-600.0,21.0
19:41:46.755000,217.0,-154.0,-307.0,-913.0,-797.0,-86.0,552.0,-601.0,10.0
19:41:46.760000,229.0,-158.0,-312.0,-919.0,-771.0,-86.0,552.0,-601.0,10.0
19:41:46.764000,233.0,-161.0,-320.0,-915.0,-736.0,-83.0,553.0,-603.0,19.0
19:41:46.769000,233.0,-161.0,-320.0,-908.0,-702.0,-77.0,553.0,-603.0,19.0
19:41:46.773000,234.0,-163.0,-324.0,-900.0,-681.0,-72.0,553.0,-603.0,19.0
19:41:46.779000,229.0,-165.0,-314.0,-895.0,-677.0,-66.0,552.0,-598.0,21.0
19:41:46.783000,221.0,-168.0,-295.0,-892.0,-682.0,-63.0,552.0,-598.0,21.0
19:41:46.788000,226.0,-177.0,-294.0,-885.0,-689.0,-63.0,546.0,-600.0,27.0
19:41:46.793000,235.0,-184.0,-312.0,-868.0,-696.0,-63.0,546.0,-600.0,27.0
19:41:46.797000,244.0,-193.0,-320.0,-853.0,-690.0,-59.0,546.0,-600.0,27.0
19:41:46.802000,250.0,-203.0,-325.0,-846.0,-673.0,-51.0,553.0,-594.0,16.0
19:41:46.807000,256.0,-219.0,-333.0,-839.0,-653.0,-43.0,553.0,-594.0,16.0
19:41:46.811000,260.0,-234.0,-346.0,-831.0,-625.0,-32.0,564.0,-598.0,13.0
19:41:46.816000,258.0,-250.0,-357.0,-824.0,-595.0,-18.0,564.0,-598.0,13.0
19:41:46.820000,252.0,-268.0,-361.0,-821.0,-576.0,-4.0,564.0,-598.0,13.0
19:41:46.826000,247.0,-286.0,-364.0,-823.0,-569.0,5.0,559.0,-609.0,13.0
19:41:46.830000,240.0,-303.0,-371.0,-823.0,-567.0,11.0,559.0,-609.0,13.0
19:41:46.835000,234.0,-319.0,-378.0,-826.0,-567.0,11.0,550.0,-588.0,25.0
19:41:46.840000,228.0,-334.0,-378.0,-827.0,-568.0,16.0,550.0,-588.0,25.0
19:41:46.844000,220.0,-347.0,-379.0,-827.0,-562.0,20.0,550.0,-588.0,25.0
19:41:46.849000,211.0,-359.0,-382.0,-832.0,-543.0,21.0,567.0,-594.0,6.0
19:41:46.854000,200.0,-371.0,-382.0,-837.0,-521.0,23.0,567.0,-594.0,6.0
19:41:46.858000,186.0,-380.0,-374.0,-841.0,-507.0,24.0,561.0,-585.0,7.0
19:41:46.863000,170.0,-383.0,-361.0,-846.0,-498.0,22.0,561.0,-585.0,7.0
19:41:46.867000,170.0,-383.0,-361.0,-853.0,-490.0,22.0,561.0,-585.0,7.0
19:41:46.873000,136.0,-387.0,-317.0,-865.0,-485.0,24.0,562.0,-586.0,9.0
19:41:46.877000,122.0,-386.0,-291.0,-879.0,-487.0,26.0,562.0,-586.0,9.0
19:41:46.882000,122.0,-386.0,-291.0,-891.0,-497.0,28.0,564.0,-588.0,6.0
19:41:46.887000,109.0,-384.0,-265.0,-899.0,-509.0,31.0,564.0,-588.0,6.0
19:41:46.891000,100.0,-383.0,-236.0,-902.0,-519.0,33.0,564.0,-588.0,6.0
19:41:46.896000,93.0,-382.0,-212.0,-902.0,-521.0,36.0,570.0,-585.0,-4.0
19:41:46.901000,87.0,-382.0,-191.0,-900.0,-519.0,36.0,570.0,-585.0,-4.0
19:41:46.905000,87.0,-380.0,-180.0,-898.0,-522.0,34.0,561.0,-583.0,12.0
19:41:46.910000,85.0,-378.0,-166.0,-893.0,-525.0,35.0,561.0,-583.0,12.0
19:41:46.914000,68.0,-373.0,-139.0,-893.0,-509.0,33.0,561.0,-583.0,12.0
19:41:46.920000,47.0,-369.0,-119.0,-894.0,-455.0,31.0,556.0,-585.0,7.0
19:41:46.924000,21.0,-366.0,-122.0,-882.0,-416.0,31.0,556.0,-585.0,7.0
19:41:46.929000,-11.0,-370.0,-127.0,-882.0,-416.0,31.0,555.0,-591.0,0.0
19:41:46.934000,-38.0,-378.0,-128.0,-849.0,-411.0,32.0,555.0,-591.0,0.0
19:41:46.938000,-70.0,-391.0,-149.0,-825.0,-416.0,38.0,555.0,-591.0,0.0
19:41:46.943000,-98.0,-408.0,-172.0,-825.0,-416.0,38.0,559.0,-583.0,-3.0
19:41:46.948000,-118.0,-427.0,-196.0,-785.0,-436.0,43.0,559.0,-583.0,-3.0
19:41:46.952000,-128.0,-442.0,-217.0,-741.0,-455.0,43.0,567.0,-583.0,-6.0
19:41:46.957000,-137.0,-450.0,-220.0,-710.0,-479.0,39.0,567.0,-583.0,-6.0
19:41:46.961000,-138.0,-464.0,-217.0,-713.0,-488.0,38.0,567.0,-583.0,-6.0
19:41:46.967000,-135.0,-478.0,-223.0,-747.0,-474.0,41.0,553.0,-576.0,-6.0
19:41:46.971000,-136.0,-487.0,-227.0,-785.0,-457.0,42.0,553.0,-576.0,-6.0
19:41:46.976000,-147.0,-494.0,-214.0,-815.0,-451.0,44.0,543.0,-583.0,4.0
19:41:46.981000,-158.0,-496.0,-195.0,-838.0,-444.0,46.0,543.0,-583.0,4.0
19:41:46.985000,-158.0,-496.0,-195.0,-846.0,-433.0,49.0,543.0,-583.0,4.0
19:41:46.990000,-169.0,-501.0,-177.0,-836.0,-436.0,49.0,561.0,-573.0,-15.0
19:41:46.995000,-176.0,-505.0,-157.0,-818.0,-449.0,43.0,561.0,-573.0,-15.0
19:41:46.999000,-177.0,-506.0,-130.0,-804.0,-453.0,34.0,552.0,-571.0,-19.0
19:41:47.004000,-176.0,-506.0,-104.0,-800.0,-445.0,23.0,552.0,-571.0,-19.0
19:41:47.008000,-179.0,-499.0,-79.0,-804.0,-430.0,12.0,552.0,-571.0,-19.0
19:41:47.014000,-191.0,-485.0,-57.0,-819.0,-410.0,3.0,544.0,-577.0,-19.0
19:41:47.018000,-217.0,-466.0,-32.0,-842.0,-385.0,-3.0,544.0,-577.0,-19.0
19:41:47.023000,-252.0,-443.0,-16.0,-881.0,-353.0,-12.0,552.0,-571.0,-18.0
19:41:47.028000,-290.0,-417.0,-16.0,-901.0,-326.0,-25.0,552.0,-571.0,-18.0
19:41:47.032000,-329.0,-384.0,-25.0,-891.0,-325.0,-36.0,552.0,-571.0,-18.0
19:41:47.037000,-360.0,-357.0,-27.0,-896.0,-350.0,-50.0,543.0,-565.0,-21.0
19:41:47.042000,-375.0,-331.0,-28.0,-905.0,-382.0,-65.0,543.0,-565.0,-21.0
19:41:47.046000,-382.0,-310.0,-26.0,-905.0,-382.0,-65.0,544.0,-579.0,-28.0
19:41:47.051000,-389.0,-290.0,-27.0,-903.0,-405.0,-82.0,544.0,-579.0,-28.0
19:41:47.058000,-389.0,-278.0,-37.0,-927.0,-424.0,-125.0,540.0,-564.0,-30.0
19:41:47.061000,-386.0,-271.0,-57.0,-927.0,-424.0,-125.0,540.0,-564.0,-30.0
19:41:47.065000,-387.0,-268.0,-67.0,-908.0,-423.0,-140.0,540.0,-564.0,-30.0
19:41:47.070000,-392.0,-271.0,-70.0,-874.0,-412.0,-149.0,523.0,-561.0,-39.0
19:41:47.075000,-400.0,-282.0,-70.0,-834.0,-384.0,-153.0,523.0,-561.0,-39.0
19:41:47.079000,-408.0,-290.0,-81.0,-791.0,-347.0,-157.0,538.0,-561.0,-36.0
19:41:47.084000,-420.0,-301.0,-107.0,-768.0,-306.0,-157.0,538.0,-561.0,-36.0
19:41:47.088000,-420.0,-301.0,-107.0,-754.0,-269.0,-148.0,538.0,-561.0,-36.0
19:41:47.093000,-464.0,-332.0,-126.0,-736.0,-226.0,-132.0,537.0,-568.0,-39.0
19:41:47.098000,-464.0,-332.0,-126.0,-736.0,-193.0,-117.0,537.0,-568.0,-39.0
19:41:47.103000,-485.0,-350.0,-133.0,-752.0,-192.0,-91.0,532.0,-555.0,-28.0
19:41:47.108000,-506.0,-376.0,-144.0,-767.0,-198.0,-53.0,532.0,-555.0,-28.0
19:41:47.112000,-529.0,-406.0,-146.0,-767.0,-203.0,-18.0,532.0,-555.0,-28.0
19:41:47.117000,-541.0,-433.0,-142.0,-842.0,-202.0,5.0,538.0,-555.0,-42.0
19:41:47.122000,-534.0,-459.0,-212.0,-900.0,-258.0,66.0,538.0,-555.0,-42.0
19:41:47.126000,-538.0,-504.0,-207.0,-790.0,-319.0,105.0,531.0,-547.0,-58.0
19:41:47.131000,-532.0,-522.0,-82.0,-657.0,-323.0,136.0,531.0,-547.0,-58.0
19:41:47.135000,-528.0,-550.0,21.0,-730.0,-284.0,213.0,531.0,-547.0,-58.0
19:41:47.140000,-534.0,-584.0,-50.0,-842.0,-198.0,269.0,525.0,-543.0,-49.0
19:41:47.145000,-561.0,-610.0,-95.0,-835.0,-186.0,293.0,525.0,-543.0,-49.0
19:41:47.150000,-565.0,-620.0,-81.0,-835.0,-186.0,293.0,537.0,-535.0,-60.0
19:41:47.155000,-561.0,-627.0,-56.0,-851.0,-346.0,340.0,537.0,-535.0,-60.0
19:41:47.159000,-548.0,-618.0,-81.0,-851.0,-346.0,340.0,537.0,-535.0,-60.0
19:41:47.164000,-543.0,-602.0,-126.0,-866.0,-356.0,359.0,528.0,-529.0,-67.0
19:41:47.169000,-539.0,-582.0,-158.0,-908.0,-326.0,381.0,528.0,-529.0,-67.0
19:41:47.173000,-567.0,-564.0,-170.0,-955.0,-305.0,409.0,516.0,-537.0,-72.0
19:41:47.178000,-609.0,-541.0,-121.0,-981.0,-286.0,442.0,516.0,-537.0,-72.0
19:41:47.185000,-617.0,-520.0,-102.0,-1030.0,-232.0,439.0,516.0,-525.0,-72.0
19:41:47.187000,-611.0,-488.0,-207.0,-1030.0,-232.0,439.0,516.0,-525.0,-72.0
19:41:47.192000,-617.0,-488.0,-207.0,-1036.0,-234.0,449.0,516.0,-525.0,-72.0
19:41:47.197000,-616.0,-416.0,-322.0,-1024.0,-282.0,457.0,523.0,-514.0,-72.0
19:41:47.202000,-649.0,-394.0,-343.0,-998.0,-310.0,456.0,523.0,-514.0,-72.0
19:41:47.206000,-649.0,-394.0,-343.0,-984.0,-365.0,468.0,510.0,-519.0,-82.0
19:41:47.211000,-681.0,-345.0,-310.0,-991.0,-393.0,457.0,510.0,-519.0,-82.0
19:41:47.215000,-689.0,-311.0,-256.0,-1029.0,-374.0,455.0,510.0,-519.0,-82.0
19:41:47.220000,-711.0,-295.0,-244.0,-1043.0,-356.0,452.0,510.0,-516.0,-84.0
19:41:47.225000,-728.0,-252.0,-264.0,-1033.0,-354.0,428.0,510.0,-516.0,-84.0
19:41:47.230000,-721.0,-226.0,-298.0,-1022.0,-366.0,420.0,516.0,-498.0,-88.0
19:41:47.234000,-721.0,-193.0,-326.0,-994.0,-388.0,428.0,516.0,-498.0,-88.0
19:41:47.239000,-723.0,-180.0,-325.0,-970.0,-411.0,440.0,516.0,-498.0,-88.0
19:41:47.244000,-728.0,-176.0,-317.0,-953.0,-435.0,443.0,514.0,-499.0,-87.0
19:41:47.249000,-743.0,-165.0,-313.0,-911.0,-445.0,437.0,514.0,-499.0,-87.0
19:41:47.253000,-747.0,-150.0,-311.0,-867.0,-416.0,441.0,510.0,-495.0,-94.0
19:41:47.258000,-737.0,-148.0,-331.0,-849.0,-374.0,454.0,510.0,-495.0,-94.0
19:41:47.262000,-742.0,-152.0,-376.0,-789.0,-302.0,466.0,510.0,-495.0,-94.0
19:41:47.267000,-743.0,-151.0,-446.0,-733.0,-308.0,487.0,516.0,-489.0,-94.0
19:41:47.272000,-751.0,-167.0,-443.0,-733.0,-308.0,487.0,516.0,-489.0,-94.0
19:41:47.277000,-758.0,-186.0,-425.0,-727.0,-365.0,498.0,504.0,-484.0,-87.0
19:41:47.281000,-784.0,-211.0,-445.0,-730.0,-340.0,510.0,504.0,-484.0,-87.0
19:41:47.286000,-813.0,-245.0,-481.0,-728.0,-280.0,533.0,504.0,-484.0,-87.0
19:41:47.291000,-849.0,-277.0,-519.0,-723.0,-241.0,549.0,513.0,-477.0,-96.0
19:41:47.296000,-888.0,-317.0,-561.0,-724.0,-224.0,569.0,513.0,-477.0,-96.0
19:41:47.300000,-939.0,-356.0,-585.0,-733.0,-218.0,595.0,511.0,-459.0,-100.0
19:41:47.305000,-1002.0,-390.0,-591.0,-757.0,-226.0,621.0,511.0,-459.0,-100.0
19:41:47.309000,-1002.0,-390.0,-591.0,-791.0,-243.0,634.0,511.0,-459.0,-100.0
19:41:47.314000,-1140.0,-409.0,-595.0,-808.0,-269.0,624.0,502.0,-454.0,-82.0
