hh:mm:ss.ms,gyroX[mdps],gyroY[mdps],gyroZ[mdps],accX[mg],accY[mg],accZ[mg],magX[mG],magY[mG],magZ[mG]
19:40:13.884000,-1490.0,-513.0,-1507.0,-898.0,802.0,-1035.0,124.0,-387.0,505.0
19:40:13.889000,-1492.0,-523.0,-1544.0,-940.0,788.0,-1039.0,133.0,-408.0,499.0
19:40:13.894000,-1466.0,-561.0,-1489.0,-955.0,700.0,-1057.0,133.0,-408.0,499.0
19:40:13.898000,-1480.0,-594.0,-1449.0,-1001.0,720.0,-1098.0,139.0,-423.0,498.0
19:40:13.903000,-1463.0,-611.0,-1422.0,-1001.0,720.0,-1098.0,139.0,-423.0,498.0
19:40:13.908000,-1455.0,-632.0,-1410.0,-996.0,772.0,-1144.0,145.0,-429.0,504.0
19:40:13.912000,-1456.0,-659.0,-1404.0,-907.0,832.0,-1137.0,145.0,-429.0,504.0
19:40:13.916000,-1456.0,-659.0,-1404.0,-839.0,905.0,-1149.0,145.0,-429.0,504.0
19:40:13.921000,-1462.0,-682.0,-1432.0,-809.0,951.0,-1129.0,150.0,-447.0,496.0
19:40:13.926000,-1471.0,-765.0,-1426.0,-723.0,935.0,-1110.0,150.0,-447.0,496.0
19:40:13.931000,-1489.0,-802.0,-1373.0,-694.0,905.0,-1166.0,150.0,-465.0,499.0
19:40:13.936000,-1463.0,-814.0,-1388.0,-781.0,976.0,-1142.0,150.0,-465.0,499.0
19:40:13.940000,-1441.0,-893.0,-1438.0,-812.0,986.0,-1054.0,150.0,-465.0,499.0
19:40:13.945000,-1491.0,-935.0,-1356.0,-779.0,868.0,-1054.0,165.0,-466.0,513.0
19:40:13.950000,-1477.0,-966.0,-1222.0,-775.0,854.0,-1081.0,165.0,-466.0,513.0
19:40:13.955000,-1507.0,-937.0,-1190.0,-749.0,793.0,-1048.0,163.0,-478.0,499.0
19:40:13.959000,-1538.0,-945.0,-1200.0,-695.0,728.0,-996.0,163.0,-478.0,499.0
19:40:13.963000,-1511.0,-984.0,-1288.0,-649.0,760.0,-970.0,163.0,-478.0,499.0
19:40:13.969000,-1493.0,-968.0,-1288.0,-539.0,696.0,-939.0,181.0,-504.0,498.0
19:40:13.973000,-1570.0,-962.0,-1180.0,-443.0,542.0,-866.0,181.0,-504.0,498.0
19:40:13.978000,-1605.0,-1001.0,-1059.0,-363.0,355.0,-864.0,183.0,-517.0,490.0
19:40:13.983000,-1598.0,-962.0,-986.0,-290.0,192.0,-811.0,183.0,-517.0,490.0
19:40:13.987000,-1631.0,-961.0,-1063.0,-290.0,192.0,-811.0,183.0,-517.0,490.0
19:40:13.992000,-1708.0,-915.0,-1069.0,-114.0,13.0,-719.0,190.0,-532.0,486.0
19:40:13.997000,-1736.0,-947.0,-977.0,168.0,-257.0,-698.0,190.0,-532.0,486.0
19:40:14.002000,-1680.0,-1106.0,-961.0,282.0,-404.0,-645.0,199.0,-540.0,483.0
19:40:14.006000,-1612.0,-1133.0,-1149.0,331.0,-213.0,-627.0,199.0,-540.0,483.0
19:40:14.010000,-1541.0,-1050.0,-1390.0,375.0,-82.0,-676.0,199.0,-540.0,483.0
19:40:14.016000,-1414.0,-1091.0,-1441.0,462.0,-309.0,-693.0,217.0,-541.0,484.0
19:40:14.020000,-1308.0,-1108.0,-1591.0,567.0,-373.0,-673.0,217.0,-541.0,484.0
19:40:14.025000,-1241.0,-1084.0,-2005.0,507.0,-265.0,-702.0,216.0,-559.0,492.0
19:40:14.030000,-1278.0,-982.0,-2235.0,448.0,-310.0,-797.0,216.0,-559.0,492.0
19:40:14.034000,-1278.0,-982.0,-2235.0,479.0,-336.0,-824.0,216.0,-559.0,492.0
19:40:14.039000,-1392.0,-917.0,-2118.0,366.0,-254.0,-755.0,241.0,-573.0,465.0
19:40:14.044000,-1486.0,-963.0,-2022.0,183.0,-164.0,-785.0,241.0,-573.0,465.0
19:40:14.049000,-1596.0,-977.0,-2055.0,63.0,30.0,-862.0,250.0,-585.0,459.0
19:40:14.053000,-1614.0,-1006.0,-2193.0,24.0,73.0,-908.0,250.0,-585.0,459.0
19:40:14.057000,-1549.0,-1030.0,-2246.0,106.0,-244.0,-1011.0,250.0,-585.0,459.0
19:40:14.063000,-1537.0,-987.0,-2125.0,179.0,-407.0,-1040.0,267.0,-595.0,459.0
19:40:14.067000,-1560.0,-1003.0,-1972.0,168.0,-382.0,-991.0,267.0,-595.0,459.0
19:40:14.072000,-1603.0,-1031.0,-1906.0,115.0,-432.0,-1016.0,277.0,-606.0,453.0
19:40:14.077000,-1666.0,-1049.0,-1925.0,99.0,-434.0,-1029.0,277.0,-606.0,453.0
19:40:14.081000,-1734.0,-1110.0,-1876.0,134.0,-438.0,-993.0,277.0,-606.0,453.0
19:40:14.086000,-1798.0,-1157.0,-1768.0,142.0,-574.0,-1084.0,304.0,-609.0,447.0
19:40:14.091000,-1753.0,-1174.0,-1676.0,159.0,-531.0,-1136.0,304.0,-609.0,447.0
19:40:14.096000,-1684.0,-1269.0,-1585.0,159.0,-531.0,-1136.0,306.0,-622.0,444.0
19:40:14.100000,-1579.0,-1274.0,-1617.0,136.0,-438.0,-1177.0,306.0,-622.0,444.0
19:40:14.104000,-1423.0,-1336.0,-1713.0,136.0,-438.0,-1177.0,306.0,-622.0,444.0
19:40:14.110000,-1276.0,-1428.0,-1702.0,100.0,-460.0,-1154.0,334.0,-628.0,424.0
19:40:14.114000,-1133.0,-1491.0,-1523.0,144.0,-648.0,-1144.0,334.0,-628.0,424.0
19:40:14.119000,-1109.0,-1537.0,-1337.0,186.0,-807.0,-1138.0,349.0,-636.0,415.0
19:40:14.124000,-1110.0,-1566.0,-1312.0,206.0,-702.0,-1101.0,349.0,-636.0,415.0
19:40:14.128000,-1110.0,-1566.0,-1312.0,226.0,-584.0,-1053.0,349.0,-636.0,415.0
19:40:14.133000,-1241.0,-1634.0,-1204.0,242.0,-587.0,-1017.0,364.0,-640.0,408.0
19:40:14.138000,-1275.0,-1641.0,-1192.0,167.0,-576.0,-1023.0,364.0,-640.0,408.0
19:40:14.142000,-1275.0,-1641.0,-1192.0,18.0,-528.0,-1020.0,361.0,-640.0,393.0
19:40:14.147000,-1269.0,-1655.0,-1227.0,-26.0,-526.0,-1022.0,361.0,-640.0,393.0
19:40:14.151000,-1246.0,-1654.0,-1108.0,-33.0,-520.0,-1004.0,361.0,-640.0,393.0
19:40:14.156000,-1206.0,-1659.0,-1006.0,-74.0,-425.0,-970.0,366.0,-637.0,391.0
19:40:14.161000,-1214.0,-1650.0,-1048.0,-132.0,-368.0,-944.0,366.0,-637.0,391.0
19:40:14.166000,-1204.0,-1637.0,-1178.0,-208.0,-390.0,-928.0,387.0,-645.0,375.0
19:40:14.171000,-1190.0,-1610.0,-1287.0,-258.0,-444.0,-911.0,387.0,-645.0,375.0
19:40:14.175000,-1140.0,-1605.0,-1288.0,-302.0,-505.0,-874.0,387.0,-645.0,375.0
19:40:14.180000,-1169.0,-1584.0,-1253.0,-399.0,-443.0,-842.0,411.0,-643.0,361.0
19:40:14.185000,-1215.0,-1533.0,-1294.0,-569.0,-286.0,-865.0,411.0,-643.0,361.0
19:40:14.190000,-1161.0,-1486.0,-1376.0,-554.0,-312.0,-947.0,408.0,-645.0,363.0
19:40:14.194000,-1009.0,-1442.0,-1176.0,-38.0,-885.0,-729.0,408.0,-645.0,363.0
19:40:14.198000,-1469.0,-1430.0,-570.0,328.0,-1321.0,-248.0,408.0,-645.0,363.0
19:40:14.204000,-2228.0,-1482.0,-593.0,-78.0,-807.0,-648.0,436.0,-646.0,340.0
19:40:14.208000,-1876.0,-1249.0,-1404.0,-78.0,-807.0,-648.0,436.0,-646.0,340.0
19:40:14.213000,-1166.0,-1216.0,-1758.0,-610.0,-185.0,-1226.0,444.0,-657.0,331.0
19:40:14.218000,-980.0,-1307.0,-1457.0,-693.0,-110.0,-963.0,444.0,-657.0,331.0
19:40:14.222000,-1066.0,-1260.0,-1175.0,-817.0,-462.0,-668.0,444.0,-657.0,331.0
19:40:14.227000,-1297.0,-1346.0,-1057.0,-817.0,-462.0,-668.0,450.0,-648.0,316.0
19:40:14.232000,-1453.0,-1528.0,-906.0,-824.0,-697.0,-538.0,450.0,-648.0,316.0
19:40:14.237000,-1400.0,-1451.0,-864.0,-722.0,-748.0,-684.0,474.0,-646.0,301.0
19:40:14.241000,-1176.0,-1308.0,-917.0,-757.0,-672.0,-923.0,474.0,-646.0,301.0
19:40:14.245000,-1176.0,-1308.0,-917.0,-723.0,-581.0,-885.0,474.0,-646.0,301.0
19:40:14.251000,-1022.0,-1253.0,-947.0,-578.0,-545.0,-761.0,475.0,-642.0,288.0
19:40:14.255000,-1022.0,-1253.0,-947.0,-494.0,-577.0,-717.0,475.0,-642.0,288.0
19:40:14.260000,-1025.0,-1250.0,-956.0,-481.0,-551.0,-694.0,486.0,-652.0,273.0
19:40:14.265000,-989.0,-1272.0,-1042.0,-453.0,-564.0,-697.0,486.0,-652.0,273.0
19:40:14.269000,-922.0,-1246.0,-1052.0,-419.0,-670.0,-723.0,486.0,-652.0,273.0
19:40:14.274000,-855.0,-1223.0,-964.0,-474.0,-720.0,-690.0,475.0,-636.0,267.0
19:40:14.279000,-847.0,-1234.0,-951.0,-558.0,-715.0,-662.0,475.0,-636.0,267.0
19:40:14.284000,-807.0,-1241.0,-978.0,-590.0,-732.0,-682.0,495.0,-637.0,258.0
19:40:14.288000,-757.0,-1236.0,-957.0,-618.0,-726.0,-692.0,495.0,-637.0,258.0
19:40:14.292000,-710.0,-1217.0,-941.0,-682.0,-643.0,-676.0,495.0,-637.0,258.0
19:40:14.298000,-718.0,-1190.0,-1035.0,-679.0,-566.0,-649.0,496.0,-633.0,258.0
19:40:14.302000,-716.0,-1190.0,-1063.0,-596.0,-606.0,-640.0,496.0,-633.0,258.0
19:40:14.307000,-735.0,-1194.0,-975.0,-616.0,-611.0,-640.0,504.0,-625.0,240.0
19:40:14.312000,-714.0,-1195.0,-1007.0,-720.0,-541.0,-642.0,504.0,-625.0,240.0
19:40:14.316000,-692.0,-1199.0,-1080.0,-720.0,-541.0,-642.0,504.0,-625.0,240.0
19:40:14.321000,-723.0,-1181.0,-1015.0,-740.0,-499.0,-633.0,508.0,-625.0,223.0
19:40:14.326000,-754.0,-1164.0,-940.0,-740.0,-491.0,-615.0,508.0,-625.0,223.0
19:40:14.331000,-766.0,-1143.0,-1006.0,-747.0,-427.0,-612.0,528.0,-622.0,219.0
19:40:14.335000,-756.0,-1133.0,-1122.0,-750.0,-352.0,-618.0,528.0,-622.0,219.0
19:40:14.339000,-764.0,-1124.0,-1168.0,-744.0,-345.0,-601.0,528.0,-622.0,219.0
19:40:14.345000,-777.0,-1121.0,-1157.0,-708.0,-391.0,-582.0,525.0,-609.0,202.0
19:40:14.349000,-781.0,-1109.0,-1087.0,-672.0,-464.0,-575.0,525.0,-609.0,202.0
19:40:14.354000,-760.0,-1108.0,-1086.0,-707.0,-532.0,-577.0,528.0,-610.0,201.0
19:40:14.359000,-732.0,-1094.0,-1116.0,-773.0,-540.0,-576.0,528.0,-610.0,201.0
19:40:14.363000,-732.0,-1094.0,-1116.0,-813.0,-535.0,-568.0,528.0,-610.0,201.0
19:40:14.368000,-732.0,-1071.0,-1145.0,-867.0,-469.0,-550.0,537.0,-601.0,193.0
19:40:14.373000,-714.0,-1064.0,-1220.0,-869.0,-483.0,-536.0,537.0,-601.0,193.0
19:40:14.378000,-700.0,-1068.0,-1166.0,-781.0,-543.0,-522.0,544.0,-597.0,192.0
19:40:14.382000,-691.0,-1066.0,-1075.0,-716.0,-536.0,-529.0,544.0,-597.0,192.0
19:40:14.390000,-614.0,-1036.0,-1004.0,-823.0,-448.0,-532.0,534.0,-595.0,171.0
19:40:14.392000,-614.0,-1036.0,-1004.0,-823.0,-448.0,-532.0,534.0,-595.0,171.0
19:40:14.396000,-576.0,-1005.0,-1048.0,-839.0,-468.0,-525.0,534.0,-595.0,171.0
19:40:14.401000,-555.0,-990.0,-1018.0,-836.0,-483.0,-491.0,553.0,-582.0,163.0
19:40:14.406000,-550.0,-1002.0,-972.0,-832.0,-473.0,-476.0,553.0,-582.0,163.0
19:40:14.411000,-545.0,-1001.0,-939.0,-832.0,-473.0,-476.0,552.0,-582.0,162.0
19:40:14.415000,-568.0,-982.0,-911.0,-801.0,-433.0,-471.0,552.0,-582.0,162.0
19:40:14.419000,-569.0,-963.0,-872.0,-851.0,-375.0,-467.0,552.0,-582.0,162.0
19:40:14.425000,-557.0,-952.0,-936.0,-851.0,-375.0,-467.0,562.0,-562.0,157.0
19:40:14.429000,-518.0,-954.0,-985.0,-843.0,-357.0,-461.0,562.0,-562.0,157.0
19:40:14.434000,-506.0,-933.0,-919.0,-843.0,-357.0,-461.0,568.0,-565.0,159.0
19:40:14.439000,-497.0,-913.0,-852.0,-819.0,-402.0,-454.0,568.0,-565.0,159.0
19:40:14.443000,-475.0,-896.0,-826.0,-847.0,-406.0,-446.0,568.0,-565.0,159.0
19:40:14.448000,-461.0,-877.0,-830.0,-875.0,-406.0,-440.0,561.0,-565.0,144.0
19:40:14.453000,-430.0,-858.0,-841.0,-873.0,-411.0,-430.0,561.0,-565.0,144.0
19:40:14.458000,-396.0,-845.0,-878.0,-861.0,-390.0,-425.0,567.0,-550.0,139.0
19:40:14.462000,-373.0,-823.0,-918.0,-866.0,-382.0,-414.0,567.0,-550.0,139.0
19:40:14.466000,-373.0,-823.0,-918.0,-847.0,-401.0,-408.0,567.0,-550.0,139.0
19:40:14.472000,-341.0,-802.0,-831.0,-872.0,-412.0,-404.0,576.0,-543.0,129.0
19:40:14.476000,-326.0,-781.0,-823.0,-921.0,-352.0,-392.0,576.0,-543.0,129.0
19:40:14.481000,-315.0,-760.0,-854.0,-911.0,-362.0,-385.0,562.0,-549.0,112.0
19:40:14.486000,-297.0,-744.0,-774.0,-905.0,-390.0,-386.0,562.0,-549.0,112.0
19:40:14.490000,-294.0,-711.0,-712.0,-939.0,-359.0,-381.0,562.0,-549.0,112.0
19:40:14.495000,-270.0,-695.0,-667.0,-975.0,-322.0,-374.0,577.0,-538.0,123.0
19:40:14.500000,-252.0,-673.0,-673.0,-989.0,-275.0,-363.0,577.0,-538.0,123.0
19:40:14.505000,-243.0,-651.0,-736.0,-972.0,-232.0,-350.0,571.0,-535.0,120.0
19:40:14.509000,-217.0,-639.0,-772.0,-920.0,-242.0,-339.0,571.0,-535.0,120.0
19:40:14.513000,-221.0,-619.0,-711.0,-890.0,-268.0,-326.0,571.0,-535.0,120.0
19:40:14.519000,-232.0,-595.0,-639.0,-919.0,-254.0,-316.0,567.0,-531.0,103.0
19:40:14.523000,-226.0,-585.0,-617.0,-960.0,-258.0,-312.0,567.0,-531.0,103.0
19:40:14.528000,-214.0,-572.0,-599.0,-960.0,-258.0,-312.0,580.0,-525.0,99.0
19:40:14.533000,-215.0,-554.0,-624.0,-976.0,-231.0,-311.0,580.0,-525.0,99.0
19:40:14.537000,-200.0,-546.0,-616.0,-958.0,-231.0,-303.0,580.0,-525.0,99.0
19:40:14.542000,-194.0,-533.0,-583.0,-916.0,-251.0,-298.0,573.0,-529.0,99.0
19:40:14.547000,-193.0,-525.0,-553.0,-906.0,-265.0,-289.0,573.0,-529.0,99.0
19:40:14.552000,-179.0,-522.0,-564.0,-933.0,-231.0,-278.0,576.0,-514.0,99.0
19:40:14.556000,-172.0,-514.0,-608.0,-923.0,-192.0,-263.0,576.0,-514.0,99.0
19:40:14.560000,-170.0,-513.0,-561.0,-923.0,-192.0,-263.0,576.0,-514.0,99.0
19:40:14.566000,-168.0,-503.0,-515.0,-894.0,-189.0,-257.0,577.0,-514.0,93.0
19:40:14.570000,-168.0,-495.0,-541.0,-918.0,-147.0,-253.0,577.0,-514.0,93.0
19:40:14.575000,-169.0,-489.0,-591.0,-953.0,-116.0,-242.0,579.0,-504.0,91.0
19:40:14.580000,-169.0,-489.0,-591.0,-937.0,-132.0,-234.0,579.0,-504.0,91.0
19:40:14.584000,-167.0,-486.0,-532.0,-912.0,-161.0,-226.0,579.0,-504.0,91.0
19:40:14.589000,-184.0,-478.0,-429.0,-943.0,-125.0,-219.0,577.0,-514.0,90.0
19:40:14.594000,-211.0,-461.0,-411.0,-983.0,-71.0,-216.0,577.0,-514.0,90.0
19:40:14.598000,-212.0,-452.0,-418.0,-988.0,-76.0,-214.0,591.0,-502.0,76.0
19:40:14.603000,-210.0,-443.0,-380.0,-984.0,-95.0,-210.0,591.0,-502.0,76.0
19:40:14.607000,-231.0,-429.0,-358.0,-985.0,-74.0,-203.0,591.0,-502.0,76.0
19:40:14.613000,-247.0,-417.0,-363.0,-978.0,-73.0,-199.0,568.0,-502.0,93.0
19:40:14.617000,-261.0,-406.0,-320.0,-959.0,-104.0,-195.0,568.0,-502.0,93.0
19:40:14.622000,-270.0,-402.0,-205.0,-965.0,-98.0,-186.0,582.0,-486.0,73.0
19:40:14.627000,-293.0,-398.0,-155.0,-1000.0,-44.0,-178.0,582.0,-486.0,73.0
19:40:14.631000,-312.0,-391.0,-206.0,-1005.0,-28.0,-173.0,582.0,-486.0,73.0
19:40:14.636000,-317.0,-392.0,-221.0,-982.0,-67.0,-166.0,579.0,-501.0,70.0
19:40:14.640000,-348.0,-380.0,-196.0,-967.0,-98.0,-160.0,579.0,-501.0,70.0
19:40:14.645000,-358.0,-390.0,-127.0,-967.0,-98.0,-160.0,586.0,-498.0,90.0
19:40:14.650000,-389.0,-392.0,-103.0,-971.0,-85.0,-152.0,586.0,-498.0,90.0
19:40:14.655000,-423.0,-396.0,-146.0,-981.0,-18.0,-144.0,588.0,-498.0,73.0
19:40:14.660000,-450.0,-406.0,-162.0,-965.0,27.0,-136.0,588.0,-498.0,73.0
19:40:14.664000,-492.0,-413.0,-157.0,-951.0,31.0,-126.0,588.0,-498.0,73.0
19:40:14.669000,-521.0,-429.0,-164.0,-970.0,45.0,-117.0,583.0,-486.0,61.0
19:40:14.674000,-560.0,-443.0,-153.0,-980.0,41.0,-112.0,583.0,-486.0,61.0
19:40:14.678000,-590.0,-465.0,-97.0,-972.0,5.0,-110.0,586.0,-489.0,52.0
19:40:14.683000,-632.0,-481.0,-91.0,-986.0,-6.0,-107.0,586.0,-489.0,52.0
19:40:14.687000,-632.0,-481.0,-91.0,-1017.0,34.0,-97.0,586.0,-489.0,52.0
19:40:14.692000,-662.0,-504.0,-130.0,-1015.0,66.0,-91.0,591.0,-489.0,55.0
19:40:14.697000,-693.0,-529.0,-128.0,-976.0,56.0,-84.0,591.0,-489.0,55.0
19:40:14.702000,-745.0,-548.0,-107.0,-955.0,51.0,-76.0,570.0,-481.0,48.0
19:40:14.707000,-775.0,-569.0,-91.0,-995.0,85.0,-73.0,570.0,-481.0,48.0
19:40:14.711000,-815.0,-588.0,-143.0,-1029.0,99.0,-62.0,570.0,-481.0,48.0
19:40:14.716000,-860.0,-609.0,-167.0,-1000.0,67.0,-51.0,583.0,-475.0,37.0
19:40:14.721000,-899.0,-637.0,-91.0,-989.0,48.0,-45.0,583.0,-475.0,37.0
19:40:14.725000,-958.0,-651.0,-26.0,-1018.0,65.0,-42.0,576.0,-468.0,40.0
19:40:14.730000,-1001.0,-672.0,-16.0,-1056.0,86.0,-38.0,576.0,-468.0,40.0
19:40:14.734000,-1040.0,-694.0,-56.0,-1058.0,72.0,-32.0,576.0,-468.0,40.0
19:40:14.739000,-1084.0,-715.0,-85.0,-1021.0,21.0,-30.0,562.0,-477.0,54.0
19:40:14.744000,-1113.0,-740.0,-60.0,-1015.0,-5.0,-31.0,562.0,-477.0,54.0
19:40:14.749000,-1155.0,-760.0,-42.0,-1015.0,-5.0,-31.0,586.0,-469.0,27.0
19:40:14.754000,-1204.0,-779.0,-30.0,-1042.0,7.0,-30.0,586.0,-469.0,27.0
19:40:14.758000,-1260.0,-800.0,-14.0,-1071.0,37.0,-30.0,586.0,-469.0,27.0
19:40:14.763000,-1339.0,-830.0,11.0,-1102.0,84.0,-22.0,574.0,-468.0,25.0
19:40:14.768000,-1431.0,-872.0,46.0,-1108.0,127.0,-6.0,574.0,-468.0,25.0
19:40:14.772000,-1536.0,-920.0,51.0,-1074.0,158.0,17.0,573.0,-459.0,13.0
19:40:14.777000,-1629.0,-971.0,34.0,-1005.0,161.0,39.0,573.0,-459.0,13.0
19:40:14.781000,-1717.0,-1035.0,7.0,-947.0,145.0,62.0,573.0,-459.0,13.0
19:40:14.786000,-1819.0,-1109.0,-28.0,-900.0,137.0,98.0,570.0,-451.0,-1.0
19:40:14.791000,-1911.0,-1191.0,-38.0,-832.0,132.0,130.0,570.0,-451.0,-1.0
19:40:14.796000,-2002.0,-1271.0,-57.0,-783.0,126.0,154.0,561.0,-448.0,-6.0
19:40:14.801000,-2002.0,-1271.0,-57.0,-774.0,123.0,180.0,561.0,-448.0,-6.0
19:40:14.805000,-2108.0,-1341.0,-125.0,-774.0,135.0,213.0,561.0,-448.0,-6.0
19:40:14.810000,-2209.0,-1420.0,-210.0,-755.0,141.0,249.0,558.0,-441.0,-13.0
19:40:14.815000,-2314.0,-1493.0,-246.0,-736.0,128.0,284.0,558.0,-441.0,-13.0
19:40:14.819000,-2429.0,-1555.0,-248.0,-748.0,132.0,324.0,556.0,-426.0,-24.0
19:40:14.824000,-2545.0,-1623.0,-291.0,-776.0,175.0,366.0,556.0,-426.0,-24.0
19:40:14.828000,-2659.0,-1682.0,-401.0,-777.0,193.0,401.0,556.0,-426.0,-24.0
19:40:14.833000,-2760.0,-1729.0,-466.0,-782.0,152.0,438.0,529.0,-415.0,-28.0
19:40:14.838000,-2866.0,-1766.0,-478.0,-839.0,134.0,473.0,529.0,-415.0,-28.0
19:40:14.843000,-2968.0,-1806.0,-538.0,-875.0,149.0,506.0,538.0,-406.0,-43.0
19:40:14.848000,-3057.0,-1853.0,-588.0,-850.0,131.0,541.0,538.0,-406.0,-43.0
19:40:14.852000,-3165.0,-1888.0,-597.0,-817.0,130.0,572.0,538.0,-406.0,-43.0
19:40:14.856000,-3253.0,-1924.0,-623.0,-834.0,191.0,602.0,528.0,-373.0,-58.0
19:40:14.862000,-3337.0,-1952.0,-760.0,-850.0,226.0,639.0,528.0,-373.0,-58.0
19:40:14.866000,-3423.0,-1990.0,-855.0,-850.0,226.0,639.0,513.0,-355.0,-46.0
19:40:14.871000,-3516.0,-2016.0,-879.0,-836.0,213.0,677.0,513.0,-355.0,-46.0
19:40:14.875000,-3597.0,-2055.0,-907.0,-855.0,235.0,714.0,513.0,-355.0,-46.0
19:40:14.880000,-3676.0,-2079.0,-956.0,-880.0,267.0,750.0,504.0,-345.0,-64.0
19:40:14.885000,-3745.0,-2107.0,-1045.0,-904.0,289.0,778.0,504.0,-345.0,-64.0
19:40:14.890000,-3806.0,-2139.0,-1078.0,-910.0,278.0,814.0,493.0,-318.0,-72.0
19:40:14.895000,-3848.0,-2161.0,-1119.0,-904.0,265.0,845.0,493.0,-318.0,-72.0
19:40:14.899000,-3848.0,-2161.0,-1119.0,-918.0,243.0,869.0,493.0,-318.0,-72.0
19:40:14.904000,-3921.0,-2187.0,-1082.0,-924.0,195.0,894.0,472.0,-262.0,-52.0
19:40:14.909000,-3921.0,-2187.0,-1082.0,-962.0,219.0,910.0,472.0,-262.0,-52.0
19:40:14.913000,-3947.0,-2193.0,-1142.0,-989.0,272.0,924.0,472.0,-262.0,-52.0
19:40:14.918000,-3960.0,-2198.0,-1172.0,-978.0,277.0,941.0,472.0,-262.0,-52.0
19:40:14.922000,-3985.0,-2198.0,-1150.0,-990.0,297.0,967.0,472.0,-262.0,-52.0
19:40:14.927000,-4011.0,-2202.0,-1150.0,-985.0,313.0,988.0,442.0,-220.0,-69.0
19:40:14.932000,-4025.0,-2209.0,-1135.0,-951.0,288.0,1005.0,442.0,-220.0,-69.0
19:40:14.937000,-4023.0,-2212.0,-1118.0,-919.0,266.0,1009.0,439.0,-202.0,-64.0
19:40:14.942000,-4000.0,-2210.0,-1076.0,-904.0,243.0,1023.0,439.0,-202.0,-64.0
19:40:14.949000,-3942.0,-2221.0,-1080.0,-877.0,267.0,1033.0,418.0,-175.0,-52.0
19:40:14.951000,-3942.0,-2221.0,-1080.0,-877.0,267.0,1033.0,418.0,-175.0,-52.0
19:40:14.955000,-3906.0,-2224.0,-1050.0,-828.0,251.0,1033.0,418.0,-175.0,-52.0
19:40:14.960000,-3864.0,-2218.0,-1018.0,-827.0,271.0,1021.0,409.0,-165.0,-36.0
19:40:14.965000,-3805.0,-2211.0,-1000.0,-829.0,274.0,1019.0,409.0,-165.0,-36.0
19:40:14.970000,-3766.0,-2210.0,-932.0,-829.0,274.0,1019.0,394.0,-139.0,-31.0
19:40:14.974000,-3733.0,-2187.0,-828.0,-809.0,251.0,1007.0,394.0,-139.0,-31.0
19:40:14.979000,-3684.0,-2174.0,-752.0,-803.0,254.0,986.0,394.0,-139.0,-31.0
19:40:14.984000,-3635.0,-2137.0,-762.0,-821.0,299.0,958.0,376.0,-121.0,-22.0
19:40:14.989000,-3586.0,-2095.0,-802.0,-870.0,421.0,913.0,376.0,-121.0,-22.0
19:40:14.993000,-3528.0,-2071.0,-821.0,-870.0,421.0,913.0,351.0,-91.0,22.0
19:40:14.998000,-3472.0,-2037.0,-803.0,-861.0,443.0,903.0,351.0,-91.0,22.0
19:40:15.002000,-3427.0,-2008.0,-757.0,-834.0,421.0,893.0,351.0,-91.0,22.0
19:40:15.007000,-3377.0,-1979.0,-702.0,-810.0,385.0,879.0,343.0,-70.0,21.0
19:40:15.012000,-3315.0,-1944.0,-655.0,-783.0,345.0,847.0,343.0,-70.0,21.0
19:40:15.017000,-3248.0,-1944.0,-651.0,-768.0,337.0,818.0,337.0,-61.0,42.0
19:40:15.021000,-3248.0,-1918.0,-651.0,-753.0,372.0,786.0,337.0,-61.0,42.0
19:40:15.026000,-3183.0,-1879.0,-667.0,-740.0,414.0,750.0,337.0,-61.0,42.0
19:40:15.031000,-3110.0,-1841.0,-686.0,-744.0,455.0,716.0,334.0,-42.0,51.0
19:40:15.036000,-3041.0,-1798.0,-720.0,-735.0,457.0,687.0,334.0,-42.0,51.0
19:40:15.040000,-2978.0,-1759.0,-697.0,-730.0,446.0,661.0,307.0,-49.0,76.0
19:40:15.045000,-2907.0,-1726.0,-666.0,-747.0,468.0,629.0,307.0,-49.0,76.0
19:40:15.049000,-2837.0,-1683.0,-651.0,-756.0,489.0,604.0,307.0,-49.0,76.0
19:40:15.054000,-2766.0,-1648.0,-640.0,-740.0,489.0,581.0,307.0,-31.0,84.0
19:40:15.059000,-2692.0,-1615.0,-630.0,-707.0,482.0,555.0,307.0,-31.0,84.0
19:40:15.064000,-2614.0,-1582.0,-627.0,-670.0,477.0,519.0,298.0,-22.0,123.0
19:40:15.068000,-2526.0,-1537.0,-632.0,-645.0,484.0,484.0,298.0,-22.0,123.0
19:40:15.073000,-2439.0,-1493.0,-645.0,-645.0,503.0,459.0,298.0,-22.0,123.0
19:40:15.078000,-2356.0,-1449.0,-653.0,-657.0,530.0,437.0,279.0,-16.0,144.0
19:40:15.083000,-2283.0,-1408.0,-657.0,-657.0,530.0,437.0,279.0,-16.0,144.0
19:40:15.087000,-2212.0,-1371.0,-651.0,-660.0,562.0,418.0,292.0,-9.0,153.0
19:40:15.092000,-2142.0,-1333.0,-632.0,-605.0,597.0,380.0,292.0,-9.0,153.0
19:40:15.096000,-2072.0,-1295.0,-609.0,-605.0,597.0,380.0,292.0,-9.0,153.0
19:40:15.101000,-2006.0,-1261.0,-590.0,-589.0,602.0,366.0,274.0,-12.0,168.0
19:40:15.106000,-1938.0,-1229.0,-581.0,-586.0,606.0,352.0,274.0,-12.0,168.0
19:40:15.111000,-1869.0,-1201.0,-581.0,-590.0,611.0,335.0,268.0,-1.0,174.0
19:40:15.115000,-1804.0,-1182.0,-563.0,-584.0,606.0,321.0,268.0,-1.0,174.0
19:40:15.120000,-1804.0,-1182.0,-563.0,-554.0,589.0,302.0,268.0,-1.0,174.0
19:40:15.125000,-1680.0,-1131.0,-498.0,-519.0,588.0,282.0,283.0,-4.0,201.0
19:40:15.130000,-1680.0,-1131.0,-498.0,-499.0,615.0,271.0,283.0,-4.0,201.0
19:40:15.134000,-1626.0,-1112.0,-492.0,-487.0,654.0,254.0,267.0,1.0,204.0
19:40:15.139000,-1570.0,-1089.0,-506.0,-481.0,690.0,234.0,267.0,1.0,204.0
19:40:15.143000,-1514.0,-1064.0,-529.0,-470.0,711.0,222.0,267.0,1.0,204.0
19:40:15.148000,-1465.0,-1044.0,-530.0,-461.0,724.0,211.0,247.0,0.0,226.0
19:40:15.153000,-1420.0,-1022.0,-518.0,-463.0,733.0,197.0,247.0,0.0,226.0
19:40:15.158000,-1374.0,-998.0,-518.0,-467.0,743.0,181.0,253.0,1.0,238.0
19:40:15.162000,-1329.0,-969.0,-539.0,-474.0,759.0,162.0,253.0,1.0,238.0
19:40:15.167000,-1284.0,-933.0,-570.0,-482.0,773.0,144.0,253.0,1.0,238.0
19:40:15.172000,-1243.0,-898.0,-593.0,-485.0,782.0,132.0,241.0,3.0,244.0
19:40:15.177000,-1206.0,-865.0,-592.0,-480.0,777.0,122.0,241.0,3.0,244.0
19:40:15.181000,-1170.0,-835.0,-570.0,-480.0,777.0,122.0,241.0,9.0,252.0
19:40:15.186000,-1132.0,-806.0,-548.0,-458.0,756.0,102.0,241.0,9.0,252.0
19:40:15.190000,-1094.0,-776.0,-527.0,-458.0,756.0,102.0,241.0,9.0,252.0
19:40:15.195000,-1054.0,-744.0,-499.0,-440.0,752.0,91.0,238.0,3.0,253.0
19:40:15.200000,-1012.0,-714.0,-466.0,-423.0,743.0,78.0,238.0,3.0,253.0
19:40:15.204000,-972.0,-683.0,-433.0,-411.0,745.0,57.0,238.0,3.0,282.0
19:40:15.209000,-937.0,-650.0,-404.0,-411.0,745.0,57.0,238.0,3.0,282.0
19:40:15.214000,-908.0,-614.0,-380.0,-410.0,760.0,50.0,238.0,3.0,282.0
19:40:15.219000,-882.0,-581.0,-363.0,-408.0,780.0,43.0,235.0,-9.0,270.0
19:40:15.224000,-860.0,-550.0,-350.0,-406.0,799.0,37.0,235.0,-9.0,270.0
19:40:15.228000,-838.0,-522.0,-349.0,-399.0,811.0,34.0,235.0,6.0,282.0
19:40:15.233000,-816.0,-497.0,-352.0,-381.0,813.0,30.0,235.0,6.0,282.0
19:40:15.237000,-816.0,-497.0,-352.0,-353.0,808.0,25.0,235.0,6.0,282.0
19:40:15.242000,-795.0,-473.0,-343.0,-330.0,799.0,19.0,232.0,-9.0,288.0
19:40:15.247000,-769.0,-458.0,-336.0,-320.0,801.0,17.0,232.0,-9.0,288.0
19:40:15.251000,-739.0,-448.0,-354.0,-312.0,806.0,19.0,228.0,-6.0,298.0
19:40:15.256000,-708.0,-443.0,-380.0,-292.0,795.0,22.0,228.0,-6.0,298.0
19:40:15.261000,-674.0,-441.0,-389.0,-271.0,780.0,28.0,211.0,0.0,300.0
19:40:15.266000,-641.0,-446.0,-387.0,-253.0,773.0,35.0,211.0,0.0,300.0
19:40:15.270000,-606.0,-452.0,-389.0,-234.0,770.0,40.0,211.0,0.0,300.0
19:40:15.275000,-569.0,-455.0,-383.0,-217.0,763.0,44.0,228.0,-10.0,297.0
19:40:15.280000,-534.0,-455.0,-359.0,-209.0,761.0,51.0,228.0,-10.0,297.0
19:40:15.285000,-506.0,-454.0,-326.0,-209.0,773.0,51.0,213.0,-6.0,309.0
19:40:15.289000,-483.0,-450.0,-294.0,-231.0,790.0,69.0,213.0,-6.0,309.0
19:40:15.293000,-466.0,-441.0,-266.0,-249.0,804.0,80.0,213.0,-6.0,309.0
19:40:15.299000,-456.0,-432.0,-236.0,-254.0,811.0,93.0,222.0,-1.0,316.0
19:40:15.303000,-452.0,-423.0,-197.0,-254.0,811.0,93.0,222.0,-1.0,316.0
19:40:15.308000,-455.0,-411.0,-147.0,-246.0,812.0,105.0,211.0,1.0,318.0
19:40:15.313000,-462.0,-398.0,-93.0,-239.0,813.0,115.0,211.0,1.0,318.0
19:40:15.317000,-473.0,-383.0,-42.0,-240.0,813.0,126.0,211.0,1.0,318.0
19:40:15.322000,-483.0,-366.0,-7.0,-243.0,816.0,134.0,214.0,6.0,318.0
19:40:15.327000,-491.0,-349.0,7.0,-248.0,825.0,137.0,214.0,6.0,318.0
19:40:15.332000,-497.0,-334.0,14.0,-255.0,831.0,139.0,220.0,7.0,324.0
19:40:15.336000,-501.0,-322.0,35.0,-258.0,824.0,141.0,220.0,7.0,324.0
19:40:15.340000,-501.0,-322.0,35.0,-260.0,801.0,144.0,220.0,7.0,324.0
19:40:15.346000,-504.0,-308.0,64.0,-258.0,763.0,142.0,213.0,0.0,348.0
19:40:15.350000,-499.0,-297.0,92.0,-243.0,729.0,140.0,213.0,0.0,348.0
19:40:15.355000,-486.0,-287.0,106.0,-215.0,706.0,137.0,213.0,0.0,348.0
19:40:15.360000,-467.0,-279.0,105.0,-187.0,696.0,135.0,213.0,0.0,348.0
19:40:15.364000,-444.0,-271.0,101.0,-169.0,686.0,132.0,213.0,0.0,348.0
19:40:15.369000,-420.0,-263.0,112.0,-169.0,673.0,125.0,223.0,-12.0,339.0
19:40:15.374000,-393.0,-251.0,126.0,-190.0,668.0,118.0,223.0,-12.0,339.0
19:40:15.379000,-364.0,-233.0,126.0,-218.0,675.0,117.0,223.0,-7.0,337.0
19:40:15.383000,-333.0,-219.0,102.0,-234.0,687.0,118.0,223.0,-7.0,337.0
19:40:15.387000,-301.0,-205.0,65.0,-227.0,692.0,118.0,223.0,-7.0,337.0
19:40:15.393000,-267.0,-193.0,36.0,-203.0,681.0,116.0,225.0,-4.0,337.0
19:40:15.397000,-230.0,-179.0,26.0,-186.0,662.0,113.0,225.0,-4.0,337.0
19:40:15.402000,-193.0,-171.0,30.0,-186.0,662.0,113.0,220.0,-4.0,333.0
19:40:15.407000,-158.0,-165.0,41.0,-217.0,652.0,111.0,220.0,-4.0,333.0
19:40:15.411000,-121.0,-161.0,44.0,-217.0,652.0,111.0,220.0,-4.0,333.0
19:40:15.416000,-86.0,-160.0,36.0,-246.0,671.0,110.0,228.0,1.0,346.0
19:40:15.421000,-58.0,-161.0,28.0,-259.0,702.0,112.0,228.0,1.0,346.0
19:40:15.426000,-35.0,-164.0,42.0,-256.0,729.0,115.0,226.0,-10.0,343.0
19:40:15.430000,-16.0,-170.0,65.0,-247.0,743.0,119.0,226.0,-10.0,343.0
19:40:15.434000,3.0,-180.0,81.0,-236.0,748.0,124.0,226.0,-10.0,343.0
19:40:15.440000,20.0,-193.0,86.0,-218.0,746.0,133.0,232.0,-13.0,349.0
19:40:15.444000,36.0,-205.0,96.0,-198.0,740.0,143.0,232.0,-13.0,349.0
19:40:15.449000,51.0,-216.0,112.0,-188.0,736.0,147.0,229.0,-9.0,345.0
19:40:15.454000,64.0,-228.0,117.0,-192.0,742.0,151.0,229.0,-9.0,345.0
19:40:15.458000,64.0,-228.0,117.0,-203.0,756.0,158.0,229.0,-9.0,345.0
19:40:15.463000,79.0,-242.0,116.0,-209.0,756.0,168.0,229.0,-1.0,345.0
19:40:15.468000,94.0,-259.0,120.0,-204.0,737.0,175.0,229.0,-1.0,345.0
19:40:15.473000,112.0,-270.0,122.0,-200.0,714.0,177.0,234.0,6.0,345.0
19:40:15.477000,132.0,-275.0,114.0,-201.0,703.0,179.0,234.0,6.0,345.0
19:40:15.481000,157.0,-278.0,89.0,-204.0,708.0,182.0,234.0,6.0,345.0
19:40:15.487000,182.0,-277.0,52.0,-207.0,715.0,181.0,237.0,-6.0,342.0
19:40:15.491000,210.0,-268.0,20.0,-222.0,708.0,178.0,237.0,-6.0,342.0
19:40:15.496000,237.0,-260.0,0.0,-241.0,713.0,174.0,229.0,-10.0,340.0
19:40:15.501000,266.0,-247.0,-35.0,-251.0,726.0,170.0,229.0,-10.0,340.0
19:40:15.505000,290.0,-231.0,-85.0,-262.0,728.0,171.0,229.0,-10.0,340.0
19:40:15.510000,310.0,-218.0,-133.0,-273.0,739.0,162.0,243.0,-4.0,342.0
19:40:15.515000,340.0,-199.0,-172.0,-285.0,753.0,154.0,243.0,-4.0,342.0
19:40:15.520000,361.0,-182.0,-207.0,-285.0,753.0,154.0,232.0,-1.0,337.0
19:40:15.524000,382.0,-167.0,-238.0,-295.0,772.0,155.0,232.0,-1.0,337.0
19:40:15.528000,405.0,-154.0,-273.0,-299.0,800.0,154.0,232.0,-1.0,337.0
19:40:15.534000,429.0,-138.0,-318.0,-300.0,826.0,153.0,235.0,-4.0,334.0
19:40:15.538000,457.0,-126.0,-371.0,-295.0,846.0,149.0,235.0,-4.0,334.0
19:40:15.543000,487.0,-114.0,-413.0,-281.0,857.0,146.0,232.0,3.0,346.0
19:40:15.548000,517.0,-101.0,-444.0,-269.0,861.0,142.0,232.0,3.0,346.0
19:40:15.552000,517.0,-101.0,-444.0,-271.0,873.0,141.0,232.0,3.0,346.0
19:40:15.557000,544.0,-92.0,-477.0,-285.0,889.0,137.0,238.0,0.0,325.0
19:40:15.562000,604.0,-74.0,-539.0,-291.0,902.0,129.0,238.0,0.0,325.0
19:40:15.567000,604.0,-74.0,-539.0,-290.0,923.0,125.0,220.0,9.0,324.0
19:40:15.571000,634.0,-73.0,-574.0,-279.0,948.0,121.0,220.0,9.0,324.0
19:40:15.575000,664.0,-75.0,-610.0,-248.0,959.0,117.0,220.0,9.0,324.0
19:40:15.581000,692.0,-81.0,-627.0,-215.0,960.0,118.0,220.0,1.0,318.0
19:40:15.585000,719.0,-91.0,-632.0,-194.0,970.0,118.0,220.0,1.0,318.0
19:40:15.590000,743.0,-100.0,-636.0,-177.0,982.0,115.0,204.0,-1.0,313.0
19:40:15.595000,767.0,-114.0,-634.0,-163.0,986.0,112.0,204.0,-1.0,313.0
19:40:15.599000,790.0,-128.0,-634.0,-153.0,986.0,107.0,204.0,-1.0,313.0
19:40:15.604000,818.0,-145.0,-634.0,-141.0,985.0,103.0,208.0,0.0,312.0
19:40:15.609000,847.0,-162.0,-628.0,-120.0,982.0,103.0,208.0,0.0,312.0
19:40:15.614000,879.0,-179.0,-607.0,-120.0,982.0,103.0,202.0,3.0,300.0
19:40:15.618000,910.0,-200.0,-577.0,-87.0,948.0,113.0,202.0,3.0,300.0
19:40:15.622000,947.0,-221.0,-546.0,-69.0,923.0,122.0,202.0,3.0,300.0
19:40:15.628000,994.0,-245.0,-507.0,-69.0,923.0,122.0,201.0,10.0,303.0
19:40:15.632000,1044.0,-268.0,-454.0,-52.0,848.0,152.0,201.0,10.0,303.0
19:40:15.637000,1099.0,-291.0,-399.0,-52.0,848.0,152.0,190.0,12.0,286.0
19:40:15.642000,1162.0,-315.0,-354.0,-65.0,836.0,169.0,190.0,12.0,286.0
19:40:15.646000,1221.0,-338.0,-312.0,-82.0,839.0,191.0,190.0,12.0,286.0
19:40:15.651000,1281.0,-356.0,-267.0,-94.0,835.0,212.0,198.0,12.0,270.0
19:40:15.656000,1344.0,-372.0,-223.0,-95.0,823.0,230.0,198.0,12.0,270.0
19:40:15.661000,1406.0,-385.0,-187.0,-105.0,808.0,253.0,199.0,13.0,255.0
19:40:15.665000,1474.0,-393.0,-163.0,-131.0,792.0,272.0,199.0,13.0,255.0
19:40:15.669000,1474.0,-393.0,-163.0,-161.0,783.0,288.0,199.0,13.0,255.0
19:40:15.675000,1545.0,-397.0,-151.0,-178.0,772.0,309.0,192.0,10.0,249.0
19:40:15.679000,1617.0,-401.0,-139.0,-184.0,751.0,331.0,192.0,10.0,249.0
19:40:15.684000,1689.0,-399.0,-122.0,-206.0,723.0,352.0,184.0,1.0,256.0
19:40:15.689000,1767.0,-391.0,-110.0,-239.0,708.0,378.0,184.0,1.0,256.0
19:40:15.693000,1845.0,-379.0,-103.0,-252.0,697.0,402.0,184.0,1.0,256.0
19:40:15.698000,1924.0,-361.0,-87.0,-244.0,679.0,424.0,192.0,15.0,231.0
19:40:15.703000,2001.0,-333.0,-60.0,-269.0,657.0,446.0,192.0,15.0,231.0
19:40:15.708000,2072.0,-305.0,-37.0,-324.0,646.0,463.0,184.0,13.0,222.0
19:40:15.712000,2146.0,-269.0,-29.0,-374.0,645.0,482.0,184.0,13.0,222.0
19:40:15.716000,2220.0,-232.0,-29.0,-393.0,642.0,502.0,184.0,13.0,222.0
19:40:15.722000,2288.0,-188.0,-17.0,-376.0,638.0,520.0,183.0,7.0,196.0
19:40:15.726000,2352.0,-133.0,0.0,-361.0,643.0,544.0,183.0,7.0,196.0
19:40:15.731000,2408.0,-77.0,2.0,-361.0,643.0,544.0,201.0,16.0,178.0
19:40:15.736000,2465.0,-20.0,11.0,-356.0,637.0,569.0,201.0,16.0,178.0
19:40:15.740000,2517.0,35.0,23.0,-352.0,637.0,592.0,201.0,16.0,178.0
19:40:15.745000,2569.0,89.0,0.0,-363.0,637.0,613.0,195.0,3.0,159.0
19:40:15.750000,2614.0,149.0,-47.0,-382.0,656.0,626.0,195.0,3.0,159.0
19:40:15.755000,2654.0,214.0,-44.0,-379.0,657.0,638.0,192.0,1.0,139.0
19:40:15.759000,2685.0,273.0,0.0,-382.0,626.0,655.0,192.0,1.0,139.0
19:40:15.763000,2726.0,322.0,21.0,-416.0,604.0,672.0,192.0,1.0,139.0
19:40:15.769000,2778.0,365.0,11.0,-452.0,599.0,685.0,195.0,-6.0,126.0
19:40:15.773000,2839.0,395.0,8.0,-458.0,583.0,704.0,195.0,-6.0,126.0
19:40:15.778000,2899.0,433.0,35.0,-436.0,541.0,720.0,192.0,-6.0,103.0
19:40:15.783000,2899.0,433.0,35.0,-417.0,491.0,729.0,192.0,-6.0,103.0
19:40:15.787000,2956.0,481.0,76.0,-415.0,455.0,749.0,192.0,-6.0,103.0
19:40:15.792000,3007.0,518.0,122.0,-428.0,428.0,769.0,199.0,-19.0,67.0
19:40:15.797000,3056.0,556.0,173.0,-468.0,409.0,778.0,199.0,-19.0,67.0
19:40:15.802000,3115.0,597.0,203.0,-532.0,423.0,792.0,202.0,-28.0,49.0
19:40:15.806000,3174.0,637.0,188.0,-586.0,454.0,817.0,202.0,-28.0,49.0
19:40:15.810000,3211.0,685.0,147.0,-599.0,456.0,836.0,202.0,-28.0,49.0
19:40:15.816000,3246.0,737.0,128.0,-586.0,425.0,856.0,202.0,-46.0,31.0
19:40:15.820000,3282.0,768.0,118.0,-566.0,394.0,882.0,202.0,-46.0,31.0
19:40:15.825000,3320.0,798.0,101.0,-555.0,376.0,901.0,205.0,-48.0,9.0
19:40:15.830000,3346.0,849.0,81.0,-578.0,377.0,924.0,205.0,-48.0,9.0
19:40:15.834000,3369.0,907.0,49.0,-605.0,390.0,941.0,205.0,-48.0,9.0
19:40:15.839000,3397.0,954.0,-8.0,-610.0,382.0,960.0,199.0,-63.0,-16.0
19:40:15.844000,3404.0,1007.0,-59.0,-595.0,347.0,982.0,199.0,-63.0,-16.0
19:40:15.849000,3398.0,1057.0,-62.0,-595.0,347.0,982.0,213.0,-73.0,-39.0
19:40:15.853000,3402.0,1101.0,-42.0,-592.0,304.0,995.0,213.0,-73.0,-39.0
19:40:15.857000,3409.0,1159.0,-46.0,-641.0,278.0,1000.0,213.0,-73.0,-39.0
19:40:15.863000,3442.0,1217.0,-72.0,-734.0,274.0,1002.0,222.0,-111.0,-73.0
19:40:15.867000,3486.0,1248.0,-156.0,-820.0,256.0,1038.0,222.0,-111.0,-73.0
19:40:15.872000,3487.0,1267.0,-226.0,-903.0,87.0,1123.0,213.0,-130.0,-84.0
19:40:15.877000,3459.0,1294.0,-47.0,-660.0,96.0,1147.0,213.0,-130.0,-84.0
19:40:15.881000,3459.0,1294.0,-47.0,-382.0,253.0,1121.0,213.0,-130.0,-84.0
19:40:15.886000,3411.0,1336.0,-78.0,-424.0,314.0,1138.0,225.0,-148.0,-97.0
19:40:15.891000,3411.0,1362.0,-98.0,-453.0,305.0,1138.0,225.0,-148.0,-97.0
19:40:15.896000,3411.0,1362.0,-98.0,-486.0,149.0,1133.0,240.0,-171.0,-121.0
19:40:15.900000,3430.0,1370.0,-117.0,-499.0,12.0,1130.0,240.0,-171.0,-121.0
19:40:15.904000,3460.0,1397.0,-130.0,-468.0,-68.0,1121.0,240.0,-171.0,-121.0
19:40:15.910000,3489.0,1435.0,-104.0,-439.0,-101.0,1139.0,255.0,-187.0,-129.0
19:40:15.914000,3497.0,1456.0,-45.0,-456.0,-96.0,1145.0,255.0,-187.0,-129.0
19:40:15.919000,3495.0,1483.0,-10.0,-509.0,-68.0,1134.0,250.0,-202.0,-127.0
19:40:15.924000,3481.0,1524.0,-2.0,-550.0,-53.0,1114.0,250.0,-202.0,-127.0
19:40:15.928000,3479.0,1557.0,13.0,-580.0,-109.0,1088.0,250.0,-202.0,-127.0
19:40:15.933000,3480.0,1596.0,67.0,-610.0,-196.0,1068.0,286.0,-246.0,-157.0
19:40:15.938000,3470.0,1636.0,127.0,-649.0,-259.0,1051.0,286.0,-246.0,-157.0
19:40:15.943000,3472.0,1673.0,168.0,-649.0,-259.0,1051.0,292.0,-276.0,-169.0
19:40:15.947000,3477.0,1704.0,203.0,-648.0,-349.0,1034.0,292.0,-276.0,-169.0
19:40:15.951000,3462.0,1726.0,238.0,-622.0,-402.0,1049.0,292.0,-276.0,-169.0
19:40:15.957000,3447.0,1739.0,271.0,-622.0,-402.0,1049.0,297.0,-306.0,-177.0
19:40:15.961000,3428.0,1744.0,238.0,-597.0,-413.0,1063.0,297.0,-306.0,-177.0
19:40:15.966000,3410.0,1754.0,191.0,-586.0,-424.0,1105.0,304.0,-330.0,-184.0
19:40:15.971000,3380.0,1770.0,169.0,-545.0,-421.0,1118.0,304.0,-330.0,-184.0
19:40:15.975000,3334.0,1771.0,150.0,-523.0,-371.0,1117.0,304.0,-330.0,-184.0
19:40:15.980000,3285.0,1762.0,106.0,-539.0,-292.0,1120.0,331.0,-343.0,-184.0
19:40:15.985000,3234.0,1736.0,44.0,-563.0,-233.0,1141.0,331.0,-343.0,-184.0
19:40:15.990000,3168.0,1712.0,46.0,-544.0,-227.0,1155.0,339.0,-375.0,-187.0
19:40:15.994000,3168.0,1712.0,46.0,-487.0,-285.0,1149.0,339.0,-375.0,-187.0
19:40:15.998000,3111.0,1680.0,105.0,-465.0,-351.0,1154.0,339.0,-375.0,-187.0
19:40:16.004000,3059.0,1647.0,114.0,-442.0,-366.0,1148.0,369.0,-408.0,-186.0
19:40:16.008000,2986.0,1641.0,95.0,-423.0,-365.0,1151.0,369.0,-408.0,-186.0
19:40:16.013000,2905.0,1617.0,154.0,-448.0,-319.0,1156.0,381.0,-421.0,-180.0
19:40:16.018000,2819.0,1593.0,217.0,-500.0,-258.0,1130.0,381.0,-421.0,-180.0
19:40:16.022000,2720.0,1584.0,266.0,-542.0,-258.0,1099.0,381.0,-421.0,-180.0
19:40:16.027000,2640.0,1553.0,323.0,-571.0,-340.0,1076.0,379.0,-441.0,-174.0
19:40:16.032000,2592.0,1516.0,358.0,-576.0,-451.0,1053.0,379.0,-441.0,-174.0
19:40:16.037000,2559.0,1474.0,378.0,-556.0,-534.0,1045.0,402.0,-460.0,-171.0
19:40:16.041000,2534.0,1432.0,375.0,-533.0,-579.0,1038.0,402.0,-460.0,-171.0
19:40:16.045000,2508.0,1398.0,368.0,-515.0,-575.0,1029.0,402.0,-460.0,-171.0
19:40:16.051000,2471.0,1371.0,361.0,-514.0,-525.0,1020.0,409.0,-483.0,-162.0
19:40:16.055000,2426.0,1351.0,351.0,-522.0,-438.0,1002.0,409.0,-483.0,-162.0
19:40:16.060000,2366.0,1337.0,343.0,-522.0,-438.0,1002.0,411.0,-499.0,-157.0
19:40:16.065000,2291.0,1330.0,314.0,-554.0,-342.0,977.0,411.0,-499.0,-157.0
19:40:16.069000,2198.0,1332.0,258.0,-611.0,-251.0,941.0,411.0,-499.0,-157.0
19:40:16.074000,2097.0,1337.0,210.0,-681.0,-175.0,901.0,436.0,-532.0,-135.0
19:40:16.078000,2001.0,1341.0,178.0,-744.0,-164.0,798.0,436.0,-532.0,-135.0
19:40:16.084000,1911.0,1343.0,157.0,-744.0,-164.0,798.0,438.0,-537.0,-126.0
19:40:16.088000,1824.0,1343.0,133.0,-742.0,-219.0,740.0,438.0,-537.0,-126.0
19:40:16.093000,1743.0,1342.0,100.0,-763.0,-248.0,698.0,450.0,-555.0,-118.0
19:40:16.098000,1662.0,1327.0,77.0,-773.0,-255.0,674.0,450.0,-555.0,-118.0
19:40:16.102000,1662.0,1327.0,77.0,-742.0,-269.0,656.0,450.0,-555.0,-118.0
19:40:16.107000,1508.0,1292.0,76.0,-702.0,-298.0,628.0,457.0,-567.0,-124.0
19:40:16.112000,1508.0,1292.0,76.0,-670.0,-334.0,602.0,457.0,-567.0,-124.0
19:40:16.117000,1442.0,1272.0,86.0,-652.0,-374.0,584.0,465.0,-567.0,-112.0
19:40:16.121000,1378.0,1248.0,92.0,-640.0,-396.0,563.0,465.0,-567.0,-112.0
19:40:16.125000,1311.0,1225.0,84.0,-627.0,-395.0,541.0,465.0,-567.0,-112.0
19:40:16.131000,1242.0,1200.0,66.0,-624.0,-400.0,508.0,466.0,-576.0,-102.0
19:40:16.135000,1176.0,1177.0,48.0,-629.0,-420.0,473.0,466.0,-576.0,-102.0
19:40:16.140000,1111.0,1150.0,24.0,-638.0,-428.0,446.0,475.0,-574.0,-90.0
19:40:16.145000,1045.0,1128.0,-7.0,-659.0,-406.0,429.0,475.0,-574.0,-90.0
19:40:16.149000,970.0,1106.0,-53.0,-675.0,-374.0,414.0,475.0,-574.0,-90.0
19:40:16.154000,896.0,1084.0,-81.0,-676.0,-354.0,394.0,481.0,-582.0,-91.0
19:40:16.159000,820.0,1059.0,-82.0,-675.0,-356.0,380.0,481.0,-582.0,-91.0
19:40:16.164000,745.0,1031.0,-72.0,-675.0,-356.0,380.0,495.0,-603.0,-69.0
19:40:16.168000,686.0,1003.0,-66.0,-663.0,-425.0,330.0,495.0,-603.0,-69.0
19:40:16.172000,644.0,979.0,-70.0,-663.0,-477.0,301.0,495.0,-603.0,-69.0
19:40:16.178000,609.0,951.0,-80.0,-656.0,-477.0,301.0,501.0,-601.0,-64.0
19:40:16.182000,580.0,930.0,-92.0,-642.0,-527.0,274.0,501.0,-601.0,-64.0
19:40:16.187000,557.0,908.0,-115.0,-635.0,-550.0,246.0,511.0,-595.0,-61.0
19:40:16.192000,539.0,884.0,-142.0,-643.0,-544.0,216.0,511.0,-595.0,-61.0
19:40:16.196000,513.0,851.0,-160.0,-648.0,-539.0,187.0,511.0,-595.0,-61.0
19:40:16.201000,476.0,813.0,-170.0,-645.0,-532.0,166.0,507.0,-601.0,-43.0
19:40:16.206000,434.0,767.0,-180.0,-643.0,-511.0,151.0,507.0,-601.0,-43.0
19:40:16.210000,403.0,718.0,-217.0,-641.0,-489.0,132.0,519.0,-607.0,-48.0
19:40:16.215000,371.0,660.0,-267.0,-626.0,-484.0,117.0,519.0,-607.0,-48.0
19:40:16.219000,371.0,660.0,-267.0,-593.0,-496.0,102.0,519.0,-607.0,-48.0
19:40:16.225000,335.0,607.0,-305.0,-557.0,-517.0,83.0,511.0,-607.0,-22.0
19:40:16.229000,294.0,556.0,-328.0,-528.0,-556.0,61.0,511.0,-607.0,-22.0
19:40:16.234000,265.0,505.0,-326.0,-524.0,-597.0,34.0,526.0,-604.0,-34.0
19:40:16.239000,249.0,450.0,-324.0,-546.0,-615.0,11.0,526.0,-604.0,-34.0
19:40:16.243000,238.0,392.0,-346.0,-559.0,-611.0,-11.0,526.0,-604.0,-34.0
19:40:16.248000,224.0,341.0,-364.0,-574.0,-624.0,-23.0,543.0,-610.0,-28.0
19:40:16.253000,206.0,288.0,-356.0,-594.0,-653.0,-28.0,543.0,-610.0,-28.0
19:40:16.257000,188.0,234.0,-335.0,-600.0,-674.0,-31.0,535.0,-603.0,-25.0
19:40:16.262000,170.0,179.0,-315.0,-596.0,-686.0,-31.0,535.0,-603.0,-25.0
19:40:16.267000,159.0,128.0,-310.0,-592.0,-691.0,-34.0,538.0,-616.0,-25.0
19:40:16.272000,144.0,83.0,-304.0,-597.0,-678.0,-33.0,538.0,-616.0,-25.0
19:40:16.276000,119.0,41.0,-310.0,-617.0,-647.0,-31.0,538.0,-616.0,-25.0
19:40:16.281000,102.0,0.0,-325.0,-639.0,-628.0,-32.0,546.0,-604.0,-21.0
19:40:16.286000,93.0,-40.0,-340.0,-639.0,-628.0,-32.0,546.0,-604.0,-21.0
19:40:16.290000,81.0,-77.0,-354.0,-659.0,-631.0,-33.0,546.0,-604.0,-27.0
19:40:16.295000,70.0,-122.0,-371.0,-679.0,-638.0,-22.0,546.0,-604.0,-27.0
19:40:16.299000,66.0,-157.0,-366.0,-682.0,-656.0,-12.0,546.0,-604.0,-27.0
19:40:16.304000,69.0,-186.0,-347.0,-680.0,-706.0,-15.0,546.0,-597.0,-18.0
19:40:16.309000,72.0,-212.0,-329.0,-697.0,-760.0,-11.0,546.0,-597.0,-18.0
19:40:16.314000,74.0,-229.0,-324.0,-721.0,-774.0,-7.0,529.0,-592.0,-21.0
19:40:16.319000,69.0,-243.0,-348.0,-742.0,-729.0,-3.0,529.0,-592.0,-21.0
19:40:16.323000,69.0,-243.0,-348.0,-760.0,-666.0,6.0,529.0,-592.0,-21.0
19:40:16.328000,45.0,-270.0,-375.0,-776.0,-636.0,12.0,543.0,-585.0,-22.0
19:40:16.333000,45.0,-270.0,-375.0,-789.0,-634.0,15.0,543.0,-585.0,-22.0
19:40:16.337000,25.0,-281.0,-375.0,-793.0,-639.0,20.0,538.0,-588.0,-24.0
19:40:16.342000,10.0,-295.0,-379.0,-790.0,-636.0,19.0,538.0,-588.0,-24.0
19:40:16.346000,0.0,-296.0,-389.0,-781.0,-623.0,20.0,538.0,-588.0,-24.0
19:40:16.351000,-15.0,-294.0,-389.0,-789.0,-600.0,30.0,544.0,-592.0,-25.0
19:40:16.356000,-40.0,-294.0,-378.0,-813.0,-580.0,34.0,544.0,-592.0,-25.0
19:40:16.361000,-64.0,-303.0,-368.0,-839.0,-568.0,34.0,538.0,-591.0,-27.0
19:40:16.366000,-85.0,-312.0,-364.0,-856.0,-564.0,32.0,538.0,-591.0,-27.0
19:40:16.370000,-104.0,-319.0,-376.0,-858.0,-577.0,27.0,538.0,-591.0,-27.0
19:40:16.375000,-129.0,-321.0,-369.0,-861.0,-602.0,17.0,538.0,-589.0,-25.0
19:40:16.380000,-156.0,-322.0,-334.0,-858.0,-613.0,3.0,538.0,-589.0,-25.0
19:40:16.384000,-191.0,-314.0,-298.0,-858.0,-613.0,3.0,541.0,-588.0,-27.0
19:40:16.389000,-224.0,-315.0,-289.0,-879.0,-514.0,-5.0,541.0,-588.0,-27.0
19:40:16.396000,-258.0,-314.0,-321.0,-856.0,-470.0,-11.0,535.0,-579.0,-16.0
19:40:16.398000,-284.0,-317.0,-351.0,-856.0,-470.0,-11.0,535.0,-579.0,-16.0
19:40:16.403000,-319.0,-316.0,-347.0,-821.0,-476.0,-17.0,535.0,-579.0,-16.0
19:40:16.408000,-347.0,-322.0,-331.0,-820.0,-503.0,-23.0,544.0,-571.0,-25.0
19:40:16.413000,-364.0,-338.0,-318.0,-838.0,-523.0,-22.0,544.0,-571.0,-25.0
19:40:16.417000,-372.0,-359.0,-304.0,-849.0,-543.0,-17.0,538.0,-573.0,-43.0
19:40:16.422000,-366.0,-387.0,-298.0,-846.0,-563.0,-12.0,538.0,-573.0,-43.0
19:40:16.426000,-366.0,-387.0,-298.0,-825.0,-587.0,-12.0,538.0,-573.0,-43.0
19:40:16.431000,-347.0,-416.0,-247.0,-813.0,-606.0,-5.0,543.0,-574.0,-40.0
19:40:16.436000,-335.0,-434.0,-212.0,-819.0,-608.0,9.0,543.0,-574.0,-40.0
19:40:16.441000,-335.0,-434.0,-212.0,-819.0,-608.0,20.0,526.0,-574.0,-39.0
19:40:16.445000,-322.0,-453.0,-188.0,-826.0,-610.0,29.0,526.0,-574.0,-39.0
19:40:16.450000,-305.0,-472.0,-168.0,-833.0,-626.0,40.0,526.0,-574.0,-39.0
19:40:16.455000,-290.0,-491.0,-134.0,-829.0,-648.0,53.0,537.0,-567.0,-40.0
19:40:16.460000,-275.0,-509.0,-101.0,-829.0,-642.0,62.0,537.0,-567.0,-40.0
19:40:16.464000,-254.0,-532.0,-78.0,-828.0,-624.0,67.0,538.0,-565.0,-45.0
19:40:16.469000,-239.0,-548.0,-65.0,-822.0,-612.0,72.0,538.0,-565.0,-45.0
19:40:16.473000,-228.0,-562.0,-68.0,-814.0,-598.0,79.0,538.0,-565.0,-45.0
19:40:16.478000,-217.0,-578.0,-64.0,-807.0,-582.0,89.0,522.0,-561.0,-58.0
19:40:16.483000,-212.0,-598.0,-43.0,-806.0,-561.0,97.0,522.0,-561.0,-58.0
19:40:16.488000,-212.0,-614.0,-28.0,-806.0,-537.0,105.0,528.0,-555.0,-58.0
19:40:16.492000,-219.0,-630.0,-30.0,-807.0,-537.0,105.0,528.0,-555.0,-58.0
19:40:16.497000,-224.0,-644.0,-44.0,-780.0,-502.0,119.0,528.0,-555.0,-58.0
19:40:16.502000,-222.0,-658.0,-51.0,-780.0,-502.0,119.0,526.0,-553.0,-61.0
19:40:16.507000,-240.0,-672.0,-50.0,-763.0,-510.0,131.0,526.0,-553.0,-61.0
19:40:16.511000,-252.0,-686.0,-41.0,-755.0,-536.0,140.0,520.0,-556.0,-57.0
19:40:16.516000,-263.0,-703.0,-36.0,-759.0,-538.0,142.0,520.0,-556.0,-57.0
19:40:16.520000,-273.0,-718.0,-32.0,-767.0,-535.0,144.0,520.0,-556.0,-57.0
19:40:16.525000,-282.0,-733.0,-31.0,-772.0,-535.0,143.0,517.0,-549.0,-49.0
19:40:16.530000,-291.0,-750.0,-25.0,-768.0,-538.0,143.0,517.0,-549.0,-49.0
19:40:16.535000,-296.0,-765.0,-26.0,-759.0,-537.0,141.0,511.0,-555.0,-75.0
19:40:16.539000,-301.0,-782.0,-41.0,-750.0,-526.0,138.0,511.0,-555.0,-75.0
19:40:16.544000,-301.0,-782.0,-41.0,-745.0,-518.0,136.0,511.0,-555.0,-75.0
19:40:16.549000,-305.0,-800.0,-57.0,-747.0,-510.0,135.0,514.0,-544.0,-75.0
19:40:16.554000,-310.0,-817.0,-76.0,-753.0,-497.0,136.0,514.0,-544.0,-75.0
19:40:16.558000,-320.0,-835.0,-98.0,-758.0,-481.0,141.0,510.0,-547.0,-85.0
19:40:16.563000,-329.0,-857.0,-121.0,-756.0,-474.0,145.0,510.0,-547.0,-85.0
19:40:16.567000,-342.0,-878.0,-143.0,-749.0,-489.0,147.0,510.0,-547.0,-85.0
19:40:16.572000,-358.0,-897.0,-155.0,-745.0,-513.0,146.0,498.0,-544.0,-84.0
19:40:16.577000,-366.0,-918.0,-145.0,-757.0,-526.0,137.0,498.0,-544.0,-84.0
19:40:16.582000,-374.0,-938.0,-127.0,-791.0,-516.0,128.0,490.0,-538.0,-84.0
19:40:16.586000,-385.0,-955.0,-118.0,-838.0,-472.0,119.0,490.0,-538.0,-84.0
19:40:16.591000,-399.0,-971.0,-124.0,-885.0,-409.0,111.0,490.0,-538.0,-84.0
19:40:16.596000,-411.0,-985.0,-137.0,-917.0,-352.0,110.0,495.0,-541.0,-96.0
19:40:16.601000,-430.0,-999.0,-147.0,-929.0,-319.0,111.0,495.0,-541.0,-96.0
19:40:16.605000,-457.0,-1010.0,-141.0,-929.0,-319.0,111.0,478.0,-541.0,-106.0
19:40:16.610000,-487.0,-1020.0,-121.0,-951.0,-279.0,112.0,478.0,-541.0,-106.0
19:40:16.614000,-520.0,-1032.0,-105.0,-951.0,-279.0,112.0,478.0,-541.0,-106.0
19:40:16.619000,-555.0,-1050.0,-104.0,-974.0,-241.0,118.0,481.0,-531.0,-106.0
19:40:16.624000,-595.0,-1067.0,-112.0,-989.0,-201.0,125.0,481.0,-531.0,-106.0
19:40:16.629000,-628.0,-1093.0,-119.0,-982.0,-179.0,135.0,478.0,-531.0,-111.0
19:40:16.633000,-649.0,-1124.0,-112.0,-953.0,-186.0,147.0,478.0,-531.0,-111.0
19:40:16.638000,-675.0,-1157.0,-91.0,-908.0,-216.0,158.0,478.0,-531.0,-111.0
19:40:16.643000,-700.0,-1189.0,-62.0,-867.0,-246.0,175.0,466.0,-528.0,-126.0
19:40:16.648000,-714.0,-1219.0,-38.0,-844.0,-251.0,193.0,466.0,-528.0,-126.0
19:40:16.652000,-731.0,-1248.0,-28.0,-836.0,-245.0,214.0,456.0,-522.0,-136.0
19:40:16.657000,-753.0,-1275.0,0.0,-856.0,-265.0,254.0,456.0,-522.0,-136.0
19:40:16.661000,-753.0,-1275.0,0.0,-908.0,-316.0,307.0,456.0,-522.0,-136.0
19:40:16.666000,-762.0,-1305.0,77.0,-937.0,-333.0,344.0,435.0,-514.0,-127.0
19:40:16.671000,-782.0,-1317.0,159.0,-955.0,-264.0,374.0,435.0,-514.0,-127.0
19:40:16.676000,-793.0,-1329.0,155.0,-971.0,-170.0,402.0,448.0,-507.0,-144.0
19:40:16.680000,-775.0,-1341.0,92.0,-944.0,-130.0,433.0,448.0,-507.0,-144.0
19:40:16.685000,-797.0,-1317.0,97.0,-897.0,-93.0,486.0,448.0,-507.0,-144.0
19:40:16.690000,-822.0,-1281.0,91.0,-874.0,-12.0,525.0,420.0,-502.0,-147.0
19:40:16.694000,-800.0,-1235.0,-37.0,-835.0,22.0,551.0,420.0,-502.0,-147.0
19:40:16.699000,-795.0,-1174.0,-209.0,-735.0,-67.0,598.0,402.0,-510.0,-132.0
19:40:16.704000,-812.0,-1106.0,-327.0,-597.0,-239.0,623.0,402.0,-510.0,-132.0
19:40:16.709000,-802.0,-1022.0,-320.0,-597.0,-239.0,623.0,409.0,-490.0,-156.0
19:40:16.713000,-779.0,-945.0,-175.0,-580.0,-535.0,620.0,409.0,-490.0,-156.0
19:40:16.717000,-777.0,-877.0,-25.0,-780.0,-557.0,611.0,409.0,-490.0,-156.0
19:40:16.722000,-755.0,-816.0,32.0,-780.0,-557.0,611.0,403.0,-489.0,-154.0
19:40:16.727000,-700.0,-759.0,30.0,-1018.0,-546.0,568.0,403.0,-489.0,-154.0
19:40:16.732000,-651.0,-714.0,-14.0,-1213.0,-515.0,531.0,397.0,-483.0,-153.0
19:40:16.737000,-606.0,-670.0,-64.0,-1290.0,-462.0,498.0,397.0,-483.0,-153.0
19:40:16.741000,-560.0,-623.0,-92.0,-1290.0,-462.0,498.0,397.0,-483.0,-153.0
19:40:16.746000,-513.0,-576.0,-116.0,-1168.0,-483.0,481.0,397.0,-477.0,-141.0
19:40:16.751000,-473.0,-541.0,-149.0,-991.0,-508.0,470.0,397.0,-477.0,-141.0
19:40:16.756000,-427.0,-511.0,-191.0,-812.0,-496.0,463.0,396.0,-477.0,-165.0
19:40:16.760000,-388.0,-487.0,-253.0,-673.0,-448.0,460.0,396.0,-477.0,-165.0
19:40:16.764000,-388.0,-487.0,-253.0,-566.0,-389.0,460.0,396.0,-477.0,-165.0
19:40:16.770000,-352.0,-472.0,-330.0,-480.0,-336.0,460.0,390.0,-463.0,-169.0
19:40:16.774000,-323.0,-460.0,-368.0,-422.0,-312.0,471.0,390.0,-463.0,-169.0
19:40:16.779000,-310.0,-451.0,-340.0,-418.0,-302.0,485.0,384.0,-466.0,-163.0
19:40:16.784000,-310.0,-436.0,-277.0,-472.0,-276.0,493.0,384.0,-466.0,-163.0
19:40:16.788000,-324.0,-413.0,-214.0,-564.0,-240.0,505.0,384.0,-466.0,-163.0
19:40:16.793000,-350.0,-379.0,-163.0,-675.0,-188.0,511.0,382.0,-466.0,-171.0
19:40:16.798000,-375.0,-342.0,-123.0,-777.0,-136.0,507.0,382.0,-466.0,-171.0
19:40:16.803000,-409.0,-297.0,-81.0,-858.0,-106.0,506.0,373.0,-463.0,-181.0
19:40:16.807000,-438.0,-259.0,-53.0,-905.0,-104.0,502.0,373.0,-463.0,-181.0
19:40:16.811000,-465.0,-222.0,-23.0,-909.0,-124.0,503.0,373.0,-463.0,-181.0
19:40:16.817000,-480.0,-200.0,17.0,-873.0,-181.0,491.0,376.0,-448.0,-172.0
19:40:16.821000,-469.0,-181.0,30.0,-853.0,-196.0,484.0,376.0,-448.0,-172.0
19:40:16.826000,-444.0,-196.0,-138.0,-853.0,-196.0,484.0,378.0,-459.0,-172.0
19:40:16.831000,-396.0,-204.0,-404.0,-833.0,-108.0,481.0,378.0,-459.0,-172.0
19:40:16.835000,-352.0,-205.0,-525.0,-734.0,-99.0,471.0,378.0,-459.0,-172.0
19:40:16.840000,-326.0,-202.0,-523.0,-635.0,-167.0,482.0,369.0,-450.0,-172.0
19:40:16.845000,-289.0,-207.0,-462.0,-599.0,-255.0,505.0,369.0,-450.0,-172.0
19:40:16.850000,-258.0,-195.0,-434.0,-614.0,-386.0,509.0,378.0,-438.0,-175.0
19:40:16.854000,-225.0,-173.0,-455.0,-661.0,-469.0,503.0,378.0,-438.0,-175.0
19:40:16.858000,-222.0,-154.0,-469.0,-678.0,-494.0,532.0,378.0,-438.0,-175.0
19:40:16.864000,-218.0,-134.0,-452.0,-637.0,-494.0,575.0,376.0,-448.0,-168.0
19:40:16.868000,-196.0,-116.0,-431.0,-540.0,-477.0,634.0,376.0,-448.0,-168.0
19:40:16.873000,-154.0,-75.0,-526.0,-468.0,-428.0,634.0,361.0,-433.0,-172.0
19:40:16.878000,-154.0,-75.0,-526.0,-496.0,-306.0,646.0,361.0,-433.0,-172.0
19:40:16.882000,-159.0,-79.0,-609.0,-531.0,-229.0,673.0,361.0,-433.0,-172.0
19:40:16.887000,-186.0,-13.0,-547.0,-414.0,-608.0,569.0,373.0,-429.0,-171.0
19:40:16.892000,0.0,152.0,730.0,-460.0,-1784.0,601.0,373.0,-429.0,-171.0
19:40:16.897000,104.0,30.0,2736.0,-1448.0,-1059.0,766.0,372.0,-436.0,-177.0
19:40:16.901000,-29.0,-39.0,1092.0,-1881.0,605.0,610.0,372.0,-436.0,-177.0
19:40:16.905000,65.0,189.0,-435.0,-1098.0,385.0,582.0,372.0,-436.0,-177.0
19:40:16.911000,31.0,171.0,-457.0,-483.0,-102.0,687.0,354.0,-442.0,-156.0
19:40:16.915000,-13.0,191.0,-157.0,-373.0,19.0,673.0,354.0,-442.0,-156.0
19:40:16.920000,-50.0,169.0,-290.0,-415.0,54.0,694.0,384.0,-432.0,-166.0
19:40:16.925000,-117.0,244.0,-130.0,-426.0,-310.0,684.0,384.0,-432.0,-166.0
19:40:16.929000,-170.0,221.0,245.0,-655.0,-388.0,685.0,384.0,-432.0,-166.0
19:40:16.934000,-165.0,233.0,296.0,-805.0,-422.0,635.0,369.0,-436.0,-174.0
19:40:16.939000,-158.0,249.0,319.0,-805.0,-468.0,635.0,369.0,-436.0,-174.0
19:40:16.944000,-168.0,259.0,296.0,-838.0,-468.0,637.0,370.0,-439.0,-168.0
19:40:16.948000,-158.0,293.0,196.0,-838.0,-384.0,626.0,370.0,-439.0,-168.0
19:40:16.956000,-151.0,307.0,119.0,-746.0,-319.0,635.0,387.0,-436.0,-174.0
19:40:16.958000,-158.0,312.0,48.0,-746.0,-319.0,635.0,387.0,-436.0,-174.0
19:40:16.962000,-158.0,317.0,-56.0,-707.0,-270.0,644.0,387.0,-436.0,-174.0
