hh:mm:ss.ms,gyroX[mdps],gyroY[mdps],gyroZ[mdps],accX[mg],accY[mg],accZ[mg],magX[mG],magY[mG],magZ[mG]
19:43:20.073000,-236.0,-112.0,-52.0,-1437.0,637.0,-364.0,0.0,0.0,0.0
19:43:20.078000,-231.0,-121.0,-164.0,-1437.0,637.0,-364.0,0.0,0.0,0.0
19:43:20.082000,-133.0,-77.0,-358.0,-1386.0,543.0,-335.0,0.0,0.0,0.0
19:43:20.087000,-133.0,-76.0,-366.0,-1386.0,543.0,-335.0,0.0,0.0,0.0
19:43:20.092000,-207.0,-106.0,-224.0,-1268.0,357.0,-304.0,0.0,0.0,0.0
19:43:20.097000,-170.0,-113.0,-97.0,-1268.0,357.0,-304.0,0.0,0.0,0.0
19:43:20.101000,-239.0,-117.0,-170.0,-1065.0,250.0,-261.0,0.0,0.0,0.0
19:43:20.106000,-334.0,-114.0,-97.0,-1065.0,250.0,-261.0,0.0,0.0,0.0
19:43:20.111000,-483.0,-81.0,14.0,-936.0,82.0,-227.0,0.0,0.0,0.0
19:43:20.115000,-539.0,-126.0,-135.0,-936.0,82.0,-227.0,0.0,0.0,0.0
19:43:20.120000,-556.0,-158.0,-135.0,-936.0,-321.0,-215.0,0.0,0.0,0.0
19:43:20.125000,-511.0,-175.0,33.0,-814.0,-321.0,-215.0,0.0,0.0,0.0
19:43:20.129000,-488.0,-165.0,76.0,-814.0,-321.0,-215.0,0.0,0.0,0.0
19:43:20.134000,-422.0,-147.0,197.0,-633.0,-579.0,-201.0,0.0,0.0,0.0
19:43:20.139000,-419.0,-135.0,478.0,-633.0,-579.0,-201.0,0.0,0.0,0.0
19:43:20.144000,-394.0,-144.0,468.0,-795.0,-783.0,-171.0,0.0,0.0,0.0
19:43:20.148000,-389.0,-137.0,152.0,-795.0,-783.0,-171.0,0.0,0.0,0.0
19:43:20.153000,-374.0,-126.0,0.0,-869.0,-910.0,-180.0,0.0,0.0,0.0
19:43:20.158000,-329.0,-119.0,252.0,-869.0,-910.0,-180.0,0.0,0.0,0.0
19:43:20.162000,-284.0,-117.0,203.0,-634.0,-1004.0,-212.0,0.0,0.0,0.0
19:43:20.166000,-284.0,-117.0,203.0,-634.0,-1004.0,-212.0,0.0,0.0,0.0
19:43:20.172000,-160.0,-132.0,-198.0,-768.0,-1009.0,-255.0,0.0,0.0,0.0
19:43:20.176000,-99.0,-128.0,-438.0,-768.0,-1009.0,-255.0,0.0,0.0,0.0
19:43:20.181000,-67.0,-130.0,-326.0,-884.0,-795.0,-299.0,0.0,0.0,0.0
19:43:20.186000,-9.0,-137.0,-116.0,-884.0,-795.0,-299.0,0.0,0.0,0.0
19:43:20.191000,-52.0,-130.0,-39.0,-951.0,-574.0,-276.0,0.0,0.0,0.0
19:43:20.195000,-147.0,-119.0,-30.0,-951.0,-574.0,-276.0,0.0,0.0,0.0
19:43:20.200000,-217.0,-109.0,-107.0,-1160.0,-451.0,-247.0,0.0,0.0,0.0
19:43:20.205000,-161.0,-121.0,-285.0,-1160.0,-451.0,-247.0,0.0,0.0,0.0
19:43:20.209000,-101.0,-124.0,-298.0,-1035.0,-565.0,-263.0,0.0,0.0,0.0
19:43:20.214000,-145.0,-126.0,-2.0,-1035.0,-565.0,-263.0,0.0,0.0,0.0
19:43:20.219000,-144.0,-144.0,185.0,-910.0,-605.0,-259.0,0.0,0.0,0.0
19:43:20.223000,-32.0,-151.0,25.0,-910.0,-605.0,-259.0,0.0,0.0,0.0
19:43:20.228000,-34.0,-147.0,-104.0,-966.0,-616.0,-226.0,0.0,0.0,0.0
19:43:20.233000,-6.0,-150.0,-166.0,-966.0,-616.0,-226.0,0.0,0.0,0.0
19:43:20.238000,-29.0,-142.0,-120.0,-966.0,-616.0,-226.0,0.0,0.0,0.0
19:43:20.242000,-65.0,-128.0,-27.0,-1009.0,-540.0,-180.0,0.0,0.0,0.0
19:43:20.247000,-63.0,-117.0,-48.0,-1009.0,-540.0,-180.0,0.0,0.0,0.0
19:43:20.252000,-77.0,-127.0,-62.0,-1001.0,-474.0,-152.0,0.0,0.0,0.0
19:43:20.256000,-36.0,-142.0,-16.0,-1001.0,-474.0,-152.0,0.0,0.0,0.0
19:43:20.261000,-80.0,-125.0,30.0,-910.0,-580.0,-174.0,0.0,0.0,0.0
19:43:20.266000,-124.0,-118.0,-19.0,-910.0,-580.0,-174.0,0.0,0.0,0.0
19:43:20.270000,-164.0,-100.0,-229.0,-893.0,-448.0,-186.0,0.0,0.0,0.0
19:43:20.275000,-184.0,-83.0,-336.0,-893.0,-448.0,-186.0,0.0,0.0,0.0
19:43:20.280000,-184.0,-83.0,-336.0,-951.0,-352.0,-188.0,0.0,0.0,0.0
19:43:20.285000,-126.0,-100.0,-203.0,-951.0,-352.0,-188.0,0.0,0.0,0.0
19:43:20.289000,-128.0,-99.0,-95.0,-832.0,-450.0,-205.0,0.0,0.0,0.0
19:43:20.294000,-116.0,-104.0,-86.0,-832.0,-450.0,-205.0,0.0,0.0,0.0
19:43:20.299000,-146.0,-98.0,-105.0,-855.0,-530.0,-224.0,0.0,0.0,0.0
19:43:20.303000,-112.0,-114.0,13.0,-855.0,-530.0,-224.0,0.0,0.0,0.0
19:43:20.308000,-118.0,-96.0,7.0,-1073.0,-504.0,-258.0,0.0,0.0,0.0
19:43:20.313000,-98.0,-107.0,-134.0,-1073.0,-504.0,-258.0,0.0,0.0,0.0
19:43:20.317000,-121.0,-119.0,-140.0,-981.0,-324.0,-262.0,0.0,0.0,0.0
19:43:20.322000,-190.0,-116.0,-1.0,-981.0,-324.0,-262.0,0.0,0.0,0.0
19:43:20.327000,-261.0,-102.0,99.0,-771.0,-291.0,-255.0,0.0,0.0,0.0
19:43:20.332000,-253.0,-112.0,59.0,-771.0,-291.0,-255.0,0.0,0.0,0.0
19:43:20.336000,-184.0,-131.0,-35.0,-837.0,-420.0,-285.0,0.0,0.0,0.0
19:43:20.341000,-149.0,-119.0,14.0,-837.0,-420.0,-285.0,0.0,0.0,0.0
19:43:20.346000,-135.0,-120.0,112.0,-837.0,-420.0,-285.0,0.0,0.0,0.0
19:43:20.350000,-88.0,-126.0,170.0,-983.0,-528.0,-290.0,0.0,0.0,0.0
19:43:20.355000,-65.0,-148.0,145.0,-983.0,-528.0,-290.0,0.0,0.0,0.0
19:43:20.360000,-86.0,-170.0,135.0,-947.0,-527.0,-266.0,0.0,0.0,0.0
19:43:20.364000,-79.0,-175.0,110.0,-947.0,-527.0,-266.0,0.0,0.0,0.0
19:43:20.369000,-78.0,-188.0,31.0,-822.0,-456.0,-263.0,0.0,0.0,0.0
19:43:20.374000,-60.0,-203.0,-96.0,-822.0,-456.0,-263.0,0.0,0.0,0.0
19:43:20.379000,-33.0,-212.0,-210.0,-830.0,-446.0,-258.0,0.0,0.0,0.0
19:43:20.383000,-20.0,-219.0,-256.0,-830.0,-446.0,-258.0,0.0,0.0,0.0
19:43:20.388000,-20.0,-219.0,-256.0,-865.0,-472.0,-228.0,0.0,0.0,0.0
19:43:20.393000,-21.0,-227.0,-222.0,-865.0,-472.0,-228.0,0.0,0.0,0.0
19:43:20.397000,-18.0,-232.0,-175.0,-879.0,-478.0,-198.0,0.0,0.0,0.0
19:43:20.401000,-8.0,-239.0,-177.0,-879.0,-478.0,-198.0,0.0,0.0,0.0
19:43:20.407000,-30.0,-243.0,-210.0,-892.0,-433.0,-165.0,0.0,0.0,0.0
19:43:20.411000,-31.0,-242.0,-198.0,-892.0,-433.0,-165.0,0.0,0.0,0.0
19:43:20.416000,-32.0,-242.0,-214.0,-902.0,-407.0,-137.0,0.0,0.0,0.0
19:43:20.421000,-32.0,-234.0,-196.0,-902.0,-407.0,-137.0,0.0,0.0,0.0
19:43:20.426000,-49.0,-212.0,-142.0,-948.0,-388.0,-129.0,0.0,0.0,0.0
19:43:20.430000,-46.0,-186.0,-84.0,-948.0,-388.0,-129.0,0.0,0.0,0.0
19:43:20.435000,-35.0,-184.0,-30.0,-999.0,-353.0,-114.0,0.0,0.0,0.0
19:43:20.440000,-68.0,-175.0,-18.0,-999.0,-353.0,-114.0,0.0,0.0,0.0
19:43:20.444000,-87.0,-165.0,-58.0,-982.0,-339.0,-108.0,0.0,0.0,0.0
19:43:20.449000,-60.0,-127.0,-114.0,-982.0,-339.0,-108.0,0.0,0.0,0.0
19:43:20.454000,-37.0,-100.0,-133.0,-982.0,-339.0,-108.0,0.0,0.0,0.0
19:43:20.458000,6.0,-72.0,-60.0,-962.0,-390.0,-116.0,0.0,0.0,0.0
19:43:20.463000,61.0,-69.0,51.0,-962.0,-390.0,-116.0,0.0,0.0,0.0
19:43:20.468000,-3.0,-47.0,36.0,-990.0,-432.0,-109.0,0.0,0.0,0.0
19:43:20.473000,-18.0,-21.0,-154.0,-990.0,-432.0,-109.0,0.0,0.0,0.0
19:43:20.477000,24.0,-2.0,-310.0,-977.0,-386.0,-106.0,0.0,0.0,0.0
19:43:20.482000,63.0,11.0,-316.0,-977.0,-386.0,-106.0,0.0,0.0,0.0
19:43:20.487000,44.0,19.0,-164.0,-905.0,-371.0,-117.0,0.0,0.0,0.0
19:43:20.491000,-4.0,25.0,-35.0,-905.0,-371.0,-117.0,0.0,0.0,0.0
19:43:20.495000,-4.0,25.0,-35.0,-862.0,-432.0,-124.0,0.0,0.0,0.0
19:43:20.501000,22.0,40.0,-46.0,-862.0,-432.0,-124.0,0.0,0.0,0.0
19:43:20.505000,85.0,44.0,-143.0,-908.0,-423.0,-153.0,0.0,0.0,0.0
19:43:20.510000,97.0,41.0,-174.0,-908.0,-423.0,-153.0,0.0,0.0,0.0
19:43:20.515000,63.0,31.0,-126.0,-895.0,-324.0,-164.0,0.0,0.0,0.0
19:43:20.520000,32.0,19.0,-147.0,-895.0,-324.0,-164.0,0.0,0.0,0.0
19:43:20.524000,38.0,16.0,-251.0,-825.0,-314.0,-176.0,0.0,0.0,0.0
19:43:20.529000,66.0,5.0,-251.0,-825.0,-314.0,-176.0,0.0,0.0,0.0
19:43:20.534000,86.0,-23.0,-95.0,-806.0,-400.0,-213.0,0.0,0.0,0.0
19:43:20.538000,99.0,-42.0,30.0,-806.0,-400.0,-213.0,0.0,0.0,0.0
19:43:20.543000,84.0,-49.0,56.0,-891.0,-343.0,-217.0,0.0,0.0,0.0
19:43:20.548000,65.0,-64.0,-75.0,-891.0,-343.0,-217.0,0.0,0.0,0.0
19:43:20.552000,72.0,-72.0,-144.0,-892.0,-295.0,-213.0,0.0,0.0,0.0
19:43:20.557000,91.0,-66.0,-97.0,-892.0,-295.0,-213.0,0.0,0.0,0.0
19:43:20.562000,128.0,-72.0,-47.0,-892.0,-295.0,-213.0,0.0,0.0,0.0
19:43:20.567000,146.0,-91.0,-132.0,-824.0,-356.0,-214.0,0.0,0.0,0.0
19:43:20.571000,95.0,-116.0,-239.0,-824.0,-356.0,-214.0,0.0,0.0,0.0
19:43:20.576000,39.0,-106.0,-193.0,-819.0,-325.0,-195.0,0.0,0.0,0.0
19:43:20.581000,51.0,-99.0,-209.0,-819.0,-325.0,-195.0,0.0,0.0,0.0
19:43:20.585000,72.0,-114.0,-337.0,-852.0,-306.0,-197.0,0.0,0.0,0.0
19:43:20.590000,81.0,-127.0,-316.0,-852.0,-306.0,-197.0,0.0,0.0,0.0
19:43:20.595000,70.0,-132.0,-168.0,-858.0,-359.0,-205.0,0.0,0.0,0.0
19:43:20.599000,63.0,-137.0,-122.0,-858.0,-359.0,-205.0,0.0,0.0,0.0
19:43:20.604000,53.0,-142.0,-179.0,-832.0,-343.0,-187.0,0.0,0.0,0.0
19:43:20.609000,53.0,-142.0,-179.0,-832.0,-343.0,-187.0,0.0,0.0,0.0
19:43:20.614000,20.0,-149.0,-228.0,-882.0,-284.0,-169.0,0.0,0.0,0.0
19:43:20.618000,10.0,-153.0,-209.0,-882.0,-284.0,-169.0,0.0,0.0,0.0
19:43:20.623000,3.0,-144.0,-200.0,-940.0,-271.0,-168.0,0.0,0.0,0.0
19:43:20.628000,-21.0,-128.0,-227.0,-940.0,-271.0,-168.0,0.0,0.0,0.0
19:43:20.632000,-48.0,-109.0,-212.0,-975.0,-245.0,-170.0,0.0,0.0,0.0
19:43:20.636000,-65.0,-101.0,-175.0,-975.0,-245.0,-170.0,0.0,0.0,0.0
19:43:20.642000,-65.0,-87.0,-144.0,-975.0,-282.0,-176.0,0.0,0.0,0.0
19:43:20.646000,-49.0,-81.0,-153.0,-975.0,-282.0,-176.0,0.0,0.0,0.0
19:43:20.651000,-16.0,-71.0,-129.0,-977.0,-348.0,-200.0,0.0,0.0,0.0
19:43:20.656000,-3.0,-67.0,-79.0,-977.0,-348.0,-200.0,0.0,0.0,0.0
19:43:20.661000,-32.0,-63.0,-99.0,-996.0,-295.0,-201.0,0.0,0.0,0.0
19:43:20.665000,-29.0,-63.0,-172.0,-996.0,-295.0,-201.0,0.0,0.0,0.0
19:43:20.670000,-11.0,-60.0,-211.0,-908.0,-265.0,-189.0,0.0,0.0,0.0
19:43:20.675000,11.0,-62.0,-179.0,-908.0,-265.0,-189.0,0.0,0.0,0.0
19:43:20.679000,28.0,-51.0,-118.0,-908.0,-265.0,-189.0,0.0,0.0,0.0
19:43:20.684000,51.0,-46.0,-107.0,-868.0,-363.0,-192.0,0.0,0.0,0.0
19:43:20.689000,68.0,-44.0,-149.0,-868.0,-363.0,-192.0,0.0,0.0,0.0
19:43:20.693000,79.0,-41.0,-223.0,-981.0,-374.0,-189.0,0.0,0.0,0.0
19:43:20.698000,105.0,-47.0,-301.0,-981.0,-374.0,-189.0,0.0,0.0,0.0
19:43:20.703000,138.0,-44.0,-319.0,-998.0,-357.0,-185.0,0.0,0.0,0.0
19:43:20.708000,154.0,-41.0,-319.0,-998.0,-357.0,-185.0,0.0,0.0,0.0
19:43:20.712000,162.0,-49.0,-366.0,-971.0,-380.0,-182.0,0.0,0.0,0.0
19:43:20.717000,162.0,-49.0,-366.0,-971.0,-380.0,-182.0,0.0,0.0,0.0
19:43:20.722000,143.0,-57.0,-389.0,-956.0,-375.0,-167.0,0.0,0.0,0.0
19:43:20.726000,162.0,-51.0,-343.0,-956.0,-375.0,-167.0,0.0,0.0,0.0
19:43:20.731000,168.0,-46.0,-359.0,-957.0,-322.0,-158.0,0.0,0.0,0.0
19:43:20.736000,159.0,-39.0,-409.0,-957.0,-322.0,-158.0,0.0,0.0,0.0
19:43:20.740000,137.0,-32.0,-398.0,-1011.0,-273.0,-144.0,0.0,0.0,0.0
19:43:20.745000,111.0,-31.0,-344.0,-1011.0,-273.0,-144.0,0.0,0.0,0.0
19:43:20.750000,91.0,-29.0,-312.0,-1063.0,-301.0,-128.0,0.0,0.0,0.0
19:43:20.755000,84.0,-25.0,-322.0,-1063.0,-301.0,-128.0,0.0,0.0,0.0
19:43:20.759000,75.0,-16.0,-384.0,-1070.0,-278.0,-122.0,0.0,0.0,0.0
19:43:20.764000,63.0,-7.0,-437.0,-1070.0,-278.0,-122.0,0.0,0.0,0.0
19:43:20.769000,46.0,-1.0,-422.0,-1027.0,-256.0,-109.0,0.0,0.0,0.0
19:43:20.773000,43.0,6.0,-414.0,-1027.0,-256.0,-109.0,0.0,0.0,0.0
19:43:20.778000,44.0,20.0,-462.0,-1027.0,-256.0,-109.0,0.0,0.0,0.0
19:43:20.783000,51.0,31.0,-512.0,-1051.0,-280.0,-100.0,0.0,0.0,0.0
19:43:20.787000,49.0,46.0,-520.0,-1073.0,-280.0,-97.0,0.0,0.0,0.0
19:43:20.792000,46.0,58.0,-523.0,-1073.0,-280.0,-97.0,0.0,0.0,0.0
19:43:20.797000,44.0,70.0,-534.0,-1073.0,-280.0,-97.0,0.0,0.0,0.0
19:43:20.802000,51.0,83.0,-548.0,-1061.0,-278.0,-95.0,0.0,0.0,0.0
19:43:20.806000,54.0,96.0,-562.0,-1061.0,-278.0,-95.0,0.0,0.0,0.0
19:43:20.811000,49.0,106.0,-586.0,-1077.0,-252.0,-98.0,0.0,0.0,0.0
19:43:20.816000,45.0,114.0,-592.0,-1077.0,-252.0,-98.0,0.0,0.0,0.0
19:43:20.820000,49.0,127.0,-584.0,-1057.0,-225.0,-101.0,0.0,0.0,0.0
19:43:20.825000,49.0,127.0,-584.0,-1057.0,-225.0,-101.0,0.0,0.0,0.0
19:43:20.830000,50.0,136.0,-583.0,-1023.0,-224.0,-105.0,0.0,0.0,0.0
19:43:20.834000,49.0,140.0,-585.0,-1023.0,-224.0,-105.0,0.0,0.0,0.0
19:43:20.839000,48.0,140.0,-606.0,-1010.0,-222.0,-113.0,0.0,0.0,0.0
19:43:20.844000,53.0,140.0,-611.0,-1010.0,-222.0,-113.0,0.0,0.0,0.0
19:43:20.848000,56.0,142.0,-603.0,-991.0,-196.0,-122.0,0.0,0.0,0.0
19:43:20.853000,53.0,142.0,-602.0,-991.0,-196.0,-122.0,0.0,0.0,0.0
19:43:20.858000,49.0,137.0,-603.0,-980.0,-153.0,-129.0,0.0,0.0,0.0
19:43:20.863000,51.0,135.0,-620.0,-980.0,-153.0,-129.0,0.0,0.0,0.0
19:43:20.867000,56.0,130.0,-641.0,-979.0,-116.0,-133.0,0.0,0.0,0.0
19:43:20.871000,60.0,123.0,-640.0,-979.0,-116.0,-133.0,0.0,0.0,0.0
19:43:20.877000,67.0,114.0,-610.0,-980.0,-117.0,-138.0,0.0,0.0,0.0
19:43:20.881000,67.0,103.0,-585.0,-980.0,-117.0,-138.0,0.0,0.0,0.0
19:43:20.886000,67.0,92.0,-585.0,-980.0,-103.0,-138.0,0.0,0.0,0.0
19:43:20.891000,69.0,79.0,-583.0,-986.0,-103.0,-140.0,0.0,0.0,0.0
19:43:20.895000,61.0,72.0,-566.0,-986.0,-103.0,-140.0,0.0,0.0,0.0
19:43:20.900000,56.0,65.0,-546.0,-966.0,-62.0,-138.0,0.0,0.0,0.0
19:43:20.905000,49.0,63.0,-538.0,-966.0,-33.0,-139.0,0.0,0.0,0.0
19:43:20.910000,46.0,63.0,-561.0,-953.0,-33.0,-139.0,0.0,0.0,0.0
19:43:20.914000,35.0,67.0,-589.0,-953.0,-33.0,-139.0,0.0,0.0,0.0
19:43:20.919000,20.0,74.0,-580.0,-988.0,-6.0,-139.0,0.0,0.0,0.0
19:43:20.924000,12.0,81.0,-557.0,-988.0,-6.0,-139.0,0.0,0.0,0.0
19:43:20.928000,8.0,89.0,-560.0,-1032.0,-9.0,-142.0,0.0,0.0,0.0
19:43:20.933000,8.0,89.0,-560.0,-1032.0,-9.0,-142.0,0.0,0.0,0.0
19:43:20.938000,1.0,100.0,-578.0,-1051.0,-25.0,-148.0,0.0,0.0,0.0
19:43:20.942000,-9.0,110.0,-568.0,-1051.0,-25.0,-148.0,0.0,0.0,0.0
19:43:20.947000,-15.0,122.0,-546.0,-1027.0,-32.0,-153.0,0.0,0.0,0.0
19:43:20.952000,-17.0,131.0,-539.0,-1027.0,-32.0,-153.0,0.0,0.0,0.0
19:43:20.957000,-18.0,141.0,-533.0,-1003.0,-36.0,-161.0,0.0,0.0,0.0
19:43:20.961000,-11.0,142.0,-524.0,-1003.0,-36.0,-161.0,0.0,0.0,0.0
19:43:20.965000,1.0,139.0,-542.0,-990.0,-38.0,-172.0,0.0,0.0,0.0
19:43:20.971000,13.0,137.0,-562.0,-990.0,-38.0,-172.0,0.0,0.0,0.0
19:43:20.975000,28.0,137.0,-558.0,-960.0,-48.0,-183.0,0.0,0.0,0.0
19:43:20.980000,42.0,129.0,-538.0,-960.0,-48.0,-183.0,0.0,0.0,0.0
19:43:20.985000,56.0,121.0,-529.0,-943.0,-40.0,-196.0,0.0,0.0,0.0
19:43:20.989000,63.0,109.0,-544.0,-943.0,-40.0,-196.0,0.0,0.0,0.0
19:43:20.994000,65.0,102.0,-573.0,-944.0,5.0,-210.0,0.0,0.0,0.0
19:43:20.999000,65.0,98.0,-577.0,-944.0,5.0,-210.0,0.0,0.0,0.0
19:43:21.004000,54.0,97.0,-559.0,-944.0,5.0,-210.0,0.0,0.0,0.0
19:43:21.008000,41.0,93.0,-542.0,-947.0,46.0,-221.0,0.0,0.0,0.0
19:43:21.013000,25.0,91.0,-543.0,-947.0,46.0,-221.0,0.0,0.0,0.0
19:43:21.018000,7.0,95.0,-542.0,-966.0,82.0,-232.0,0.0,0.0,0.0
19:43:21.022000,-9.0,100.0,-543.0,-966.0,82.0,-232.0,0.0,0.0,0.0
19:43:21.027000,-19.0,103.0,-532.0,-995.0,101.0,-244.0,0.0,0.0,0.0
19:43:21.032000,-23.0,107.0,-500.0,-995.0,101.0,-244.0,0.0,0.0,0.0
19:43:21.036000,-28.0,112.0,-473.0,-1013.0,74.0,-256.0,0.0,0.0,0.0
19:43:21.041000,-36.0,116.0,-464.0,-1013.0,74.0,-256.0,0.0,0.0,0.0
19:43:21.046000,-36.0,116.0,-464.0,-1019.0,56.0,-265.0,0.0,0.0,0.0
19:43:21.051000,-27.0,117.0,-463.0,-1019.0,56.0,-265.0,0.0,0.0,0.0
19:43:21.055000,-9.0,115.0,-464.0,-999.0,47.0,-270.0,0.0,0.0,0.0
19:43:21.060000,11.0,108.0,-471.0,-999.0,47.0,-270.0,0.0,0.0,0.0
19:43:21.065000,34.0,100.0,-480.0,-985.0,27.0,-279.0,0.0,0.0,0.0
19:43:21.069000,58.0,85.0,-478.0,-985.0,27.0,-279.0,0.0,0.0,0.0
19:43:21.074000,74.0,72.0,-467.0,-990.0,26.0,-283.0,0.0,0.0,0.0
19:43:21.079000,86.0,63.0,-462.0,-990.0,26.0,-283.0,0.0,0.0,0.0
19:43:21.083000,97.0,51.0,-459.0,-972.0,49.0,-280.0,0.0,0.0,0.0
19:43:21.088000,105.0,35.0,-459.0,-972.0,49.0,-280.0,0.0,0.0,0.0
19:43:21.093000,109.0,17.0,-458.0,-943.0,85.0,-275.0,0.0,0.0,0.0
19:43:21.098000,112.0,2.0,-459.0,-943.0,85.0,-275.0,0.0,0.0,0.0
19:43:21.102000,116.0,-14.0,-460.0,-930.0,117.0,-269.0,0.0,0.0,0.0
19:43:21.106000,111.0,-26.0,-459.0,-930.0,117.0,-269.0,0.0,0.0,0.0
19:43:21.112000,98.0,-34.0,-450.0,-930.0,117.0,-269.0,0.0,0.0,0.0
19:43:21.116000,84.0,-42.0,-428.0,-949.0,149.0,-262.0,0.0,0.0,0.0
19:43:21.121000,67.0,-47.0,-413.0,-949.0,149.0,-262.0,0.0,0.0,0.0
19:43:21.126000,45.0,-49.0,-401.0,-975.0,183.0,-252.0,0.0,0.0,0.0
19:43:21.130000,20.0,-45.0,-390.0,-975.0,183.0,-252.0,0.0,0.0,0.0
19:43:21.135000,4.0,-41.0,-388.0,-995.0,194.0,-241.0,0.0,0.0,0.0
19:43:21.140000,-7.0,-36.0,-398.0,-995.0,194.0,-241.0,0.0,0.0,0.0
19:43:21.145000,-24.0,-30.0,-409.0,-1017.0,189.0,-232.0,0.0,0.0,0.0
19:43:21.149000,-39.0,-22.0,-419.0,-1017.0,189.0,-232.0,0.0,0.0,0.0
19:43:21.154000,-39.0,-22.0,-419.0,-1027.0,182.0,-224.0,0.0,0.0,0.0
19:43:21.159000,-41.0,-16.0,-435.0,-1027.0,182.0,-224.0,0.0,0.0,0.0
19:43:21.163000,-41.0,-9.0,-454.0,-1013.0,168.0,-218.0,0.0,0.0,0.0
19:43:21.168000,-41.0,-4.0,-471.0,-1013.0,168.0,-218.0,0.0,0.0,0.0
19:43:21.173000,-40.0,-1.0,-487.0,-995.0,146.0,-217.0,0.0,0.0,0.0
19:43:21.177000,-32.0,4.0,-484.0,-995.0,146.0,-217.0,0.0,0.0,0.0
19:43:21.182000,-17.0,9.0,-471.0,-993.0,117.0,-221.0,0.0,0.0,0.0
19:43:21.187000,0.0,9.0,-459.0,-993.0,117.0,-221.0,0.0,0.0,0.0
19:43:21.192000,20.0,4.0,-456.0,-1001.0,93.0,-223.0,0.0,0.0,0.0
19:43:21.196000,39.0,3.0,-469.0,-1001.0,93.0,-223.0,0.0,0.0,0.0
19:43:21.201000,60.0,9.0,-492.0,-993.0,113.0,-231.0,0.0,0.0,0.0
19:43:21.206000,77.0,14.0,-513.0,-993.0,113.0,-231.0,0.0,0.0,0.0
19:43:21.210000,87.0,18.0,-524.0,-976.0,162.0,-240.0,0.0,0.0,0.0
19:43:21.215000,102.0,21.0,-529.0,-976.0,162.0,-240.0,0.0,0.0,0.0
19:43:21.220000,112.0,23.0,-523.0,-976.0,162.0,-240.0,0.0,0.0,0.0
19:43:21.224000,119.0,23.0,-519.0,-973.0,200.0,-245.0,0.0,0.0,0.0
19:43:21.229000,121.0,28.0,-520.0,-973.0,200.0,-245.0,0.0,0.0,0.0
19:43:21.234000,116.0,34.0,-518.0,-975.0,234.0,-249.0,0.0,0.0,0.0
19:43:21.239000,110.0,35.0,-515.0,-975.0,234.0,-249.0,0.0,0.0,0.0
19:43:21.243000,112.0,33.0,-511.0,-963.0,269.0,-249.0,0.0,0.0,0.0
19:43:21.248000,114.0,35.0,-506.0,-963.0,269.0,-249.0,0.0,0.0,0.0
19:43:21.253000,109.0,39.0,-485.0,-945.0,299.0,-253.0,0.0,0.0,0.0
19:43:21.257000,102.0,49.0,-453.0,-945.0,299.0,-253.0,0.0,0.0,0.0
19:43:21.262000,102.0,49.0,-453.0,-950.0,334.0,-260.0,0.0,0.0,0.0
19:43:21.267000,96.0,53.0,-428.0,-950.0,334.0,-260.0,0.0,0.0,0.0
19:43:21.271000,95.0,56.0,-424.0,-971.0,368.0,-265.0,0.0,0.0,0.0
19:43:21.276000,100.0,56.0,-429.0,-971.0,368.0,-265.0,0.0,0.0,0.0
19:43:21.281000,105.0,60.0,-429.0,-950.0,383.0,-267.0,0.0,0.0,0.0
19:43:21.286000,107.0,63.0,-411.0,-950.0,383.0,-267.0,0.0,0.0,0.0
19:43:21.290000,114.0,64.0,-390.0,-899.0,380.0,-271.0,0.0,0.0,0.0
19:43:21.295000,122.0,64.0,-382.0,-899.0,380.0,-271.0,0.0,0.0,0.0
19:43:21.300000,129.0,60.0,-380.0,-883.0,394.0,-278.0,0.0,0.0,0.0
19:43:21.304000,134.0,52.0,-375.0,-883.0,394.0,-278.0,0.0,0.0,0.0
19:43:21.309000,133.0,43.0,-364.0,-885.0,438.0,-275.0,0.0,0.0,0.0
19:43:21.314000,127.0,32.0,-354.0,-885.0,438.0,-275.0,0.0,0.0,0.0
19:43:21.318000,121.0,18.0,-342.0,-874.0,473.0,-260.0,0.0,0.0,0.0
19:43:21.323000,114.0,4.0,-313.0,-874.0,473.0,-260.0,0.0,0.0,0.0
19:43:21.328000,106.0,-4.0,-268.0,-854.0,476.0,-247.0,0.0,0.0,0.0
19:43:21.333000,97.0,-11.0,-208.0,-854.0,476.0,-247.0,0.0,0.0,0.0
19:43:21.337000,91.0,-25.0,-156.0,-854.0,476.0,-247.0,0.0,0.0,0.0
19:43:21.341000,87.0,-40.0,-134.0,-879.0,468.0,-239.0,0.0,0.0,0.0
19:43:21.347000,82.0,-59.0,-120.0,-879.0,468.0,-239.0,0.0,0.0,0.0
19:43:21.351000,78.0,-79.0,-102.0,-942.0,484.0,-226.0,0.0,0.0,0.0
19:43:21.356000,68.0,-102.0,-84.0,-942.0,484.0,-226.0,0.0,0.0,0.0
19:43:21.361000,57.0,-125.0,-49.0,-968.0,498.0,-190.0,0.0,0.0,0.0
19:43:21.365000,30.0,-139.0,37.0,-968.0,498.0,-190.0,0.0,0.0,0.0
19:43:21.370000,30.0,-139.0,37.0,-963.0,487.0,-159.0,0.0,0.0,0.0
19:43:21.375000,-2.0,-154.0,177.0,-963.0,487.0,-159.0,0.0,0.0,0.0
19:43:21.380000,7.0,-170.0,197.0,-896.0,480.0,-174.0,0.0,0.0,0.0
19:43:21.384000,27.0,-173.0,130.0,-896.0,480.0,-174.0,0.0,0.0,0.0
19:43:21.389000,41.0,-193.0,180.0,-809.0,443.0,-186.0,0.0,0.0,0.0
19:43:21.394000,42.0,-199.0,244.0,-809.0,443.0,-186.0,0.0,0.0,0.0
19:43:21.398000,35.0,-203.0,263.0,-823.0,411.0,-174.0,0.0,0.0,0.0
19:43:21.403000,32.0,-206.0,250.0,-823.0,411.0,-174.0,0.0,0.0,0.0
19:43:21.408000,16.0,-210.0,265.0,-873.0,444.0,-174.0,0.0,0.0,0.0
19:43:21.412000,12.0,-217.0,242.0,-873.0,444.0,-174.0,0.0,0.0,0.0
19:43:21.417000,-18.0,-221.0,208.0,-913.0,480.0,-184.0,0.0,0.0,0.0
19:43:21.422000,-32.0,-226.0,210.0,-913.0,480.0,-184.0,0.0,0.0,0.0
19:43:21.427000,-56.0,-224.0,214.0,-960.0,486.0,-201.0,0.0,0.0,0.0
19:43:21.431000,-86.0,-222.0,217.0,-960.0,486.0,-201.0,0.0,0.0,0.0
19:43:21.436000,-95.0,-215.0,235.0,-960.0,486.0,-201.0,0.0,0.0,0.0
19:43:21.441000,-109.0,-207.0,216.0,-995.0,462.0,-219.0,0.0,0.0,0.0
19:43:21.445000,-120.0,-198.0,224.0,-995.0,462.0,-219.0,0.0,0.0,0.0
19:43:21.449000,-129.0,-196.0,253.0,-991.0,418.0,-224.0,0.0,0.0,0.0
19:43:21.455000,-130.0,-194.0,274.0,-991.0,418.0,-224.0,0.0,0.0,0.0
19:43:21.459000,-121.0,-193.0,277.0,-954.0,356.0,-214.0,0.0,0.0,0.0
19:43:21.464000,-115.0,-193.0,292.0,-954.0,356.0,-214.0,0.0,0.0,0.0
19:43:21.469000,-98.0,-195.0,325.0,-910.0,291.0,-201.0,0.0,0.0,0.0
19:43:21.474000,-74.0,-196.0,350.0,-910.0,291.0,-201.0,0.0,0.0,0.0
19:43:21.478000,-47.0,-192.0,351.0,-848.0,229.0,-192.0,0.0,0.0,0.0
19:43:21.483000,-47.0,-192.0,351.0,-848.0,229.0,-192.0,0.0,0.0,0.0
19:43:21.488000,-18.0,-183.0,326.0,-812.0,191.0,-186.0,0.0,0.0,0.0
19:43:21.492000,1.0,-173.0,320.0,-812.0,191.0,-186.0,0.0,0.0,0.0
19:43:21.497000,16.0,-159.0,338.0,-814.0,184.0,-173.0,0.0,0.0,0.0
19:43:21.502000,25.0,-154.0,359.0,-814.0,184.0,-173.0,0.0,0.0,0.0
19:43:21.506000,23.0,-145.0,395.0,-827.0,180.0,-154.0,0.0,0.0,0.0
19:43:21.511000,11.0,-134.0,429.0,-827.0,180.0,-154.0,0.0,0.0,0.0
19:43:21.516000,-11.0,-124.0,466.0,-839.0,180.0,-136.0,0.0,0.0,0.0
19:43:21.521000,-32.0,-115.0,495.0,-839.0,180.0,-136.0,0.0,0.0,0.0
19:43:21.525000,-61.0,-104.0,492.0,-854.0,170.0,-124.0,0.0,0.0,0.0
19:43:21.530000,-88.0,-93.0,489.0,-854.0,170.0,-124.0,0.0,0.0,0.0
19:43:21.535000,-112.0,-81.0,490.0,-852.0,122.0,-123.0,0.0,0.0,0.0
19:43:21.539000,-130.0,-67.0,459.0,-852.0,122.0,-123.0,0.0,0.0,0.0
19:43:21.544000,-151.0,-52.0,387.0,-852.0,122.0,-123.0,0.0,0.0,0.0
19:43:21.549000,-171.0,-32.0,342.0,-831.0,78.0,-135.0,0.0,0.0,0.0
19:43:21.553000,-182.0,-11.0,306.0,-831.0,78.0,-135.0,0.0,0.0,0.0
19:43:21.558000,-198.0,11.0,236.0,-797.0,64.0,-159.0,0.0,0.0,0.0
19:43:21.563000,-208.0,30.0,179.0,-797.0,64.0,-159.0,0.0,0.0,0.0
19:43:21.568000,-217.0,46.0,127.0,-771.0,71.0,-181.0,0.0,0.0,0.0
19:43:21.572000,-223.0,54.0,102.0,-771.0,71.0,-181.0,0.0,0.0,0.0
19:43:21.576000,-223.0,54.0,102.0,-741.0,78.0,-188.0,0.0,0.0,0.0
19:43:21.582000,-213.0,60.0,105.0,-741.0,78.0,-188.0,0.0,0.0,0.0
19:43:21.586000,-203.0,54.0,98.0,-686.0,61.0,-184.0,0.0,0.0,0.0
19:43:21.591000,-203.0,54.0,98.0,-686.0,61.0,-184.0,0.0,0.0,0.0
19:43:21.596000,-192.0,42.0,109.0,-625.0,41.0,-167.0,0.0,0.0,0.0
19:43:21.600000,-179.0,26.0,145.0,-625.0,41.0,-167.0,0.0,0.0,0.0
19:43:21.605000,-165.0,11.0,179.0,-572.0,8.0,-147.0,0.0,0.0,0.0
19:43:21.610000,-145.0,-5.0,200.0,-572.0,8.0,-147.0,0.0,0.0,0.0
19:43:21.615000,-121.0,-19.0,205.0,-554.0,-26.0,-132.0,0.0,0.0,0.0
19:43:21.619000,-102.0,-33.0,207.0,-554.0,-26.0,-132.0,0.0,0.0,0.0
19:43:21.624000,-81.0,-46.0,219.0,-553.0,-54.0,-115.0,0.0,0.0,0.0
19:43:21.629000,-59.0,-60.0,218.0,-553.0,-54.0,-115.0,0.0,0.0,0.0
19:43:21.633000,-41.0,-74.0,203.0,-557.0,-62.0,-96.0,0.0,0.0,0.0
19:43:21.638000,-23.0,-86.0,193.0,-557.0,-62.0,-96.0,0.0,0.0,0.0
19:43:21.643000,-5.0,-95.0,186.0,-564.0,-44.0,-80.0,0.0,0.0,0.0
19:43:21.647000,7.0,-104.0,172.0,-564.0,-44.0,-80.0,0.0,0.0,0.0
19:43:21.652000,17.0,-110.0,157.0,-564.0,-44.0,-80.0,0.0,0.0,0.0
19:43:21.657000,24.0,-115.0,147.0,-576.0,-18.0,-69.0,0.0,0.0,0.0
19:43:21.662000,30.0,-119.0,144.0,-576.0,-18.0,-69.0,0.0,0.0,0.0
19:43:21.666000,38.0,-116.0,146.0,-580.0,-7.0,-61.0,0.0,0.0,0.0
19:43:21.671000,42.0,-116.0,147.0,-580.0,-7.0,-61.0,0.0,0.0,0.0
19:43:21.676000,43.0,-114.0,156.0,-567.0,-15.0,-54.0,0.0,0.0,0.0
19:43:21.680000,44.0,-114.0,166.0,-567.0,-15.0,-54.0,0.0,0.0,0.0
19:43:21.685000,40.0,-112.0,168.0,-561.0,-12.0,-44.0,0.0,0.0,0.0
19:43:21.690000,36.0,-107.0,164.0,-561.0,-12.0,-44.0,0.0,0.0,0.0
19:43:21.694000,29.0,-98.0,161.0,-557.0,-9.0,-40.0,0.0,0.0,0.0
19:43:21.699000,29.0,-98.0,161.0,-557.0,-9.0,-40.0,0.0,0.0,0.0
19:43:21.704000,18.0,-88.0,158.0,-556.0,-9.0,-45.0,0.0,0.0,0.0
19:43:21.709000,4.0,-77.0,147.0,-556.0,-9.0,-45.0,0.0,0.0,0.0
19:43:21.713000,-13.0,-70.0,126.0,-569.0,17.0,-49.0,0.0,0.0,0.0
19:43:21.718000,-29.0,-67.0,101.0,-569.0,17.0,-49.0,0.0,0.0,0.0
19:43:21.723000,-44.0,-69.0,77.0,-577.0,50.0,-48.0,0.0,0.0,0.0
19:43:21.727000,-53.0,-74.0,59.0,-577.0,50.0,-48.0,0.0,0.0,0.0
19:43:21.732000,-54.0,-80.0,42.0,-559.0,48.0,-46.0,0.0,0.0,0.0
19:43:21.737000,-50.0,-87.0,29.0,-559.0,48.0,-46.0,0.0,0.0,0.0
19:43:21.741000,-45.0,-94.0,25.0,-541.0,32.0,-48.0,0.0,0.0,0.0
19:43:21.746000,-41.0,-100.0,27.0,-541.0,32.0,-48.0,0.0,0.0,0.0
19:43:21.751000,-42.0,-107.0,34.0,-539.0,40.0,-50.0,0.0,0.0,0.0
19:43:21.756000,-45.0,-112.0,46.0,-539.0,40.0,-50.0,0.0,0.0,0.0
19:43:21.760000,-50.0,-115.0,59.0,-539.0,61.0,-53.0,0.0,0.0,0.0
19:43:21.765000,-54.0,-114.0,67.0,-551.0,61.0,-53.0,0.0,0.0,0.0
19:43:21.770000,-60.0,-111.0,72.0,-551.0,61.0,-53.0,0.0,0.0,0.0
19:43:21.774000,-65.0,-105.0,81.0,-568.0,79.0,-61.0,0.0,0.0,0.0
19:43:21.779000,-67.0,-98.0,88.0,-568.0,79.0,-61.0,0.0,0.0,0.0
19:43:21.784000,-67.0,-90.0,85.0,-571.0,84.0,-69.0,0.0,0.0,0.0
19:43:21.788000,-63.0,-79.0,73.0,-571.0,84.0,-69.0,0.0,0.0,0.0
19:43:21.793000,-58.0,-67.0,61.0,-580.0,84.0,-77.0,0.0,0.0,0.0
19:43:21.798000,-51.0,-53.0,54.0,-580.0,84.0,-77.0,0.0,0.0,0.0
19:43:21.803000,-43.0,-40.0,50.0,-610.0,83.0,-83.0,0.0,0.0,0.0
19:43:21.807000,-34.0,-28.0,47.0,-610.0,83.0,-83.0,0.0,0.0,0.0
19:43:21.811000,-34.0,-28.0,47.0,-628.0,78.0,-88.0,0.0,0.0,0.0
19:43:21.817000,-25.0,-18.0,42.0,-628.0,78.0,-88.0,0.0,0.0,0.0
19:43:21.821000,-18.0,-8.0,38.0,-627.0,91.0,-92.0,0.0,0.0,0.0
19:43:21.826000,-13.0,0.0,39.0,-627.0,91.0,-92.0,0.0,0.0,0.0
19:43:21.831000,-10.0,8.0,45.0,-629.0,111.0,-99.0,0.0,0.0,0.0
19:43:21.835000,-6.0,16.0,54.0,-629.0,111.0,-99.0,0.0,0.0,0.0
19:43:21.840000,-1.0,25.0,64.0,-646.0,108.0,-109.0,0.0,0.0,0.0
19:43:21.845000,2.0,32.0,77.0,-646.0,108.0,-109.0,0.0,0.0,0.0
19:43:21.850000,5.0,39.0,94.0,-667.0,101.0,-118.0,0.0,0.0,0.0
19:43:21.854000,6.0,44.0,108.0,-667.0,101.0,-118.0,0.0,0.0,0.0
19:43:21.859000,4.0,48.0,112.0,-672.0,116.0,-121.0,0.0,0.0,0.0
19:43:21.864000,-1.0,49.0,110.0,-672.0,116.0,-121.0,0.0,0.0,0.0
19:43:21.868000,-11.0,51.0,105.0,-653.0,142.0,-124.0,0.0,0.0,0.0
19:43:21.873000,-23.0,54.0,105.0,-653.0,142.0,-124.0,0.0,0.0,0.0
19:43:21.878000,-35.0,57.0,102.0,-653.0,142.0,-124.0,0.0,0.0,0.0
19:43:21.882000,-49.0,58.0,93.0,-635.0,158.0,-134.0,0.0,0.0,0.0
19:43:21.887000,-70.0,55.0,81.0,-658.0,185.0,-148.0,0.0,0.0,0.0
19:43:21.892000,-93.0,50.0,65.0,-658.0,185.0,-148.0,0.0,0.0,0.0
19:43:21.897000,-115.0,44.0,49.0,-658.0,185.0,-148.0,0.0,0.0,0.0
19:43:21.901000,-137.0,37.0,31.0,-694.0,211.0,-160.0,0.0,0.0,0.0
19:43:21.906000,-158.0,29.0,11.0,-694.0,211.0,-160.0,0.0,0.0,0.0
19:43:21.911000,-181.0,17.0,-4.0,-722.0,227.0,-173.0,0.0,0.0,0.0
19:43:21.915000,-205.0,4.0,-12.0,-722.0,227.0,-173.0,0.0,0.0,0.0
19:43:21.920000,-205.0,4.0,-12.0,-756.0,250.0,-181.0,0.0,0.0,0.0
19:43:21.925000,-228.0,-11.0,-15.0,-756.0,250.0,-181.0,0.0,0.0,0.0
19:43:21.929000,-249.0,-25.0,-16.0,-770.0,261.0,-187.0,0.0,0.0,0.0
19:43:21.934000,-267.0,-39.0,-20.0,-770.0,261.0,-187.0,0.0,0.0,0.0
19:43:21.939000,-286.0,-51.0,-23.0,-770.0,264.0,-191.0,0.0,0.0,0.0
19:43:21.944000,-303.0,-63.0,-23.0,-770.0,264.0,-191.0,0.0,0.0,0.0
19:43:21.948000,-316.0,-72.0,-20.0,-787.0,253.0,-194.0,0.0,0.0,0.0
19:43:21.953000,-324.0,-81.0,-11.0,-787.0,253.0,-194.0,0.0,0.0,0.0
19:43:21.958000,-326.0,-93.0,4.0,-821.0,203.0,-196.0,0.0,0.0,0.0
19:43:21.962000,-319.0,-109.0,28.0,-821.0,203.0,-196.0,0.0,0.0,0.0
19:43:21.967000,-305.0,-123.0,45.0,-850.0,149.0,-197.0,0.0,0.0,0.0
19:43:21.972000,-294.0,-140.0,54.0,-850.0,149.0,-197.0,0.0,0.0,0.0
19:43:21.976000,-283.0,-154.0,62.0,-877.0,151.0,-201.0,0.0,0.0,0.0
19:43:21.981000,-278.0,-163.0,72.0,-877.0,151.0,-201.0,0.0,0.0,0.0
19:43:21.986000,-280.0,-170.0,73.0,-877.0,151.0,-201.0,0.0,0.0,0.0
19:43:21.991000,-292.0,-175.0,70.0,-928.0,208.0,-208.0,0.0,0.0,0.0
19:43:21.995000,-313.0,-179.0,72.0,-928.0,208.0,-208.0,0.0,0.0,0.0
19:43:22.000000,-340.0,-184.0,79.0,-991.0,279.0,-213.0,0.0,0.0,0.0
19:43:22.005000,-368.0,-191.0,80.0,-991.0,279.0,-213.0,0.0,0.0,0.0
19:43:22.009000,-401.0,-199.0,67.0,-1021.0,331.0,-214.0,0.0,0.0,0.0
19:43:22.014000,-440.0,-217.0,39.0,-1021.0,331.0,-214.0,0.0,0.0,0.0
19:43:22.019000,-477.0,-244.0,13.0,-1037.0,367.0,-209.0,0.0,0.0,0.0
19:43:22.023000,-508.0,-270.0,-3.0,-1037.0,367.0,-209.0,0.0,0.0,0.0
19:43:22.028000,-508.0,-270.0,-3.0,-1065.0,374.0,-199.0,0.0,0.0,0.0
19:43:22.033000,-539.0,-293.0,-23.0,-1065.0,374.0,-199.0,0.0,0.0,0.0
19:43:22.038000,-575.0,-314.0,-51.0,-1100.0,385.0,-193.0,0.0,0.0,0.0
19:43:22.042000,-618.0,-334.0,-77.0,-1100.0,385.0,-193.0,0.0,0.0,0.0
19:43:22.046000,-660.0,-361.0,-101.0,-1106.0,414.0,-185.0,0.0,0.0,0.0
19:43:22.052000,-701.0,-392.0,-129.0,-1106.0,414.0,-185.0,0.0,0.0,0.0
19:43:22.056000,-738.0,-422.0,-167.0,-1064.0,429.0,-180.0,0.0,0.0,0.0
19:43:22.061000,-771.0,-450.0,-221.0,-1064.0,429.0,-180.0,0.0,0.0,0.0
19:43:22.066000,-808.0,-476.0,-292.0,-1039.0,483.0,-176.0,0.0,0.0,0.0
19:43:22.070000,-852.0,-505.0,-357.0,-1039.0,483.0,-176.0,0.0,0.0,0.0
19:43:22.075000,-901.0,-534.0,-415.0,-1040.0,566.0,-167.0,0.0,0.0,0.0
19:43:22.080000,-957.0,-563.0,-464.0,-1040.0,566.0,-167.0,0.0,0.0,0.0
19:43:22.085000,-1015.0,-588.0,-514.0,-1039.0,633.0,-155.0,0.0,0.0,0.0
19:43:22.089000,-1078.0,-611.0,-564.0,-1039.0,633.0,-155.0,0.0,0.0,0.0
19:43:22.094000,-1141.0,-635.0,-617.0,-1039.0,633.0,-155.0,0.0,0.0,0.0
19:43:22.099000,-1209.0,-660.0,-663.0,-1061.0,697.0,-139.0,0.0,0.0,0.0
19:43:22.103000,-1264.0,-686.0,-688.0,-1061.0,697.0,-139.0,0.0,0.0,0.0
19:43:22.108000,-1311.0,-716.0,-715.0,-1095.0,723.0,-125.0,0.0,0.0,0.0
19:43:22.113000,-1351.0,-746.0,-756.0,-1095.0,723.0,-125.0,0.0,0.0,0.0
19:43:22.117000,-1391.0,-779.0,-795.0,-1111.0,736.0,-111.0,0.0,0.0,0.0
19:43:22.122000,-1407.0,-807.0,-824.0,-1111.0,736.0,-111.0,0.0,0.0,0.0
19:43:22.127000,-1432.0,-853.0,-847.0,-1129.0,753.0,-100.0,0.0,0.0,0.0
19:43:22.132000,-1445.0,-887.0,-819.0,-1129.0,753.0,-100.0,0.0,0.0,0.0
19:43:22.136000,-1445.0,-887.0,-819.0,-1117.0,732.0,-99.0,0.0,0.0,0.0
19:43:22.141000,-1449.0,-938.0,-728.0,-1117.0,732.0,-99.0,0.0,0.0,0.0
19:43:22.146000,-1519.0,-966.0,-857.0,-1209.0,757.0,-106.0,0.0,0.0,0.0
19:43:22.150000,-1487.0,-1006.0,-1052.0,-1209.0,757.0,-106.0,0.0,0.0,0.0
19:43:22.155000,-1512.0,-1036.0,-1043.0,-1196.0,817.0,-112.0,0.0,0.0,0.0
19:43:22.160000,-1532.0,-1065.0,-914.0,-1196.0,817.0,-112.0,0.0,0.0,0.0
19:43:22.164000,-1577.0,-1075.0,-834.0,-1009.0,880.0,-96.0,0.0,0.0,0.0
19:43:22.169000,-1612.0,-1087.0,-842.0,-1009.0,880.0,-96.0,0.0,0.0,0.0
19:43:22.174000,-1653.0,-1114.0,-898.0,-985.0,933.0,-86.0,0.0,0.0,0.0
19:43:22.179000,-1677.0,-1146.0,-935.0,-985.0,933.0,-86.0,0.0,0.0,0.0
19:43:22.183000,-1718.0,-1194.0,-935.0,-1123.0,948.0,-61.0,0.0,0.0,0.0
19:43:22.188000,-1784.0,-1236.0,-898.0,-1123.0,948.0,-61.0,0.0,0.0,0.0
19:43:22.193000,-1810.0,-1269.0,-859.0,-1213.0,872.0,-40.0,0.0,0.0,0.0
19:43:22.197000,-1818.0,-1307.0,-798.0,-1213.0,872.0,-40.0,0.0,0.0,0.0
19:43:22.202000,-1850.0,-1344.0,-798.0,-1213.0,872.0,-40.0,0.0,0.0,0.0
19:43:22.207000,-1883.0,-1374.0,-849.0,-1160.0,807.0,-23.0,0.0,0.0,0.0
19:43:22.211000,-1904.0,-1395.0,-834.0,-1160.0,807.0,-23.0,0.0,0.0,0.0
19:43:22.216000,-1932.0,-1425.0,-758.0,-1157.0,788.0,23.0,0.0,0.0,0.0
19:43:22.221000,-1941.0,-1446.0,-714.0,-1157.0,788.0,23.0,0.0,0.0,0.0
19:43:22.226000,-1941.0,-1446.0,-787.0,-1158.0,688.0,48.0,0.0,0.0,0.0
19:43:22.230000,-1941.0,-1442.0,-828.0,-1158.0,688.0,48.0,0.0,0.0,0.0
19:43:22.235000,-1953.0,-1448.0,-781.0,-966.0,651.0,64.0,0.0,0.0,0.0
19:43:22.240000,-1969.0,-1460.0,-758.0,-966.0,651.0,64.0,0.0,0.0,0.0
19:43:22.244000,-1981.0,-1477.0,-799.0,-853.0,653.0,114.0,0.0,0.0,0.0
19:43:22.249000,-1981.0,-1477.0,-799.0,-853.0,653.0,114.0,0.0,0.0,0.0
19:43:22.254000,-1971.0,-1498.0,-801.0,-890.0,521.0,152.0,0.0,0.0,0.0
19:43:22.258000,-1953.0,-1519.0,-730.0,-890.0,521.0,152.0,0.0,0.0,0.0
19:43:22.263000,-1933.0,-1535.0,-658.0,-850.0,376.0,165.0,0.0,0.0,0.0
19:43:22.268000,-1908.0,-1560.0,-593.0,-850.0,376.0,165.0,0.0,0.0,0.0
19:43:22.273000,-1884.0,-1585.0,-524.0,-854.0,322.0,188.0,0.0,0.0,0.0
19:43:22.277000,-1857.0,-1598.0,-483.0,-854.0,322.0,188.0,0.0,0.0,0.0
19:43:22.281000,-1823.0,-1596.0,-475.0,-873.0,308.0,202.0,0.0,0.0,0.0
19:43:22.287000,-1793.0,-1583.0,-448.0,-873.0,308.0,202.0,0.0,0.0,0.0
19:43:22.291000,-1768.0,-1564.0,-425.0,-870.0,353.0,212.0,0.0,0.0,0.0
19:43:22.296000,-1757.0,-1530.0,-427.0,-870.0,353.0,212.0,0.0,0.0,0.0
19:43:22.301000,-1752.0,-1491.0,-424.0,-897.0,427.0,241.0,0.0,0.0,0.0
19:43:22.305000,-1758.0,-1443.0,-422.0,-897.0,427.0,241.0,0.0,0.0,0.0
19:43:22.310000,-1763.0,-1390.0,-410.0,-897.0,427.0,241.0,0.0,0.0,0.0
19:43:22.315000,-1745.0,-1333.0,-404.0,-918.0,450.0,270.0,0.0,0.0,0.0
19:43:22.320000,-1740.0,-1273.0,-362.0,-918.0,450.0,270.0,0.0,0.0,0.0
19:43:22.324000,-1717.0,-1217.0,-319.0,-954.0,422.0,286.0,0.0,0.0,0.0
19:43:22.329000,-1719.0,-1146.0,-322.0,-954.0,422.0,286.0,0.0,0.0,0.0
19:43:22.334000,-1708.0,-1082.0,-355.0,-1031.0,409.0,288.0,0.0,0.0,0.0
19:43:22.338000,-1706.0,-1012.0,-398.0,-1031.0,409.0,288.0,0.0,0.0,0.0
19:43:22.343000,-1700.0,-947.0,-427.0,-1068.0,451.0,274.0,0.0,0.0,0.0
19:43:22.348000,-1715.0,-886.0,-413.0,-1068.0,451.0,274.0,0.0,0.0,0.0
19:43:22.352000,-1682.0,-833.0,-364.0,-1036.0,481.0,252.0,0.0,0.0,0.0
19:43:22.357000,-1682.0,-833.0,-364.0,-1036.0,481.0,252.0,0.0,0.0,0.0
19:43:22.362000,-1676.0,-781.0,-338.0,-1044.0,494.0,230.0,0.0,0.0,0.0
19:43:22.367000,-1662.0,-735.0,-354.0,-1044.0,494.0,230.0,0.0,0.0,0.0
19:43:22.371000,-1649.0,-700.0,-358.0,-1066.0,529.0,215.0,0.0,0.0,0.0
19:43:22.376000,-1642.0,-678.0,-361.0,-1066.0,529.0,215.0,0.0,0.0,0.0
19:43:22.381000,-1607.0,-667.0,-374.0,-1022.0,533.0,206.0,0.0,0.0,0.0
19:43:22.385000,-1577.0,-654.0,-388.0,-1022.0,533.0,206.0,0.0,0.0,0.0
19:43:22.390000,-1549.0,-646.0,-382.0,-945.0,504.0,198.0,0.0,0.0,0.0
19:43:22.395000,-1512.0,-644.0,-352.0,-945.0,504.0,198.0,0.0,0.0,0.0
19:43:22.399000,-1467.0,-644.0,-315.0,-913.0,473.0,190.0,0.0,0.0,0.0
19:43:22.404000,-1417.0,-649.0,-300.0,-913.0,473.0,190.0,0.0,0.0,0.0
19:43:22.409000,-1365.0,-653.0,-295.0,-918.0,462.0,191.0,0.0,0.0,0.0
19:43:22.414000,-1318.0,-655.0,-284.0,-918.0,462.0,191.0,0.0,0.0,0.0
19:43:22.418000,-1269.0,-658.0,-261.0,-918.0,462.0,191.0,0.0,0.0,0.0
19:43:22.423000,-1222.0,-662.0,-228.0,-873.0,448.0,207.0,0.0,0.0,0.0
19:43:22.428000,-1171.0,-660.0,-201.0,-873.0,448.0,207.0,0.0,0.0,0.0
19:43:22.432000,-1124.0,-659.0,-190.0,-815.0,417.0,221.0,0.0,0.0,0.0
19:43:22.437000,-1093.0,-654.0,-189.0,-815.0,417.0,221.0,0.0,0.0,0.0
19:43:22.442000,-1060.0,-649.0,-182.0,-809.0,426.0,238.0,0.0,0.0,0.0
19:43:22.446000,-1037.0,-644.0,-169.0,-809.0,426.0,238.0,0.0,0.0,0.0
19:43:22.451000,-1015.0,-631.0,-151.0,-817.0,454.0,263.0,0.0,0.0,0.0
19:43:22.456000,-989.0,-613.0,-134.0,-817.0,454.0,263.0,0.0,0.0,0.0
19:43:22.460000,-975.0,-590.0,-123.0,-794.0,466.0,287.0,0.0,0.0,0.0
19:43:22.465000,-975.0,-590.0,-123.0,-794.0,466.0,287.0,0.0,0.0,0.0
19:43:22.470000,-958.0,-568.0,-116.0,-766.0,484.0,307.0,0.0,0.0,0.0
19:43:22.475000,-952.0,-541.0,-114.0,-766.0,484.0,307.0,0.0,0.0,0.0
19:43:22.479000,-949.0,-513.0,-108.0,-756.0,523.0,324.0,0.0,0.0,0.0
19:43:22.484000,-959.0,-484.0,-115.0,-756.0,523.0,324.0,0.0,0.0,0.0
19:43:22.489000,-972.0,-455.0,-139.0,-763.0,595.0,334.0,0.0,0.0,0.0
19:43:22.493000,-995.0,-430.0,-172.0,-763.0,595.0,334.0,0.0,0.0,0.0
19:43:22.498000,-1012.0,-412.0,-193.0,-761.0,656.0,341.0,0.0,0.0,0.0
19:43:22.503000,-1027.0,-400.0,-200.0,-761.0,656.0,341.0,0.0,0.0,0.0
19:43:22.507000,-1040.0,-399.0,-219.0,-721.0,683.0,345.0,0.0,0.0,0.0
19:43:22.512000,-1044.0,-404.0,-251.0,-721.0,683.0,345.0,0.0,0.0,0.0
19:43:22.516000,-1045.0,-414.0,-284.0,-691.0,704.0,339.0,0.0,0.0,0.0
19:43:22.522000,-1040.0,-424.0,-312.0,-691.0,704.0,339.0,0.0,0.0,0.0
19:43:22.526000,-1038.0,-436.0,-340.0,-691.0,729.0,339.0,0.0,0.0,0.0
19:43:22.531000,-1038.0,-448.0,-360.0,-702.0,729.0,326.0,0.0,0.0,0.0
19:43:22.536000,-1038.0,-466.0,-373.0,-702.0,729.0,326.0,0.0,0.0,0.0
19:43:22.540000,-1039.0,-486.0,-382.0,-732.0,758.0,315.0,0.0,0.0,0.0
19:43:22.545000,-1039.0,-507.0,-388.0,-732.0,758.0,315.0,0.0,0.0,0.0
19:43:22.550000,-1040.0,-534.0,-395.0,-745.0,787.0,306.0,0.0,0.0,0.0
19:43:22.554000,-1044.0,-560.0,-398.0,-745.0,787.0,306.0,0.0,0.0,0.0
19:43:22.559000,-1055.0,-586.0,-394.0,-731.0,818.0,303.0,0.0,0.0,0.0
19:43:22.564000,-1073.0,-611.0,-383.0,-731.0,818.0,303.0,0.0,0.0,0.0
19:43:22.569000,-1094.0,-631.0,-368.0,-717.0,848.0,308.0,0.0,0.0,0.0
19:43:22.573000,-1094.0,-631.0,-368.0,-717.0,848.0,308.0,0.0,0.0,0.0
19:43:22.578000,-1121.0,-651.0,-351.0,-716.0,875.0,313.0,0.0,0.0,0.0
19:43:22.583000,-1153.0,-672.0,-334.0,-716.0,875.0,313.0,0.0,0.0,0.0
19:43:22.587000,-1185.0,-692.0,-322.0,-718.0,894.0,317.0,0.0,0.0,0.0
19:43:22.592000,-1217.0,-710.0,-313.0,-718.0,894.0,317.0,0.0,0.0,0.0
19:43:22.597000,-1250.0,-728.0,-303.0,-709.0,896.0,317.0,0.0,0.0,0.0
19:43:22.601000,-1285.0,-744.0,-293.0,-709.0,896.0,317.0,0.0,0.0,0.0
19:43:22.606000,-1321.0,-758.0,-289.0,-708.0,896.0,311.0,0.0,0.0,0.0
19:43:22.611000,-1362.0,-770.0,-284.0,-708.0,896.0,311.0,0.0,0.0,0.0
19:43:22.616000,-1402.0,-781.0,-269.0,-710.0,891.0,301.0,0.0,0.0,0.0
19:43:22.620000,-1446.0,-793.0,-249.0,-710.0,891.0,301.0,0.0,0.0,0.0
19:43:22.625000,-1491.0,-809.0,-229.0,-700.0,883.0,292.0,0.0,0.0,0.0
19:43:22.630000,-1541.0,-827.0,-216.0,-700.0,883.0,292.0,0.0,0.0,0.0
19:43:22.634000,-1591.0,-846.0,-204.0,-677.0,876.0,289.0,0.0,0.0,0.0
19:43:22.639000,-1638.0,-866.0,-184.0,-677.0,876.0,289.0,0.0,0.0,0.0
19:43:22.644000,-1681.0,-887.0,-163.0,-677.0,876.0,289.0,0.0,0.0,0.0
19:43:22.648000,-1719.0,-912.0,-159.0,-642.0,857.0,282.0,0.0,0.0,0.0
19:43:22.653000,-1756.0,-942.0,-167.0,-642.0,857.0,282.0,0.0,0.0,0.0
19:43:22.658000,-1788.0,-973.0,-176.0,-635.0,835.0,270.0,0.0,0.0,0.0
19:43:22.663000,-1814.0,-1006.0,-182.0,-635.0,835.0,270.0,0.0,0.0,0.0
19:43:22.667000,-1836.0,-1040.0,-194.0,-634.0,809.0,258.0,0.0,0.0,0.0
19:43:22.672000,-1857.0,-1075.0,-220.0,-634.0,809.0,258.0,0.0,0.0,0.0
19:43:22.677000,-1880.0,-1112.0,-256.0,-626.0,799.0,244.0,0.0,0.0,0.0
19:43:22.681000,-1903.0,-1150.0,-292.0,-626.0,799.0,244.0,0.0,0.0,0.0
19:43:22.686000,-1903.0,-1150.0,-292.0,-627.0,812.0,236.0,0.0,0.0,0.0
19:43:22.691000,-1925.0,-1185.0,-329.0,-627.0,812.0,236.0,0.0,0.0,0.0
19:43:22.695000,-1942.0,-1216.0,-367.0,-620.0,815.0,226.0,0.0,0.0,0.0
19:43:22.700000,-1961.0,-1245.0,-410.0,-620.0,815.0,226.0,0.0,0.0,0.0
19:43:22.705000,-1983.0,-1271.0,-456.0,-628.0,825.0,212.0,0.0,0.0,0.0
19:43:22.710000,-2002.0,-1293.0,-500.0,-628.0,825.0,212.0,0.0,0.0,0.0
19:43:22.714000,-2023.0,-1313.0,-546.0,-652.0,848.0,200.0,0.0,0.0,0.0
19:43:22.719000,-2044.0,-1330.0,-595.0,-652.0,848.0,200.0,0.0,0.0,0.0
19:43:22.724000,-2061.0,-1348.0,-643.0,-658.0,868.0,193.0,0.0,0.0,0.0
19:43:22.728000,-2081.0,-1367.0,-688.0,-658.0,868.0,193.0,0.0,0.0,0.0
19:43:22.733000,-2097.0,-1383.0,-721.0,-635.0,882.0,189.0,0.0,0.0,0.0
19:43:22.738000,-2112.0,-1400.0,-750.0,-635.0,882.0,189.0,0.0,0.0,0.0
19:43:22.742000,-2127.0,-1414.0,-781.0,-622.0,902.0,183.0,0.0,0.0,0.0
19:43:22.747000,-2144.0,-1428.0,-809.0,-622.0,902.0,183.0,0.0,0.0,0.0
19:43:22.751000,-2163.0,-1442.0,-826.0,-622.0,902.0,183.0,0.0,0.0,0.0
19:43:22.757000,-2181.0,-1455.0,-831.0,-633.0,926.0,177.0,0.0,0.0,0.0
19:43:22.761000,-2198.0,-1464.0,-830.0,-633.0,926.0,177.0,0.0,0.0,0.0
19:43:22.766000,-2212.0,-1471.0,-820.0,-624.0,936.0,162.0,0.0,0.0,0.0
19:43:22.771000,-2226.0,-1476.0,-804.0,-624.0,936.0,162.0,0.0,0.0,0.0
19:43:22.827000,-2184.0,-1466.0,-424.0,-565.0,880.0,-1.0,0.0,0.0,0.0
19:43:22.832000,-2173.0,-1469.0,-408.0,-560.0,874.0,-23.0,0.0,0.0,0.0
19:43:22.836000,-2154.0,-1474.0,-395.0,-560.0,874.0,-23.0,0.0,0.0,0.0
19:43:22.841000,-2128.0,-1479.0,-387.0,-533.0,836.0,-40.0,0.0,0.0,0.0
19:43:22.846000,-2097.0,-1485.0,-380.0,-533.0,836.0,-40.0,0.0,0.0,0.0
19:43:22.851000,-2064.0,-1486.0,-378.0,-514.0,804.0,-59.0,0.0,0.0,0.0
19:43:22.855000,-2032.0,-1481.0,-379.0,-514.0,804.0,-59.0,0.0,0.0,0.0
19:43:22.860000,-2004.0,-1477.0,-377.0,-514.0,804.0,-59.0,0.0,0.0,0.0
19:43:22.865000,-1981.0,-1472.0,-371.0,-525.0,806.0,-71.0,0.0,0.0,0.0
19:43:22.869000,-1958.0,-1467.0,-365.0,-525.0,806.0,-71.0,0.0,0.0,0.0
19:43:22.874000,-1940.0,-1460.0,-366.0,-535.0,828.0,-73.0,0.0,0.0,0.0
19:43:22.879000,-1927.0,-1451.0,-373.0,-535.0,828.0,-73.0,0.0,0.0,0.0
19:43:22.883000,-1917.0,-1442.0,-375.0,-520.0,854.0,-72.0,0.0,0.0,0.0
19:43:22.888000,-1911.0,-1432.0,-371.0,-520.0,854.0,-72.0,0.0,0.0,0.0
19:43:22.893000,-1906.0,-1423.0,-362.0,-503.0,873.0,-67.0,0.0,0.0,0.0
19:43:22.898000,-1901.0,-1412.0,-347.0,-503.0,873.0,-67.0,0.0,0.0,0.0
19:43:22.902000,-1901.0,-1412.0,-347.0,-497.0,866.0,-69.0,0.0,0.0,0.0
19:43:22.907000,-1895.0,-1400.0,-325.0,-497.0,866.0,-69.0,0.0,0.0,0.0
19:43:22.912000,-1885.0,-1387.0,-301.0,-513.0,839.0,-85.0,0.0,0.0,0.0
19:43:22.916000,-1872.0,-1375.0,-275.0,-513.0,839.0,-85.0,0.0,0.0,0.0
19:43:22.921000,-1857.0,-1363.0,-249.0,-546.0,807.0,-106.0,0.0,0.0,0.0
19:43:22.926000,-1841.0,-1351.0,-217.0,-546.0,807.0,-106.0,0.0,0.0,0.0
19:43:22.930000,-1817.0,-1335.0,-177.0,-554.0,762.0,-126.0,0.0,0.0,0.0
19:43:22.935000,-1788.0,-1318.0,-137.0,-554.0,762.0,-126.0,0.0,0.0,0.0
19:43:22.940000,-1755.0,-1302.0,-99.0,-529.0,712.0,-145.0,0.0,0.0,0.0
19:43:22.945000,-1719.0,-1281.0,-64.0,-529.0,712.0,-145.0,0.0,0.0,0.0
19:43:22.949000,-1680.0,-1257.0,-36.0,-511.0,673.0,-163.0,0.0,0.0,0.0
19:43:22.954000,-1637.0,-1228.0,-20.0,-511.0,673.0,-163.0,0.0,0.0,0.0
19:43:22.959000,-1593.0,-1197.0,-15.0,-529.0,655.0,-193.0,0.0,0.0,0.0
19:43:22.963000,-1551.0,-1168.0,-16.0,-529.0,655.0,-193.0,0.0,0.0,0.0
19:43:22.968000,-1511.0,-1142.0,-21.0,-529.0,655.0,-193.0,0.0,0.0,0.0
19:43:22.973000,-1472.0,-1122.0,-20.0,-574.0,662.0,-222.0,0.0,0.0,0.0
19:43:22.977000,-1431.0,-1106.0,-16.0,-574.0,662.0,-222.0,0.0,0.0,0.0
19:43:22.982000,-1384.0,-1092.0,-16.0,-586.0,663.0,-238.0,0.0,0.0,0.0
19:43:22.987000,-1334.0,-1081.0,-22.0,-586.0,663.0,-238.0,0.0,0.0,0.0
19:43:22.992000,-1283.0,-1071.0,-34.0,-570.0,651.0,-252.0,0.0,0.0,0.0
19:43:22.996000,-1235.0,-1062.0,-44.0,-570.0,651.0,-252.0,0.0,0.0,0.0
19:43:23.001000,-1190.0,-1057.0,-50.0,-592.0,658.0,-258.0,0.0,0.0,0.0
19:43:23.006000,-1145.0,-1050.0,-54.0,-592.0,658.0,-258.0,0.0,0.0,0.0
19:43:23.010000,-1145.0,-1050.0,-54.0,-637.0,665.0,-251.0,0.0,0.0,0.0
19:43:23.015000,-1101.0,-1036.0,-61.0,-637.0,665.0,-251.0,0.0,0.0,0.0
19:43:23.020000,-1063.0,-1016.0,-77.0,-671.0,684.0,-240.0,0.0,0.0,0.0
19:43:23.024000,-1036.0,-993.0,-100.0,-671.0,684.0,-240.0,0.0,0.0,0.0
19:43:23.029000,-1021.0,-968.0,-121.0,-693.0,743.0,-220.0,0.0,0.0,0.0
19:43:23.034000,-1012.0,-938.0,-135.0,-693.0,743.0,-220.0,0.0,0.0,0.0
19:43:23.039000,-1005.0,-906.0,-145.0,-683.0,780.0,-195.0,0.0,0.0,0.0
19:43:23.043000,-995.0,-873.0,-159.0,-683.0,780.0,-195.0,0.0,0.0,0.0
19:43:23.048000,-984.0,-839.0,-175.0,-652.0,777.0,-179.0,0.0,0.0,0.0
19:43:23.053000,-970.0,-803.0,-185.0,-652.0,777.0,-179.0,0.0,0.0,0.0
19:43:23.057000,-957.0,-770.0,-189.0,-632.0,769.0,-171.0,0.0,0.0,0.0
19:43:23.062000,-941.0,-739.0,-186.0,-632.0,769.0,-171.0,0.0,0.0,0.0
19:43:23.067000,-924.0,-710.0,-177.0,-613.0,755.0,-163.0,0.0,0.0,0.0
19:43:23.071000,-903.0,-681.0,-162.0,-613.0,755.0,-163.0,0.0,0.0,0.0
19:43:23.076000,-882.0,-652.0,-143.0,-613.0,755.0,-163.0,0.0,0.0,0.0
19:43:23.081000,-859.0,-625.0,-125.0,-582.0,738.0,-158.0,0.0,0.0,0.0
19:43:23.086000,-833.0,-602.0,-102.0,-582.0,738.0,-158.0,0.0,0.0,0.0
19:43:23.090000,-799.0,-583.0,-72.0,-564.0,715.0,-156.0,0.0,0.0,0.0
19:43:23.095000,-756.0,-569.0,-40.0,-564.0,715.0,-156.0,0.0,0.0,0.0
19:43:23.100000,-704.0,-558.0,-14.0,-567.0,666.0,-156.0,0.0,0.0,0.0
19:43:23.104000,-648.0,-550.0,9.0,-567.0,666.0,-156.0,0.0,0.0,0.0
19:43:23.109000,-589.0,-542.0,34.0,-579.0,621.0,-156.0,0.0,0.0,0.0
19:43:23.114000,-534.0,-536.0,59.0,-579.0,621.0,-156.0,0.0,0.0,0.0
19:43:23.118000,-481.0,-531.0,83.0,-592.0,613.0,-153.0,0.0,0.0,0.0
19:43:23.123000,-481.0,-531.0,83.0,-592.0,613.0,-153.0,0.0,0.0,0.0
19:43:23.128000,-431.0,-527.0,105.0,-602.0,620.0,-143.0,0.0,0.0,0.0
19:43:23.133000,-385.0,-520.0,126.0,-602.0,620.0,-143.0,0.0,0.0,0.0
19:43:23.137000,-342.0,-514.0,146.0,-601.0,625.0,-129.0,0.0,0.0,0.0
19:43:23.142000,-305.0,-508.0,165.0,-601.0,625.0,-129.0,0.0,0.0,0.0
19:43:23.147000,-276.0,-502.0,186.0,-589.0,636.0,-112.0,0.0,0.0,0.0
19:43:23.151000,-251.0,-497.0,211.0,-589.0,636.0,-112.0,0.0,0.0,0.0
19:43:23.156000,-226.0,-494.0,238.0,-571.0,626.0,-93.0,0.0,0.0,0.0
19:43:23.161000,-200.0,-492.0,263.0,-571.0,626.0,-93.0,0.0,0.0,0.0
19:43:23.165000,-172.0,-492.0,284.0,-548.0,593.0,-76.0,0.0,0.0,0.0
19:43:23.170000,-143.0,-495.0,301.0,-548.0,593.0,-76.0,0.0,0.0,0.0
19:43:23.175000,-109.0,-497.0,316.0,-540.0,561.0,-68.0,0.0,0.0,0.0
19:43:23.180000,-69.0,-501.0,327.0,-540.0,561.0,-68.0,0.0,0.0,0.0
19:43:23.184000,-21.0,-508.0,335.0,-540.0,561.0,-68.0,0.0,0.0,0.0
19:43:23.189000,30.0,-521.0,333.0,-574.0,535.0,-70.0,0.0,0.0,0.0
19:43:23.194000,86.0,-540.0,328.0,-574.0,535.0,-70.0,0.0,0.0,0.0
19:43:23.198000,149.0,-564.0,326.0,-634.0,513.0,-63.0,0.0,0.0,0.0
19:43:23.203000,220.0,-591.0,326.0,-634.0,513.0,-63.0,0.0,0.0,0.0
