hh:mm:ss.ms,gyroX[mdps],gyroY[mdps],gyroZ[mdps],accX[mg],accY[mg],accZ[mg],magX[mG],magY[mG],magZ[mG]
19:44:46.919000,139.0,-31.0,-385.0,-1462.0,26.0,-189.0,0.0,0.0,0.0
19:44:46.924000,241.0,-9.0,-643.0,-1403.0,8.0,-223.0,0.0,0.0,0.0
19:44:46.928000,223.0,30.0,-662.0,-1403.0,8.0,-223.0,0.0,0.0,0.0
19:44:46.933000,220.0,59.0,-507.0,-1403.0,8.0,-223.0,0.0,0.0,0.0
19:44:46.938000,132.0,59.0,-487.0,-1320.0,14.0,-251.0,0.0,0.0,0.0
19:44:46.942000,105.0,45.0,-671.0,-1320.0,14.0,-251.0,0.0,0.0,0.0
19:44:46.947000,79.0,77.0,-723.0,-1240.0,151.0,-247.0,0.0,0.0,0.0
19:44:46.952000,-8.0,81.0,-914.0,-1240.0,151.0,-247.0,0.0,0.0,0.0
19:44:46.957000,5.0,79.0,-998.0,-1293.0,187.0,-232.0,0.0,0.0,0.0
19:44:46.961000,-71.0,67.0,-832.0,-1293.0,187.0,-232.0,0.0,0.0,0.0
19:44:46.966000,-116.0,94.0,-298.0,-1239.0,-99.0,-201.0,0.0,0.0,0.0
19:44:46.971000,-187.0,137.0,84.0,-1239.0,-99.0,-201.0,0.0,0.0,0.0
19:44:46.975000,-128.0,122.0,186.0,-1207.0,-273.0,-158.0,0.0,0.0,0.0
19:44:46.980000,-128.0,122.0,186.0,-1207.0,-273.0,-158.0,0.0,0.0,0.0
19:44:46.985000,-198.0,87.0,181.0,-1169.0,-427.0,-87.0,0.0,0.0,0.0
19:44:46.989000,-163.0,65.0,168.0,-1169.0,-427.0,-87.0,0.0,0.0,0.0
19:44:46.994000,-168.0,28.0,82.0,-832.0,-601.0,-16.0,0.0,0.0,0.0
19:44:46.999000,-301.0,-13.0,16.0,-832.0,-601.0,-16.0,0.0,0.0,0.0
19:44:47.004000,-298.0,56.0,246.0,-445.0,-546.0,8.0,0.0,0.0,0.0
19:44:47.008000,-331.0,99.0,332.0,-445.0,-546.0,8.0,0.0,0.0,0.0
19:44:47.013000,-58.0,-46.0,455.0,-614.0,-1028.0,16.0,0.0,0.0,0.0
19:44:47.018000,97.0,-110.0,295.0,-614.0,-1028.0,16.0,0.0,0.0,0.0
19:44:47.032000,59.0,-14.0,39.0,-657.0,-821.0,11.0,0.0,0.0,0.0
19:44:47.036000,4.0,-60.0,-118.0,-657.0,-821.0,11.0,0.0,0.0,0.0
19:44:47.041000,58.0,14.0,-310.0,-657.0,-654.0,-7.0,0.0,0.0,0.0
19:44:47.046000,246.0,19.0,-685.0,-605.0,-654.0,-7.0,0.0,0.0,0.0
19:44:47.051000,273.0,-16.0,-896.0,-605.0,-654.0,-7.0,0.0,0.0,0.0
19:44:47.055000,262.0,-33.0,-730.0,-669.0,-911.0,-47.0,0.0,0.0,0.0
19:44:47.059000,213.0,14.0,-536.0,-669.0,-911.0,-47.0,0.0,0.0,0.0
19:44:47.065000,186.0,3.0,-655.0,-619.0,-863.0,-93.0,0.0,0.0,0.0
19:44:47.069000,76.0,-37.0,-847.0,-619.0,-863.0,-93.0,0.0,0.0,0.0
19:44:47.074000,-70.0,-28.0,-701.0,-599.0,-492.0,-110.0,0.0,0.0,0.0
19:44:47.079000,-13.0,-49.0,-635.0,-599.0,-492.0,-110.0,0.0,0.0,0.0
19:44:47.083000,85.0,-39.0,-491.0,-629.0,-518.0,-128.0,0.0,0.0,0.0
19:44:47.088000,222.0,-29.0,-289.0,-629.0,-518.0,-128.0,0.0,0.0,0.0
19:44:47.092000,222.0,-29.0,-289.0,-753.0,-739.0,-203.0,0.0,0.0,0.0
19:44:47.098000,224.0,-89.0,-266.0,-753.0,-739.0,-203.0,0.0,0.0,0.0
19:44:47.102000,185.0,-118.0,-238.0,-751.0,-588.0,-211.0,0.0,0.0,0.0
19:44:47.107000,113.0,-165.0,-45.0,-751.0,-588.0,-211.0,0.0,0.0,0.0
19:44:47.112000,42.0,-185.0,-75.0,-671.0,-316.0,-192.0,0.0,0.0,0.0
19:44:47.116000,61.0,-200.0,-274.0,-671.0,-316.0,-192.0,0.0,0.0,0.0
19:44:47.121000,104.0,-207.0,-184.0,-664.0,-467.0,-176.0,0.0,0.0,0.0
19:44:47.126000,79.0,-238.0,-121.0,-664.0,-467.0,-176.0,0.0,0.0,0.0
19:44:47.130000,89.0,-231.0,-182.0,-671.0,-580.0,-139.0,0.0,0.0,0.0
19:44:47.135000,94.0,-252.0,-265.0,-671.0,-580.0,-139.0,0.0,0.0,0.0
19:44:47.140000,109.0,-261.0,-194.0,-711.0,-513.0,-110.0,0.0,0.0,0.0
19:44:47.145000,142.0,-268.0,-116.0,-711.0,-513.0,-110.0,0.0,0.0,0.0
19:44:47.149000,184.0,-293.0,-47.0,-687.0,-520.0,-85.0,0.0,0.0,0.0
19:44:47.154000,210.0,-315.0,-49.0,-687.0,-520.0,-85.0,0.0,0.0,0.0
19:44:47.159000,174.0,-277.0,-173.0,-687.0,-520.0,-85.0,0.0,0.0,0.0
19:44:47.163000,177.0,-273.0,-234.0,-804.0,-490.0,-63.0,0.0,0.0,0.0
19:44:47.168000,131.0,-245.0,-139.0,-804.0,-490.0,-63.0,0.0,0.0,0.0
19:44:47.173000,161.0,-227.0,-115.0,-851.0,-470.0,-22.0,0.0,0.0,0.0
19:44:47.177000,194.0,-200.0,-174.0,-851.0,-470.0,-22.0,0.0,0.0,0.0
19:44:47.182000,205.0,-179.0,-303.0,-801.0,-441.0,17.0,0.0,0.0,0.0
19:44:47.187000,236.0,-193.0,-363.0,-801.0,-441.0,17.0,0.0,0.0,0.0
19:44:47.192000,205.0,-155.0,-250.0,-834.0,-426.0,22.0,0.0,0.0,0.0
19:44:47.196000,193.0,-124.0,-173.0,-834.0,-426.0,22.0,0.0,0.0,0.0
19:44:47.201000,193.0,-124.0,-173.0,-955.0,-402.0,25.0,0.0,0.0,0.0
19:44:47.206000,158.0,-58.0,-320.0,-955.0,-402.0,25.0,0.0,0.0,0.0
19:44:47.210000,119.0,-25.0,-441.0,-1031.0,-425.0,27.0,0.0,0.0,0.0
19:44:47.215000,44.0,4.0,-268.0,-1031.0,-425.0,27.0,0.0,0.0,0.0
19:44:47.220000,-2.0,4.0,-66.0,-912.0,-484.0,23.0,0.0,0.0,0.0
19:44:47.224000,-30.0,47.0,56.0,-912.0,-484.0,23.0,0.0,0.0,0.0
19:44:47.229000,16.0,49.0,-161.0,-929.0,-406.0,-6.0,0.0,0.0,0.0
19:44:47.234000,148.0,54.0,-214.0,-929.0,-406.0,-6.0,0.0,0.0,0.0
19:44:47.239000,202.0,81.0,49.0,-950.0,-554.0,-38.0,0.0,0.0,0.0
19:44:47.243000,240.0,96.0,219.0,-950.0,-554.0,-38.0,0.0,0.0,0.0
19:44:47.248000,165.0,94.0,252.0,-960.0,-565.0,-47.0,0.0,0.0,0.0
19:44:47.253000,297.0,61.0,153.0,-960.0,-565.0,-47.0,0.0,0.0,0.0
19:44:47.257000,257.0,37.0,-159.0,-917.0,-250.0,-38.0,0.0,0.0,0.0
19:44:47.262000,256.0,53.0,-406.0,-917.0,-250.0,-38.0,0.0,0.0,0.0
19:44:47.267000,336.0,35.0,-376.0,-917.0,-250.0,-38.0,0.0,0.0,0.0
19:44:47.271000,322.0,25.0,-273.0,-809.0,-375.0,-37.0,0.0,0.0,0.0
19:44:47.276000,284.0,70.0,-312.0,-809.0,-375.0,-37.0,0.0,0.0,0.0
19:44:47.281000,275.0,76.0,-302.0,-956.0,-558.0,-48.0,0.0,0.0,0.0
19:44:47.286000,160.0,80.0,-209.0,-956.0,-558.0,-48.0,0.0,0.0,0.0
19:44:47.290000,35.0,112.0,-144.0,-1019.0,-460.0,-37.0,0.0,0.0,0.0
19:44:47.294000,35.0,112.0,-144.0,-1019.0,-460.0,-37.0,0.0,0.0,0.0
19:44:47.300000,179.0,138.0,-9.0,-920.0,-410.0,-46.0,0.0,0.0,0.0
19:44:47.304000,247.0,73.0,170.0,-920.0,-410.0,-46.0,0.0,0.0,0.0
19:44:47.309000,247.0,73.0,170.0,-911.0,-390.0,-41.0,0.0,0.0,0.0
19:44:47.314000,128.0,109.0,3.0,-911.0,-390.0,-41.0,0.0,0.0,0.0
19:44:47.318000,89.0,140.0,-135.0,-993.0,-478.0,-28.0,0.0,0.0,0.0
19:44:47.323000,111.0,116.0,-124.0,-993.0,-478.0,-28.0,0.0,0.0,0.0
19:44:47.328000,77.0,125.0,-93.0,-943.0,-543.0,-60.0,0.0,0.0,0.0
19:44:47.333000,121.0,98.0,-196.0,-943.0,-543.0,-60.0,0.0,0.0,0.0
19:44:47.337000,137.0,72.0,-387.0,-786.0,-412.0,-75.0,0.0,0.0,0.0
19:44:47.342000,124.0,52.0,-418.0,-786.0,-412.0,-75.0,0.0,0.0,0.0
19:44:47.347000,82.0,51.0,-236.0,-742.0,-308.0,-76.0,0.0,0.0,0.0
19:44:47.351000,49.0,18.0,-115.0,-742.0,-308.0,-76.0,0.0,0.0,0.0
19:44:47.356000,-79.0,59.0,-139.0,-884.0,-378.0,-81.0,0.0,0.0,0.0
19:44:47.361000,-81.0,64.0,-163.0,-884.0,-378.0,-81.0,0.0,0.0,0.0
19:44:47.365000,-53.0,54.0,-213.0,-1028.0,-439.0,-87.0,0.0,0.0,0.0
19:44:47.370000,-86.0,56.0,-263.0,-1028.0,-439.0,-87.0,0.0,0.0,0.0
19:44:47.375000,-118.0,43.0,-254.0,-1028.0,-439.0,-87.0,0.0,0.0,0.0
19:44:47.380000,-135.0,68.0,-350.0,-923.0,-319.0,-49.0,0.0,0.0,0.0
19:44:47.384000,-102.0,101.0,-406.0,-923.0,-319.0,-49.0,0.0,0.0,0.0
19:44:47.389000,-117.0,95.0,-76.0,-797.0,-346.0,-14.0,0.0,0.0,0.0
19:44:47.394000,-136.0,81.0,223.0,-797.0,-346.0,-14.0,0.0,0.0,0.0
19:44:47.398000,-154.0,157.0,-63.0,-927.0,-445.0,-10.0,0.0,0.0,0.0
19:44:47.403000,-63.0,171.0,-359.0,-927.0,-445.0,-10.0,0.0,0.0,0.0
19:44:47.408000,-25.0,166.0,-287.0,-1084.0,-437.0,-6.0,0.0,0.0,0.0
19:44:47.412000,-4.0,182.0,-217.0,-1084.0,-437.0,-6.0,0.0,0.0,0.0
19:44:47.417000,-4.0,182.0,-217.0,-1017.0,-371.0,11.0,0.0,0.0,0.0
19:44:47.422000,-42.0,192.0,-279.0,-1017.0,-371.0,11.0,0.0,0.0,0.0
19:44:47.427000,-37.0,191.0,-271.0,-838.0,-306.0,23.0,0.0,0.0,0.0
19:44:47.431000,-28.0,194.0,-197.0,-838.0,-306.0,23.0,0.0,0.0,0.0
19:44:47.436000,-38.0,202.0,-260.0,-789.0,-275.0,17.0,0.0,0.0,0.0
19:44:47.441000,-57.0,219.0,-320.0,-789.0,-275.0,17.0,0.0,0.0,0.0
19:44:47.445000,-52.0,228.0,-387.0,-937.0,-241.0,16.0,0.0,0.0,0.0
19:44:47.450000,-74.0,232.0,-380.0,-937.0,-241.0,16.0,0.0,0.0,0.0
19:44:47.455000,-137.0,252.0,-360.0,-1058.0,-277.0,18.0,0.0,0.0,0.0
19:44:47.459000,-128.0,270.0,-338.0,-1058.0,-277.0,18.0,0.0,0.0,0.0
19:44:47.464000,-128.0,304.0,-245.0,-1009.0,-323.0,15.0,0.0,0.0,0.0
19:44:47.469000,-95.0,298.0,-205.0,-1009.0,-323.0,15.0,0.0,0.0,0.0
19:44:47.473000,-140.0,301.0,-227.0,-965.0,-351.0,19.0,0.0,0.0,0.0
19:44:47.478000,-152.0,329.0,-192.0,-965.0,-351.0,19.0,0.0,0.0,0.0
19:44:47.483000,-103.0,350.0,-210.0,-965.0,-351.0,19.0,0.0,0.0,0.0
19:44:47.488000,-64.0,346.0,-225.0,-1004.0,-325.0,16.0,0.0,0.0,0.0
19:44:47.492000,-71.0,331.0,-196.0,-1004.0,-325.0,16.0,0.0,0.0,0.0
19:44:47.497000,-67.0,350.0,-210.0,-971.0,-330.0,10.0,0.0,0.0,0.0
19:44:47.502000,-62.0,353.0,-230.0,-971.0,-330.0,10.0,0.0,0.0,0.0
19:44:47.506000,-51.0,359.0,-293.0,-956.0,-396.0,-1.0,0.0,0.0,0.0
19:44:47.511000,-38.0,347.0,-305.0,-956.0,-396.0,-1.0,0.0,0.0,0.0
19:44:47.516000,-14.0,332.0,-164.0,-970.0,-386.0,-39.0,0.0,0.0,0.0
19:44:47.520000,32.0,296.0,-144.0,-970.0,-386.0,-39.0,0.0,0.0,0.0
19:44:47.525000,18.0,246.0,-109.0,-906.0,-353.0,-67.0,0.0,0.0,0.0
19:44:47.529000,18.0,246.0,-109.0,-906.0,-353.0,-67.0,0.0,0.0,0.0
19:44:47.535000,-4.0,220.0,11.0,-872.0,-338.0,-98.0,0.0,0.0,0.0
19:44:47.539000,-23.0,193.0,-58.0,-872.0,-338.0,-98.0,0.0,0.0,0.0
19:44:47.544000,3.0,162.0,-219.0,-858.0,-271.0,-127.0,0.0,0.0,0.0
19:44:47.549000,73.0,135.0,-227.0,-858.0,-271.0,-127.0,0.0,0.0,0.0
19:44:47.553000,109.0,109.0,-213.0,-799.0,-288.0,-136.0,0.0,0.0,0.0
19:44:47.558000,140.0,90.0,-300.0,-799.0,-288.0,-136.0,0.0,0.0,0.0
19:44:47.563000,152.0,64.0,-374.0,-816.0,-355.0,-132.0,0.0,0.0,0.0
19:44:47.567000,114.0,38.0,-333.0,-816.0,-355.0,-132.0,0.0,0.0,0.0
19:44:47.572000,61.0,24.0,-303.0,-857.0,-289.0,-130.0,0.0,0.0,0.0
19:44:47.577000,25.0,21.0,-300.0,-857.0,-289.0,-130.0,0.0,0.0,0.0
19:44:47.582000,13.0,4.0,-308.0,-887.0,-271.0,-139.0,0.0,0.0,0.0
19:44:47.586000,-6.0,2.0,-350.0,-887.0,-271.0,-139.0,0.0,0.0,0.0
19:44:47.591000,2.0,2.0,-413.0,-887.0,-271.0,-139.0,0.0,0.0,0.0
19:44:47.596000,21.0,-20.0,-364.0,-975.0,-299.0,-155.0,0.0,0.0,0.0
19:44:47.600000,-67.0,-17.0,-392.0,-975.0,-299.0,-155.0,0.0,0.0,0.0
19:44:47.605000,-63.0,0.0,-432.0,-1029.0,-257.0,-144.0,0.0,0.0,0.0
19:44:47.610000,-60.0,-6.0,-339.0,-1029.0,-257.0,-144.0,0.0,0.0,0.0
19:44:47.614000,-78.0,-9.0,-294.0,-986.0,-181.0,-123.0,0.0,0.0,0.0
19:44:47.619000,-81.0,-10.0,-356.0,-986.0,-181.0,-123.0,0.0,0.0,0.0
19:44:47.624000,-93.0,-3.0,-414.0,-966.0,-176.0,-116.0,0.0,0.0,0.0
19:44:47.629000,-92.0,9.0,-467.0,-966.0,-176.0,-116.0,0.0,0.0,0.0
19:44:47.633000,-69.0,17.0,-506.0,-1012.0,-229.0,-117.0,0.0,0.0,0.0
19:44:47.638000,-69.0,17.0,-506.0,-1012.0,-229.0,-117.0,0.0,0.0,0.0
19:44:47.643000,-70.0,27.0,-508.0,-1041.0,-266.0,-121.0,0.0,0.0,0.0
19:44:47.647000,-78.0,41.0,-487.0,-1041.0,-266.0,-121.0,0.0,0.0,0.0
19:44:47.652000,-93.0,52.0,-479.0,-1055.0,-265.0,-118.0,0.0,0.0,0.0
19:44:47.657000,-91.0,60.0,-510.0,-1055.0,-265.0,-118.0,0.0,0.0,0.0
19:44:47.661000,-91.0,76.0,-536.0,-1059.0,-237.0,-120.0,0.0,0.0,0.0
19:44:47.666000,-98.0,86.0,-531.0,-1059.0,-237.0,-120.0,0.0,0.0,0.0
19:44:47.671000,-99.0,93.0,-532.0,-1068.0,-248.0,-126.0,0.0,0.0,0.0
19:44:47.676000,-91.0,107.0,-549.0,-1068.0,-248.0,-126.0,0.0,0.0,0.0
19:44:47.680000,-88.0,115.0,-597.0,-1073.0,-252.0,-131.0,0.0,0.0,0.0
19:44:47.685000,-79.0,116.0,-602.0,-1073.0,-252.0,-131.0,0.0,0.0,0.0
19:44:47.690000,-73.0,116.0,-573.0,-1054.0,-258.0,-137.0,0.0,0.0,0.0
19:44:47.694000,-77.0,128.0,-532.0,-1054.0,-258.0,-137.0,0.0,0.0,0.0
19:44:47.699000,-73.0,139.0,-524.0,-1054.0,-258.0,-137.0,0.0,0.0,0.0
19:44:47.704000,-60.0,142.0,-534.0,-1042.0,-250.0,-145.0,0.0,0.0,0.0
19:44:47.708000,-52.0,147.0,-543.0,-1042.0,-250.0,-145.0,0.0,0.0,0.0
19:44:47.713000,-44.0,151.0,-534.0,-1067.0,-233.0,-150.0,0.0,0.0,0.0
19:44:47.718000,-35.0,156.0,-526.0,-1067.0,-233.0,-150.0,0.0,0.0,0.0
19:44:47.723000,-35.0,160.0,-534.0,-1081.0,-227.0,-157.0,0.0,0.0,0.0
19:44:47.727000,-39.0,163.0,-545.0,-1081.0,-227.0,-157.0,0.0,0.0,0.0
19:44:47.732000,-39.0,164.0,-548.0,-1067.0,-171.0,-160.0,0.0,0.0,0.0
19:44:47.737000,-30.0,156.0,-549.0,-1067.0,-171.0,-160.0,0.0,0.0,0.0
19:44:47.741000,-16.0,153.0,-558.0,-1035.0,-145.0,-161.0,0.0,0.0,0.0
19:44:47.746000,-16.0,153.0,-558.0,-1035.0,-145.0,-161.0,0.0,0.0,0.0
19:44:47.751000,1.0,147.0,-562.0,-1026.0,-194.0,-168.0,0.0,0.0,0.0
19:44:47.755000,21.0,142.0,-557.0,-1026.0,-194.0,-168.0,0.0,0.0,0.0
19:44:47.760000,43.0,140.0,-547.0,-1048.0,-211.0,-172.0,0.0,0.0,0.0
19:44:47.764000,51.0,143.0,-541.0,-1048.0,-211.0,-172.0,0.0,0.0,0.0
19:44:47.770000,53.0,135.0,-556.0,-1045.0,-197.0,-162.0,0.0,0.0,0.0
19:44:47.774000,63.0,122.0,-589.0,-1045.0,-197.0,-162.0,0.0,0.0,0.0
19:44:47.779000,76.0,115.0,-618.0,-1007.0,-208.0,-156.0,0.0,0.0,0.0
19:44:47.784000,95.0,109.0,-616.0,-1007.0,-208.0,-156.0,0.0,0.0,0.0
19:44:47.788000,115.0,107.0,-588.0,-1015.0,-223.0,-162.0,0.0,0.0,0.0
19:44:47.793000,126.0,103.0,-574.0,-1015.0,-223.0,-162.0,0.0,0.0,0.0
19:44:47.798000,127.0,96.0,-592.0,-1051.0,-198.0,-156.0,0.0,0.0,0.0
19:44:47.802000,120.0,89.0,-597.0,-1051.0,-198.0,-156.0,0.0,0.0,0.0
19:44:47.807000,117.0,89.0,-571.0,-1051.0,-166.0,-156.0,0.0,0.0,0.0
19:44:47.812000,125.0,94.0,-561.0,-1032.0,-158.0,-148.0,0.0,0.0,0.0
19:44:47.817000,136.0,98.0,-590.0,-1032.0,-158.0,-148.0,0.0,0.0,0.0
19:44:47.821000,140.0,99.0,-609.0,-1000.0,-115.0,-151.0,0.0,0.0,0.0
19:44:47.826000,147.0,99.0,-617.0,-1000.0,-115.0,-151.0,0.0,0.0,0.0
19:44:47.831000,151.0,102.0,-640.0,-988.0,-79.0,-154.0,0.0,0.0,0.0
19:44:47.835000,154.0,102.0,-672.0,-988.0,-79.0,-154.0,0.0,0.0,0.0
19:44:47.840000,157.0,98.0,-696.0,-981.0,-82.0,-154.0,0.0,0.0,0.0
19:44:47.845000,165.0,88.0,-711.0,-981.0,-82.0,-154.0,0.0,0.0,0.0
19:44:47.849000,175.0,81.0,-724.0,-967.0,-86.0,-165.0,0.0,0.0,0.0
19:44:47.854000,175.0,81.0,-724.0,-967.0,-86.0,-165.0,0.0,0.0,0.0
19:44:47.868000,191.0,70.0,-751.0,-982.0,-24.0,-199.0,0.0,0.0,0.0
19:44:47.873000,199.0,65.0,-795.0,-982.0,-24.0,-199.0,0.0,0.0,0.0
19:44:47.878000,214.0,51.0,-795.0,-978.0,-10.0,-204.0,0.0,0.0,0.0
19:44:47.882000,231.0,29.0,-765.0,-978.0,-10.0,-204.0,0.0,0.0,0.0
19:44:47.887000,234.0,17.0,-748.0,-947.0,15.0,-214.0,0.0,0.0,0.0
19:44:47.892000,234.0,2.0,-756.0,-947.0,15.0,-214.0,0.0,0.0,0.0
19:44:47.896000,243.0,-22.0,-775.0,-936.0,62.0,-223.0,0.0,0.0,0.0
19:44:47.901000,243.0,-35.0,-797.0,-936.0,62.0,-223.0,0.0,0.0,0.0
19:44:47.906000,244.0,-54.0,-788.0,-906.0,92.0,-205.0,0.0,0.0,0.0
19:44:47.911000,245.0,-77.0,-760.0,-906.0,92.0,-205.0,0.0,0.0,0.0
19:44:47.915000,234.0,-92.0,-751.0,-910.0,131.0,-203.0,0.0,0.0,0.0
19:44:47.920000,226.0,-109.0,-746.0,-910.0,131.0,-203.0,0.0,0.0,0.0
19:44:47.925000,223.0,-133.0,-733.0,-904.0,178.0,-175.0,0.0,0.0,0.0
19:44:47.929000,207.0,-133.0,-723.0,-904.0,178.0,-175.0,0.0,0.0,0.0
19:44:47.934000,185.0,-132.0,-700.0,-904.0,178.0,-175.0,0.0,0.0,0.0
19:44:47.939000,170.0,-136.0,-676.0,-911.0,227.0,-147.0,0.0,0.0,0.0
19:44:47.943000,147.0,-130.0,-669.0,-911.0,227.0,-147.0,0.0,0.0,0.0
19:44:47.948000,114.0,-108.0,-672.0,-969.0,282.0,-154.0,0.0,0.0,0.0
19:44:47.953000,80.0,-84.0,-659.0,-969.0,282.0,-154.0,0.0,0.0,0.0
19:44:47.958000,50.0,-63.0,-613.0,-1038.0,317.0,-185.0,0.0,0.0,0.0
19:44:47.962000,28.0,-49.0,-560.0,-1038.0,317.0,-185.0,0.0,0.0,0.0
19:44:47.967000,28.0,-49.0,-560.0,-1080.0,299.0,-213.0,0.0,0.0,0.0
19:44:47.972000,7.0,-43.0,-522.0,-1080.0,299.0,-213.0,0.0,0.0,0.0
19:44:47.976000,-23.0,-30.0,-505.0,-1072.0,282.0,-204.0,0.0,0.0,0.0
19:44:47.981000,-57.0,-12.0,-486.0,-1072.0,282.0,-204.0,0.0,0.0,0.0
19:44:47.986000,-79.0,-11.0,-451.0,-1014.0,289.0,-175.0,0.0,0.0,0.0
19:44:47.990000,-91.0,-10.0,-407.0,-1014.0,289.0,-175.0,0.0,0.0,0.0
19:44:47.995000,-100.0,-15.0,-382.0,-984.0,295.0,-144.0,0.0,0.0,0.0
19:44:48.000000,-99.0,-8.0,-373.0,-984.0,295.0,-144.0,0.0,0.0,0.0
19:44:48.005000,-95.0,2.0,-357.0,-1023.0,302.0,-140.0,0.0,0.0,0.0
19:44:48.009000,-86.0,3.0,-331.0,-1023.0,302.0,-140.0,0.0,0.0,0.0
19:44:48.014000,-75.0,8.0,-313.0,-1097.0,265.0,-157.0,0.0,0.0,0.0
19:44:48.019000,-73.0,1.0,-319.0,-1097.0,265.0,-157.0,0.0,0.0,0.0
19:44:48.023000,-78.0,-4.0,-336.0,-1128.0,238.0,-152.0,0.0,0.0,0.0
19:44:48.028000,-82.0,-3.0,-326.0,-1128.0,238.0,-152.0,0.0,0.0,0.0
19:44:48.033000,-83.0,-2.0,-270.0,-1128.0,238.0,-152.0,0.0,0.0,0.0
19:44:48.037000,-86.0,-9.0,-197.0,-1093.0,228.0,-179.0,0.0,0.0,0.0
19:44:48.042000,-91.0,-17.0,-151.0,-1093.0,228.0,-179.0,0.0,0.0,0.0
19:44:48.047000,-93.0,-25.0,-137.0,-1042.0,207.0,-225.0,0.0,0.0,0.0
19:44:48.052000,-91.0,-42.0,-135.0,-1042.0,207.0,-225.0,0.0,0.0,0.0
19:44:48.056000,-87.0,-54.0,-124.0,-958.0,224.0,-212.0,0.0,0.0,0.0
19:44:48.061000,-91.0,-55.0,-114.0,-958.0,224.0,-212.0,0.0,0.0,0.0
19:44:48.066000,-95.0,-51.0,-116.0,-895.0,268.0,-183.0,0.0,0.0,0.0
19:44:48.070000,-77.0,-65.0,-109.0,-895.0,268.0,-183.0,0.0,0.0,0.0
19:44:48.075000,-77.0,-65.0,-109.0,-922.0,292.0,-171.0,0.0,0.0,0.0
19:44:48.080000,-65.0,-49.0,-171.0,-922.0,292.0,-171.0,0.0,0.0,0.0
19:44:48.084000,-60.0,-47.0,-70.0,-900.0,278.0,-166.0,0.0,0.0,0.0
19:44:48.089000,-21.0,-51.0,-42.0,-900.0,278.0,-166.0,0.0,0.0,0.0
19:44:48.094000,-9.0,-32.0,-141.0,-858.0,338.0,-170.0,0.0,0.0,0.0
19:44:48.099000,9.0,-28.0,-223.0,-858.0,338.0,-170.0,0.0,0.0,0.0
19:44:48.103000,14.0,-24.0,-234.0,-903.0,402.0,-177.0,0.0,0.0,0.0
19:44:48.108000,14.0,-20.0,-192.0,-903.0,402.0,-177.0,0.0,0.0,0.0
19:44:48.113000,16.0,-14.0,-151.0,-997.0,396.0,-172.0,0.0,0.0,0.0
19:44:48.117000,14.0,-6.0,-118.0,-997.0,396.0,-172.0,0.0,0.0,0.0
19:44:48.122000,18.0,-7.0,-101.0,-1053.0,400.0,-169.0,0.0,0.0,0.0
19:44:48.127000,11.0,-7.0,-100.0,-1053.0,400.0,-169.0,0.0,0.0,0.0
19:44:48.131000,-4.0,-7.0,-56.0,-1047.0,378.0,-164.0,0.0,0.0,0.0
19:44:48.136000,-17.0,-7.0,9.0,-1047.0,378.0,-164.0,0.0,0.0,0.0
19:44:48.141000,-35.0,12.0,30.0,-1047.0,378.0,-164.0,0.0,0.0,0.0
19:44:48.146000,-54.0,20.0,41.0,-1074.0,332.0,-160.0,0.0,0.0,0.0
19:44:48.150000,-77.0,19.0,81.0,-1074.0,332.0,-160.0,0.0,0.0,0.0
19:44:48.155000,-78.0,17.0,132.0,-1064.0,240.0,-145.0,0.0,0.0,0.0
19:44:48.160000,-72.0,16.0,174.0,-1064.0,240.0,-145.0,0.0,0.0,0.0
19:44:48.164000,-70.0,10.0,189.0,-949.0,146.0,-131.0,0.0,0.0,0.0
19:44:48.169000,-59.0,0.0,175.0,-949.0,146.0,-131.0,0.0,0.0,0.0
19:44:48.174000,-56.0,-11.0,119.0,-848.0,147.0,-130.0,0.0,0.0,0.0
19:44:48.178000,-56.0,-26.0,70.0,-848.0,147.0,-130.0,0.0,0.0,0.0
19:44:48.183000,-56.0,-26.0,70.0,-818.0,179.0,-120.0,0.0,0.0,0.0
19:44:48.188000,-50.0,-46.0,50.0,-818.0,179.0,-120.0,0.0,0.0,0.0
19:44:48.193000,-49.0,-63.0,36.0,-799.0,171.0,-108.0,0.0,0.0,0.0
19:44:48.197000,-44.0,-85.0,9.0,-799.0,171.0,-108.0,0.0,0.0,0.0
19:44:48.202000,-33.0,-107.0,-17.0,-787.0,166.0,-102.0,0.0,0.0,0.0
19:44:48.207000,-25.0,-130.0,-26.0,-787.0,166.0,-102.0,0.0,0.0,0.0
19:44:48.211000,-21.0,-151.0,-7.0,-796.0,157.0,-99.0,0.0,0.0,0.0
19:44:48.216000,-11.0,-179.0,25.0,-796.0,157.0,-99.0,0.0,0.0,0.0
19:44:48.221000,1.0,-206.0,18.0,-810.0,166.0,-90.0,0.0,0.0,0.0
19:44:48.225000,-6.0,-228.0,35.0,-810.0,166.0,-90.0,0.0,0.0,0.0
19:44:48.230000,-13.0,-245.0,96.0,-789.0,187.0,-83.0,0.0,0.0,0.0
19:44:48.235000,-21.0,-248.0,144.0,-789.0,187.0,-83.0,0.0,0.0,0.0
19:44:48.240000,-36.0,-243.0,165.0,-776.0,204.0,-85.0,0.0,0.0,0.0
19:44:48.244000,-49.0,-235.0,186.0,-776.0,204.0,-85.0,0.0,0.0,0.0
19:44:48.249000,-69.0,-214.0,210.0,-776.0,204.0,-85.0,0.0,0.0,0.0
19:44:48.254000,-88.0,-184.0,237.0,-800.0,217.0,-92.0,0.0,0.0,0.0
19:44:48.258000,-100.0,-149.0,223.0,-800.0,217.0,-92.0,0.0,0.0,0.0
19:44:48.263000,-106.0,-116.0,173.0,-853.0,209.0,-102.0,0.0,0.0,0.0
19:44:48.268000,-109.0,-77.0,130.0,-853.0,209.0,-102.0,0.0,0.0,0.0
19:44:48.272000,-107.0,-43.0,105.0,-896.0,187.0,-110.0,0.0,0.0,0.0
19:44:48.277000,-96.0,-7.0,84.0,-896.0,187.0,-110.0,0.0,0.0,0.0
19:44:48.282000,-81.0,25.0,60.0,-877.0,139.0,-115.0,0.0,0.0,0.0
19:44:48.287000,-61.0,49.0,31.0,-877.0,139.0,-115.0,0.0,0.0,0.0
19:44:48.291000,-61.0,49.0,31.0,-830.0,101.0,-116.0,0.0,0.0,0.0
19:44:48.296000,-39.0,72.0,4.0,-830.0,101.0,-116.0,0.0,0.0,0.0
19:44:48.301000,-12.0,93.0,-18.0,-777.0,88.0,-114.0,0.0,0.0,0.0
19:44:48.305000,18.0,105.0,-32.0,-777.0,88.0,-114.0,0.0,0.0,0.0
19:44:48.310000,49.0,112.0,-35.0,-709.0,79.0,-111.0,0.0,0.0,0.0
19:44:48.315000,86.0,109.0,-30.0,-709.0,79.0,-111.0,0.0,0.0,0.0
19:44:48.319000,128.0,105.0,-25.0,-642.0,79.0,-110.0,0.0,0.0,0.0
19:44:48.324000,171.0,93.0,-32.0,-642.0,79.0,-110.0,0.0,0.0,0.0
19:44:48.329000,212.0,80.0,-30.0,-600.0,101.0,-111.0,0.0,0.0,0.0
19:44:48.334000,251.0,65.0,-18.0,-600.0,101.0,-111.0,0.0,0.0,0.0
19:44:48.338000,284.0,48.0,0.0,-595.0,132.0,-110.0,0.0,0.0,0.0
19:44:48.343000,310.0,32.0,24.0,-595.0,132.0,-110.0,0.0,0.0,0.0
19:44:48.348000,327.0,15.0,63.0,-597.0,155.0,-105.0,0.0,0.0,0.0
19:44:48.352000,337.0,3.0,101.0,-597.0,155.0,-105.0,0.0,0.0,0.0
19:44:48.357000,337.0,-5.0,130.0,-597.0,155.0,-105.0,0.0,0.0,0.0
19:44:48.362000,328.0,-9.0,167.0,-604.0,185.0,-94.0,0.0,0.0,0.0
19:44:48.366000,315.0,-15.0,200.0,-604.0,185.0,-94.0,0.0,0.0,0.0
19:44:48.371000,296.0,-16.0,224.0,-626.0,212.0,-83.0,0.0,0.0,0.0
19:44:48.376000,273.0,-13.0,233.0,-626.0,212.0,-83.0,0.0,0.0,0.0
19:44:48.381000,245.0,-6.0,251.0,-656.0,218.0,-78.0,0.0,0.0,0.0
19:44:48.385000,216.0,4.0,261.0,-656.0,218.0,-78.0,0.0,0.0,0.0
19:44:48.390000,184.0,14.0,263.0,-690.0,215.0,-78.0,0.0,0.0,0.0
19:44:48.395000,151.0,23.0,257.0,-690.0,215.0,-78.0,0.0,0.0,0.0
19:44:48.399000,120.0,31.0,242.0,-709.0,213.0,-80.0,0.0,0.0,0.0
19:44:48.404000,120.0,31.0,242.0,-709.0,213.0,-80.0,0.0,0.0,0.0
19:44:48.409000,91.0,37.0,231.0,-691.0,205.0,-77.0,0.0,0.0,0.0
19:44:48.413000,65.0,39.0,226.0,-691.0,205.0,-77.0,0.0,0.0,0.0
19:44:48.418000,45.0,40.0,224.0,-648.0,178.0,-74.0,0.0,0.0,0.0
19:44:48.423000,30.0,36.0,224.0,-648.0,178.0,-74.0,0.0,0.0,0.0
19:44:48.428000,18.0,28.0,234.0,-603.0,141.0,-70.0,0.0,0.0,0.0
19:44:48.432000,13.0,18.0,249.0,-603.0,141.0,-70.0,0.0,0.0,0.0
19:44:48.437000,10.0,7.0,266.0,-573.0,105.0,-67.0,0.0,0.0,0.0
19:44:48.442000,9.0,-3.0,286.0,-573.0,105.0,-67.0,0.0,0.0,0.0
19:44:48.446000,8.0,-11.0,311.0,-565.0,70.0,-68.0,0.0,0.0,0.0
19:44:48.451000,7.0,-19.0,337.0,-565.0,70.0,-68.0,0.0,0.0,0.0
19:44:48.456000,7.0,-23.0,360.0,-570.0,44.0,-72.0,0.0,0.0,0.0
19:44:48.460000,7.0,-25.0,372.0,-570.0,44.0,-72.0,0.0,0.0,0.0
19:44:48.465000,5.0,-23.0,374.0,-570.0,44.0,-72.0,0.0,0.0,0.0
19:44:48.470000,5.0,-22.0,378.0,-585.0,35.0,-75.0,0.0,0.0,0.0
19:44:48.475000,11.0,-21.0,378.0,-585.0,35.0,-75.0,0.0,0.0,0.0
19:44:48.479000,21.0,-20.0,365.0,-579.0,14.0,-74.0,0.0,0.0,0.0
19:44:48.484000,32.0,-15.0,341.0,-579.0,14.0,-74.0,0.0,0.0,0.0
19:44:48.489000,46.0,-9.0,312.0,-554.0,-13.0,-78.0,0.0,0.0,0.0
19:44:48.493000,58.0,-4.0,277.0,-554.0,-13.0,-78.0,0.0,0.0,0.0
19:44:48.498000,66.0,-3.0,248.0,-567.0,2.0,-83.0,0.0,0.0,0.0
19:44:48.503000,76.0,-3.0,226.0,-567.0,2.0,-83.0,0.0,0.0,0.0
19:44:48.507000,86.0,-4.0,213.0,-608.0,38.0,-84.0,0.0,0.0,0.0
19:44:48.512000,86.0,-4.0,213.0,-608.0,38.0,-84.0,0.0,0.0,0.0
19:44:48.517000,95.0,-5.0,214.0,-628.0,50.0,-84.0,0.0,0.0,0.0
19:44:48.522000,103.0,-7.0,229.0,-628.0,50.0,-84.0,0.0,0.0,0.0
19:44:48.526000,106.0,-9.0,261.0,-635.0,54.0,-82.0,0.0,0.0,0.0
19:44:48.531000,104.0,-10.0,304.0,-635.0,54.0,-82.0,0.0,0.0,0.0
19:44:48.536000,96.0,-12.0,355.0,-652.0,58.0,-78.0,0.0,0.0,0.0
19:44:48.540000,87.0,-11.0,403.0,-652.0,58.0,-78.0,0.0,0.0,0.0
19:44:48.545000,74.0,-7.0,436.0,-673.0,59.0,-81.0,0.0,0.0,0.0
19:44:48.550000,59.0,-3.0,456.0,-673.0,59.0,-81.0,0.0,0.0,0.0
19:44:48.554000,43.0,4.0,466.0,-696.0,64.0,-89.0,0.0,0.0,0.0
19:44:48.559000,25.0,8.0,469.0,-696.0,64.0,-89.0,0.0,0.0,0.0
19:44:48.564000,9.0,9.0,469.0,-702.0,59.0,-93.0,0.0,0.0,0.0
19:44:48.569000,-2.0,10.0,464.0,-702.0,59.0,-93.0,0.0,0.0,0.0
19:44:48.573000,-11.0,9.0,451.0,-702.0,59.0,-93.0,0.0,0.0,0.0
19:44:48.578000,-18.0,4.0,432.0,-683.0,33.0,-92.0,0.0,0.0,0.0
19:44:48.583000,-25.0,-1.0,410.0,-683.0,33.0,-92.0,0.0,0.0,0.0
19:44:48.587000,-30.0,-6.0,392.0,-651.0,9.0,-87.0,0.0,0.0,0.0
19:44:48.592000,-34.0,-9.0,372.0,-651.0,9.0,-87.0,0.0,0.0,0.0
19:44:48.597000,-37.0,-12.0,349.0,-640.0,-8.0,-82.0,0.0,0.0,0.0
19:44:48.601000,-42.0,-14.0,324.0,-640.0,-8.0,-82.0,0.0,0.0,0.0
19:44:48.606000,-45.0,-14.0,300.0,-664.0,-19.0,-78.0,0.0,0.0,0.0
19:44:48.611000,-44.0,-14.0,273.0,-664.0,-19.0,-78.0,0.0,0.0,0.0
19:44:48.616000,-39.0,-11.0,243.0,-697.0,-36.0,-75.0,0.0,0.0,0.0
19:44:48.620000,-39.0,-11.0,243.0,-697.0,-36.0,-75.0,0.0,0.0,0.0
19:44:48.625000,-29.0,-11.0,210.0,-721.0,-53.0,-70.0,0.0,0.0,0.0
19:44:48.630000,-14.0,-14.0,182.0,-721.0,-53.0,-70.0,0.0,0.0,0.0
19:44:48.634000,4.0,-18.0,161.0,-726.0,-67.0,-63.0,0.0,0.0,0.0
19:44:48.639000,25.0,-23.0,144.0,-726.0,-67.0,-63.0,0.0,0.0,0.0
19:44:48.644000,46.0,-24.0,133.0,-729.0,-72.0,-60.0,0.0,0.0,0.0
19:44:48.648000,63.0,-23.0,129.0,-729.0,-72.0,-60.0,0.0,0.0,0.0
19:44:48.653000,72.0,-17.0,131.0,-765.0,-50.0,-66.0,0.0,0.0,0.0
19:44:48.658000,75.0,-8.0,139.0,-765.0,-50.0,-66.0,0.0,0.0,0.0
19:44:48.663000,71.0,2.0,152.0,-821.0,-9.0,-79.0,0.0,0.0,0.0
19:44:48.667000,62.0,11.0,166.0,-821.0,-9.0,-79.0,0.0,0.0,0.0
19:44:48.672000,49.0,21.0,177.0,-861.0,32.0,-88.0,0.0,0.0,0.0
19:44:48.677000,35.0,28.0,187.0,-861.0,32.0,-88.0,0.0,0.0,0.0
19:44:48.681000,21.0,35.0,197.0,-861.0,53.0,-92.0,0.0,0.0,0.0
19:44:48.686000,15.0,39.0,205.0,-856.0,53.0,-92.0,0.0,0.0,0.0
19:44:48.691000,14.0,42.0,210.0,-856.0,53.0,-92.0,0.0,0.0,0.0
19:44:48.695000,16.0,44.0,210.0,-818.0,41.0,-95.0,0.0,0.0,0.0
19:44:48.700000,21.0,46.0,203.0,-818.0,41.0,-95.0,0.0,0.0,0.0
19:44:48.705000,24.0,49.0,195.0,-799.0,35.0,-100.0,0.0,0.0,0.0
19:44:48.710000,28.0,51.0,192.0,-799.0,35.0,-100.0,0.0,0.0,0.0
19:44:48.714000,31.0,53.0,194.0,-806.0,55.0,-105.0,0.0,0.0,0.0
19:44:48.719000,33.0,55.0,199.0,-806.0,55.0,-105.0,0.0,0.0,0.0
19:44:48.724000,35.0,56.0,208.0,-813.0,82.0,-111.0,0.0,0.0,0.0
19:44:48.728000,35.0,56.0,208.0,-813.0,82.0,-111.0,0.0,0.0,0.0
19:44:48.733000,34.0,58.0,220.0,-817.0,109.0,-116.0,0.0,0.0,0.0
19:44:48.747000,20.0,58.0,272.0,-817.0,137.0,-121.0,0.0,0.0,0.0
19:44:48.752000,11.0,55.0,293.0,-817.0,166.0,-128.0,0.0,0.0,0.0
19:44:48.757000,-1.0,51.0,317.0,-817.0,166.0,-128.0,0.0,0.0,0.0
19:44:48.761000,-16.0,46.0,341.0,-828.0,189.0,-136.0,0.0,0.0,0.0
19:44:48.766000,-32.0,41.0,361.0,-828.0,189.0,-136.0,0.0,0.0,0.0
19:44:48.771000,-47.0,32.0,385.0,-845.0,186.0,-142.0,0.0,0.0,0.0
19:44:48.775000,-63.0,23.0,416.0,-845.0,186.0,-142.0,0.0,0.0,0.0
19:44:48.780000,-76.0,13.0,452.0,-849.0,159.0,-145.0,0.0,0.0,0.0
19:44:48.785000,-87.0,4.0,489.0,-849.0,159.0,-145.0,0.0,0.0,0.0
19:44:48.789000,-96.0,-6.0,524.0,-854.0,129.0,-148.0,0.0,0.0,0.0
19:44:48.794000,-105.0,-18.0,558.0,-854.0,129.0,-148.0,0.0,0.0,0.0
19:44:48.799000,-112.0,-28.0,590.0,-854.0,129.0,-148.0,0.0,0.0,0.0
19:44:48.804000,-119.0,-35.0,625.0,-866.0,102.0,-153.0,0.0,0.0,0.0
19:44:48.808000,-128.0,-37.0,657.0,-876.0,82.0,-160.0,0.0,0.0,0.0
19:44:48.813000,-137.0,-34.0,681.0,-876.0,82.0,-160.0,0.0,0.0,0.0
19:44:48.818000,-145.0,-30.0,695.0,-876.0,82.0,-160.0,0.0,0.0,0.0
19:44:48.822000,-153.0,-23.0,697.0,-888.0,72.0,-165.0,0.0,0.0,0.0
19:44:48.827000,-161.0,-14.0,693.0,-888.0,72.0,-165.0,0.0,0.0,0.0
19:44:48.832000,-168.0,1.0,680.0,-892.0,54.0,-174.0,0.0,0.0,0.0
19:44:48.836000,-177.0,19.0,655.0,-892.0,54.0,-174.0,0.0,0.0,0.0
19:44:48.841000,-177.0,19.0,655.0,-914.0,58.0,-188.0,0.0,0.0,0.0
19:44:48.846000,-189.0,38.0,625.0,-914.0,58.0,-188.0,0.0,0.0,0.0
19:44:48.851000,-203.0,52.0,598.0,-967.0,95.0,-197.0,0.0,0.0,0.0
19:44:48.855000,-215.0,65.0,566.0,-967.0,95.0,-197.0,0.0,0.0,0.0
19:44:48.860000,-226.0,69.0,529.0,-992.0,142.0,-198.0,0.0,0.0,0.0
19:44:48.865000,-237.0,67.0,493.0,-992.0,142.0,-198.0,0.0,0.0,0.0
19:44:48.869000,-251.0,66.0,450.0,-972.0,206.0,-203.0,0.0,0.0,0.0
19:44:48.874000,-267.0,63.0,408.0,-972.0,206.0,-203.0,0.0,0.0,0.0
19:44:48.879000,-285.0,51.0,393.0,-959.0,235.0,-203.0,0.0,0.0,0.0
19:44:48.883000,-302.0,38.0,401.0,-959.0,235.0,-203.0,0.0,0.0,0.0
19:44:48.888000,-312.0,31.0,389.0,-967.0,252.0,-205.0,0.0,0.0,0.0
19:44:48.893000,-322.0,19.0,345.0,-967.0,252.0,-205.0,0.0,0.0,0.0
19:44:48.898000,-326.0,-2.0,305.0,-1015.0,287.0,-206.0,0.0,0.0,0.0
19:44:48.902000,-312.0,-25.0,287.0,-1015.0,287.0,-206.0,0.0,0.0,0.0
19:44:48.907000,-294.0,-49.0,263.0,-1015.0,287.0,-206.0,0.0,0.0,0.0
19:44:48.912000,-266.0,-55.0,217.0,-1071.0,280.0,-205.0,0.0,0.0,0.0
19:44:48.916000,-229.0,-58.0,155.0,-1071.0,280.0,-205.0,0.0,0.0,0.0
19:44:48.921000,-195.0,-74.0,138.0,-1137.0,308.0,-215.0,0.0,0.0,0.0
19:44:48.926000,-145.0,-70.0,119.0,-1137.0,308.0,-215.0,0.0,0.0,0.0
19:44:48.930000,-121.0,-89.0,73.0,-1214.0,379.0,-215.0,0.0,0.0,0.0
19:44:48.934000,-121.0,-89.0,73.0,-1214.0,379.0,-215.0,0.0,0.0,0.0
19:44:48.940000,-144.0,-89.0,-250.0,-1389.0,440.0,-192.0,0.0,0.0,0.0
19:44:48.945000,-98.0,-59.0,79.0,-1389.0,440.0,-192.0,0.0,0.0,0.0
19:44:48.949000,-98.0,-59.0,79.0,-1291.0,417.0,-189.0,0.0,0.0,0.0
19:44:48.954000,-135.0,-41.0,376.0,-1291.0,417.0,-189.0,0.0,0.0,0.0
19:44:48.959000,-165.0,-21.0,300.0,-1029.0,586.0,-183.0,0.0,0.0,0.0
19:44:48.963000,-172.0,7.0,138.0,-1029.0,586.0,-183.0,0.0,0.0,0.0
19:44:48.968000,-161.0,19.0,102.0,-1084.0,707.0,-166.0,0.0,0.0,0.0
19:44:48.973000,-128.0,8.0,123.0,-1084.0,707.0,-166.0,0.0,0.0,0.0
19:44:48.977000,-104.0,35.0,151.0,-1286.0,525.0,-190.0,0.0,0.0,0.0
19:44:48.982000,-76.0,49.0,137.0,-1286.0,525.0,-190.0,0.0,0.0,0.0
19:44:48.987000,-59.0,64.0,147.0,-1380.0,433.0,-210.0,0.0,0.0,0.0
19:44:48.992000,-31.0,71.0,223.0,-1380.0,433.0,-210.0,0.0,0.0,0.0
19:44:48.996000,-11.0,77.0,266.0,-1302.0,398.0,-208.0,0.0,0.0,0.0
19:44:49.001000,7.0,84.0,254.0,-1302.0,398.0,-208.0,0.0,0.0,0.0
19:44:49.006000,29.0,95.0,284.0,-1208.0,341.0,-205.0,0.0,0.0,0.0
19:44:49.010000,45.0,107.0,319.0,-1208.0,341.0,-205.0,0.0,0.0,0.0
19:44:49.015000,60.0,118.0,295.0,-1208.0,341.0,-205.0,0.0,0.0,0.0
19:44:49.020000,69.0,126.0,217.0,-1192.0,319.0,-217.0,0.0,0.0,0.0
19:44:49.024000,36.0,139.0,203.0,-1192.0,319.0,-217.0,0.0,0.0,0.0
19:44:49.029000,39.0,148.0,193.0,-1205.0,299.0,-223.0,0.0,0.0,0.0
19:44:49.034000,42.0,154.0,162.0,-1205.0,299.0,-223.0,0.0,0.0,0.0
19:44:49.039000,3.0,156.0,156.0,-1159.0,229.0,-224.0,0.0,0.0,0.0
19:44:49.043000,-32.0,153.0,200.0,-1159.0,229.0,-224.0,0.0,0.0,0.0
19:44:49.048000,-42.0,143.0,206.0,-1091.0,148.0,-226.0,0.0,0.0,0.0
19:44:49.053000,-13.0,124.0,98.0,-1091.0,148.0,-226.0,0.0,0.0,0.0
19:44:49.057000,-13.0,124.0,98.0,-1036.0,129.0,-234.0,0.0,0.0,0.0
19:44:49.062000,-34.0,120.0,11.0,-1036.0,129.0,-234.0,0.0,0.0,0.0
19:44:49.067000,-72.0,107.0,30.0,-1002.0,94.0,-232.0,0.0,0.0,0.0
19:44:49.071000,-90.0,85.0,72.0,-1002.0,94.0,-232.0,0.0,0.0,0.0
19:44:49.076000,-112.0,79.0,108.0,-934.0,-69.0,-227.0,0.0,0.0,0.0
19:44:49.081000,-126.0,67.0,157.0,-934.0,-69.0,-227.0,0.0,0.0,0.0
19:44:49.085000,-132.0,58.0,189.0,-882.0,-208.0,-238.0,0.0,0.0,0.0
19:44:49.090000,-135.0,46.0,172.0,-882.0,-208.0,-238.0,0.0,0.0,0.0
19:44:49.095000,-123.0,23.0,142.0,-861.0,-270.0,-248.0,0.0,0.0,0.0
19:44:49.100000,-105.0,11.0,121.0,-861.0,-270.0,-248.0,0.0,0.0,0.0
19:44:49.104000,-89.0,4.0,124.0,-844.0,-309.0,-261.0,0.0,0.0,0.0
19:44:49.108000,-71.0,-11.0,104.0,-844.0,-309.0,-261.0,0.0,0.0,0.0
19:44:49.114000,-65.0,-16.0,42.0,-897.0,-276.0,-267.0,0.0,0.0,0.0
19:44:49.118000,-50.0,-25.0,-39.0,-897.0,-276.0,-267.0,0.0,0.0,0.0
19:44:49.123000,-25.0,-36.0,-109.0,-897.0,-276.0,-267.0,0.0,0.0,0.0
19:44:49.128000,-4.0,-47.0,-140.0,-998.0,-261.0,-270.0,0.0,0.0,0.0
19:44:49.132000,23.0,-64.0,-178.0,-998.0,-261.0,-270.0,0.0,0.0,0.0
19:44:49.137000,39.0,-75.0,-231.0,-1062.0,-283.0,-277.0,0.0,0.0,0.0
19:44:49.142000,43.0,-87.0,-262.0,-1062.0,-283.0,-277.0,0.0,0.0,0.0
19:44:49.147000,43.0,-102.0,-239.0,-1105.0,-218.0,-274.0,0.0,0.0,0.0
19:44:49.151000,45.0,-114.0,-207.0,-1105.0,-218.0,-274.0,0.0,0.0,0.0
19:44:49.156000,38.0,-117.0,-197.0,-1135.0,-175.0,-267.0,0.0,0.0,0.0
19:44:49.161000,30.0,-119.0,-194.0,-1135.0,-175.0,-267.0,0.0,0.0,0.0
19:44:49.165000,25.0,-121.0,-185.0,-1163.0,-185.0,-258.0,0.0,0.0,0.0
19:44:49.169000,25.0,-121.0,-185.0,-1163.0,-185.0,-258.0,0.0,0.0,0.0
19:44:49.175000,11.0,-118.0,-163.0,-1185.0,-170.0,-244.0,0.0,0.0,0.0
19:44:49.179000,-4.0,-111.0,-145.0,-1185.0,-170.0,-244.0,0.0,0.0,0.0
19:44:49.184000,-23.0,-107.0,-147.0,-1205.0,-170.0,-226.0,0.0,0.0,0.0
19:44:49.189000,-32.0,-99.0,-149.0,-1205.0,-170.0,-226.0,0.0,0.0,0.0
19:44:49.194000,-32.0,-94.0,-170.0,-1220.0,-191.0,-216.0,0.0,0.0,0.0
19:44:49.198000,-27.0,-91.0,-229.0,-1220.0,-191.0,-216.0,0.0,0.0,0.0
19:44:49.203000,-26.0,-83.0,-277.0,-1209.0,-216.0,-219.0,0.0,0.0,0.0
19:44:49.208000,-36.0,-80.0,-284.0,-1209.0,-216.0,-219.0,0.0,0.0,0.0
19:44:49.212000,-47.0,-93.0,-214.0,-1158.0,-204.0,-205.0,0.0,0.0,0.0
19:44:49.217000,-42.0,-104.0,-140.0,-1158.0,-204.0,-205.0,0.0,0.0,0.0
19:44:49.222000,-27.0,-104.0,-153.0,-1075.0,-156.0,-187.0,0.0,0.0,0.0
19:44:49.226000,-3.0,-114.0,-193.0,-1075.0,-156.0,-187.0,0.0,0.0,0.0
19:44:49.231000,15.0,-116.0,-190.0,-1075.0,-156.0,-187.0,0.0,0.0,0.0
19:44:49.236000,12.0,-131.0,-184.0,-1051.0,-138.0,-183.0,0.0,0.0,0.0
19:44:49.241000,30.0,-144.0,-179.0,-1051.0,-138.0,-183.0,0.0,0.0,0.0
19:44:49.245000,23.0,-126.0,-150.0,-1129.0,-142.0,-184.0,0.0,0.0,0.0
19:44:49.250000,31.0,-118.0,-157.0,-1129.0,-142.0,-184.0,0.0,0.0,0.0
19:44:49.255000,31.0,-113.0,-184.0,-1179.0,-139.0,-173.0,0.0,0.0,0.0
19:44:49.259000,42.0,-102.0,-161.0,-1179.0,-139.0,-173.0,0.0,0.0,0.0
19:44:49.264000,44.0,-92.0,-59.0,-1146.0,-104.0,-162.0,0.0,0.0,0.0
19:44:49.269000,-47.0,-81.0,12.0,-1146.0,-104.0,-162.0,0.0,0.0,0.0
19:44:49.273000,0.0,-83.0,38.0,-1177.0,-136.0,-165.0,0.0,0.0,0.0
19:44:49.278000,0.0,-83.0,38.0,-1177.0,-136.0,-165.0,0.0,0.0,0.0
19:44:49.283000,14.0,-96.0,8.0,-1160.0,-52.0,-151.0,0.0,0.0,0.0
19:44:49.288000,-44.0,-92.0,17.0,-1160.0,-52.0,-151.0,0.0,0.0,0.0
19:44:49.292000,-49.0,-79.0,74.0,-1034.0,21.0,-134.0,0.0,0.0,0.0
19:44:49.297000,-53.0,-95.0,16.0,-1034.0,21.0,-134.0,0.0,0.0,0.0
19:44:49.302000,-50.0,-100.0,-84.0,-1029.0,-66.0,-144.0,0.0,0.0,0.0
19:44:49.306000,-14.0,-110.0,-66.0,-1029.0,-66.0,-144.0,0.0,0.0,0.0
19:44:49.311000,-77.0,-103.0,-32.0,-1106.0,-58.0,-144.0,0.0,0.0,0.0
19:44:49.316000,-109.0,-96.0,-56.0,-1106.0,-58.0,-144.0,0.0,0.0,0.0
19:44:49.320000,-154.0,-86.0,-112.0,-1126.0,-40.0,-132.0,0.0,0.0,0.0
19:44:49.325000,-169.0,-91.0,-84.0,-1126.0,-40.0,-132.0,0.0,0.0,0.0
19:44:49.330000,-179.0,-81.0,-35.0,-1116.0,-105.0,-133.0,0.0,0.0,0.0
19:44:49.335000,-214.0,-74.0,1.0,-1116.0,-105.0,-133.0,0.0,0.0,0.0
19:44:49.339000,-266.0,-56.0,49.0,-1124.0,-180.0,-132.0,0.0,0.0,0.0
19:44:49.344000,-238.0,-57.0,24.0,-1124.0,-180.0,-132.0,0.0,0.0,0.0
19:44:49.349000,-261.0,-59.0,-74.0,-1124.0,-180.0,-132.0,0.0,0.0,0.0
19:44:49.353000,-287.0,-54.0,-113.0,-1106.0,-99.0,-128.0,0.0,0.0,0.0
19:44:49.358000,-329.0,-48.0,-36.0,-1106.0,-99.0,-128.0,0.0,0.0,0.0
19:44:49.363000,-333.0,-43.0,-35.0,-1055.0,-68.0,-129.0,0.0,0.0,0.0
19:44:49.367000,-347.0,-35.0,-87.0,-1055.0,-68.0,-129.0,0.0,0.0,0.0
19:44:49.372000,-336.0,-28.0,-135.0,-1085.0,-113.0,-142.0,0.0,0.0,0.0
19:44:49.377000,-396.0,1.0,-109.0,-1085.0,-113.0,-142.0,0.0,0.0,0.0
19:44:49.382000,-403.0,5.0,-77.0,-1111.0,-147.0,-143.0,0.0,0.0,0.0
19:44:49.386000,-403.0,5.0,-77.0,-1111.0,-147.0,-143.0,0.0,0.0,0.0
19:44:49.391000,-377.0,6.0,-51.0,-1041.0,-194.0,-144.0,0.0,0.0,0.0
19:44:49.396000,-370.0,7.0,-45.0,-1041.0,-194.0,-144.0,0.0,0.0,0.0
19:44:49.400000,-393.0,9.0,-57.0,-1041.0,-158.0,-158.0,0.0,0.0,0.0
19:44:49.404000,-380.0,8.0,-73.0,-1041.0,-158.0,-158.0,0.0,0.0,0.0
19:44:49.410000,-378.0,16.0,-60.0,-1073.0,-169.0,-167.0,0.0,0.0,0.0
19:44:49.414000,-365.0,20.0,-67.0,-1073.0,-169.0,-167.0,0.0,0.0,0.0
19:44:49.419000,-354.0,9.0,-98.0,-1029.0,-202.0,-176.0,0.0,0.0,0.0
19:44:49.424000,-345.0,6.0,-124.0,-1029.0,-202.0,-176.0,0.0,0.0,0.0
19:44:49.429000,-324.0,-10.0,-149.0,-962.0,-169.0,-171.0,0.0,0.0,0.0
19:44:49.433000,-336.0,-18.0,-148.0,-962.0,-169.0,-171.0,0.0,0.0,0.0
19:44:49.438000,-316.0,-35.0,-127.0,-897.0,-167.0,-165.0,0.0,0.0,0.0
19:44:49.443000,-304.0,-51.0,-144.0,-897.0,-167.0,-165.0,0.0,0.0,0.0
19:44:49.447000,-273.0,-76.0,-151.0,-897.0,-167.0,-165.0,0.0,0.0,0.0
19:44:49.452000,-269.0,-101.0,-124.0,-871.0,-198.0,-156.0,0.0,0.0,0.0
19:44:49.457000,-248.0,-125.0,-116.0,-871.0,-198.0,-156.0,0.0,0.0,0.0
19:44:49.461000,-247.0,-149.0,-123.0,-890.0,-178.0,-146.0,0.0,0.0,0.0
19:44:49.466000,-240.0,-178.0,-126.0,-890.0,-178.0,-146.0,0.0,0.0,0.0
19:44:49.471000,-225.0,-205.0,-115.0,-893.0,-140.0,-139.0,0.0,0.0,0.0
19:44:49.476000,-209.0,-228.0,-115.0,-893.0,-140.0,-139.0,0.0,0.0,0.0
19:44:49.480000,-193.0,-254.0,-140.0,-905.0,-119.0,-132.0,0.0,0.0,0.0
19:44:49.485000,-193.0,-270.0,-154.0,-905.0,-119.0,-132.0,0.0,0.0,0.0
19:44:49.490000,-186.0,-284.0,-139.0,-933.0,-104.0,-115.0,0.0,0.0,0.0
19:44:49.494000,-186.0,-284.0,-139.0,-933.0,-104.0,-115.0,0.0,0.0,0.0
19:44:49.499000,-185.0,-299.0,-116.0,-966.0,-83.0,-99.0,0.0,0.0,0.0
19:44:49.504000,-194.0,-309.0,-95.0,-966.0,-83.0,-99.0,0.0,0.0,0.0
19:44:49.508000,-193.0,-317.0,-91.0,-1003.0,-60.0,-86.0,0.0,0.0,0.0
19:44:49.513000,-197.0,-318.0,-91.0,-1003.0,-60.0,-86.0,0.0,0.0,0.0
19:44:49.518000,-219.0,-316.0,-99.0,-1005.0,-51.0,-66.0,0.0,0.0,0.0
19:44:49.523000,-221.0,-309.0,-121.0,-1005.0,-51.0,-66.0,0.0,0.0,0.0
19:44:49.527000,-228.0,-303.0,-145.0,-984.0,-57.0,-48.0,0.0,0.0,0.0
19:44:49.532000,-226.0,-299.0,-157.0,-984.0,-57.0,-48.0,0.0,0.0,0.0
19:44:49.537000,-232.0,-297.0,-154.0,-975.0,-55.0,-30.0,0.0,0.0,0.0
19:44:49.541000,-250.0,-298.0,-159.0,-975.0,-55.0,-30.0,0.0,0.0,0.0
19:44:49.546000,-269.0,-295.0,-166.0,-960.0,-38.0,-12.0,0.0,0.0,0.0
19:44:49.551000,-282.0,-298.0,-180.0,-960.0,-38.0,-12.0,0.0,0.0,0.0
19:44:49.555000,-291.0,-303.0,-208.0,-960.0,-6.0,-2.0,0.0,0.0,0.0
19:44:49.560000,-301.0,-307.0,-231.0,-944.0,-6.0,-2.0,0.0,0.0,0.0
19:44:49.574000,-385.0,-311.0,-253.0,-960.0,21.0,8.0,0.0,0.0,0.0
19:44:49.579000,-423.0,-312.0,-256.0,-993.0,50.0,19.0,0.0,0.0,0.0
19:44:49.584000,-451.0,-314.0,-255.0,-993.0,50.0,19.0,0.0,0.0,0.0
19:44:49.588000,-490.0,-320.0,-266.0,-1011.0,82.0,23.0,0.0,0.0,0.0
19:44:49.593000,-532.0,-332.0,-261.0,-1011.0,82.0,23.0,0.0,0.0,0.0
19:44:49.598000,-571.0,-349.0,-269.0,-1012.0,100.0,28.0,0.0,0.0,0.0
19:44:49.602000,-611.0,-371.0,-276.0,-1012.0,100.0,28.0,0.0,0.0,0.0
19:44:49.607000,-611.0,-371.0,-276.0,-1005.0,122.0,36.0,0.0,0.0,0.0
19:44:49.612000,-648.0,-392.0,-287.0,-1005.0,122.0,36.0,0.0,0.0,0.0
19:44:49.616000,-703.0,-410.0,-303.0,-986.0,148.0,56.0,0.0,0.0,0.0
19:44:49.621000,-746.0,-424.0,-326.0,-986.0,148.0,56.0,0.0,0.0,0.0
19:44:49.626000,-801.0,-426.0,-340.0,-992.0,153.0,63.0,0.0,0.0,0.0
19:44:49.631000,-848.0,-430.0,-346.0,-992.0,153.0,63.0,0.0,0.0,0.0
19:44:49.635000,-905.0,-438.0,-333.0,-1046.0,168.0,54.0,0.0,0.0,0.0
19:44:49.640000,-980.0,-448.0,-331.0,-1046.0,168.0,54.0,0.0,0.0,0.0
19:44:49.645000,-1057.0,-457.0,-347.0,-1080.0,212.0,56.0,0.0,0.0,0.0
19:44:49.649000,-1135.0,-466.0,-391.0,-1080.0,212.0,56.0,0.0,0.0,0.0
19:44:49.654000,-1202.0,-475.0,-431.0,-1068.0,227.0,54.0,0.0,0.0,0.0
19:44:49.659000,-1264.0,-484.0,-439.0,-1068.0,227.0,54.0,0.0,0.0,0.0
19:44:49.664000,-1326.0,-505.0,-452.0,-1034.0,223.0,57.0,0.0,0.0,0.0
19:44:49.668000,-1394.0,-536.0,-487.0,-1034.0,223.0,57.0,0.0,0.0,0.0
19:44:49.673000,-1467.0,-574.0,-511.0,-1034.0,223.0,57.0,0.0,0.0,0.0
19:44:49.678000,-1526.0,-613.0,-510.0,-1007.0,227.0,84.0,0.0,0.0,0.0
19:44:49.682000,-1584.0,-649.0,-506.0,-1007.0,227.0,84.0,0.0,0.0,0.0
19:44:49.687000,-1638.0,-683.0,-536.0,-976.0,203.0,102.0,0.0,0.0,0.0
19:44:49.692000,-1687.0,-715.0,-577.0,-976.0,203.0,102.0,0.0,0.0,0.0
19:44:49.696000,-1739.0,-745.0,-592.0,-929.0,201.0,112.0,0.0,0.0,0.0
19:44:49.701000,-1784.0,-771.0,-579.0,-929.0,201.0,112.0,0.0,0.0,0.0
19:44:49.706000,-1848.0,-802.0,-596.0,-907.0,208.0,160.0,0.0,0.0,0.0
19:44:49.711000,-1918.0,-819.0,-661.0,-907.0,208.0,160.0,0.0,0.0,0.0
19:44:49.715000,-1918.0,-819.0,-661.0,-908.0,222.0,228.0,0.0,0.0,0.0
19:44:49.720000,-1985.0,-812.0,-734.0,-908.0,222.0,228.0,0.0,0.0,0.0
19:44:49.725000,-2040.0,-808.0,-777.0,-976.0,226.0,245.0,0.0,0.0,0.0
19:44:49.729000,-2109.0,-802.0,-777.0,-976.0,226.0,245.0,0.0,0.0,0.0
19:44:49.734000,-2191.0,-805.0,-774.0,-1078.0,237.0,252.0,0.0,0.0,0.0
19:44:49.739000,-2279.0,-810.0,-802.0,-1078.0,237.0,252.0,0.0,0.0,0.0
19:44:49.743000,-2363.0,-812.0,-854.0,-1067.0,291.0,291.0,0.0,0.0,0.0
19:44:49.748000,-2447.0,-812.0,-907.0,-1067.0,291.0,291.0,0.0,0.0,0.0
19:44:49.753000,-2517.0,-816.0,-963.0,-971.0,305.0,333.0,0.0,0.0,0.0
19:44:49.758000,-2569.0,-831.0,-1018.0,-971.0,305.0,333.0,0.0,0.0,0.0
19:44:49.762000,-2592.0,-851.0,-1068.0,-912.0,278.0,367.0,0.0,0.0,0.0
19:44:49.767000,-2613.0,-870.0,-1133.0,-912.0,278.0,367.0,0.0,0.0,0.0
19:44:49.772000,-2620.0,-886.0,-1215.0,-918.0,238.0,374.0,0.0,0.0,0.0
19:44:49.776000,-2604.0,-917.0,-1296.0,-918.0,238.0,374.0,0.0,0.0,0.0
19:44:49.781000,-2587.0,-968.0,-1347.0,-918.0,238.0,374.0,0.0,0.0,0.0
19:44:49.786000,-2585.0,-1024.0,-1397.0,-940.0,214.0,375.0,0.0,0.0,0.0
19:44:49.790000,-2587.0,-1082.0,-1453.0,-940.0,214.0,375.0,0.0,0.0,0.0
19:44:49.795000,-2582.0,-1138.0,-1507.0,-903.0,262.0,374.0,0.0,0.0,0.0
19:44:49.800000,-2576.0,-1198.0,-1530.0,-903.0,262.0,374.0,0.0,0.0,0.0
19:44:49.805000,-2557.0,-1267.0,-1530.0,-835.0,351.0,392.0,0.0,0.0,0.0
19:44:49.809000,-2553.0,-1321.0,-1546.0,-835.0,351.0,392.0,0.0,0.0,0.0
19:44:49.814000,-2557.0,-1369.0,-1591.0,-840.0,419.0,433.0,0.0,0.0,0.0
19:44:49.819000,-2547.0,-1402.0,-1621.0,-840.0,419.0,433.0,0.0,0.0,0.0
19:44:49.823000,-2547.0,-1402.0,-1621.0,-877.0,481.0,455.0,0.0,0.0,0.0
19:44:49.828000,-2536.0,-1420.0,-1621.0,-877.0,481.0,455.0,0.0,0.0,0.0
19:44:49.833000,-2531.0,-1428.0,-1594.0,-858.0,531.0,447.0,0.0,0.0,0.0
19:44:49.837000,-2531.0,-1434.0,-1579.0,-858.0,531.0,447.0,0.0,0.0,0.0
19:44:49.842000,-2541.0,-1435.0,-1584.0,-868.0,625.0,455.0,0.0,0.0,0.0
19:44:49.847000,-2552.0,-1432.0,-1563.0,-868.0,625.0,455.0,0.0,0.0,0.0
19:44:49.852000,-2549.0,-1426.0,-1497.0,-915.0,662.0,478.0,0.0,0.0,0.0
19:44:49.856000,-2527.0,-1420.0,-1402.0,-915.0,662.0,478.0,0.0,0.0,0.0
19:44:49.861000,-2496.0,-1414.0,-1315.0,-939.0,561.0,478.0,0.0,0.0,0.0
19:44:49.866000,-2457.0,-1409.0,-1251.0,-939.0,561.0,478.0,0.0,0.0,0.0
19:44:49.870000,-2419.0,-1396.0,-1197.0,-948.0,505.0,470.0,0.0,0.0,0.0
19:44:49.875000,-2374.0,-1383.0,-1120.0,-948.0,505.0,470.0,0.0,0.0,0.0
19:44:49.880000,-2322.0,-1362.0,-1016.0,-946.0,489.0,455.0,0.0,0.0,0.0
19:44:49.884000,-2265.0,-1340.0,-914.0,-946.0,489.0,455.0,0.0,0.0,0.0
19:44:49.889000,-2203.0,-1319.0,-834.0,-946.0,489.0,455.0,0.0,0.0,0.0
19:44:49.894000,-2136.0,-1288.0,-786.0,-943.0,449.0,450.0,0.0,0.0,0.0
19:44:49.899000,-2070.0,-1251.0,-760.0,-943.0,449.0,450.0,0.0,0.0,0.0
19:44:49.903000,-1999.0,-1208.0,-728.0,-915.0,429.0,458.0,0.0,0.0,0.0
19:44:49.908000,-1922.0,-1149.0,-699.0,-915.0,429.0,458.0,0.0,0.0,0.0
19:44:49.913000,-1844.0,-1078.0,-670.0,-888.0,419.0,461.0,0.0,0.0,0.0
19:44:49.917000,-1780.0,-1005.0,-647.0,-888.0,419.0,461.0,0.0,0.0,0.0
19:44:49.922000,-1721.0,-927.0,-662.0,-925.0,417.0,473.0,0.0,0.0,0.0
19:44:49.927000,-1650.0,-854.0,-704.0,-925.0,417.0,473.0,0.0,0.0,0.0
19:44:49.931000,-1650.0,-854.0,-704.0,-989.0,425.0,485.0,0.0,0.0,0.0
19:44:49.936000,-1571.0,-767.0,-719.0,-989.0,425.0,485.0,0.0,0.0,0.0
19:44:49.941000,-1481.0,-675.0,-709.0,-1010.0,410.0,478.0,0.0,0.0,0.0
19:44:49.946000,-1408.0,-583.0,-690.0,-1010.0,410.0,478.0,0.0,0.0,0.0
19:44:49.950000,-1381.0,-513.0,-691.0,-1057.0,389.0,470.0,0.0,0.0,0.0
19:44:49.955000,-1341.0,-435.0,-721.0,-1057.0,389.0,470.0,0.0,0.0,0.0
19:44:49.960000,-1284.0,-360.0,-728.0,-1126.0,462.0,446.0,0.0,0.0,0.0
19:44:49.964000,-1248.0,-296.0,-660.0,-1126.0,462.0,446.0,0.0,0.0,0.0
19:44:49.969000,-1209.0,-231.0,-548.0,-1093.0,554.0,413.0,0.0,0.0,0.0
19:44:49.974000,-1187.0,-169.0,-489.0,-1093.0,554.0,413.0,0.0,0.0,0.0
19:44:49.978000,-1157.0,-112.0,-484.0,-1024.0,545.0,391.0,0.0,0.0,0.0
19:44:49.983000,-1116.0,-63.0,-469.0,-1024.0,545.0,391.0,0.0,0.0,0.0
19:44:49.988000,-1078.0,-15.0,-422.0,-939.0,519.0,359.0,0.0,0.0,0.0
19:44:49.993000,-1043.0,31.0,-358.0,-939.0,519.0,359.0,0.0,0.0,0.0
19:44:49.997000,-1009.0,73.0,-313.0,-939.0,519.0,359.0,0.0,0.0,0.0
19:44:50.002000,-973.0,110.0,-293.0,-871.0,535.0,326.0,0.0,0.0,0.0
19:44:50.007000,-935.0,147.0,-274.0,-871.0,535.0,326.0,0.0,0.0,0.0
19:44:50.011000,-894.0,183.0,-258.0,-847.0,541.0,296.0,0.0,0.0,0.0
19:44:50.016000,-849.0,211.0,-257.0,-847.0,541.0,296.0,0.0,0.0,0.0
19:44:50.020000,-809.0,235.0,-268.0,-811.0,553.0,263.0,0.0,0.0,0.0
19:44:50.025000,-771.0,253.0,-270.0,-811.0,553.0,263.0,0.0,0.0,0.0
19:44:50.030000,-739.0,268.0,-263.0,-772.0,587.0,239.0,0.0,0.0,0.0
19:44:50.035000,-704.0,280.0,-254.0,-772.0,587.0,239.0,0.0,0.0,0.0
