hh:mm:ss.ms,gyroX[mdps],gyroY[mdps],gyroZ[mdps],accX[mg],accY[mg],accZ[mg],magX[mG],magY[mG],magZ[mG]
19:44:35.715000,98.0,77.0,-156.0,-1564.0,109.0,-282.0,0.0,0.0,0.0
19:44:35.720000,98.0,77.0,-156.0,-1568.0,25.0,-264.0,0.0,0.0,0.0
19:44:35.724000,52.0,80.0,-422.0,-1568.0,25.0,-264.0,0.0,0.0,0.0
19:44:35.729000,84.0,130.0,-602.0,-1501.0,-28.0,-268.0,0.0,0.0,0.0
19:44:35.734000,65.0,109.0,-682.0,-1501.0,-28.0,-268.0,0.0,0.0,0.0
19:44:35.738000,6.0,81.0,-740.0,-1372.0,-62.0,-245.0,0.0,0.0,0.0
19:44:35.743000,-65.0,91.0,-612.0,-1372.0,-62.0,-245.0,0.0,0.0,0.0
19:44:35.748000,-149.0,109.0,-609.0,-1216.0,-53.0,-213.0,0.0,0.0,0.0
19:44:35.752000,-38.0,81.0,-659.0,-1216.0,-53.0,-213.0,0.0,0.0,0.0
19:44:35.757000,-54.0,88.0,-688.0,-1217.0,-161.0,-218.0,0.0,0.0,0.0
19:44:35.762000,-135.0,46.0,-549.0,-1217.0,-161.0,-218.0,0.0,0.0,0.0
19:44:35.767000,-204.0,58.0,-567.0,-1210.0,-276.0,-226.0,0.0,0.0,0.0
19:44:35.771000,-176.0,37.0,-590.0,-1210.0,-276.0,-226.0,0.0,0.0,0.0
19:44:35.776000,-180.0,-30.0,-543.0,-945.0,-484.0,-174.0,0.0,0.0,0.0
19:44:35.781000,-133.0,-28.0,-277.0,-945.0,-484.0,-174.0,0.0,0.0,0.0
19:44:35.785000,-193.0,-17.0,-271.0,-945.0,-484.0,-174.0,0.0,0.0,0.0
19:44:35.790000,-193.0,-4.0,-185.0,-748.0,-685.0,-106.0,0.0,0.0,0.0
19:44:35.795000,-194.0,-31.0,135.0,-748.0,-685.0,-106.0,0.0,0.0,0.0
19:44:35.799000,-214.0,-48.0,314.0,-683.0,-921.0,-105.0,0.0,0.0,0.0
19:44:35.804000,-142.0,-66.0,492.0,-592.0,-1192.0,-104.0,0.0,0.0,0.0
19:44:35.809000,-154.0,-60.0,553.0,-592.0,-1192.0,-104.0,0.0,0.0,0.0
19:44:35.814000,-175.0,-102.0,309.0,-592.0,-1192.0,-104.0,0.0,0.0,0.0
19:44:35.818000,-104.0,-116.0,74.0,-511.0,-1145.0,-61.0,0.0,0.0,0.0
19:44:35.823000,-12.0,-80.0,-77.0,-511.0,-1145.0,-61.0,0.0,0.0,0.0
19:44:35.828000,-12.0,-80.0,-77.0,-371.0,-986.0,-71.0,0.0,0.0,0.0
19:44:35.832000,-32.0,-82.0,-322.0,-371.0,-986.0,-71.0,0.0,0.0,0.0
19:44:35.837000,-21.0,-130.0,-443.0,-379.0,-848.0,-111.0,0.0,0.0,0.0
19:44:35.842000,-16.0,-88.0,-366.0,-379.0,-848.0,-111.0,0.0,0.0,0.0
19:44:35.846000,-74.0,-144.0,-453.0,-572.0,-805.0,-90.0,0.0,0.0,0.0
19:44:35.851000,-72.0,-172.0,-642.0,-572.0,-805.0,-90.0,0.0,0.0,0.0
19:44:35.856000,-36.0,-175.0,-747.0,-573.0,-727.0,-78.0,0.0,0.0,0.0
19:44:35.861000,-96.0,-165.0,-797.0,-573.0,-727.0,-78.0,0.0,0.0,0.0
19:44:35.865000,-66.0,-183.0,-942.0,-574.0,-524.0,-98.0,0.0,0.0,0.0
19:44:35.870000,-20.0,-210.0,-987.0,-574.0,-524.0,-98.0,0.0,0.0,0.0
19:44:35.875000,13.0,-240.0,-678.0,-709.0,-617.0,-115.0,0.0,0.0,0.0
19:44:35.879000,-20.0,-302.0,-525.0,-709.0,-617.0,-115.0,0.0,0.0,0.0
19:44:35.884000,-98.0,-340.0,-458.0,-652.0,-618.0,-104.0,0.0,0.0,0.0
19:44:35.889000,-156.0,-357.0,-268.0,-652.0,-618.0,-104.0,0.0,0.0,0.0
19:44:35.893000,-163.0,-425.0,-108.0,-652.0,-618.0,-104.0,0.0,0.0,0.0
19:44:35.898000,-107.0,-462.0,-121.0,-549.0,-446.0,-78.0,0.0,0.0,0.0
19:44:35.903000,-126.0,-466.0,-191.0,-549.0,-446.0,-78.0,0.0,0.0,0.0
19:44:35.908000,-114.0,-457.0,-164.0,-683.0,-463.0,-61.0,0.0,0.0,0.0
19:44:35.912000,-146.0,-479.0,-128.0,-683.0,-463.0,-61.0,0.0,0.0,0.0
19:44:35.917000,-217.0,-416.0,-218.0,-896.0,-525.0,-41.0,0.0,0.0,0.0
19:44:35.922000,-214.0,-391.0,-239.0,-896.0,-525.0,-41.0,0.0,0.0,0.0
19:44:35.926000,-253.0,-389.0,-186.0,-849.0,-508.0,9.0,0.0,0.0,0.0
19:44:35.931000,-319.0,-361.0,-318.0,-849.0,-508.0,9.0,0.0,0.0,0.0
19:44:35.936000,-315.0,-336.0,-295.0,-704.0,-486.0,63.0,0.0,0.0,0.0
19:44:35.940000,-315.0,-336.0,-295.0,-704.0,-486.0,63.0,0.0,0.0,0.0
19:44:35.945000,-268.0,-330.0,-170.0,-676.0,-617.0,55.0,0.0,0.0,0.0
19:44:35.950000,-216.0,-291.0,69.0,-676.0,-617.0,55.0,0.0,0.0,0.0
19:44:35.955000,-169.0,-295.0,186.0,-801.0,-758.0,16.0,0.0,0.0,0.0
19:44:35.959000,-139.0,-291.0,126.0,-801.0,-758.0,16.0,0.0,0.0,0.0
19:44:35.964000,-149.0,-304.0,124.0,-914.0,-684.0,12.0,0.0,0.0,0.0
19:44:35.969000,-179.0,-318.0,84.0,-914.0,-684.0,12.0,0.0,0.0,0.0
19:44:35.973000,-266.0,-284.0,-46.0,-906.0,-536.0,32.0,0.0,0.0,0.0
19:44:35.978000,-291.0,-273.0,-220.0,-906.0,-536.0,32.0,0.0,0.0,0.0
19:44:35.983000,-244.0,-276.0,-356.0,-760.0,-559.0,48.0,0.0,0.0,0.0
19:44:35.987000,-216.0,-262.0,-311.0,-760.0,-559.0,48.0,0.0,0.0,0.0
19:44:35.992000,-231.0,-239.0,-298.0,-667.0,-607.0,45.0,0.0,0.0,0.0
19:44:35.997000,-249.0,-217.0,-233.0,-667.0,-607.0,45.0,0.0,0.0,0.0
19:44:36.002000,-235.0,-215.0,-189.0,-667.0,-607.0,45.0,0.0,0.0,0.0
19:44:36.006000,-205.0,-233.0,-290.0,-882.0,-635.0,26.0,0.0,0.0,0.0
19:44:36.011000,-119.0,-198.0,-248.0,-882.0,-635.0,26.0,0.0,0.0,0.0
19:44:36.016000,-23.0,-182.0,-164.0,-980.0,-721.0,-5.0,0.0,0.0,0.0
19:44:36.020000,23.0,-214.0,-169.0,-980.0,-721.0,-5.0,0.0,0.0,0.0
19:44:36.025000,-32.0,-199.0,-241.0,-993.0,-746.0,-2.0,0.0,0.0,0.0
19:44:36.030000,-21.0,-195.0,-277.0,-993.0,-746.0,-2.0,0.0,0.0,0.0
19:44:36.034000,-46.0,-183.0,-176.0,-952.0,-639.0,4.0,0.0,0.0,0.0
19:44:36.039000,-25.0,-193.0,-77.0,-952.0,-639.0,4.0,0.0,0.0,0.0
19:44:36.044000,7.0,-226.0,-47.0,-782.0,-615.0,-7.0,0.0,0.0,0.0
19:44:36.049000,7.0,-226.0,-47.0,-782.0,-615.0,-7.0,0.0,0.0,0.0
19:44:36.053000,16.0,-232.0,-70.0,-753.0,-625.0,5.0,0.0,0.0,0.0
19:44:36.058000,7.0,-213.0,-66.0,-753.0,-625.0,5.0,0.0,0.0,0.0
19:44:36.063000,4.0,-214.0,-65.0,-804.0,-605.0,14.0,0.0,0.0,0.0
19:44:36.067000,6.0,-197.0,-176.0,-804.0,-605.0,14.0,0.0,0.0,0.0
19:44:36.072000,4.0,-168.0,-320.0,-838.0,-599.0,20.0,0.0,0.0,0.0
19:44:36.077000,14.0,-142.0,-417.0,-838.0,-599.0,20.0,0.0,0.0,0.0
19:44:36.081000,37.0,-133.0,-399.0,-872.0,-645.0,31.0,0.0,0.0,0.0
19:44:36.086000,39.0,-99.0,-293.0,-872.0,-645.0,31.0,0.0,0.0,0.0
19:44:36.091000,60.0,-88.0,-189.0,-920.0,-699.0,45.0,0.0,0.0,0.0
19:44:36.096000,70.0,-74.0,-188.0,-920.0,-699.0,45.0,0.0,0.0,0.0
19:44:36.100000,103.0,-77.0,-259.0,-911.0,-635.0,49.0,0.0,0.0,0.0
19:44:36.104000,139.0,-59.0,-261.0,-911.0,-635.0,49.0,0.0,0.0,0.0
19:44:36.110000,147.0,-53.0,-149.0,-911.0,-635.0,49.0,0.0,0.0,0.0
19:44:36.114000,93.0,-27.0,-152.0,-874.0,-504.0,48.0,0.0,0.0,0.0
19:44:36.119000,155.0,-46.0,-260.0,-874.0,-504.0,48.0,0.0,0.0,0.0
19:44:36.124000,214.0,-50.0,-340.0,-881.0,-468.0,40.0,0.0,0.0,0.0
19:44:36.128000,228.0,-60.0,-291.0,-881.0,-468.0,40.0,0.0,0.0,0.0
19:44:36.133000,198.0,-62.0,-265.0,-888.0,-621.0,35.0,0.0,0.0,0.0
19:44:36.138000,200.0,-51.0,-238.0,-888.0,-621.0,35.0,0.0,0.0,0.0
19:44:36.143000,220.0,-37.0,-88.0,-828.0,-643.0,35.0,0.0,0.0,0.0
19:44:36.147000,233.0,-32.0,-30.0,-828.0,-643.0,35.0,0.0,0.0,0.0
19:44:36.152000,198.0,-24.0,-133.0,-866.0,-477.0,42.0,0.0,0.0,0.0
19:44:36.157000,198.0,-24.0,-133.0,-866.0,-477.0,42.0,0.0,0.0,0.0
19:44:36.161000,177.0,-2.0,-141.0,-940.0,-481.0,52.0,0.0,0.0,0.0
19:44:36.166000,177.0,8.0,-97.0,-940.0,-481.0,52.0,0.0,0.0,0.0
19:44:36.171000,164.0,27.0,-148.0,-911.0,-476.0,58.0,0.0,0.0,0.0
19:44:36.175000,146.0,38.0,-200.0,-911.0,-476.0,58.0,0.0,0.0,0.0
19:44:36.180000,128.0,53.0,-154.0,-851.0,-426.0,60.0,0.0,0.0,0.0
19:44:36.185000,119.0,63.0,-107.0,-851.0,-426.0,60.0,0.0,0.0,0.0
19:44:36.190000,128.0,59.0,-178.0,-911.0,-423.0,50.0,0.0,0.0,0.0
19:44:36.194000,112.0,71.0,-293.0,-911.0,-423.0,50.0,0.0,0.0,0.0
19:44:36.199000,142.0,91.0,-196.0,-944.0,-467.0,38.0,0.0,0.0,0.0
19:44:36.204000,178.0,89.0,-63.0,-944.0,-467.0,38.0,0.0,0.0,0.0
19:44:36.208000,230.0,87.0,-115.0,-897.0,-553.0,35.0,0.0,0.0,0.0
19:44:36.213000,280.0,77.0,-315.0,-897.0,-553.0,35.0,0.0,0.0,0.0
19:44:36.218000,280.0,91.0,-399.0,-911.0,-602.0,41.0,0.0,0.0,0.0
19:44:36.222000,267.0,103.0,-263.0,-911.0,-602.0,41.0,0.0,0.0,0.0
19:44:36.227000,227.0,105.0,-205.0,-911.0,-602.0,41.0,0.0,0.0,0.0
19:44:36.232000,163.0,118.0,-233.0,-876.0,-504.0,47.0,0.0,0.0,0.0
19:44:36.236000,158.0,102.0,-208.0,-876.0,-504.0,47.0,0.0,0.0,0.0
19:44:36.241000,166.0,102.0,-239.0,-867.0,-407.0,34.0,0.0,0.0,0.0
19:44:36.246000,180.0,117.0,-292.0,-867.0,-407.0,34.0,0.0,0.0,0.0
19:44:36.251000,185.0,116.0,-184.0,-904.0,-502.0,0.0,0.0,0.0,0.0
19:44:36.255000,185.0,116.0,-184.0,-904.0,-502.0,0.0,0.0,0.0,0.0
19:44:36.260000,217.0,128.0,-116.0,-920.0,-491.0,-17.0,0.0,0.0,0.0
19:44:36.265000,221.0,114.0,-361.0,-920.0,-491.0,-17.0,0.0,0.0,0.0
19:44:36.269000,221.0,114.0,-361.0,-978.0,-418.0,-5.0,0.0,0.0,0.0
19:44:36.274000,200.0,135.0,-373.0,-978.0,-418.0,-5.0,0.0,0.0,0.0
19:44:36.278000,203.0,158.0,-277.0,-983.0,-441.0,7.0,0.0,0.0,0.0
19:44:36.283000,201.0,170.0,-322.0,-983.0,-441.0,7.0,0.0,0.0,0.0
19:44:36.288000,213.0,161.0,-403.0,-902.0,-466.0,12.0,0.0,0.0,0.0
19:44:36.293000,219.0,149.0,-353.0,-902.0,-466.0,12.0,0.0,0.0,0.0
19:44:36.298000,189.0,149.0,-234.0,-920.0,-478.0,21.0,0.0,0.0,0.0
19:44:36.302000,152.0,168.0,-215.0,-920.0,-478.0,21.0,0.0,0.0,0.0
19:44:36.307000,132.0,180.0,-291.0,-972.0,-435.0,24.0,0.0,0.0,0.0
19:44:36.312000,139.0,170.0,-304.0,-972.0,-435.0,24.0,0.0,0.0,0.0
19:44:36.316000,149.0,175.0,-275.0,-990.0,-403.0,11.0,0.0,0.0,0.0
19:44:36.321000,161.0,187.0,-291.0,-990.0,-403.0,11.0,0.0,0.0,0.0
19:44:36.326000,161.0,211.0,-341.0,-1015.0,-412.0,-11.0,0.0,0.0,0.0
19:44:36.330000,164.0,236.0,-375.0,-1015.0,-412.0,-11.0,0.0,0.0,0.0
19:44:36.335000,163.0,247.0,-360.0,-1015.0,-412.0,-11.0,0.0,0.0,0.0
19:44:36.340000,144.0,253.0,-362.0,-1025.0,-427.0,8.0,0.0,0.0,0.0
19:44:36.345000,135.0,254.0,-378.0,-1025.0,-427.0,8.0,0.0,0.0,0.0
19:44:36.349000,134.0,249.0,-403.0,-1006.0,-443.0,50.0,0.0,0.0,0.0
19:44:36.354000,133.0,242.0,-420.0,-1006.0,-443.0,50.0,0.0,0.0,0.0
19:44:36.359000,123.0,235.0,-418.0,-976.0,-424.0,70.0,0.0,0.0,0.0
19:44:36.363000,123.0,238.0,-385.0,-976.0,-424.0,70.0,0.0,0.0,0.0
19:44:36.368000,103.0,230.0,-347.0,-1001.0,-441.0,87.0,0.0,0.0,0.0
19:44:36.373000,93.0,237.0,-289.0,-1001.0,-441.0,87.0,0.0,0.0,0.0
19:44:36.377000,93.0,237.0,-289.0,-1013.0,-452.0,96.0,0.0,0.0,0.0
19:44:36.382000,116.0,248.0,-302.0,-1013.0,-452.0,96.0,0.0,0.0,0.0
19:44:36.387000,113.0,290.0,-399.0,-827.0,-390.0,89.0,0.0,0.0,0.0
19:44:36.392000,102.0,334.0,-514.0,-827.0,-390.0,89.0,0.0,0.0,0.0
19:44:36.396000,53.0,356.0,-599.0,-470.0,-186.0,64.0,0.0,0.0,0.0
19:44:36.401000,60.0,392.0,-730.0,-470.0,-186.0,64.0,0.0,0.0,0.0
19:44:36.406000,-4.0,402.0,-676.0,-590.0,-214.0,49.0,0.0,0.0,0.0
19:44:36.410000,-47.0,436.0,-465.0,-590.0,-214.0,49.0,0.0,0.0,0.0
19:44:36.415000,-28.0,456.0,-410.0,-844.0,-437.0,0.0,0.0,0.0,0.0
19:44:36.420000,1.0,472.0,-504.0,-844.0,-437.0,0.0,0.0,0.0,0.0
19:44:36.424000,55.0,467.0,-515.0,-818.0,-530.0,-107.0,0.0,0.0,0.0
19:44:36.429000,101.0,449.0,-501.0,-818.0,-530.0,-107.0,0.0,0.0,0.0
19:44:36.434000,122.0,451.0,-786.0,-861.0,-512.0,-192.0,0.0,0.0,0.0
19:44:36.439000,122.0,416.0,-893.0,-861.0,-512.0,-192.0,0.0,0.0,0.0
19:44:36.443000,60.0,361.0,-802.0,-861.0,-512.0,-192.0,0.0,0.0,0.0
19:44:36.448000,-86.0,294.0,-344.0,-1091.0,-398.0,-158.0,0.0,0.0,0.0
19:44:36.453000,-32.0,241.0,-39.0,-1091.0,-398.0,-158.0,0.0,0.0,0.0
19:44:36.457000,41.0,245.0,-301.0,-1103.0,-281.0,-156.0,0.0,0.0,0.0
19:44:36.462000,139.0,230.0,-668.0,-1103.0,-281.0,-156.0,0.0,0.0,0.0
19:44:36.467000,197.0,224.0,-868.0,-606.0,-296.0,-245.0,0.0,0.0,0.0
19:44:36.471000,212.0,194.0,-999.0,-606.0,-296.0,-245.0,0.0,0.0,0.0
19:44:36.476000,59.0,123.0,-813.0,-712.0,-388.0,-254.0,0.0,0.0,0.0
19:44:36.481000,0.0,28.0,-271.0,-712.0,-388.0,-254.0,0.0,0.0,0.0
19:44:36.486000,0.0,28.0,-271.0,-1188.0,-357.0,-202.0,0.0,0.0,0.0
19:44:36.490000,90.0,-18.0,-30.0,-1188.0,-357.0,-202.0,0.0,0.0,0.0
19:44:36.495000,132.0,2.0,-256.0,-1054.0,-277.0,-180.0,0.0,0.0,0.0
19:44:36.500000,184.0,-18.0,-460.0,-1054.0,-277.0,-180.0,0.0,0.0,0.0
19:44:36.504000,184.0,-22.0,-482.0,-822.0,-200.0,-153.0,0.0,0.0,0.0
19:44:36.509000,172.0,-29.0,-329.0,-822.0,-200.0,-153.0,0.0,0.0,0.0
19:44:36.514000,153.0,-33.0,-259.0,-809.0,-170.0,-117.0,0.0,0.0,0.0
19:44:36.518000,168.0,-32.0,-380.0,-809.0,-170.0,-117.0,0.0,0.0,0.0
19:44:36.523000,143.0,-19.0,-511.0,-908.0,-188.0,-119.0,0.0,0.0,0.0
19:44:36.528000,112.0,-15.0,-490.0,-908.0,-188.0,-119.0,0.0,0.0,0.0
19:44:36.533000,92.0,-2.0,-364.0,-1075.0,-248.0,-133.0,0.0,0.0,0.0
19:44:36.537000,89.0,4.0,-294.0,-1075.0,-248.0,-133.0,0.0,0.0,0.0
19:44:36.542000,65.0,18.0,-294.0,-1148.0,-287.0,-138.0,0.0,0.0,0.0
19:44:36.547000,62.0,39.0,-326.0,-1148.0,-287.0,-138.0,0.0,0.0,0.0
19:44:36.551000,62.0,61.0,-364.0,-1148.0,-287.0,-138.0,0.0,0.0,0.0
19:44:36.556000,59.0,70.0,-420.0,-1046.0,-257.0,-129.0,0.0,0.0,0.0
19:44:36.561000,30.0,94.0,-492.0,-1046.0,-257.0,-129.0,0.0,0.0,0.0
19:44:36.565000,11.0,98.0,-424.0,-913.0,-226.0,-129.0,0.0,0.0,0.0
19:44:36.570000,12.0,84.0,-396.0,-913.0,-226.0,-129.0,0.0,0.0,0.0
19:44:36.575000,32.0,88.0,-506.0,-888.0,-193.0,-133.0,0.0,0.0,0.0
19:44:36.580000,56.0,80.0,-596.0,-888.0,-193.0,-133.0,0.0,0.0,0.0
19:44:36.584000,46.0,96.0,-580.0,-877.0,-193.0,-140.0,0.0,0.0,0.0
19:44:36.589000,46.0,90.0,-441.0,-877.0,-193.0,-140.0,0.0,0.0,0.0
19:44:36.594000,46.0,90.0,-441.0,-945.0,-276.0,-147.0,0.0,0.0,0.0
19:44:36.598000,63.0,74.0,-293.0,-945.0,-276.0,-147.0,0.0,0.0,0.0
19:44:36.603000,82.0,74.0,-345.0,-1035.0,-276.0,-161.0,0.0,0.0,0.0
19:44:36.608000,122.0,67.0,-497.0,-1035.0,-276.0,-161.0,0.0,0.0,0.0
19:44:36.612000,125.0,67.0,-538.0,-975.0,-173.0,-164.0,0.0,0.0,0.0
19:44:36.617000,125.0,67.0,-488.0,-975.0,-173.0,-164.0,0.0,0.0,0.0
19:44:36.622000,108.0,65.0,-451.0,-949.0,-108.0,-150.0,0.0,0.0,0.0
19:44:36.627000,105.0,71.0,-447.0,-949.0,-108.0,-150.0,0.0,0.0,0.0
19:44:36.631000,90.0,81.0,-466.0,-1002.0,-97.0,-146.0,0.0,0.0,0.0
19:44:36.636000,68.0,90.0,-436.0,-1002.0,-97.0,-146.0,0.0,0.0,0.0
19:44:36.641000,70.0,98.0,-445.0,-1049.0,-104.0,-150.0,0.0,0.0,0.0
19:44:36.645000,58.0,110.0,-474.0,-1049.0,-104.0,-150.0,0.0,0.0,0.0
19:44:36.650000,47.0,125.0,-476.0,-1083.0,-100.0,-147.0,0.0,0.0,0.0
19:44:36.655000,31.0,133.0,-450.0,-1083.0,-100.0,-147.0,0.0,0.0,0.0
19:44:36.659000,16.0,146.0,-434.0,-1083.0,-100.0,-147.0,0.0,0.0,0.0
19:44:36.664000,5.0,154.0,-427.0,-1080.0,-130.0,-133.0,0.0,0.0,0.0
19:44:36.669000,23.0,158.0,-469.0,-1080.0,-130.0,-133.0,0.0,0.0,0.0
19:44:36.674000,25.0,164.0,-528.0,-1053.0,-145.0,-126.0,0.0,0.0,0.0
19:44:36.678000,37.0,172.0,-601.0,-1053.0,-145.0,-126.0,0.0,0.0,0.0
19:44:36.683000,39.0,176.0,-660.0,-978.0,-140.0,-125.0,0.0,0.0,0.0
19:44:36.688000,25.0,173.0,-570.0,-978.0,-140.0,-125.0,0.0,0.0,0.0
19:44:36.692000,23.0,171.0,-513.0,-965.0,-129.0,-117.0,0.0,0.0,0.0
19:44:36.697000,39.0,168.0,-533.0,-965.0,-129.0,-117.0,0.0,0.0,0.0
19:44:36.702000,60.0,156.0,-581.0,-1017.0,-104.0,-122.0,0.0,0.0,0.0
19:44:36.706000,60.0,156.0,-581.0,-1017.0,-104.0,-122.0,0.0,0.0,0.0
19:44:36.711000,65.0,158.0,-590.0,-1026.0,-76.0,-138.0,0.0,0.0,0.0
19:44:36.716000,51.0,160.0,-556.0,-1026.0,-76.0,-138.0,0.0,0.0,0.0
19:44:36.721000,52.0,170.0,-556.0,-1051.0,-47.0,-146.0,0.0,0.0,0.0
19:44:36.725000,51.0,163.0,-603.0,-1051.0,-47.0,-146.0,0.0,0.0,0.0
19:44:36.730000,36.0,162.0,-599.0,-1062.0,15.0,-154.0,0.0,0.0,0.0
19:44:36.735000,39.0,168.0,-612.0,-1062.0,15.0,-154.0,0.0,0.0,0.0
19:44:36.739000,28.0,166.0,-610.0,-1038.0,60.0,-162.0,0.0,0.0,0.0
19:44:36.744000,18.0,172.0,-595.0,-1038.0,60.0,-162.0,0.0,0.0,0.0
19:44:36.748000,15.0,178.0,-615.0,-1060.0,39.0,-176.0,0.0,0.0,0.0
19:44:36.753000,9.0,186.0,-633.0,-1060.0,39.0,-176.0,0.0,0.0,0.0
19:44:36.758000,0.0,195.0,-599.0,-1093.0,14.0,-183.0,0.0,0.0,0.0
19:44:36.763000,-9.0,189.0,-549.0,-1093.0,14.0,-183.0,0.0,0.0,0.0
19:44:36.768000,6.0,193.0,-525.0,-1093.0,14.0,-183.0,0.0,0.0,0.0
19:44:36.772000,29.0,189.0,-580.0,-1097.0,-24.0,-193.0,0.0,0.0,0.0
19:44:36.777000,59.0,182.0,-621.0,-1097.0,-24.0,-193.0,0.0,0.0,0.0
19:44:36.782000,60.0,181.0,-617.0,-1083.0,-30.0,-211.0,0.0,0.0,0.0
19:44:36.786000,68.0,177.0,-587.0,-1083.0,-30.0,-211.0,0.0,0.0,0.0
19:44:36.791000,82.0,163.0,-574.0,-1044.0,14.0,-217.0,0.0,0.0,0.0
19:44:36.796000,95.0,149.0,-578.0,-1044.0,14.0,-217.0,0.0,0.0,0.0
19:44:36.800000,88.0,142.0,-582.0,-1009.0,32.0,-215.0,0.0,0.0,0.0
19:44:36.805000,88.0,136.0,-585.0,-1009.0,32.0,-215.0,0.0,0.0,0.0
19:44:36.810000,114.0,126.0,-577.0,-1002.0,19.0,-222.0,0.0,0.0,0.0
19:44:36.815000,114.0,126.0,-577.0,-1002.0,19.0,-222.0,0.0,0.0,0.0
19:44:36.819000,121.0,114.0,-588.0,-991.0,41.0,-230.0,0.0,0.0,0.0
19:44:36.824000,123.0,102.0,-585.0,-991.0,41.0,-230.0,0.0,0.0,0.0
19:44:36.829000,126.0,91.0,-578.0,-981.0,93.0,-232.0,0.0,0.0,0.0
19:44:36.833000,130.0,82.0,-574.0,-981.0,93.0,-232.0,0.0,0.0,0.0
19:44:36.838000,118.0,80.0,-564.0,-1001.0,105.0,-236.0,0.0,0.0,0.0
19:44:36.843000,122.0,73.0,-525.0,-1001.0,105.0,-236.0,0.0,0.0,0.0
19:44:36.847000,135.0,58.0,-492.0,-1055.0,100.0,-237.0,0.0,0.0,0.0
19:44:36.852000,135.0,46.0,-494.0,-1055.0,100.0,-237.0,0.0,0.0,0.0
19:44:36.857000,150.0,31.0,-515.0,-1092.0,113.0,-237.0,0.0,0.0,0.0
19:44:36.862000,162.0,16.0,-508.0,-1092.0,113.0,-237.0,0.0,0.0,0.0
19:44:36.866000,172.0,5.0,-469.0,-1069.0,118.0,-241.0,0.0,0.0,0.0
19:44:36.871000,174.0,2.0,-428.0,-1069.0,118.0,-241.0,0.0,0.0,0.0
19:44:36.876000,173.0,-1.0,-418.0,-1069.0,118.0,-241.0,0.0,0.0,0.0
19:44:36.880000,167.0,-3.0,-415.0,-1060.0,159.0,-243.0,0.0,0.0,0.0
19:44:36.885000,144.0,0.0,-403.0,-1060.0,159.0,-243.0,0.0,0.0,0.0
19:44:36.890000,124.0,1.0,-376.0,-1072.0,229.0,-236.0,0.0,0.0,0.0
19:44:36.894000,98.0,4.0,-356.0,-1072.0,229.0,-236.0,0.0,0.0,0.0
19:44:36.899000,84.0,12.0,-323.0,-1065.0,247.0,-231.0,0.0,0.0,0.0
19:44:36.904000,65.0,10.0,-289.0,-1065.0,247.0,-231.0,0.0,0.0,0.0
19:44:36.909000,57.0,10.0,-271.0,-1059.0,259.0,-228.0,0.0,0.0,0.0
19:44:36.913000,61.0,10.0,-284.0,-1059.0,259.0,-228.0,0.0,0.0,0.0
19:44:36.918000,44.0,9.0,-284.0,-1035.0,286.0,-224.0,0.0,0.0,0.0
19:44:36.923000,44.0,9.0,-284.0,-1035.0,286.0,-224.0,0.0,0.0,0.0
19:44:36.927000,39.0,11.0,-261.0,-1008.0,262.0,-216.0,0.0,0.0,0.0
19:44:36.932000,28.0,9.0,-222.0,-1008.0,262.0,-216.0,0.0,0.0,0.0
19:44:36.937000,28.0,3.0,-200.0,-1036.0,227.0,-204.0,0.0,0.0,0.0
19:44:36.941000,30.0,-7.0,-194.0,-1036.0,227.0,-204.0,0.0,0.0,0.0
19:44:36.946000,35.0,-9.0,-201.0,-1090.0,205.0,-203.0,0.0,0.0,0.0
19:44:36.951000,42.0,-4.0,-284.0,-1090.0,205.0,-203.0,0.0,0.0,0.0
19:44:36.956000,61.0,-1.0,-375.0,-1109.0,165.0,-210.0,0.0,0.0,0.0
19:44:36.960000,72.0,10.0,-282.0,-1109.0,165.0,-210.0,0.0,0.0,0.0
19:44:36.965000,90.0,11.0,-153.0,-1027.0,181.0,-213.0,0.0,0.0,0.0
19:44:36.970000,103.0,14.0,-167.0,-1027.0,181.0,-213.0,0.0,0.0,0.0
19:44:36.974000,130.0,16.0,-252.0,-1009.0,238.0,-214.0,0.0,0.0,0.0
19:44:36.979000,151.0,15.0,-284.0,-1009.0,238.0,-214.0,0.0,0.0,0.0
19:44:36.984000,178.0,4.0,-232.0,-1009.0,238.0,-214.0,0.0,0.0,0.0
19:44:36.988000,190.0,5.0,-146.0,-1076.0,222.0,-217.0,0.0,0.0,0.0
19:44:36.993000,194.0,-2.0,-81.0,-1076.0,222.0,-217.0,0.0,0.0,0.0
19:44:36.998000,190.0,-10.0,-25.0,-1075.0,212.0,-205.0,0.0,0.0,0.0
19:44:37.003000,191.0,-28.0,34.0,-1075.0,212.0,-205.0,0.0,0.0,0.0
19:44:37.007000,193.0,-41.0,59.0,-1024.0,242.0,-186.0,0.0,0.0,0.0
19:44:37.012000,188.0,-46.0,60.0,-1024.0,242.0,-186.0,0.0,0.0,0.0
19:44:37.017000,173.0,-53.0,96.0,-946.0,253.0,-173.0,0.0,0.0,0.0
19:44:37.021000,156.0,-65.0,137.0,-946.0,253.0,-173.0,0.0,0.0,0.0
19:44:37.026000,152.0,-81.0,137.0,-880.0,238.0,-156.0,0.0,0.0,0.0
19:44:37.031000,152.0,-81.0,137.0,-880.0,238.0,-156.0,0.0,0.0,0.0
19:44:37.035000,144.0,-89.0,110.0,-844.0,217.0,-145.0,0.0,0.0,0.0
19:44:37.040000,135.0,-96.0,75.0,-844.0,217.0,-145.0,0.0,0.0,0.0
19:44:37.045000,127.0,-107.0,58.0,-815.0,214.0,-137.0,0.0,0.0,0.0
19:44:37.050000,112.0,-118.0,36.0,-815.0,214.0,-137.0,0.0,0.0,0.0
19:44:37.054000,106.0,-128.0,-17.0,-800.0,227.0,-132.0,0.0,0.0,0.0
19:44:37.059000,95.0,-142.0,-76.0,-800.0,227.0,-132.0,0.0,0.0,0.0
19:44:37.064000,77.0,-147.0,-100.0,-824.0,250.0,-132.0,0.0,0.0,0.0
19:44:37.068000,63.0,-158.0,-98.0,-824.0,250.0,-132.0,0.0,0.0,0.0
19:44:37.073000,48.0,-172.0,-112.0,-839.0,273.0,-126.0,0.0,0.0,0.0
19:44:37.078000,23.0,-181.0,-116.0,-839.0,273.0,-126.0,0.0,0.0,0.0
19:44:37.082000,9.0,-193.0,-116.0,-834.0,288.0,-122.0,0.0,0.0,0.0
19:44:37.087000,-8.0,-202.0,-104.0,-834.0,288.0,-122.0,0.0,0.0,0.0
19:44:37.092000,-26.0,-210.0,-67.0,-802.0,262.0,-120.0,0.0,0.0,0.0
19:44:37.097000,-36.0,-216.0,-32.0,-802.0,262.0,-120.0,0.0,0.0,0.0
19:44:37.101000,-39.0,-224.0,0.0,-802.0,262.0,-120.0,0.0,0.0,0.0
19:44:37.106000,-32.0,-231.0,35.0,-758.0,203.0,-123.0,0.0,0.0,0.0
19:44:37.111000,-28.0,-232.0,67.0,-758.0,155.0,-130.0,0.0,0.0,0.0
19:44:37.115000,-23.0,-236.0,93.0,-733.0,155.0,-130.0,0.0,0.0,0.0
19:44:37.120000,-14.0,-240.0,112.0,-733.0,155.0,-130.0,0.0,0.0,0.0
19:44:37.125000,-6.0,-235.0,123.0,-748.0,144.0,-136.0,0.0,0.0,0.0
19:44:37.129000,-2.0,-224.0,130.0,-748.0,144.0,-136.0,0.0,0.0,0.0
19:44:37.134000,0.0,-209.0,139.0,-774.0,153.0,-144.0,0.0,0.0,0.0
19:44:37.139000,-1.0,-191.0,151.0,-774.0,153.0,-144.0,0.0,0.0,0.0
19:44:37.144000,-1.0,-191.0,151.0,-780.0,154.0,-155.0,0.0,0.0,0.0
19:44:37.148000,-4.0,-172.0,153.0,-780.0,154.0,-155.0,0.0,0.0,0.0
19:44:37.153000,-9.0,-158.0,142.0,-777.0,165.0,-159.0,0.0,0.0,0.0
19:44:37.158000,-14.0,-141.0,132.0,-777.0,165.0,-159.0,0.0,0.0,0.0
19:44:37.162000,-17.0,-128.0,128.0,-757.0,173.0,-151.0,0.0,0.0,0.0
19:44:37.167000,-18.0,-118.0,133.0,-757.0,173.0,-151.0,0.0,0.0,0.0
19:44:37.172000,-9.0,-109.0,135.0,-716.0,142.0,-143.0,0.0,0.0,0.0
19:44:37.176000,0.0,-101.0,144.0,-716.0,142.0,-143.0,0.0,0.0,0.0
19:44:37.181000,14.0,-97.0,151.0,-678.0,112.0,-135.0,0.0,0.0,0.0
19:44:37.186000,25.0,-93.0,158.0,-678.0,112.0,-135.0,0.0,0.0,0.0
19:44:37.191000,35.0,-87.0,168.0,-667.0,107.0,-127.0,0.0,0.0,0.0
19:44:37.195000,35.0,-77.0,193.0,-667.0,107.0,-127.0,0.0,0.0,0.0
19:44:37.200000,32.0,-65.0,226.0,-678.0,112.0,-121.0,0.0,0.0,0.0
19:44:37.205000,21.0,-52.0,242.0,-678.0,112.0,-121.0,0.0,0.0,0.0
19:44:37.209000,0.0,-37.0,260.0,-678.0,112.0,-121.0,0.0,0.0,0.0
19:44:37.214000,-27.0,-21.0,280.0,-697.0,120.0,-107.0,0.0,0.0,0.0
19:44:37.219000,-56.0,-3.0,287.0,-697.0,120.0,-107.0,0.0,0.0,0.0
19:44:37.223000,-85.0,14.0,284.0,-706.0,127.0,-92.0,0.0,0.0,0.0
19:44:37.228000,-113.0,31.0,272.0,-711.0,121.0,-85.0,0.0,0.0,0.0
19:44:37.233000,-136.0,48.0,257.0,-711.0,121.0,-85.0,0.0,0.0,0.0
19:44:37.238000,-154.0,60.0,239.0,-711.0,121.0,-85.0,0.0,0.0,0.0
19:44:37.242000,-164.0,70.0,223.0,-720.0,88.0,-79.0,0.0,0.0,0.0
19:44:37.247000,-168.0,74.0,204.0,-720.0,88.0,-79.0,0.0,0.0,0.0
19:44:37.252000,-168.0,74.0,204.0,-709.0,47.0,-71.0,0.0,0.0,0.0
19:44:37.256000,-165.0,74.0,196.0,-709.0,47.0,-71.0,0.0,0.0,0.0
19:44:37.261000,-154.0,74.0,191.0,-676.0,15.0,-64.0,0.0,0.0,0.0
19:44:37.266000,-135.0,70.0,190.0,-676.0,15.0,-64.0,0.0,0.0,0.0
19:44:37.270000,-111.0,63.0,200.0,-628.0,-15.0,-57.0,0.0,0.0,0.0
19:44:37.275000,-90.0,53.0,233.0,-628.0,-15.0,-57.0,0.0,0.0,0.0
19:44:37.280000,-69.0,42.0,280.0,-588.0,-38.0,-46.0,0.0,0.0,0.0
19:44:37.285000,-51.0,29.0,331.0,-588.0,-38.0,-46.0,0.0,0.0,0.0
19:44:37.289000,-37.0,21.0,385.0,-583.0,-55.0,-41.0,0.0,0.0,0.0
19:44:37.294000,-23.0,18.0,426.0,-583.0,-55.0,-41.0,0.0,0.0,0.0
19:44:37.299000,-9.0,17.0,459.0,-610.0,-87.0,-47.0,0.0,0.0,0.0
19:44:37.303000,6.0,21.0,485.0,-610.0,-87.0,-47.0,0.0,0.0,0.0
19:44:37.308000,18.0,29.0,499.0,-646.0,-120.0,-58.0,0.0,0.0,0.0
19:44:37.313000,30.0,39.0,494.0,-646.0,-120.0,-58.0,0.0,0.0,0.0
19:44:37.317000,38.0,51.0,479.0,-646.0,-120.0,-58.0,0.0,0.0,0.0
19:44:37.322000,44.0,66.0,465.0,-650.0,-127.0,-69.0,0.0,0.0,0.0
19:44:37.327000,53.0,81.0,445.0,-650.0,-127.0,-69.0,0.0,0.0,0.0
19:44:37.332000,60.0,95.0,413.0,-604.0,-122.0,-81.0,0.0,0.0,0.0
19:44:37.336000,65.0,108.0,375.0,-604.0,-122.0,-81.0,0.0,0.0,0.0
19:44:37.341000,67.0,122.0,339.0,-557.0,-89.0,-94.0,0.0,0.0,0.0
19:44:37.346000,64.0,134.0,310.0,-557.0,-89.0,-94.0,0.0,0.0,0.0
19:44:37.350000,58.0,142.0,296.0,-537.0,-36.0,-106.0,0.0,0.0,0.0
19:44:37.355000,51.0,144.0,297.0,-537.0,-36.0,-106.0,0.0,0.0,0.0
19:44:37.360000,51.0,144.0,297.0,-505.0,-29.0,-111.0,0.0,0.0,0.0
19:44:37.364000,50.0,146.0,307.0,-505.0,-29.0,-111.0,0.0,0.0,0.0
19:44:37.369000,56.0,143.0,315.0,-460.0,-71.0,-114.0,0.0,0.0,0.0
19:44:37.374000,68.0,139.0,314.0,-460.0,-71.0,-114.0,0.0,0.0,0.0
19:44:37.379000,84.0,135.0,303.0,-461.0,-97.0,-121.0,0.0,0.0,0.0
19:44:37.383000,100.0,130.0,288.0,-461.0,-97.0,-121.0,0.0,0.0,0.0
19:44:37.388000,114.0,123.0,277.0,-507.0,-86.0,-127.0,0.0,0.0,0.0
19:44:37.393000,127.0,119.0,270.0,-507.0,-86.0,-127.0,0.0,0.0,0.0
19:44:37.397000,135.0,114.0,266.0,-537.0,-60.0,-130.0,0.0,0.0,0.0
19:44:37.402000,140.0,110.0,264.0,-537.0,-60.0,-130.0,0.0,0.0,0.0
19:44:37.407000,140.0,106.0,268.0,-541.0,-28.0,-131.0,0.0,0.0,0.0
19:44:37.411000,136.0,102.0,278.0,-541.0,-28.0,-131.0,0.0,0.0,0.0
19:44:37.416000,133.0,98.0,293.0,-543.0,-4.0,-133.0,0.0,0.0,0.0
19:44:37.421000,126.0,93.0,309.0,-543.0,-4.0,-133.0,0.0,0.0,0.0
19:44:37.426000,119.0,88.0,328.0,-543.0,-4.0,-133.0,0.0,0.0,0.0
19:44:37.430000,113.0,81.0,354.0,-547.0,4.0,-134.0,0.0,0.0,0.0
19:44:37.435000,107.0,73.0,383.0,-547.0,4.0,-134.0,0.0,0.0,0.0
19:44:37.440000,103.0,66.0,408.0,-535.0,-4.0,-135.0,0.0,0.0,0.0
19:44:37.444000,98.0,58.0,421.0,-535.0,-4.0,-135.0,0.0,0.0,0.0
19:44:37.449000,91.0,50.0,429.0,-523.0,-8.0,-140.0,0.0,0.0,0.0
19:44:37.454000,77.0,44.0,436.0,-523.0,-8.0,-140.0,0.0,0.0,0.0
19:44:37.458000,60.0,36.0,447.0,-526.0,5.0,-142.0,0.0,0.0,0.0
19:44:37.463000,42.0,28.0,455.0,-526.0,5.0,-142.0,0.0,0.0,0.0
19:44:37.468000,42.0,28.0,455.0,-526.0,14.0,-141.0,0.0,0.0,0.0
19:44:37.473000,25.0,19.0,455.0,-526.0,14.0,-141.0,0.0,0.0,0.0
19:44:37.477000,7.0,11.0,448.0,-537.0,15.0,-144.0,0.0,0.0,0.0
19:44:37.482000,-8.0,3.0,436.0,-537.0,15.0,-144.0,0.0,0.0,0.0
19:44:37.487000,-25.0,-4.0,428.0,-577.0,12.0,-146.0,0.0,0.0,0.0
19:44:37.491000,-43.0,-14.0,425.0,-577.0,12.0,-146.0,0.0,0.0,0.0
19:44:37.496000,-62.0,-28.0,427.0,-612.0,-2.0,-140.0,0.0,0.0,0.0
19:44:37.501000,-77.0,-42.0,433.0,-612.0,-2.0,-140.0,0.0,0.0,0.0
19:44:37.505000,-89.0,-55.0,438.0,-620.0,-19.0,-132.0,0.0,0.0,0.0
19:44:37.510000,-99.0,-67.0,439.0,-620.0,-19.0,-132.0,0.0,0.0,0.0
19:44:37.515000,-112.0,-79.0,441.0,-637.0,-22.0,-124.0,0.0,0.0,0.0
19:44:37.520000,-123.0,-84.0,445.0,-637.0,-22.0,-124.0,0.0,0.0,0.0
19:44:37.524000,-138.0,-84.0,452.0,-675.0,-24.0,-119.0,0.0,0.0,0.0
19:44:37.529000,-151.0,-84.0,470.0,-675.0,-24.0,-119.0,0.0,0.0,0.0
19:44:37.534000,-161.0,-82.0,482.0,-675.0,-24.0,-119.0,0.0,0.0,0.0
19:44:37.538000,-170.0,-74.0,485.0,-706.0,-42.0,-121.0,0.0,0.0,0.0
19:44:37.543000,-177.0,-65.0,483.0,-728.0,-66.0,-128.0,0.0,0.0,0.0
19:44:37.548000,-180.0,-57.0,483.0,-728.0,-66.0,-128.0,0.0,0.0,0.0
19:44:37.552000,-178.0,-46.0,482.0,-728.0,-66.0,-128.0,0.0,0.0,0.0
19:44:37.557000,-175.0,-35.0,473.0,-738.0,-102.0,-136.0,0.0,0.0,0.0
19:44:37.562000,-172.0,-24.0,460.0,-738.0,-102.0,-136.0,0.0,0.0,0.0
19:44:37.567000,-170.0,-10.0,445.0,-738.0,-126.0,-147.0,0.0,0.0,0.0
19:44:37.571000,-168.0,5.0,427.0,-738.0,-126.0,-147.0,0.0,0.0,0.0
19:44:37.576000,-170.0,18.0,404.0,-755.0,-113.0,-163.0,0.0,0.0,0.0
19:44:37.581000,-170.0,18.0,404.0,-755.0,-113.0,-163.0,0.0,0.0,0.0
19:44:37.585000,-172.0,29.0,385.0,-788.0,-89.0,-181.0,0.0,0.0,0.0
19:44:37.590000,-179.0,39.0,372.0,-788.0,-89.0,-181.0,0.0,0.0,0.0
19:44:37.595000,-184.0,46.0,366.0,-819.0,-79.0,-196.0,0.0,0.0,0.0
19:44:37.599000,-188.0,50.0,362.0,-819.0,-79.0,-196.0,0.0,0.0,0.0
19:44:37.604000,-191.0,51.0,356.0,-841.0,-88.0,-208.0,0.0,0.0,0.0
19:44:37.609000,-196.0,48.0,352.0,-841.0,-88.0,-208.0,0.0,0.0,0.0
19:44:37.614000,-201.0,40.0,354.0,-845.0,-107.0,-214.0,0.0,0.0,0.0
19:44:37.618000,-209.0,26.0,360.0,-845.0,-107.0,-214.0,0.0,0.0,0.0
19:44:37.623000,-216.0,8.0,361.0,-837.0,-113.0,-213.0,0.0,0.0,0.0
19:44:37.628000,-223.0,-14.0,356.0,-837.0,-113.0,-213.0,0.0,0.0,0.0
19:44:37.632000,-228.0,-39.0,349.0,-829.0,-114.0,-209.0,0.0,0.0,0.0
19:44:37.637000,-233.0,-65.0,344.0,-829.0,-114.0,-209.0,0.0,0.0,0.0
19:44:37.642000,-238.0,-89.0,338.0,-829.0,-114.0,-209.0,0.0,0.0,0.0
19:44:37.646000,-246.0,-111.0,326.0,-834.0,-112.0,-208.0,0.0,0.0,0.0
19:44:37.651000,-257.0,-129.0,317.0,-834.0,-112.0,-208.0,0.0,0.0,0.0
19:44:37.656000,-273.0,-142.0,319.0,-870.0,-90.0,-209.0,0.0,0.0,0.0
19:44:37.661000,-291.0,-151.0,326.0,-870.0,-90.0,-209.0,0.0,0.0,0.0
19:44:37.665000,-311.0,-156.0,323.0,-914.0,-71.0,-211.0,0.0,0.0,0.0
19:44:37.670000,-333.0,-155.0,298.0,-914.0,-71.0,-211.0,0.0,0.0,0.0
19:44:37.675000,-355.0,-147.0,268.0,-955.0,-44.0,-212.0,0.0,0.0,0.0
19:44:37.679000,-382.0,-139.0,245.0,-955.0,-44.0,-212.0,0.0,0.0,0.0
19:44:37.684000,-410.0,-131.0,238.0,-992.0,-21.0,-213.0,0.0,0.0,0.0
19:44:37.689000,-410.0,-131.0,238.0,-992.0,-21.0,-213.0,0.0,0.0,0.0
19:44:37.693000,-427.0,-123.0,243.0,-1006.0,-52.0,-218.0,0.0,0.0,0.0
19:44:37.698000,-439.0,-113.0,244.0,-1006.0,-52.0,-218.0,0.0,0.0,0.0
19:44:37.703000,-450.0,-106.0,250.0,-1000.0,-84.0,-220.0,0.0,0.0,0.0
19:44:37.708000,-462.0,-98.0,270.0,-1000.0,-84.0,-220.0,0.0,0.0,0.0
19:44:37.712000,-473.0,-92.0,280.0,-995.0,-56.0,-219.0,0.0,0.0,0.0
19:44:37.716000,-485.0,-93.0,287.0,-995.0,-56.0,-219.0,0.0,0.0,0.0
19:44:37.722000,-495.0,-87.0,282.0,-1024.0,-20.0,-221.0,0.0,0.0,0.0
19:44:37.726000,-507.0,-87.0,273.0,-1024.0,-20.0,-221.0,0.0,0.0,0.0
19:44:37.731000,-512.0,-95.0,283.0,-1046.0,-33.0,-222.0,0.0,0.0,0.0
19:44:37.736000,-508.0,-102.0,288.0,-1046.0,-33.0,-222.0,0.0,0.0,0.0
19:44:37.740000,-498.0,-109.0,254.0,-1057.0,-39.0,-224.0,0.0,0.0,0.0
19:44:37.745000,-492.0,-124.0,196.0,-1057.0,-39.0,-224.0,0.0,0.0,0.0
19:44:37.750000,-490.0,-141.0,186.0,-1057.0,-39.0,-224.0,0.0,0.0,0.0
19:44:37.755000,-480.0,-161.0,213.0,-1076.0,-13.0,-222.0,0.0,0.0,0.0
19:44:37.759000,-471.0,-178.0,222.0,-1076.0,-13.0,-222.0,0.0,0.0,0.0
19:44:37.764000,-466.0,-199.0,218.0,-1087.0,4.0,-215.0,0.0,0.0,0.0
19:44:37.769000,-463.0,-212.0,244.0,-1087.0,4.0,-215.0,0.0,0.0,0.0
19:44:37.773000,-448.0,-218.0,268.0,-1092.0,3.0,-219.0,0.0,0.0,0.0
19:44:37.778000,-436.0,-228.0,256.0,-1092.0,3.0,-219.0,0.0,0.0,0.0
19:44:37.783000,-444.0,-230.0,255.0,-1141.0,-28.0,-218.0,0.0,0.0,0.0
19:44:37.787000,-466.0,-232.0,310.0,-1141.0,-28.0,-218.0,0.0,0.0,0.0
19:44:37.792000,-443.0,-217.0,233.0,-1229.0,-42.0,-199.0,0.0,0.0,0.0
19:44:37.797000,-443.0,-217.0,233.0,-1229.0,-42.0,-199.0,0.0,0.0,0.0
19:44:37.802000,-457.0,-199.0,236.0,-1237.0,-48.0,-180.0,0.0,0.0,0.0
19:44:37.806000,-481.0,-195.0,421.0,-1237.0,-48.0,-180.0,0.0,0.0,0.0
19:44:37.811000,-479.0,-183.0,490.0,-1180.0,-21.0,-162.0,0.0,0.0,0.0
19:44:37.816000,-460.0,-177.0,347.0,-1180.0,-21.0,-162.0,0.0,0.0,0.0
19:44:37.820000,-447.0,-168.0,225.0,-1122.0,18.0,-140.0,0.0,0.0,0.0
19:44:37.825000,-424.0,-184.0,208.0,-1122.0,18.0,-140.0,0.0,0.0,0.0
19:44:37.830000,-397.0,-205.0,182.0,-1134.0,23.0,-112.0,0.0,0.0,0.0
19:44:37.834000,-372.0,-210.0,105.0,-1134.0,23.0,-112.0,0.0,0.0,0.0
19:44:37.839000,-345.0,-217.0,13.0,-1221.0,34.0,-90.0,0.0,0.0,0.0
19:44:37.844000,-324.0,-226.0,-29.0,-1221.0,34.0,-90.0,0.0,0.0,0.0
19:44:37.848000,-295.0,-228.0,-4.0,-1265.0,20.0,-82.0,0.0,0.0,0.0
19:44:37.853000,-251.0,-237.0,-9.0,-1265.0,20.0,-82.0,0.0,0.0,0.0
19:44:37.858000,-230.0,-237.0,-51.0,-1265.0,63.0,-72.0,0.0,0.0,0.0
19:44:37.863000,-224.0,-234.0,-58.0,-1303.0,63.0,-72.0,0.0,0.0,0.0
19:44:37.867000,-211.0,-235.0,-5.0,-1303.0,63.0,-72.0,0.0,0.0,0.0
19:44:37.872000,-199.0,-228.0,56.0,-1350.0,105.0,-67.0,0.0,0.0,0.0
19:44:37.877000,-198.0,-218.0,74.0,-1350.0,105.0,-67.0,0.0,0.0,0.0
19:44:37.881000,-203.0,-207.0,56.0,-1368.0,118.0,-71.0,0.0,0.0,0.0
19:44:37.886000,-196.0,-198.0,61.0,-1368.0,118.0,-71.0,0.0,0.0,0.0
19:44:37.891000,-207.0,-188.0,86.0,-1375.0,176.0,-73.0,0.0,0.0,0.0
19:44:37.895000,-233.0,-174.0,125.0,-1375.0,176.0,-73.0,0.0,0.0,0.0
19:44:37.900000,-233.0,-174.0,125.0,-1349.0,186.0,-66.0,0.0,0.0,0.0
19:44:37.905000,-247.0,-159.0,137.0,-1349.0,186.0,-66.0,0.0,0.0,0.0
19:44:37.910000,-282.0,-142.0,119.0,-1347.0,176.0,-63.0,0.0,0.0,0.0
19:44:37.914000,-307.0,-121.0,109.0,-1347.0,176.0,-63.0,0.0,0.0,0.0
19:44:37.919000,-329.0,-110.0,80.0,-1351.0,151.0,-71.0,0.0,0.0,0.0
19:44:37.924000,-348.0,-79.0,-9.0,-1351.0,151.0,-71.0,0.0,0.0,0.0
19:44:37.928000,-354.0,-53.0,-111.0,-1359.0,94.0,-85.0,0.0,0.0,0.0
19:44:37.933000,-348.0,-45.0,-171.0,-1359.0,94.0,-85.0,0.0,0.0,0.0
19:44:37.938000,-340.0,-43.0,-173.0,-1362.0,45.0,-95.0,0.0,0.0,0.0
19:44:37.942000,-333.0,-39.0,-160.0,-1362.0,45.0,-95.0,0.0,0.0,0.0
19:44:37.947000,-341.0,-28.0,-186.0,-1361.0,10.0,-97.0,0.0,0.0,0.0
19:44:37.952000,-336.0,-9.0,-257.0,-1361.0,10.0,-97.0,0.0,0.0,0.0
19:44:37.957000,-337.0,-4.0,-330.0,-1345.0,-21.0,-89.0,0.0,0.0,0.0
19:44:37.961000,-332.0,28.0,-417.0,-1345.0,-21.0,-89.0,0.0,0.0,0.0
19:44:37.966000,-317.0,19.0,-515.0,-1223.0,-29.0,-55.0,0.0,0.0,0.0
19:44:37.971000,-376.0,-4.0,-496.0,-1223.0,-29.0,-55.0,0.0,0.0,0.0
19:44:37.975000,-416.0,-19.0,-314.0,-1223.0,-29.0,-55.0,0.0,0.0,0.0
19:44:37.980000,-418.0,-37.0,-217.0,-1143.0,-38.0,-35.0,0.0,0.0,0.0
19:44:37.985000,-447.0,-51.0,-240.0,-1143.0,-38.0,-35.0,0.0,0.0,0.0
19:44:37.989000,-485.0,-39.0,-233.0,-1190.0,-16.0,-41.0,0.0,0.0,0.0
19:44:37.994000,-463.0,-65.0,-212.0,-1190.0,-16.0,-41.0,0.0,0.0,0.0
19:44:37.999000,-512.0,-66.0,-162.0,-1144.0,-65.0,-41.0,0.0,0.0,0.0
19:44:38.004000,-485.0,-62.0,-192.0,-1144.0,-65.0,-41.0,0.0,0.0,0.0
19:44:38.008000,-506.0,-79.0,-208.0,-1074.0,-219.0,-37.0,0.0,0.0,0.0
19:44:38.013000,-514.0,-84.0,-150.0,-1074.0,-219.0,-37.0,0.0,0.0,0.0
19:44:38.018000,-514.0,-84.0,-150.0,-1029.0,-261.0,-35.0,0.0,0.0,0.0
19:44:38.022000,-551.0,-98.0,-88.0,-1029.0,-261.0,-35.0,0.0,0.0,0.0
19:44:38.027000,-565.0,-110.0,-69.0,-943.0,-228.0,-30.0,0.0,0.0,0.0
19:44:38.032000,-532.0,-127.0,-84.0,-943.0,-228.0,-30.0,0.0,0.0,0.0
19:44:38.036000,-517.0,-140.0,-92.0,-918.0,-227.0,-16.0,0.0,0.0,0.0
19:44:38.041000,-593.0,-132.0,-92.0,-918.0,-227.0,-16.0,0.0,0.0,0.0
19:44:38.046000,-540.0,-126.0,-102.0,-955.0,-245.0,-14.0,0.0,0.0,0.0
19:44:38.051000,-578.0,-135.0,-172.0,-955.0,-245.0,-14.0,0.0,0.0,0.0
19:44:38.055000,-626.0,-137.0,-231.0,-1007.0,-269.0,-21.0,0.0,0.0,0.0
19:44:38.060000,-619.0,-133.0,-245.0,-1007.0,-269.0,-21.0,0.0,0.0,0.0
19:44:38.065000,-627.0,-132.0,-305.0,-1066.0,-279.0,-14.0,0.0,0.0,0.0
19:44:38.069000,-672.0,-125.0,-365.0,-1066.0,-279.0,-14.0,0.0,0.0,0.0
19:44:38.074000,-658.0,-126.0,-434.0,-1123.0,-230.0,-22.0,0.0,0.0,0.0
19:44:38.079000,-714.0,-119.0,-491.0,-1123.0,-230.0,-22.0,0.0,0.0,0.0
19:44:38.083000,-741.0,-124.0,-533.0,-1123.0,-230.0,-22.0,0.0,0.0,0.0
19:44:38.088000,-808.0,-122.0,-570.0,-1136.0,-172.0,-27.0,0.0,0.0,0.0
19:44:38.093000,-832.0,-135.0,-608.0,-1136.0,-172.0,-27.0,0.0,0.0,0.0
19:44:38.098000,-884.0,-139.0,-650.0,-1115.0,-122.0,-30.0,0.0,0.0,0.0
19:44:38.102000,-921.0,-148.0,-665.0,-1115.0,-122.0,-30.0,0.0,0.0,0.0
19:44:38.107000,-952.0,-156.0,-698.0,-1123.0,-79.0,-47.0,0.0,0.0,0.0
19:44:38.112000,-1038.0,-163.0,-732.0,-1123.0,-79.0,-47.0,0.0,0.0,0.0
19:44:38.116000,-1087.0,-186.0,-749.0,-1170.0,-51.0,-46.0,0.0,0.0,0.0
19:44:38.121000,-1143.0,-221.0,-780.0,-1170.0,-51.0,-46.0,0.0,0.0,0.0
19:44:38.126000,-1143.0,-221.0,-780.0,-1157.0,-22.0,-25.0,0.0,0.0,0.0
19:44:38.130000,-1197.0,-255.0,-821.0,-1157.0,-22.0,-25.0,0.0,0.0,0.0
19:44:38.135000,-1257.0,-288.0,-840.0,-1126.0,-14.0,-23.0,0.0,0.0,0.0
19:44:38.140000,-1316.0,-324.0,-823.0,-1126.0,-14.0,-23.0,0.0,0.0,0.0
19:44:38.145000,-1388.0,-366.0,-837.0,-1106.0,8.0,-30.0,0.0,0.0,0.0
19:44:38.149000,-1470.0,-415.0,-898.0,-1106.0,8.0,-30.0,0.0,0.0,0.0
19:44:38.154000,-1552.0,-473.0,-953.0,-989.0,90.0,23.0,0.0,0.0,0.0
19:44:38.159000,-1623.0,-536.0,-996.0,-989.0,90.0,23.0,0.0,0.0,0.0
19:44:38.163000,-1710.0,-603.0,-1015.0,-947.0,125.0,133.0,0.0,0.0,0.0
19:44:38.168000,-1803.0,-656.0,-1012.0,-947.0,125.0,133.0,0.0,0.0,0.0
19:44:38.172000,-1878.0,-692.0,-1041.0,-998.0,68.0,196.0,0.0,0.0,0.0
19:44:38.177000,-1935.0,-723.0,-1115.0,-998.0,68.0,196.0,0.0,0.0,0.0
19:44:38.182000,-1998.0,-756.0,-1218.0,-1093.0,50.0,179.0,0.0,0.0,0.0
19:44:38.187000,-2066.0,-788.0,-1297.0,-1093.0,50.0,179.0,0.0,0.0,0.0
19:44:38.192000,-2131.0,-812.0,-1334.0,-1093.0,50.0,179.0,0.0,0.0,0.0
19:44:38.196000,-2186.0,-844.0,-1332.0,-1213.0,19.0,163.0,0.0,0.0,0.0
19:44:38.201000,-2232.0,-876.0,-1309.0,-1213.0,19.0,163.0,0.0,0.0,0.0
19:44:38.206000,-2243.0,-915.0,-1327.0,-1200.0,-90.0,160.0,0.0,0.0,0.0
19:44:38.210000,-2249.0,-951.0,-1373.0,-1200.0,-90.0,160.0,0.0,0.0,0.0
19:44:38.215000,-2243.0,-981.0,-1434.0,-1110.0,-171.0,150.0,0.0,0.0,0.0
19:44:38.220000,-2233.0,-1004.0,-1493.0,-1110.0,-171.0,150.0,0.0,0.0,0.0
19:44:38.224000,-2200.0,-1026.0,-1542.0,-1058.0,-185.0,127.0,0.0,0.0,0.0
19:44:38.229000,-2158.0,-1048.0,-1599.0,-1058.0,-185.0,127.0,0.0,0.0,0.0
19:44:38.234000,-2158.0,-1048.0,-1599.0,-1032.0,-196.0,123.0,0.0,0.0,0.0
19:44:38.239000,-2125.0,-1068.0,-1640.0,-1032.0,-196.0,123.0,0.0,0.0,0.0
19:44:38.243000,-2025.0,-1139.0,-1640.0,-955.0,-238.0,133.0,0.0,0.0,0.0
19:44:38.248000,-1951.0,-1184.0,-1604.0,-955.0,-238.0,133.0,0.0,0.0,0.0
19:44:38.253000,-1842.0,-1232.0,-1653.0,-896.0,-206.0,160.0,0.0,0.0,0.0
19:44:38.257000,-1772.0,-1273.0,-1764.0,-896.0,-206.0,160.0,0.0,0.0,0.0
19:44:38.262000,-1722.0,-1312.0,-1840.0,-883.0,-54.0,215.0,0.0,0.0,0.0
19:44:38.267000,-1673.0,-1362.0,-1831.0,-883.0,-54.0,215.0,0.0,0.0,0.0
19:44:38.271000,-1656.0,-1395.0,-1782.0,-859.0,116.0,270.0,0.0,0.0,0.0
19:44:38.276000,-1665.0,-1420.0,-1766.0,-859.0,116.0,270.0,0.0,0.0,0.0
19:44:38.281000,-1690.0,-1458.0,-1760.0,-913.0,339.0,350.0,0.0,0.0,0.0
19:44:38.286000,-1745.0,-1501.0,-1754.0,-913.0,339.0,350.0,0.0,0.0,0.0
19:44:38.290000,-1834.0,-1534.0,-1710.0,-1015.0,581.0,441.0,0.0,0.0,0.0
19:44:38.295000,-1938.0,-1545.0,-1628.0,-1015.0,581.0,441.0,0.0,0.0,0.0
19:44:38.300000,-2056.0,-1547.0,-1535.0,-1015.0,581.0,441.0,0.0,0.0,0.0
19:44:38.304000,-2161.0,-1544.0,-1430.0,-1087.0,677.0,481.0,0.0,0.0,0.0
19:44:38.309000,-2266.0,-1527.0,-1365.0,-1087.0,677.0,481.0,0.0,0.0,0.0
19:44:38.314000,-2372.0,-1495.0,-1346.0,-1145.0,700.0,517.0,0.0,0.0,0.0
19:44:38.318000,-2458.0,-1459.0,-1309.0,-1145.0,700.0,517.0,0.0,0.0,0.0
19:44:38.323000,-2519.0,-1417.0,-1202.0,-1156.0,696.0,544.0,0.0,0.0,0.0
19:44:38.328000,-2557.0,-1376.0,-1079.0,-1156.0,696.0,544.0,0.0,0.0,0.0
19:44:38.333000,-2560.0,-1332.0,-976.0,-1150.0,603.0,508.0,0.0,0.0,0.0
19:44:38.337000,-2546.0,-1293.0,-893.0,-1150.0,603.0,508.0,0.0,0.0,0.0
19:44:38.342000,-2519.0,-1258.0,-809.0,-1146.0,467.0,467.0,0.0,0.0,0.0
19:44:38.347000,-2519.0,-1258.0,-809.0,-1146.0,467.0,467.0,0.0,0.0,0.0
19:44:38.351000,-2471.0,-1216.0,-746.0,-1082.0,373.0,445.0,0.0,0.0,0.0
19:44:38.356000,-2419.0,-1172.0,-709.0,-1082.0,373.0,445.0,0.0,0.0,0.0
19:44:38.361000,-2373.0,-1122.0,-665.0,-992.0,372.0,444.0,0.0,0.0,0.0
19:44:38.365000,-2345.0,-1073.0,-610.0,-992.0,372.0,444.0,0.0,0.0,0.0
19:44:38.370000,-2309.0,-1024.0,-563.0,-957.0,441.0,455.0,0.0,0.0,0.0
19:44:38.375000,-2276.0,-974.0,-531.0,-957.0,441.0,455.0,0.0,0.0,0.0
19:44:38.380000,-2242.0,-926.0,-503.0,-928.0,480.0,457.0,0.0,0.0,0.0
19:44:38.384000,-2211.0,-880.0,-469.0,-928.0,480.0,457.0,0.0,0.0,0.0
19:44:38.389000,-2172.0,-835.0,-416.0,-860.0,438.0,442.0,0.0,0.0,0.0
19:44:38.394000,-2120.0,-791.0,-348.0,-860.0,438.0,442.0,0.0,0.0,0.0
19:44:38.398000,-2078.0,-738.0,-291.0,-818.0,412.0,411.0,0.0,0.0,0.0
19:44:38.403000,-2046.0,-675.0,-264.0,-818.0,412.0,411.0,0.0,0.0,0.0
19:44:38.408000,-2023.0,-619.0,-251.0,-818.0,412.0,411.0,0.0,0.0,0.0
19:44:38.412000,-2000.0,-564.0,-233.0,-837.0,479.0,386.0,0.0,0.0,0.0
19:44:38.417000,-1976.0,-506.0,-214.0,-837.0,479.0,386.0,0.0,0.0,0.0
19:44:38.422000,-1941.0,-448.0,-180.0,-856.0,548.0,362.0,0.0,0.0,0.0
19:44:38.427000,-1897.0,-390.0,-144.0,-856.0,548.0,362.0,0.0,0.0,0.0
19:44:38.431000,-1844.0,-341.0,-123.0,-863.0,538.0,321.0,0.0,0.0,0.0
19:44:38.436000,-1785.0,-296.0,-128.0,-863.0,538.0,321.0,0.0,0.0,0.0
19:44:38.441000,-1722.0,-257.0,-138.0,-873.0,509.0,275.0,0.0,0.0,0.0
19:44:38.445000,-1654.0,-221.0,-133.0,-873.0,509.0,275.0,0.0,0.0,0.0
19:44:38.450000,-1589.0,-192.0,-119.0,-860.0,502.0,241.0,0.0,0.0,0.0
19:44:38.455000,-1589.0,-192.0,-119.0,-860.0,502.0,241.0,0.0,0.0,0.0
19:44:38.459000,-1520.0,-170.0,-106.0,-831.0,495.0,215.0,0.0,0.0,0.0
19:44:38.464000,-1449.0,-149.0,-103.0,-831.0,495.0,215.0,0.0,0.0,0.0
19:44:38.469000,-1381.0,-133.0,-114.0,-811.0,499.0,196.0,0.0,0.0,0.0
19:44:38.474000,-1313.0,-114.0,-128.0,-811.0,499.0,196.0,0.0,0.0,0.0
19:44:38.478000,-1255.0,-99.0,-142.0,-789.0,537.0,180.0,0.0,0.0,0.0
19:44:38.483000,-1205.0,-81.0,-154.0,-789.0,537.0,180.0,0.0,0.0,0.0
19:44:38.488000,-1159.0,-66.0,-156.0,-762.0,585.0,167.0,0.0,0.0,0.0
19:44:38.492000,-1124.0,-51.0,-146.0,-762.0,585.0,167.0,0.0,0.0,0.0
19:44:38.497000,-1091.0,-33.0,-145.0,-762.0,630.0,155.0,0.0,0.0,0.0
19:44:38.502000,-1060.0,-11.0,-156.0,-762.0,630.0,155.0,0.0,0.0,0.0
19:44:38.506000,-1029.0,9.0,-169.0,-783.0,662.0,137.0,0.0,0.0,0.0
19:44:38.511000,-1001.0,25.0,-183.0,-783.0,662.0,137.0,0.0,0.0,0.0
19:44:38.516000,-974.0,42.0,-193.0,-783.0,662.0,137.0,0.0,0.0,0.0
19:44:38.521000,-949.0,53.0,-200.0,-780.0,666.0,120.0,0.0,0.0,0.0
19:44:38.525000,-926.0,65.0,-195.0,-780.0,666.0,120.0,0.0,0.0,0.0
19:44:38.530000,-907.0,72.0,-183.0,-752.0,668.0,111.0,0.0,0.0,0.0
19:44:38.535000,-889.0,80.0,-173.0,-752.0,668.0,111.0,0.0,0.0,0.0
19:44:38.539000,-863.0,90.0,-168.0,-722.0,675.0,106.0,0.0,0.0,0.0
19:44:38.544000,-837.0,101.0,-167.0,-722.0,675.0,106.0,0.0,0.0,0.0
19:44:38.549000,-813.0,109.0,-177.0,-709.0,677.0,95.0,0.0,0.0,0.0
19:44:38.553000,-791.0,117.0,-194.0,-709.0,677.0,95.0,0.0,0.0,0.0
19:44:38.558000,-773.0,127.0,-197.0,-716.0,684.0,80.0,0.0,0.0,0.0
19:44:38.563000,-773.0,127.0,-197.0,-716.0,684.0,80.0,0.0,0.0,0.0
19:44:38.568000,-756.0,133.0,-191.0,-726.0,693.0,65.0,0.0,0.0,0.0
19:44:38.572000,-751.0,133.0,-187.0,-726.0,693.0,65.0,0.0,0.0,0.0
19:44:38.577000,-746.0,132.0,-184.0,-724.0,699.0,54.0,0.0,0.0,0.0
19:44:38.582000,-736.0,130.0,-185.0,-724.0,699.0,54.0,0.0,0.0,0.0
19:44:38.586000,-732.0,123.0,-192.0,-702.0,706.0,42.0,0.0,0.0,0.0
19:44:38.591000,-721.0,121.0,-192.0,-702.0,706.0,42.0,0.0,0.0,0.0
19:44:38.596000,-704.0,121.0,-183.0,-682.0,708.0,21.0,0.0,0.0,0.0
19:44:38.600000,-691.0,121.0,-180.0,-682.0,708.0,21.0,0.0,0.0,0.0
19:44:38.605000,-674.0,123.0,-189.0,-685.0,703.0,0.0,0.0,0.0,0.0
19:44:38.610000,-661.0,119.0,-211.0,-685.0,703.0,0.0,0.0,0.0,0.0
19:44:38.615000,-649.0,108.0,-222.0,-678.0,677.0,-9.0,0.0,0.0,0.0
19:44:38.619000,-631.0,98.0,-210.0,-678.0,677.0,-9.0,0.0,0.0,0.0
19:44:38.624000,-611.0,89.0,-193.0,-678.0,677.0,-9.0,0.0,0.0,0.0
19:44:38.629000,-595.0,78.0,-203.0,-655.0,644.0,-15.0,0.0,0.0,0.0
19:44:38.633000,-569.0,67.0,-240.0,-655.0,644.0,-15.0,0.0,0.0,0.0
19:44:38.638000,-529.0,58.0,-277.0,-639.0,621.0,-29.0,0.0,0.0,0.0
19:44:38.643000,-487.0,47.0,-302.0,-639.0,621.0,-29.0,0.0,0.0,0.0
19:44:38.647000,-452.0,39.0,-336.0,-623.0,598.0,-47.0,0.0,0.0,0.0
19:44:38.652000,-424.0,34.0,-378.0,-623.0,598.0,-47.0,0.0,0.0,0.0
19:44:38.657000,-400.0,24.0,-404.0,-626.0,610.0,-59.0,0.0,0.0,0.0
19:44:38.662000,-391.0,18.0,-419.0,-626.0,610.0,-59.0,0.0,0.0,0.0
19:44:38.666000,-385.0,12.0,-431.0,-645.0,641.0,-65.0,0.0,0.0,0.0
19:44:38.671000,-385.0,12.0,-431.0,-645.0,641.0,-65.0,0.0,0.0,0.0
19:44:38.676000,-384.0,4.0,-459.0,-663.0,676.0,-67.0,0.0,0.0,0.0
19:44:38.680000,-381.0,-4.0,-484.0,-663.0,676.0,-67.0,0.0,0.0,0.0
19:44:38.685000,-379.0,-13.0,-499.0,-664.0,697.0,-67.0,0.0,0.0,0.0
19:44:38.690000,-378.0,-23.0,-506.0,-664.0,697.0,-67.0,0.0,0.0,0.0
19:44:38.694000,-374.0,-34.0,-513.0,-643.0,698.0,-62.0,0.0,0.0,0.0
19:44:38.699000,-371.0,-43.0,-522.0,-643.0,698.0,-62.0,0.0,0.0,0.0
19:44:38.704000,-368.0,-49.0,-528.0,-625.0,708.0,-56.0,0.0,0.0,0.0
19:44:38.709000,-363.0,-56.0,-534.0,-625.0,708.0,-56.0,0.0,0.0,0.0
19:44:38.713000,-357.0,-60.0,-541.0,-619.0,711.0,-55.0,0.0,0.0,0.0
19:44:38.718000,-348.0,-60.0,-546.0,-619.0,711.0,-55.0,0.0,0.0,0.0
19:44:38.723000,-341.0,-60.0,-546.0,-622.0,715.0,-61.0,0.0,0.0,0.0
19:44:38.727000,-335.0,-58.0,-538.0,-622.0,715.0,-61.0,0.0,0.0,0.0
19:44:38.732000,-336.0,-57.0,-525.0,-622.0,746.0,-67.0,0.0,0.0,0.0
19:44:38.737000,-338.0,-56.0,-508.0,-639.0,746.0,-67.0,0.0,0.0,0.0
19:44:38.741000,-347.0,-57.0,-490.0,-639.0,746.0,-67.0,0.0,0.0,0.0
19:44:38.746000,-355.0,-59.0,-463.0,-651.0,790.0,-64.0,0.0,0.0,0.0
19:44:38.751000,-362.0,-61.0,-432.0,-651.0,790.0,-64.0,0.0,0.0,0.0
19:44:38.756000,-366.0,-65.0,-395.0,-630.0,811.0,-63.0,0.0,0.0,0.0
19:44:38.760000,-367.0,-70.0,-356.0,-630.0,811.0,-63.0,0.0,0.0,0.0
19:44:38.765000,-365.0,-77.0,-322.0,-605.0,810.0,-66.0,0.0,0.0,0.0
19:44:38.770000,-358.0,-86.0,-290.0,-605.0,810.0,-66.0,0.0,0.0,0.0
19:44:38.774000,-348.0,-94.0,-261.0,-598.0,804.0,-60.0,0.0,0.0,0.0
19:44:38.779000,-331.0,-101.0,-235.0,-598.0,804.0,-60.0,0.0,0.0,0.0
19:44:38.784000,-331.0,-101.0,-235.0,-586.0,784.0,-52.0,0.0,0.0,0.0
19:44:38.788000,-308.0,-105.0,-212.0,-586.0,784.0,-52.0,0.0,0.0,0.0
19:44:38.793000,-276.0,-105.0,-196.0,-574.0,742.0,-55.0,0.0,0.0,0.0
