hh:mm:ss.ms,gyroX[mdps],gyroY[mdps],gyroZ[mdps],accX[mg],accY[mg],accZ[mg],magX[mG],magY[mG],magZ[mG]
19:40:49.268000,-1649.0,-611.0,-2223.0,-719.0,849.0,-851.0,193.0,-397.0,528.0
19:40:49.272000,-1703.0,-676.0,-2016.0,-707.0,815.0,-882.0,193.0,-397.0,528.0
19:40:49.278000,-1757.0,-696.0,-1878.0,-758.0,924.0,-871.0,193.0,-402.0,526.0
19:40:49.282000,-1852.0,-771.0,-1797.0,-653.0,976.0,-861.0,193.0,-402.0,526.0
19:40:49.287000,-1943.0,-833.0,-1648.0,-498.0,955.0,-917.0,198.0,-427.0,519.0
19:40:49.292000,-1991.0,-863.0,-1488.0,-442.0,1049.0,-944.0,198.0,-427.0,519.0
19:40:49.296000,-2057.0,-879.0,-1439.0,-516.0,1192.0,-933.0,198.0,-427.0,519.0
19:40:49.301000,-2146.0,-925.0,-1556.0,-594.0,1238.0,-915.0,214.0,-441.0,519.0
19:40:49.306000,-2239.0,-996.0,-1659.0,-573.0,1125.0,-921.0,214.0,-441.0,519.0
19:40:49.311000,-2253.0,-1084.0,-1658.0,-573.0,1125.0,-921.0,204.0,-450.0,517.0
19:40:49.315000,-2268.0,-1136.0,-1592.0,-574.0,921.0,-976.0,204.0,-450.0,517.0
19:40:49.319000,-2265.0,-1144.0,-1485.0,-662.0,779.0,-1048.0,204.0,-450.0,517.0
19:40:49.325000,-2321.0,-1170.0,-1422.0,-662.0,779.0,-1048.0,216.0,-462.0,519.0
19:40:49.329000,-2431.0,-1222.0,-1369.0,-688.0,716.0,-1002.0,216.0,-462.0,519.0
19:40:49.334000,-2417.0,-1195.0,-1444.0,-714.0,753.0,-1067.0,219.0,-492.0,516.0
19:40:49.339000,-2417.0,-1191.0,-1451.0,-627.0,694.0,-1143.0,219.0,-492.0,516.0
19:40:49.343000,-2386.0,-1186.0,-1350.0,-365.0,460.0,-1145.0,219.0,-492.0,516.0
19:40:49.348000,-2305.0,-1227.0,-1402.0,-329.0,334.0,-1137.0,235.0,-511.0,507.0
19:40:49.353000,-2262.0,-1187.0,-1435.0,-341.0,281.0,-1161.0,235.0,-511.0,507.0
19:40:49.357000,-2262.0,-1187.0,-1435.0,-200.0,191.0,-1147.0,253.0,-531.0,502.0
19:40:49.362000,-2180.0,-1196.0,-1493.0,-151.0,-36.0,-1132.0,253.0,-531.0,502.0
19:40:49.366000,-2083.0,-1166.0,-1606.0,-108.0,-238.0,-1138.0,253.0,-531.0,502.0
19:40:49.372000,-1953.0,-1192.0,-1578.0,112.0,-376.0,-1098.0,264.0,-541.0,495.0
19:40:49.376000,-1730.0,-1210.0,-1344.0,284.0,-540.0,-1093.0,264.0,-541.0,495.0
19:40:49.381000,-1522.0,-1205.0,-1250.0,313.0,-500.0,-1121.0,283.0,-555.0,489.0
19:40:49.386000,-1369.0,-1204.0,-1347.0,449.0,-396.0,-1048.0,283.0,-555.0,489.0
19:40:49.390000,-1188.0,-1300.0,-1437.0,446.0,-453.0,-1007.0,283.0,-555.0,489.0
19:40:49.395000,-912.0,-1343.0,-1652.0,370.0,-492.0,-1089.0,285.0,-561.0,492.0
19:40:49.399000,-604.0,-1449.0,-1656.0,610.0,-668.0,-1068.0,285.0,-561.0,492.0
19:40:49.405000,-561.0,-1460.0,-1414.0,706.0,-883.0,-968.0,301.0,-570.0,486.0
19:40:49.409000,-774.0,-1439.0,-1236.0,634.0,-800.0,-925.0,301.0,-570.0,486.0
19:40:49.414000,-1013.0,-1398.0,-998.0,634.0,-800.0,-925.0,306.0,-573.0,480.0
19:40:49.419000,-1045.0,-1416.0,-994.0,125.0,-179.0,-1052.0,306.0,-573.0,480.0
19:40:49.423000,-1071.0,-1416.0,-1260.0,125.0,-179.0,-1052.0,306.0,-573.0,480.0
19:40:49.428000,-1116.0,-1402.0,-1422.0,-96.0,-46.0,-1101.0,337.0,-579.0,475.0
19:40:49.433000,-1156.0,-1372.0,-1366.0,55.0,-100.0,-1083.0,337.0,-579.0,475.0
19:40:49.437000,-1176.0,-1376.0,-1355.0,-55.0,-88.0,-1094.0,354.0,-577.0,459.0
19:40:49.442000,-1181.0,-1465.0,-1463.0,-55.0,-88.0,-1094.0,354.0,-577.0,459.0
19:40:49.446000,-1206.0,-1530.0,-1470.0,-63.0,54.0,-1034.0,354.0,-577.0,459.0
19:40:49.452000,-1257.0,-1596.0,-1306.0,20.0,-125.0,-1017.0,363.0,-583.0,456.0
19:40:49.456000,-1267.0,-1556.0,-1288.0,71.0,-98.0,-1046.0,363.0,-583.0,456.0
19:40:49.461000,-1222.0,-1565.0,-1421.0,50.0,-67.0,-1080.0,372.0,-592.0,451.0
19:40:49.466000,-1338.0,-1642.0,-1497.0,42.0,-206.0,-990.0,372.0,-592.0,451.0
19:40:49.470000,-1338.0,-1642.0,-1497.0,90.0,-242.0,-857.0,372.0,-592.0,451.0
19:40:49.475000,-1484.0,-1675.0,-1495.0,135.0,-348.0,-930.0,381.0,-601.0,450.0
19:40:49.480000,-1450.0,-1678.0,-1373.0,159.0,-365.0,-920.0,381.0,-601.0,450.0
19:40:49.484000,-1435.0,-1722.0,-1169.0,97.0,-433.0,-884.0,394.0,-601.0,442.0
19:40:49.489000,-1361.0,-1738.0,-1022.0,-43.0,-373.0,-890.0,394.0,-601.0,442.0
19:40:49.493000,-1419.0,-1731.0,-956.0,-152.0,-333.0,-822.0,394.0,-601.0,442.0
19:40:49.499000,-1441.0,-1703.0,-855.0,-222.0,-390.0,-873.0,423.0,-603.0,417.0
19:40:49.503000,-1465.0,-1661.0,-849.0,-317.0,-345.0,-847.0,423.0,-603.0,417.0
19:40:49.508000,-1450.0,-1638.0,-898.0,-359.0,-472.0,-865.0,441.0,-610.0,406.0
19:40:49.513000,-1376.0,-1584.0,-936.0,-274.0,-524.0,-874.0,441.0,-610.0,406.0
19:40:49.517000,-1311.0,-1533.0,-891.0,-407.0,-578.0,-853.0,441.0,-610.0,406.0
19:40:49.522000,-1291.0,-1411.0,-1026.0,-586.0,-544.0,-857.0,436.0,-609.0,387.0
19:40:49.527000,-1167.0,-1494.0,-1023.0,-642.0,-510.0,-829.0,436.0,-609.0,387.0
19:40:49.531000,-1073.0,-1502.0,-982.0,-642.0,-510.0,-829.0,435.0,-613.0,379.0
19:40:49.536000,-1045.0,-1439.0,-1087.0,-672.0,-453.0,-872.0,435.0,-613.0,379.0
19:40:49.540000,-1000.0,-1404.0,-1222.0,-617.0,-397.0,-828.0,435.0,-613.0,379.0
19:40:49.546000,-968.0,-1413.0,-1117.0,-536.0,-552.0,-799.0,469.0,-613.0,376.0
19:40:49.550000,-936.0,-1402.0,-933.0,-343.0,-531.0,-803.0,469.0,-613.0,376.0
19:40:49.555000,-925.0,-1360.0,-980.0,-294.0,-562.0,-791.0,471.0,-613.0,373.0
19:40:49.560000,-877.0,-1337.0,-1077.0,-340.0,-380.0,-807.0,471.0,-613.0,373.0
19:40:49.564000,-707.0,-1412.0,-1194.0,-369.0,-155.0,-841.0,471.0,-613.0,373.0
19:40:49.568000,-707.0,-1412.0,-1194.0,-260.0,-363.0,-660.0,489.0,-613.0,360.0
19:40:49.574000,-1283.0,-1276.0,-1033.0,-85.0,-680.0,-532.0,489.0,-613.0,360.0
19:40:49.578000,-1283.0,-1276.0,-1033.0,-240.0,-639.0,-710.0,508.0,-604.0,334.0
19:40:49.583000,-1235.0,-1295.0,-993.0,-528.0,-283.0,-744.0,508.0,-604.0,334.0
19:40:49.587000,-1230.0,-1318.0,-900.0,-619.0,-238.0,-709.0,508.0,-604.0,334.0
19:40:49.593000,-1197.0,-1405.0,-872.0,-649.0,-187.0,-674.0,508.0,-610.0,339.0
19:40:49.597000,-1260.0,-1494.0,-1104.0,-765.0,-216.0,-664.0,508.0,-610.0,339.0
19:40:49.601000,-1267.0,-1496.0,-1376.0,-546.0,-437.0,-729.0,501.0,-610.0,328.0
19:40:49.607000,-1181.0,-1544.0,-1255.0,-264.0,-617.0,-741.0,501.0,-610.0,328.0
19:40:49.611000,-1096.0,-1547.0,-1106.0,-324.0,-522.0,-712.0,501.0,-610.0,328.0
19:40:49.616000,-1095.0,-1567.0,-1156.0,-435.0,-389.0,-660.0,514.0,-609.0,310.0
19:40:49.621000,-1089.0,-1585.0,-1117.0,-519.0,-487.0,-672.0,514.0,-609.0,310.0
19:40:49.625000,-1078.0,-1579.0,-1045.0,-589.0,-560.0,-664.0,532.0,-604.0,301.0
19:40:49.630000,-1077.0,-1605.0,-991.0,-631.0,-613.0,-644.0,532.0,-604.0,301.0
19:40:49.634000,-1053.0,-1627.0,-1030.0,-682.0,-490.0,-665.0,532.0,-604.0,301.0
19:40:49.640000,-1005.0,-1639.0,-1155.0,-686.0,-403.0,-677.0,546.0,-598.0,274.0
19:40:49.644000,-943.0,-1628.0,-1203.0,-653.0,-439.0,-678.0,546.0,-598.0,274.0
19:40:49.649000,-910.0,-1624.0,-1141.0,-653.0,-439.0,-678.0,537.0,-586.0,274.0
19:40:49.654000,-896.0,-1619.0,-1121.0,-689.0,-469.0,-638.0,537.0,-586.0,274.0
19:40:49.658000,-878.0,-1605.0,-1101.0,-733.0,-443.0,-629.0,537.0,-586.0,274.0
19:40:49.663000,-883.0,-1603.0,-1069.0,-745.0,-463.0,-615.0,556.0,-591.0,262.0
19:40:49.668000,-863.0,-1586.0,-1128.0,-747.0,-447.0,-597.0,556.0,-591.0,262.0
19:40:49.672000,-801.0,-1573.0,-1158.0,-732.0,-427.0,-606.0,555.0,-586.0,237.0
19:40:49.677000,-789.0,-1552.0,-1078.0,-671.0,-457.0,-591.0,555.0,-586.0,237.0
19:40:49.681000,-789.0,-1552.0,-1078.0,-651.0,-454.0,-556.0,555.0,-586.0,237.0
19:40:49.687000,-779.0,-1545.0,-1094.0,-711.0,-336.0,-540.0,586.0,-577.0,231.0
19:40:49.691000,-779.0,-1545.0,-1094.0,-767.0,-243.0,-544.0,586.0,-577.0,231.0
19:40:49.696000,-754.0,-1516.0,-1094.0,-776.0,-324.0,-531.0,570.0,-573.0,220.0
19:40:49.701000,-758.0,-1491.0,-976.0,-818.0,-339.0,-514.0,570.0,-573.0,220.0
19:40:49.705000,-757.0,-1465.0,-1014.0,-854.0,-342.0,-517.0,570.0,-573.0,220.0
19:40:49.710000,-710.0,-1464.0,-1031.0,-826.0,-448.0,-504.0,580.0,-568.0,201.0
19:40:49.715000,-749.0,-1443.0,-1045.0,-863.0,-468.0,-473.0,580.0,-568.0,201.0
19:40:49.719000,-784.0,-1427.0,-1146.0,-888.0,-349.0,-466.0,589.0,-550.0,199.0
19:40:49.724000,-786.0,-1407.0,-1103.0,-853.0,-276.0,-459.0,589.0,-550.0,199.0
19:40:49.728000,-795.0,-1394.0,-962.0,-894.0,-226.0,-442.0,589.0,-550.0,199.0
19:40:49.734000,-774.0,-1376.0,-914.0,-1021.0,-229.0,-446.0,570.0,-546.0,181.0
19:40:49.738000,-725.0,-1367.0,-1001.0,-1098.0,-290.0,-428.0,570.0,-546.0,181.0
19:40:49.743000,-726.0,-1376.0,-1050.0,-1098.0,-290.0,-428.0,591.0,-540.0,180.0
19:40:49.748000,-724.0,-1376.0,-975.0,-928.0,-444.0,-383.0,591.0,-540.0,180.0
19:40:49.752000,-728.0,-1355.0,-891.0,-928.0,-444.0,-383.0,591.0,-540.0,180.0
19:40:49.757000,-718.0,-1324.0,-910.0,-920.0,-363.0,-377.0,595.0,-540.0,171.0
19:40:49.762000,-688.0,-1290.0,-998.0,-959.0,-218.0,-375.0,595.0,-540.0,171.0
19:40:49.766000,-672.0,-1250.0,-1066.0,-962.0,-205.0,-355.0,591.0,-531.0,160.0
19:40:49.771000,-637.0,-1230.0,-949.0,-922.0,-205.0,-355.0,591.0,-531.0,160.0
19:40:49.775000,-616.0,-1211.0,-783.0,-873.0,-360.0,-345.0,591.0,-531.0,160.0
19:40:49.781000,-615.0,-1181.0,-766.0,-908.0,-405.0,-326.0,598.0,-511.0,145.0
19:40:49.785000,-586.0,-1137.0,-898.0,-1052.0,-278.0,-332.0,598.0,-511.0,145.0
19:40:49.790000,-550.0,-1117.0,-879.0,-1122.0,-213.0,-331.0,607.0,-517.0,141.0
19:40:49.795000,-505.0,-1093.0,-804.0,-1076.0,-273.0,-317.0,607.0,-517.0,141.0
19:40:49.799000,-505.0,-1093.0,-804.0,-1071.0,-258.0,-324.0,607.0,-517.0,141.0
19:40:49.804000,-455.0,-1060.0,-804.0,-1063.0,-243.0,-318.0,606.0,-507.0,136.0
19:40:49.809000,-402.0,-1048.0,-739.0,-1011.0,-310.0,-295.0,606.0,-507.0,136.0
19:40:49.813000,-390.0,-1024.0,-669.0,-966.0,-335.0,-280.0,585.0,-507.0,118.0
19:40:49.818000,-356.0,-991.0,-630.0,-939.0,-328.0,-278.0,585.0,-507.0,118.0
19:40:49.822000,-310.0,-966.0,-506.0,-933.0,-335.0,-251.0,585.0,-507.0,118.0
19:40:49.828000,-331.0,-935.0,-346.0,-971.0,-271.0,-234.0,606.0,-495.0,115.0
19:40:49.832000,-357.0,-888.0,-291.0,-1072.0,-169.0,-228.0,606.0,-495.0,115.0
19:40:49.837000,-399.0,-844.0,-380.0,-1165.0,-122.0,-211.0,595.0,-495.0,105.0
19:40:49.842000,-434.0,-801.0,-495.0,-1157.0,-136.0,-209.0,595.0,-495.0,105.0
19:40:49.849000,-442.0,-693.0,-472.0,-1208.0,-221.0,-233.0,583.0,-496.0,111.0
19:40:49.851000,-442.0,-693.0,-472.0,-1208.0,-221.0,-233.0,583.0,-496.0,111.0
19:40:49.855000,-399.0,-633.0,-521.0,-1242.0,-276.0,-213.0,583.0,-496.0,111.0
19:40:49.860000,-359.0,-607.0,-511.0,-1242.0,-276.0,-213.0,594.0,-483.0,94.0
19:40:49.865000,-315.0,-580.0,-438.0,-1186.0,-216.0,-192.0,594.0,-483.0,94.0
19:40:49.870000,-325.0,-540.0,-361.0,-1095.0,-109.0,-182.0,589.0,-486.0,85.0
19:40:49.875000,-416.0,-522.0,-327.0,-1037.0,-74.0,-128.0,589.0,-486.0,85.0
19:40:49.879000,-499.0,-488.0,-374.0,-1031.0,-27.0,-94.0,589.0,-486.0,85.0
19:40:49.884000,-543.0,-436.0,-481.0,-1060.0,11.0,-114.0,604.0,-478.0,90.0
19:40:49.889000,-542.0,-378.0,-548.0,-1063.0,-21.0,-138.0,604.0,-478.0,90.0
19:40:49.893000,-527.0,-356.0,-511.0,-1041.0,-109.0,-138.0,606.0,-480.0,93.0
19:40:49.898000,-532.0,-356.0,-435.0,-1045.0,-202.0,-116.0,606.0,-480.0,93.0
19:40:49.902000,-532.0,-356.0,-435.0,-1112.0,-236.0,-105.0,606.0,-480.0,93.0
19:40:49.907000,-527.0,-359.0,-415.0,-1133.0,-222.0,-109.0,607.0,-471.0,78.0
19:40:49.912000,-512.0,-352.0,-387.0,-1066.0,-176.0,-112.0,607.0,-471.0,78.0
19:40:49.917000,-525.0,-329.0,-393.0,-1034.0,-116.0,-105.0,601.0,-475.0,73.0
19:40:49.921000,-531.0,-324.0,-454.0,-1051.0,-68.0,-99.0,601.0,-475.0,73.0
19:40:49.926000,-522.0,-326.0,-566.0,-1003.0,-71.0,-94.0,601.0,-475.0,73.0
19:40:49.931000,-532.0,-334.0,-546.0,-885.0,-136.0,-79.0,603.0,-469.0,76.0
19:40:49.936000,-552.0,-351.0,-371.0,-883.0,-139.0,-70.0,603.0,-469.0,76.0
19:40:49.940000,-583.0,-354.0,-313.0,-983.0,-46.0,-65.0,604.0,-465.0,66.0
19:40:49.945000,-618.0,-354.0,-388.0,-1012.0,53.0,-51.0,604.0,-465.0,66.0
19:40:49.949000,-670.0,-366.0,-410.0,-970.0,54.0,-39.0,604.0,-465.0,66.0
19:40:49.954000,-709.0,-383.0,-342.0,-942.0,12.0,-44.0,597.0,-456.0,61.0
19:40:49.959000,-729.0,-389.0,-303.0,-949.0,11.0,-49.0,597.0,-456.0,61.0
19:40:49.964000,-744.0,-398.0,-310.0,-949.0,11.0,-49.0,606.0,-454.0,57.0
19:40:49.968000,-793.0,-406.0,-271.0,-967.0,42.0,-18.0,606.0,-454.0,57.0
19:40:49.973000,-858.0,-418.0,-177.0,-978.0,42.0,-18.0,606.0,-454.0,57.0
19:40:49.978000,-939.0,-410.0,-170.0,-1030.0,129.0,-23.0,589.0,-442.0,73.0
19:40:49.983000,-970.0,-424.0,-189.0,-1030.0,129.0,-23.0,589.0,-442.0,73.0
19:40:49.987000,-1036.0,-422.0,-159.0,-1026.0,68.0,-24.0,589.0,-442.0,73.0
19:40:49.992000,-1089.0,-432.0,-114.0,-1020.0,41.0,-18.0,589.0,-442.0,73.0
19:40:49.996000,-1147.0,-457.0,-85.0,-1010.0,91.0,-9.0,589.0,-442.0,73.0
19:40:50.001000,-1246.0,-460.0,-79.0,-987.0,167.0,4.0,604.0,-426.0,57.0
19:40:50.006000,-1340.0,-473.0,-77.0,-954.0,210.0,20.0,604.0,-426.0,57.0
19:40:50.011000,-1416.0,-480.0,-125.0,-928.0,199.0,22.0,598.0,-429.0,49.0
19:40:50.015000,-1416.0,-480.0,-125.0,-932.0,163.0,21.0,598.0,-429.0,49.0
19:40:50.020000,-1472.0,-509.0,-158.0,-925.0,102.0,28.0,598.0,-429.0,49.0
19:40:50.025000,-1533.0,-546.0,-107.0,-903.0,52.0,29.0,594.0,-436.0,57.0
19:40:50.030000,-1608.0,-576.0,-15.0,-930.0,113.0,29.0,594.0,-436.0,57.0
19:40:50.034000,-1697.0,-599.0,-65.0,-948.0,209.0,34.0,598.0,-424.0,33.0
19:40:50.039000,-1755.0,-644.0,-154.0,-887.0,167.0,34.0,598.0,-424.0,33.0
19:40:50.043000,-1810.0,-679.0,-147.0,-847.0,73.0,35.0,598.0,-424.0,33.0
19:40:50.048000,-1865.0,-725.0,-116.0,-860.0,54.0,45.0,603.0,-423.0,39.0
19:40:50.053000,-1931.0,-785.0,-109.0,-861.0,78.0,57.0,603.0,-423.0,39.0
19:40:50.058000,-2007.0,-846.0,-103.0,-826.0,98.0,73.0,585.0,-418.0,18.0
19:40:50.062000,-2089.0,-914.0,-69.0,-777.0,104.0,89.0,585.0,-418.0,18.0
19:40:50.070000,-2256.0,-1068.0,-32.0,-792.0,183.0,117.0,595.0,-403.0,24.0
19:40:50.072000,-2256.0,-1068.0,-32.0,-792.0,183.0,117.0,595.0,-403.0,24.0
19:40:50.076000,-2334.0,-1136.0,-93.0,-798.0,214.0,132.0,595.0,-403.0,24.0
19:40:50.081000,-2405.0,-1211.0,-137.0,-798.0,214.0,132.0,586.0,-387.0,13.0
19:40:50.086000,-2494.0,-1289.0,-151.0,-804.0,213.0,161.0,586.0,-387.0,13.0
19:40:50.091000,-2569.0,-1365.0,-139.0,-804.0,195.0,193.0,582.0,-379.0,9.0
19:40:50.095000,-2676.0,-1433.0,-135.0,-808.0,164.0,231.0,582.0,-379.0,9.0
19:40:50.099000,-2755.0,-1509.0,-133.0,-838.0,166.0,273.0,582.0,-379.0,9.0
19:40:50.105000,-2841.0,-1581.0,-160.0,-880.0,197.0,310.0,586.0,-367.0,-3.0
19:40:50.109000,-2916.0,-1662.0,-174.0,-883.0,204.0,352.0,586.0,-367.0,-3.0
19:40:50.114000,-3005.0,-1732.0,-198.0,-845.0,178.0,392.0,571.0,-363.0,4.0
19:40:50.119000,-3066.0,-1805.0,-273.0,-822.0,163.0,430.0,571.0,-363.0,4.0
19:40:50.123000,-3066.0,-1805.0,-273.0,-832.0,154.0,462.0,571.0,-363.0,4.0
19:40:50.128000,-3119.0,-1861.0,-373.0,-868.0,150.0,494.0,570.0,-352.0,-19.0
19:40:50.133000,-3172.0,-1911.0,-419.0,-894.0,139.0,540.0,570.0,-352.0,-19.0
19:40:50.138000,-3257.0,-1954.0,-406.0,-913.0,144.0,586.0,565.0,-331.0,-24.0
19:40:50.142000,-3316.0,-2001.0,-447.0,-910.0,155.0,623.0,565.0,-331.0,-24.0
19:40:50.146000,-3369.0,-2035.0,-519.0,-870.0,103.0,652.0,565.0,-331.0,-24.0
19:40:50.152000,-3412.0,-2060.0,-527.0,-875.0,97.0,680.0,541.0,-298.0,-28.0
19:40:50.156000,-3446.0,-2083.0,-605.0,-917.0,135.0,711.0,541.0,-298.0,-28.0
19:40:50.161000,-3472.0,-2107.0,-691.0,-919.0,127.0,735.0,541.0,-286.0,-40.0
19:40:50.166000,-3493.0,-2123.0,-701.0,-939.0,123.0,752.0,541.0,-286.0,-40.0
19:40:50.170000,-3520.0,-2116.0,-722.0,-1012.0,144.0,771.0,541.0,-286.0,-40.0
19:40:50.175000,-3534.0,-2118.0,-776.0,-1012.0,144.0,771.0,532.0,-270.0,-39.0
19:40:50.180000,-3549.0,-2109.0,-828.0,-1017.0,115.0,804.0,532.0,-270.0,-39.0
19:40:50.185000,-3573.0,-2113.0,-868.0,-1017.0,115.0,804.0,513.0,-244.0,-46.0
19:40:50.189000,-3581.0,-2125.0,-912.0,-991.0,156.0,835.0,513.0,-244.0,-46.0
19:40:50.193000,-3590.0,-2124.0,-980.0,-958.0,215.0,864.0,513.0,-244.0,-46.0
19:40:50.199000,-3581.0,-2107.0,-1053.0,-958.0,215.0,864.0,502.0,-225.0,-39.0
19:40:50.203000,-3560.0,-2110.0,-1113.0,-981.0,226.0,879.0,502.0,-225.0,-39.0
19:40:50.208000,-3549.0,-2117.0,-1157.0,-992.0,236.0,905.0,490.0,-202.0,-40.0
19:40:50.213000,-3530.0,-2120.0,-1119.0,-971.0,232.0,911.0,490.0,-202.0,-40.0
19:40:50.217000,-3500.0,-2114.0,-1073.0,-949.0,205.0,906.0,490.0,-202.0,-40.0
19:40:50.222000,-3479.0,-2088.0,-1146.0,-995.0,266.0,900.0,474.0,-180.0,-34.0
19:40:50.227000,-3465.0,-2072.0,-1194.0,-1037.0,353.0,908.0,474.0,-180.0,-34.0
19:40:50.232000,-3455.0,-2059.0,-1139.0,-1002.0,307.0,923.0,457.0,-150.0,-15.0
19:40:50.236000,-3455.0,-2059.0,-1139.0,-974.0,253.0,915.0,457.0,-150.0,-15.0
19:40:50.240000,-3427.0,-2034.0,-1103.0,-944.0,249.0,895.0,457.0,-150.0,-15.0
19:40:50.246000,-3405.0,-1999.0,-1034.0,-903.0,253.0,896.0,435.0,-142.0,-6.0
19:40:50.250000,-3346.0,-2002.0,-975.0,-920.0,289.0,883.0,435.0,-142.0,-6.0
19:40:50.255000,-3292.0,-1964.0,-1022.0,-945.0,319.0,849.0,420.0,-115.0,1.0
19:40:50.260000,-3231.0,-1920.0,-1075.0,-915.0,276.0,835.0,420.0,-115.0,1.0
19:40:50.264000,-3163.0,-1885.0,-996.0,-883.0,221.0,818.0,420.0,-115.0,1.0
19:40:50.269000,-3104.0,-1845.0,-877.0,-907.0,248.0,797.0,409.0,-108.0,13.0
19:40:50.274000,-3063.0,-1803.0,-812.0,-945.0,328.0,779.0,409.0,-108.0,13.0
19:40:50.279000,-3022.0,-1764.0,-789.0,-948.0,381.0,748.0,414.0,-84.0,27.0
19:40:50.283000,-2974.0,-1710.0,-759.0,-936.0,393.0,724.0,414.0,-84.0,27.0
19:40:50.287000,-2909.0,-1681.0,-746.0,-906.0,401.0,707.0,414.0,-84.0,27.0
19:40:50.293000,-2848.0,-1638.0,-739.0,-854.0,388.0,683.0,376.0,-78.0,45.0
19:40:50.297000,-2774.0,-1598.0,-702.0,-854.0,388.0,683.0,376.0,-78.0,45.0
19:40:50.302000,-2695.0,-1560.0,-671.0,-826.0,357.0,660.0,373.0,-52.0,64.0
19:40:50.307000,-2609.0,-1530.0,-620.0,-809.0,315.0,633.0,373.0,-52.0,64.0
19:40:50.311000,-2517.0,-1509.0,-554.0,-775.0,276.0,610.0,373.0,-52.0,64.0
19:40:50.316000,-2429.0,-1478.0,-535.0,-761.0,292.0,578.0,360.0,-48.0,73.0
19:40:50.321000,-2351.0,-1453.0,-535.0,-764.0,356.0,550.0,360.0,-48.0,73.0
19:40:50.325000,-2289.0,-1432.0,-515.0,-745.0,417.0,543.0,357.0,-36.0,76.0
19:40:50.330000,-2229.0,-1412.0,-496.0,-728.0,455.0,531.0,357.0,-36.0,76.0
19:40:50.335000,-2164.0,-1388.0,-474.0,-721.0,463.0,513.0,357.0,-33.0,99.0
19:40:50.340000,-2101.0,-1367.0,-448.0,-699.0,443.0,497.0,357.0,-33.0,99.0
19:40:50.344000,-2101.0,-1367.0,-448.0,-669.0,431.0,478.0,357.0,-33.0,99.0
19:40:50.349000,-2040.0,-1334.0,-420.0,-657.0,457.0,454.0,342.0,-24.0,99.0
19:40:50.354000,-1974.0,-1297.0,-416.0,-665.0,498.0,437.0,342.0,-24.0,99.0
19:40:50.359000,-1910.0,-1261.0,-431.0,-675.0,515.0,426.0,343.0,-16.0,109.0
19:40:50.363000,-1854.0,-1221.0,-443.0,-688.0,515.0,416.0,343.0,-16.0,109.0
19:40:50.367000,-1801.0,-1182.0,-439.0,-690.0,513.0,406.0,343.0,-16.0,109.0
19:40:50.373000,-1752.0,-1145.0,-429.0,-666.0,510.0,398.0,334.0,-15.0,129.0
19:40:50.377000,-1701.0,-1110.0,-417.0,-633.0,499.0,381.0,334.0,-15.0,129.0
19:40:50.382000,-1645.0,-1068.0,-421.0,-626.0,499.0,359.0,312.0,-15.0,135.0
19:40:50.387000,-1589.0,-1024.0,-457.0,-640.0,509.0,342.0,312.0,-15.0,135.0
19:40:50.391000,-1538.0,-980.0,-504.0,-653.0,515.0,327.0,312.0,-15.0,135.0
19:40:50.396000,-1493.0,-936.0,-529.0,-665.0,522.0,312.0,322.0,0.0,154.0
19:40:50.401000,-1456.0,-891.0,-529.0,-673.0,536.0,294.0,322.0,0.0,154.0
19:40:50.406000,-1421.0,-844.0,-520.0,-673.0,536.0,294.0,321.0,3.0,163.0
19:40:50.410000,-1393.0,-795.0,-525.0,-687.0,583.0,255.0,321.0,3.0,163.0
19:40:50.414000,-1357.0,-753.0,-529.0,-687.0,583.0,255.0,321.0,3.0,163.0
19:40:50.420000,-1321.0,-720.0,-519.0,-670.0,604.0,238.0,303.0,3.0,184.0
19:40:50.424000,-1291.0,-693.0,-510.0,-639.0,624.0,228.0,303.0,3.0,184.0
19:40:50.429000,-1262.0,-674.0,-503.0,-595.0,631.0,223.0,313.0,0.0,186.0
19:40:50.434000,-1235.0,-665.0,-480.0,-539.0,608.0,224.0,313.0,0.0,186.0
19:40:50.438000,-1201.0,-657.0,-475.0,-503.0,590.0,222.0,313.0,0.0,186.0
19:40:50.443000,-1155.0,-660.0,-518.0,-498.0,613.0,216.0,306.0,4.0,184.0
19:40:50.448000,-1119.0,-655.0,-563.0,-493.0,647.0,213.0,306.0,4.0,184.0
19:40:50.453000,-1087.0,-655.0,-562.0,-466.0,658.0,215.0,301.0,7.0,195.0
19:40:50.457000,-1087.0,-655.0,-562.0,-437.0,645.0,217.0,301.0,7.0,195.0
19:40:50.461000,-1057.0,-655.0,-525.0,-432.0,640.0,211.0,301.0,7.0,195.0
19:40:50.467000,-1035.0,-648.0,-514.0,-445.0,670.0,203.0,294.0,9.0,211.0
19:40:50.471000,-1020.0,-638.0,-541.0,-451.0,706.0,191.0,294.0,9.0,211.0
19:40:50.476000,-1007.0,-625.0,-560.0,-458.0,725.0,177.0,285.0,9.0,220.0
19:40:50.481000,-990.0,-609.0,-568.0,-471.0,740.0,160.0,285.0,9.0,220.0
19:40:50.485000,-980.0,-581.0,-579.0,-485.0,757.0,147.0,285.0,9.0,220.0
19:40:50.490000,-984.0,-545.0,-582.0,-502.0,757.0,140.0,292.0,13.0,220.0
19:40:50.495000,-988.0,-515.0,-564.0,-502.0,740.0,133.0,292.0,13.0,220.0
19:40:50.500000,-997.0,-485.0,-527.0,-489.0,730.0,129.0,283.0,12.0,222.0
19:40:50.504000,-1011.0,-459.0,-499.0,-476.0,746.0,124.0,283.0,12.0,222.0
19:40:50.508000,-1016.0,-437.0,-516.0,-456.0,771.0,116.0,283.0,12.0,222.0
19:40:50.514000,-1017.0,-413.0,-569.0,-413.0,761.0,108.0,279.0,9.0,240.0
19:40:50.518000,-1024.0,-389.0,-587.0,-413.0,761.0,108.0,279.0,9.0,240.0
19:40:50.523000,-1025.0,-371.0,-564.0,-376.0,723.0,96.0,273.0,10.0,243.0
19:40:50.528000,-1022.0,-354.0,-569.0,-375.0,706.0,78.0,273.0,10.0,243.0
19:40:50.532000,-1015.0,-338.0,-609.0,-388.0,722.0,58.0,273.0,10.0,243.0
19:40:50.537000,-1007.0,-328.0,-616.0,-390.0,732.0,44.0,273.0,16.0,258.0
19:40:50.542000,-990.0,-327.0,-605.0,-387.0,710.0,35.0,273.0,16.0,258.0
19:40:50.547000,-961.0,-324.0,-646.0,-389.0,695.0,21.0,265.0,7.0,259.0
19:40:50.551000,-917.0,-326.0,-722.0,-376.0,693.0,6.0,265.0,7.0,259.0
19:40:50.555000,-917.0,-326.0,-722.0,-327.0,677.0,-1.0,265.0,7.0,259.0
19:40:50.561000,-806.0,-338.0,-746.0,-263.0,639.0,-2.0,256.0,7.0,273.0
19:40:50.565000,-806.0,-338.0,-746.0,-220.0,599.0,3.0,256.0,7.0,273.0
19:40:50.570000,-754.0,-345.0,-688.0,-210.0,582.0,15.0,258.0,10.0,274.0
19:40:50.575000,-704.0,-357.0,-646.0,-213.0,607.0,27.0,258.0,10.0,274.0
19:40:50.579000,-652.0,-364.0,-667.0,-208.0,659.0,38.0,258.0,10.0,274.0
19:40:50.584000,-599.0,-371.0,-710.0,-181.0,699.0,55.0,264.0,10.0,274.0
19:40:50.589000,-558.0,-376.0,-707.0,-157.0,719.0,73.0,264.0,10.0,274.0
19:40:50.594000,-530.0,-377.0,-651.0,-178.0,754.0,86.0,241.0,13.0,297.0
19:40:50.598000,-512.0,-374.0,-613.0,-229.0,818.0,102.0,241.0,13.0,297.0
19:40:50.602000,-506.0,-369.0,-618.0,-260.0,866.0,118.0,241.0,13.0,297.0
19:40:50.608000,-510.0,-364.0,-620.0,-250.0,870.0,134.0,237.0,6.0,285.0
19:40:50.612000,-520.0,-362.0,-590.0,-220.0,847.0,142.0,237.0,6.0,285.0
19:40:50.617000,-529.0,-357.0,-539.0,-220.0,847.0,142.0,231.0,4.0,300.0
19:40:50.622000,-534.0,-347.0,-497.0,-206.0,829.0,138.0,231.0,4.0,300.0
19:40:50.626000,-534.0,-337.0,-471.0,-206.0,829.0,138.0,231.0,4.0,300.0
19:40:50.631000,-534.0,-327.0,-442.0,-217.0,846.0,140.0,232.0,12.0,295.0
19:40:50.636000,-536.0,-322.0,-385.0,-229.0,857.0,149.0,232.0,12.0,295.0
19:40:50.641000,-538.0,-323.0,-380.0,-165.0,882.0,174.0,237.0,12.0,300.0
19:40:50.645000,-541.0,-321.0,-382.0,-165.0,882.0,174.0,237.0,12.0,300.0
19:40:50.649000,-525.0,-321.0,-334.0,-154.0,874.0,184.0,237.0,12.0,300.0
19:40:50.655000,-511.0,-315.0,-270.0,-144.0,838.0,191.0,214.0,6.0,313.0
19:40:50.659000,-501.0,-304.0,-230.0,-124.0,805.0,200.0,214.0,6.0,313.0
19:40:50.664000,-494.0,-294.0,-199.0,-118.0,795.0,210.0,217.0,3.0,312.0
19:40:50.669000,-475.0,-284.0,-163.0,-123.0,788.0,215.0,217.0,3.0,312.0
19:40:50.673000,-475.0,-284.0,-163.0,-140.0,792.0,211.0,217.0,3.0,312.0
19:40:50.678000,-451.0,-268.0,-125.0,-160.0,788.0,209.0,217.0,-1.0,324.0
19:40:50.683000,-444.0,-247.0,-92.0,-186.0,763.0,203.0,217.0,-1.0,324.0
19:40:50.687000,-424.0,-222.0,-60.0,-225.0,755.0,184.0,208.0,7.0,321.0
19:40:50.692000,-399.0,-190.0,-39.0,-249.0,775.0,176.0,208.0,7.0,321.0
19:40:50.697000,-380.0,-157.0,-34.0,-248.0,801.0,169.0,226.0,0.0,318.0
19:40:50.702000,-355.0,-126.0,-25.0,-237.0,800.0,154.0,226.0,0.0,318.0
19:40:50.706000,-335.0,-94.0,-6.0,-229.0,779.0,151.0,226.0,0.0,318.0
19:40:50.711000,-310.0,-67.0,10.0,-220.0,757.0,147.0,220.0,4.0,328.0
19:40:50.716000,-276.0,-43.0,19.0,-205.0,738.0,139.0,220.0,4.0,328.0
19:40:50.720000,-238.0,-22.0,32.0,-205.0,734.0,128.0,223.0,1.0,333.0
19:40:50.725000,-202.0,-1.0,32.0,-215.0,747.0,112.0,223.0,1.0,333.0
19:40:50.729000,-163.0,15.0,2.0,-237.0,761.0,99.0,223.0,1.0,333.0
19:40:50.734000,-119.0,25.0,-35.0,-248.0,758.0,95.0,217.0,1.0,346.0
19:40:50.739000,-80.0,28.0,-50.0,-248.0,758.0,95.0,217.0,1.0,346.0
19:40:50.744000,-43.0,25.0,-51.0,-243.0,738.0,96.0,217.0,1.0,346.0
19:40:50.749000,-4.0,15.0,-59.0,-222.0,717.0,101.0,217.0,1.0,346.0
19:40:50.753000,37.0,0.0,-78.0,-178.0,698.0,107.0,217.0,1.0,346.0
19:40:50.758000,82.0,-16.0,-87.0,-127.0,683.0,111.0,225.0,0.0,330.0
19:40:50.763000,128.0,-35.0,-88.0,-106.0,672.0,115.0,225.0,0.0,330.0
19:40:50.767000,168.0,-53.0,-98.0,-119.0,671.0,120.0,217.0,-1.0,325.0
19:40:50.772000,202.0,-73.0,-112.0,-132.0,682.0,125.0,217.0,-1.0,325.0
19:40:50.776000,202.0,-73.0,-112.0,-134.0,702.0,129.0,217.0,-1.0,325.0
19:40:50.782000,233.0,-91.0,-115.0,-141.0,725.0,129.0,225.0,4.0,318.0
19:40:50.786000,261.0,-102.0,-116.0,-155.0,752.0,128.0,225.0,4.0,318.0
19:40:50.791000,280.0,-109.0,-124.0,-169.0,776.0,127.0,222.0,6.0,322.0
19:40:50.796000,302.0,-111.0,-132.0,-175.0,782.0,125.0,222.0,6.0,322.0
19:40:50.800000,319.0,-111.0,-120.0,-179.0,778.0,124.0,220.0,1.0,318.0
19:40:50.805000,338.0,-109.0,-105.0,-187.0,793.0,121.0,220.0,1.0,318.0
19:40:50.809000,362.0,-106.0,-121.0,-185.0,795.0,118.0,220.0,1.0,318.0
19:40:50.814000,384.0,-105.0,-152.0,-176.0,794.0,111.0,219.0,3.0,319.0
19:40:50.819000,420.0,-100.0,-189.0,-166.0,816.0,105.0,219.0,3.0,319.0
19:40:50.824000,453.0,-100.0,-211.0,-157.0,835.0,107.0,207.0,7.0,312.0
19:40:50.829000,480.0,-100.0,-217.0,-145.0,844.0,108.0,207.0,7.0,312.0
19:40:50.833000,499.0,-101.0,-228.0,-125.0,859.0,107.0,207.0,7.0,312.0
19:40:50.838000,527.0,-103.0,-263.0,-99.0,884.0,108.0,199.0,6.0,330.0
19:40:50.843000,555.0,-111.0,-284.0,-105.0,868.0,117.0,199.0,6.0,330.0
19:40:50.847000,577.0,-121.0,-254.0,-105.0,868.0,117.0,210.0,3.0,298.0
19:40:50.852000,609.0,-128.0,-260.0,-127.0,873.0,124.0,210.0,3.0,298.0
19:40:50.856000,628.0,-136.0,-290.0,-120.0,923.0,131.0,210.0,3.0,298.0
19:40:50.861000,648.0,-142.0,-303.0,-101.0,947.0,139.0,211.0,13.0,300.0
19:40:50.866000,662.0,-149.0,-303.0,-91.0,961.0,144.0,211.0,13.0,300.0
19:40:50.871000,676.0,-156.0,-313.0,-97.0,986.0,151.0,208.0,15.0,298.0
19:40:50.876000,683.0,-161.0,-322.0,-114.0,1010.0,156.0,208.0,15.0,298.0
19:40:50.883000,685.0,-168.0,-319.0,-131.0,1030.0,166.0,204.0,15.0,295.0
19:40:50.885000,688.0,-175.0,-310.0,-131.0,1030.0,166.0,204.0,15.0,295.0
19:40:50.889000,688.0,-175.0,-310.0,-122.0,1033.0,165.0,204.0,15.0,295.0
19:40:50.894000,689.0,-182.0,-307.0,-112.0,1039.0,166.0,205.0,4.0,283.0
19:40:50.899000,692.0,-189.0,-311.0,-109.0,1042.0,168.0,205.0,4.0,283.0
19:40:50.904000,694.0,-200.0,-306.0,-109.0,1028.0,172.0,190.0,-1.0,292.0
19:40:50.908000,701.0,-212.0,-291.0,-102.0,1004.0,176.0,190.0,-1.0,292.0
19:40:50.913000,715.0,-228.0,-277.0,-87.0,970.0,177.0,190.0,-1.0,292.0
19:40:50.918000,738.0,-246.0,-266.0,-72.0,940.0,178.0,195.0,7.0,277.0
19:40:50.923000,768.0,-263.0,-273.0,-63.0,929.0,180.0,195.0,7.0,277.0
19:40:50.927000,801.0,-280.0,-285.0,-59.0,921.0,186.0,175.0,4.0,274.0
19:40:50.932000,839.0,-296.0,-275.0,-62.0,901.0,191.0,175.0,4.0,274.0
19:40:50.936000,880.0,-311.0,-260.0,-75.0,878.0,195.0,175.0,4.0,274.0
19:40:50.941000,926.0,-326.0,-263.0,-90.0,859.0,198.0,192.0,10.0,265.0
19:40:50.946000,984.0,-340.0,-281.0,-105.0,840.0,201.0,192.0,10.0,265.0
19:40:50.951000,1047.0,-353.0,-292.0,-105.0,840.0,201.0,186.0,15.0,267.0
19:40:50.955000,1113.0,-365.0,-290.0,-123.0,809.0,212.0,186.0,15.0,267.0
19:40:50.960000,1184.0,-379.0,-288.0,-145.0,773.0,226.0,186.0,15.0,267.0
19:40:50.964000,1257.0,-390.0,-289.0,-160.0,739.0,236.0,189.0,4.0,252.0
19:40:50.970000,1336.0,-398.0,-277.0,-152.0,708.0,244.0,189.0,4.0,252.0
19:40:50.974000,1414.0,-404.0,-262.0,-142.0,697.0,251.0,186.0,10.0,244.0
19:40:50.979000,1488.0,-404.0,-269.0,-163.0,719.0,260.0,186.0,10.0,244.0
19:40:50.983000,1558.0,-400.0,-296.0,-199.0,753.0,276.0,186.0,10.0,244.0
19:40:50.988000,1624.0,-391.0,-315.0,-218.0,765.0,298.0,186.0,6.0,229.0
19:40:50.993000,1688.0,-382.0,-322.0,-211.0,748.0,322.0,186.0,6.0,229.0
19:40:50.998000,1758.0,-373.0,-321.0,-192.0,718.0,344.0,189.0,12.0,217.0
19:40:51.002000,1758.0,-373.0,-321.0,-173.0,688.0,363.0,189.0,12.0,217.0
19:40:51.007000,1832.0,-363.0,-322.0,-180.0,678.0,389.0,189.0,12.0,217.0
19:40:51.012000,1905.0,-354.0,-345.0,-192.0,681.0,426.0,178.0,7.0,196.0
19:40:51.017000,1971.0,-349.0,-357.0,-179.0,700.0,462.0,178.0,7.0,196.0
19:40:51.021000,2037.0,-347.0,-365.0,-161.0,747.0,493.0,174.0,15.0,199.0
19:40:51.026000,2086.0,-343.0,-377.0,-149.0,808.0,520.0,174.0,15.0,199.0
19:40:51.030000,2120.0,-329.0,-372.0,-152.0,859.0,547.0,174.0,15.0,199.0
19:40:51.035000,2132.0,-307.0,-352.0,-183.0,908.0,571.0,166.0,1.0,183.0
19:40:51.040000,2136.0,-280.0,-343.0,-232.0,949.0,587.0,166.0,1.0,183.0
19:40:51.045000,2137.0,-249.0,-338.0,-263.0,946.0,599.0,171.0,-4.0,168.0
19:40:51.049000,2132.0,-217.0,-317.0,-263.0,892.0,602.0,171.0,-4.0,168.0
19:40:51.054000,2130.0,-176.0,-275.0,-255.0,819.0,595.0,171.0,-4.0,168.0
19:40:51.059000,2135.0,-126.0,-237.0,-262.0,779.0,587.0,162.0,-4.0,138.0
19:40:51.063000,2149.0,-75.0,-209.0,-287.0,770.0,586.0,162.0,-4.0,138.0
19:40:51.068000,2169.0,-34.0,-190.0,-287.0,770.0,586.0,151.0,-13.0,126.0
19:40:51.073000,2200.0,-1.0,-182.0,-308.0,757.0,589.0,151.0,-13.0,126.0
19:40:51.077000,2242.0,22.0,-172.0,-295.0,713.0,595.0,151.0,-13.0,126.0
19:40:51.082000,2303.0,42.0,-139.0,-242.0,638.0,603.0,163.0,-12.0,97.0
19:40:51.087000,2366.0,75.0,-105.0,-169.0,545.0,607.0,163.0,-12.0,97.0
19:40:51.092000,2433.0,104.0,-103.0,-132.0,505.0,619.0,169.0,-27.0,94.0
19:40:51.096000,2497.0,137.0,-113.0,-150.0,553.0,634.0,169.0,-27.0,94.0
19:40:51.101000,2497.0,137.0,-113.0,-195.0,604.0,637.0,169.0,-27.0,94.0
19:40:51.106000,2593.0,226.0,-76.0,-266.0,623.0,636.0,156.0,-16.0,73.0
19:40:51.111000,2593.0,226.0,-76.0,-348.0,608.0,637.0,156.0,-16.0,73.0
19:40:51.115000,2632.0,275.0,-51.0,-413.0,561.0,642.0,163.0,-33.0,54.0
19:40:51.120000,2672.0,326.0,-26.0,-447.0,511.0,653.0,163.0,-33.0,54.0
19:40:51.124000,2718.0,379.0,4.0,-461.0,483.0,670.0,163.0,-33.0,54.0
19:40:51.129000,2762.0,431.0,17.0,-459.0,480.0,692.0,165.0,-46.0,33.0
19:40:51.134000,2807.0,481.0,14.0,-438.0,478.0,716.0,165.0,-46.0,33.0
19:40:51.139000,2845.0,525.0,23.0,-409.0,459.0,744.0,165.0,-64.0,6.0
19:40:51.143000,2870.0,564.0,43.0,-388.0,434.0,774.0,165.0,-64.0,6.0
19:40:51.148000,2897.0,599.0,52.0,-391.0,415.0,797.0,165.0,-64.0,6.0
19:40:51.153000,2928.0,638.0,22.0,-405.0,398.0,815.0,162.0,-84.0,-16.0
19:40:51.158000,2954.0,693.0,-4.0,-424.0,365.0,837.0,162.0,-84.0,-16.0
19:40:51.162000,2980.0,742.0,-12.0,-424.0,365.0,837.0,174.0,-90.0,-18.0
19:40:51.167000,3003.0,798.0,-22.0,-485.0,305.0,869.0,174.0,-90.0,-18.0
19:40:51.171000,3030.0,866.0,-42.0,-485.0,283.0,900.0,174.0,-90.0,-18.0
19:40:51.176000,3057.0,933.0,-70.0,-532.0,283.0,874.0,166.0,-94.0,-43.0
19:40:51.181000,3108.0,1006.0,-161.0,-615.0,257.0,890.0,166.0,-94.0,-43.0
19:40:51.186000,3176.0,1076.0,-326.0,-849.0,87.0,942.0,187.0,-105.0,-63.0
19:40:51.190000,3206.0,1120.0,-184.0,-734.0,76.0,997.0,187.0,-105.0,-63.0
19:40:51.195000,3249.0,1198.0,-67.0,-409.0,126.0,1014.0,187.0,-105.0,-63.0
19:40:51.199000,3299.0,1236.0,-106.0,-441.0,64.0,1031.0,187.0,-142.0,-85.0
19:40:51.205000,3367.0,1269.0,-167.0,-515.0,52.0,1067.0,187.0,-142.0,-85.0
19:40:51.209000,3463.0,1328.0,-214.0,-523.0,-2.0,1081.0,187.0,-156.0,-108.0
19:40:51.214000,3542.0,1362.0,-192.0,-502.0,-39.0,1104.0,187.0,-156.0,-108.0
19:40:51.218000,3542.0,1362.0,-192.0,-471.0,-108.0,1160.0,187.0,-156.0,-108.0
19:40:51.223000,3612.0,1395.0,-119.0,-488.0,-173.0,1187.0,199.0,-189.0,-130.0
19:40:51.228000,3686.0,1428.0,-113.0,-509.0,-178.0,1242.0,199.0,-189.0,-130.0
19:40:51.233000,3739.0,1444.0,-117.0,-459.0,-150.0,1271.0,216.0,-208.0,-136.0
19:40:51.237000,3794.0,1494.0,-66.0,-477.0,-125.0,1280.0,216.0,-208.0,-136.0
19:40:51.242000,3826.0,1546.0,-63.0,-556.0,-69.0,1323.0,216.0,-208.0,-136.0
19:40:51.247000,3846.0,1586.0,-108.0,-600.0,-24.0,1348.0,219.0,-231.0,-145.0
19:40:51.252000,3846.0,1629.0,-150.0,-609.0,-39.0,1362.0,219.0,-231.0,-145.0
19:40:51.256000,3824.0,1675.0,-114.0,-604.0,-87.0,1380.0,219.0,-258.0,-157.0
19:40:51.261000,3772.0,1719.0,-62.0,-612.0,-122.0,1382.0,219.0,-258.0,-157.0
19:40:51.265000,3715.0,1774.0,-15.0,-616.0,-187.0,1375.0,219.0,-258.0,-157.0
19:40:51.270000,3670.0,1825.0,44.0,-635.0,-254.0,1373.0,259.0,-307.0,-166.0
19:40:51.275000,3640.0,1857.0,72.0,-667.0,-252.0,1365.0,259.0,-307.0,-166.0
19:40:51.280000,3612.0,1887.0,25.0,-667.0,-252.0,1365.0,273.0,-328.0,-183.0
19:40:51.284000,3593.0,1905.0,-30.0,-694.0,-249.0,1361.0,273.0,-328.0,-183.0
19:40:51.289000,3551.0,1932.0,4.0,-589.0,-344.0,1331.0,273.0,-328.0,-183.0
19:40:51.294000,3490.0,1940.0,76.0,-589.0,-344.0,1331.0,282.0,-346.0,-178.0
19:40:51.299000,3428.0,1934.0,72.0,-585.0,-343.0,1342.0,282.0,-346.0,-178.0
19:40:51.303000,3381.0,1914.0,17.0,-585.0,-273.0,1338.0,303.0,-384.0,-195.0
19:40:51.308000,3315.0,1909.0,-15.0,-538.0,-238.0,1328.0,303.0,-384.0,-195.0
19:40:51.312000,3236.0,1896.0,-7.0,-469.0,-264.0,1323.0,303.0,-384.0,-195.0
19:40:51.317000,3146.0,1883.0,0.0,-442.0,-300.0,1325.0,306.0,-400.0,-181.0
19:40:51.322000,3056.0,1876.0,11.0,-428.0,-316.0,1315.0,306.0,-400.0,-181.0
19:40:51.327000,2977.0,1878.0,-5.0,-419.0,-320.0,1289.0,325.0,-420.0,-181.0
19:40:51.331000,2977.0,1878.0,-5.0,-455.0,-335.0,1274.0,325.0,-420.0,-181.0
19:40:51.335000,2889.0,1880.0,-57.0,-502.0,-349.0,1245.0,325.0,-420.0,-181.0
19:40:51.341000,2814.0,1896.0,-118.0,-525.0,-399.0,1213.0,336.0,-445.0,-178.0
19:40:51.346000,2761.0,1887.0,-142.0,-517.0,-496.0,1197.0,336.0,-445.0,-178.0
19:40:51.350000,2725.0,1873.0,-141.0,-504.0,-573.0,1189.0,355.0,-484.0,-183.0
19:40:51.355000,2681.0,1858.0,-140.0,-492.0,-604.0,1193.0,355.0,-484.0,-183.0
19:40:51.359000,2645.0,1822.0,-163.0,-473.0,-588.0,1175.0,355.0,-484.0,-183.0
19:40:51.364000,2603.0,1808.0,-195.0,-458.0,-530.0,1142.0,382.0,-495.0,-165.0
19:40:51.369000,2566.0,1799.0,-226.0,-467.0,-448.0,1114.0,382.0,-495.0,-165.0
19:40:51.373000,2503.0,1792.0,-273.0,-503.0,-369.0,1076.0,387.0,-504.0,-159.0
19:40:51.378000,2430.0,1794.0,-306.0,-563.0,-319.0,1024.0,387.0,-504.0,-159.0
19:40:51.382000,2354.0,1802.0,-309.0,-636.0,-300.0,981.0,387.0,-504.0,-159.0
19:40:51.388000,2282.0,1802.0,-305.0,-695.0,-310.0,956.0,403.0,-529.0,-151.0
19:40:51.393000,2203.0,1794.0,-296.0,-695.0,-310.0,956.0,403.0,-529.0,-151.0
19:40:51.397000,2130.0,1784.0,-262.0,-696.0,-341.0,925.0,415.0,-543.0,-130.0
19:40:51.402000,2072.0,1782.0,-232.0,-657.0,-375.0,870.0,415.0,-543.0,-130.0
19:40:51.406000,2013.0,1781.0,-223.0,-647.0,-376.0,821.0,415.0,-543.0,-130.0
19:40:51.411000,1955.0,1768.0,-207.0,-671.0,-332.0,798.0,426.0,-550.0,-133.0
19:40:51.415000,1889.0,1750.0,-153.0,-668.0,-300.0,766.0,426.0,-550.0,-133.0
19:40:51.421000,1817.0,1722.0,-99.0,-668.0,-300.0,766.0,435.0,-559.0,-111.0
19:40:51.425000,1737.0,1693.0,-77.0,-680.0,-273.0,752.0,435.0,-559.0,-111.0
19:40:51.430000,1662.0,1670.0,-57.0,-679.0,-252.0,728.0,456.0,-582.0,-94.0
19:40:51.435000,1588.0,1639.0,-35.0,-630.0,-229.0,700.0,456.0,-582.0,-94.0
19:40:51.439000,1588.0,1639.0,-35.0,-603.0,-204.0,671.0,456.0,-582.0,-94.0
19:40:51.444000,1512.0,1619.0,-23.0,-603.0,-215.0,645.0,465.0,-585.0,-82.0
19:40:51.449000,1432.0,1579.0,-21.0,-590.0,-251.0,627.0,465.0,-585.0,-82.0
19:40:51.454000,1351.0,1540.0,2.0,-573.0,-304.0,583.0,481.0,-595.0,-78.0
19:40:51.458000,1272.0,1514.0,36.0,-586.0,-369.0,527.0,481.0,-595.0,-78.0
19:40:51.462000,1202.0,1489.0,65.0,-608.0,-376.0,499.0,481.0,-595.0,-78.0
19:40:51.468000,1125.0,1451.0,63.0,-624.0,-339.0,481.0,469.0,-612.0,-46.0
19:40:51.472000,1046.0,1423.0,56.0,-634.0,-304.0,450.0,469.0,-612.0,-46.0
19:40:51.477000,974.0,1386.0,43.0,-635.0,-268.0,424.0,492.0,-610.0,-60.0
19:40:51.482000,903.0,1348.0,41.0,-639.0,-270.0,400.0,492.0,-610.0,-60.0
19:40:51.486000,828.0,1310.0,48.0,-641.0,-298.0,378.0,492.0,-610.0,-60.0
19:40:51.491000,750.0,1267.0,68.0,-634.0,-341.0,354.0,499.0,-607.0,-46.0
19:40:51.496000,679.0,1230.0,102.0,-641.0,-391.0,315.0,499.0,-607.0,-46.0
19:40:51.500000,610.0,1201.0,140.0,-666.0,-431.0,283.0,507.0,-615.0,-19.0
19:40:51.505000,554.0,1162.0,171.0,-666.0,-431.0,283.0,507.0,-615.0,-19.0
19:40:51.509000,512.0,1122.0,186.0,-689.0,-462.0,254.0,507.0,-615.0,-19.0
19:40:51.515000,491.0,1088.0,172.0,-705.0,-480.0,210.0,510.0,-612.0,-28.0
19:40:51.519000,478.0,1050.0,153.0,-710.0,-494.0,175.0,510.0,-612.0,-28.0
19:40:51.524000,471.0,1002.0,156.0,-697.0,-526.0,162.0,519.0,-624.0,-21.0
19:40:51.529000,462.0,954.0,168.0,-669.0,-571.0,148.0,519.0,-624.0,-21.0
19:40:51.533000,462.0,954.0,168.0,-638.0,-591.0,128.0,519.0,-624.0,-21.0
19:40:51.538000,405.0,891.0,182.0,-632.0,-575.0,117.0,519.0,-628.0,-16.0
19:40:51.543000,388.0,843.0,160.0,-660.0,-567.0,107.0,519.0,-628.0,-16.0
19:40:51.547000,388.0,843.0,160.0,-697.0,-572.0,76.0,528.0,-624.0,-10.0
19:40:51.552000,387.0,803.0,100.0,-713.0,-603.0,43.0,528.0,-624.0,-10.0
19:40:51.556000,381.0,762.0,44.0,-703.0,-644.0,30.0,528.0,-624.0,-10.0
19:40:51.562000,381.0,714.0,13.0,-684.0,-648.0,16.0,519.0,-637.0,0.0
19:40:51.566000,374.0,674.0,-21.0,-681.0,-628.0,0.0,519.0,-637.0,0.0
19:40:51.571000,359.0,632.0,-49.0,-690.0,-609.0,-7.0,535.0,-627.0,4.0
19:40:51.576000,347.0,580.0,-61.0,-685.0,-615.0,-16.0,535.0,-627.0,4.0
19:40:51.580000,333.0,527.0,-63.0,-676.0,-625.0,-25.0,535.0,-627.0,4.0
19:40:51.585000,319.0,475.0,-86.0,-670.0,-609.0,-37.0,537.0,-631.0,18.0
19:40:51.590000,310.0,422.0,-146.0,-660.0,-596.0,-51.0,537.0,-631.0,18.0
19:40:51.594000,295.0,373.0,-197.0,-627.0,-614.0,-53.0,531.0,-631.0,16.0
19:40:51.599000,271.0,317.0,-204.0,-585.0,-638.0,-50.0,531.0,-631.0,16.0
19:40:51.603000,242.0,261.0,-196.0,-568.0,-642.0,-52.0,531.0,-631.0,16.0
19:40:51.609000,210.0,212.0,-203.0,-568.0,-634.0,-60.0,544.0,-630.0,22.0
19:40:51.613000,176.0,174.0,-229.0,-567.0,-634.0,-60.0,544.0,-630.0,22.0
19:40:51.618000,136.0,137.0,-263.0,-586.0,-623.0,-61.0,541.0,-639.0,19.0
19:40:51.623000,102.0,105.0,-294.0,-613.0,-617.0,-60.0,541.0,-639.0,19.0
19:40:51.627000,75.0,74.0,-319.0,-634.0,-633.0,-65.0,541.0,-639.0,19.0
19:40:51.632000,52.0,46.0,-345.0,-648.0,-673.0,-65.0,547.0,-627.0,19.0
19:40:51.637000,35.0,25.0,-358.0,-648.0,-718.0,-64.0,547.0,-627.0,19.0
19:40:51.641000,33.0,-3.0,-385.0,-665.0,-743.0,-63.0,546.0,-627.0,24.0
19:40:51.646000,37.0,-28.0,-432.0,-690.0,-741.0,-65.0,546.0,-627.0,24.0
19:40:51.650000,37.0,-28.0,-432.0,-698.0,-737.0,-67.0,546.0,-627.0,24.0
19:40:51.656000,58.0,-75.0,-486.0,-712.0,-749.0,-65.0,555.0,-622.0,21.0
19:40:51.660000,58.0,-75.0,-486.0,-733.0,-765.0,-64.0,555.0,-622.0,21.0
19:40:51.665000,65.0,-96.0,-498.0,-741.0,-774.0,-63.0,550.0,-618.0,18.0
19:40:51.670000,81.0,-124.0,-490.0,-734.0,-778.0,-62.0,550.0,-618.0,18.0
19:40:51.674000,92.0,-149.0,-465.0,-730.0,-759.0,-62.0,550.0,-618.0,18.0
19:40:51.679000,91.0,-172.0,-458.0,-731.0,-711.0,-58.0,552.0,-622.0,16.0
19:40:51.684000,84.0,-195.0,-457.0,-737.0,-654.0,-58.0,552.0,-622.0,16.0
19:40:51.688000,73.0,-214.0,-473.0,-750.0,-605.0,-51.0,568.0,-615.0,21.0
19:40:51.693000,58.0,-236.0,-503.0,-743.0,-582.0,-44.0,568.0,-615.0,21.0
19:40:51.697000,45.0,-262.0,-539.0,-708.0,-594.0,-49.0,568.0,-615.0,21.0
19:40:51.703000,36.0,-281.0,-548.0,-683.0,-620.0,-49.0,543.0,-615.0,19.0
19:40:51.707000,28.0,-295.0,-513.0,-710.0,-645.0,-50.0,543.0,-615.0,19.0
19:40:51.712000,21.0,-303.0,-491.0,-710.0,-645.0,-50.0,561.0,-612.0,13.0
19:40:51.717000,23.0,-316.0,-491.0,-826.0,-649.0,-52.0,561.0,-612.0,13.0
19:40:51.721000,37.0,-330.0,-501.0,-826.0,-649.0,-52.0,561.0,-612.0,13.0
19:40:51.726000,55.0,-332.0,-499.0,-853.0,-667.0,-64.0,561.0,-598.0,7.0
19:40:51.731000,54.0,-321.0,-494.0,-881.0,-667.0,-87.0,561.0,-598.0,7.0
19:40:51.736000,44.0,-314.0,-479.0,-881.0,-667.0,-87.0,546.0,-604.0,37.0
19:40:51.740000,37.0,-313.0,-453.0,-901.0,-646.0,-84.0,546.0,-604.0,37.0
19:40:51.744000,35.0,-316.0,-437.0,-928.0,-622.0,-81.0,546.0,-604.0,37.0
19:40:51.750000,31.0,-317.0,-461.0,-943.0,-595.0,-81.0,556.0,-612.0,15.0
19:40:51.754000,26.0,-314.0,-495.0,-905.0,-562.0,-84.0,556.0,-612.0,15.0
19:40:51.759000,11.0,-315.0,-485.0,-849.0,-545.0,-76.0,555.0,-604.0,10.0
19:40:51.764000,-14.0,-324.0,-436.0,-826.0,-547.0,-56.0,555.0,-604.0,10.0
19:40:51.768000,-14.0,-324.0,-436.0,-824.0,-545.0,-45.0,555.0,-604.0,10.0
19:40:51.773000,-38.0,-333.0,-381.0,-833.0,-525.0,-47.0,556.0,-600.0,10.0
19:40:51.777000,-53.0,-344.0,-362.0,-839.0,-506.0,-47.0,556.0,-600.0,10.0
19:40:51.783000,-71.0,-345.0,-360.0,-839.0,-505.0,-44.0,549.0,-595.0,4.0
19:40:51.787000,-84.0,-350.0,-352.0,-836.0,-519.0,-38.0,549.0,-595.0,4.0
19:40:51.791000,-98.0,-354.0,-332.0,-834.0,-527.0,-30.0,549.0,-595.0,4.0
19:40:51.797000,-107.0,-362.0,-312.0,-829.0,-543.0,-26.0,558.0,-589.0,3.0
19:40:51.801000,-114.0,-361.0,-291.0,-818.0,-586.0,-26.0,558.0,-589.0,3.0
19:40:51.806000,-107.0,-359.0,-253.0,-826.0,-623.0,-25.0,555.0,-592.0,7.0
19:40:51.811000,-90.0,-359.0,-214.0,-857.0,-643.0,-27.0,555.0,-592.0,7.0
19:40:51.815000,-65.0,-356.0,-184.0,-886.0,-649.0,-31.0,555.0,-592.0,7.0
19:40:51.820000,-41.0,-348.0,-151.0,-913.0,-644.0,-32.0,567.0,-588.0,12.0
19:40:51.825000,-18.0,-340.0,-116.0,-937.0,-623.0,-31.0,567.0,-588.0,12.0
19:40:51.830000,0.0,-328.0,-98.0,-937.0,-623.0,-31.0,550.0,-582.0,3.0
19:40:51.834000,9.0,-315.0,-96.0,-948.0,-610.0,-30.0,550.0,-582.0,3.0
19:40:51.838000,14.0,-303.0,-72.0,-941.0,-604.0,-30.0,550.0,-582.0,3.0
19:40:51.844000,12.0,-298.0,-41.0,-931.0,-583.0,-30.0,562.0,-591.0,4.0
19:40:51.848000,8.0,-296.0,-20.0,-929.0,-546.0,-28.0,562.0,-591.0,4.0
19:40:51.853000,-2.0,-299.0,-4.0,-911.0,-507.0,-25.0,561.0,-591.0,3.0
19:40:51.858000,-13.0,-309.0,6.0,-877.0,-495.0,-23.0,561.0,-591.0,3.0
19:40:51.862000,-13.0,-309.0,6.0,-838.0,-487.0,-27.0,561.0,-591.0,3.0
19:40:51.867000,-35.0,-326.0,2.0,-797.0,-489.0,-33.0,559.0,-585.0,-1.0
19:40:51.872000,-50.0,-338.0,14.0,-766.0,-501.0,-34.0,559.0,-585.0,-1.0
19:40:51.877000,-50.0,-338.0,14.0,-753.0,-500.0,-33.0,541.0,-583.0,16.0
19:40:51.881000,-65.0,-354.0,39.0,-759.0,-491.0,-33.0,541.0,-583.0,16.0
19:40:51.885000,-77.0,-373.0,49.0,-772.0,-486.0,-32.0,541.0,-583.0,16.0
19:40:51.891000,-88.0,-389.0,42.0,-777.0,-488.0,-33.0,559.0,-585.0,-7.0
19:40:51.895000,-99.0,-405.0,29.0,-774.0,-486.0,-31.0,559.0,-585.0,-7.0
19:40:51.900000,-106.0,-423.0,27.0,-757.0,-490.0,-28.0,558.0,-582.0,-18.0
19:40:51.905000,-114.0,-438.0,32.0,-742.0,-496.0,-25.0,558.0,-582.0,-18.0
19:40:51.909000,-117.0,-452.0,35.0,-740.0,-493.0,-21.0,558.0,-582.0,-18.0
19:40:51.914000,-119.0,-464.0,22.0,-737.0,-487.0,-18.0,549.0,-582.0,-7.0
19:40:51.919000,-120.0,-473.0,8.0,-731.0,-486.0,-15.0,549.0,-582.0,-7.0
19:40:51.924000,-124.0,-478.0,0.0,-731.0,-483.0,-14.0,550.0,-582.0,-9.0
19:40:51.928000,-133.0,-482.0,-10.0,-735.0,-468.0,-10.0,550.0,-582.0,-9.0
19:40:51.932000,-151.0,-483.0,-16.0,-724.0,-454.0,-6.0,550.0,-582.0,-9.0
19:40:51.938000,-182.0,-482.0,-18.0,-724.0,-454.0,-6.0,553.0,-579.0,-22.0
19:40:51.942000,-204.0,-490.0,-31.0,-716.0,-433.0,-4.0,553.0,-579.0,-22.0
19:40:51.947000,-224.0,-501.0,-45.0,-725.0,-404.0,-5.0,544.0,-573.0,-16.0
19:40:51.952000,-251.0,-512.0,-56.0,-732.0,-395.0,-2.0,544.0,-573.0,-16.0
19:40:51.956000,-282.0,-522.0,-64.0,-731.0,-403.0,0.0,544.0,-573.0,-16.0
19:40:51.961000,-308.0,-532.0,-69.0,-729.0,-406.0,-1.0,546.0,-582.0,-22.0
19:40:51.966000,-329.0,-543.0,-72.0,-733.0,-407.0,-7.0,546.0,-582.0,-22.0
19:40:51.971000,-349.0,-556.0,-77.0,-751.0,-404.0,-13.0,535.0,-580.0,-24.0
19:40:51.975000,-371.0,-567.0,-85.0,-775.0,-388.0,-16.0,535.0,-580.0,-24.0
19:40:51.979000,-371.0,-567.0,-85.0,-783.0,-369.0,-18.0,535.0,-580.0,-24.0
19:40:51.985000,-394.0,-575.0,-86.0,-780.0,-343.0,-18.0,546.0,-579.0,-33.0
19:40:51.989000,-427.0,-583.0,-88.0,-788.0,-305.0,-7.0,546.0,-579.0,-33.0
19:40:51.994000,-473.0,-604.0,-90.0,-836.0,-256.0,-2.0,528.0,-574.0,-33.0
19:40:51.999000,-518.0,-619.0,-100.0,-857.0,-195.0,-14.0,528.0,-574.0,-33.0
19:40:52.003000,-582.0,-605.0,-123.0,-828.0,-151.0,-9.0,528.0,-574.0,-33.0
19:40:52.008000,-639.0,-630.0,-128.0,-807.0,-133.0,-4.0,525.0,-573.0,-25.0
19:40:52.013000,-689.0,-637.0,-132.0,-789.0,-128.0,12.0,525.0,-573.0,-25.0
19:40:52.018000,-761.0,-658.0,-137.0,-773.0,-124.0,31.0,529.0,-568.0,-58.0
19:40:52.022000,-819.0,-672.0,-139.0,-760.0,-116.0,44.0,529.0,-568.0,-58.0
19:40:52.026000,-887.0,-690.0,-133.0,-770.0,-99.0,71.0,529.0,-568.0,-58.0
19:40:52.032000,-956.0,-706.0,-132.0,-802.0,-63.0,98.0,534.0,-559.0,-51.0
19:40:52.036000,-1027.0,-725.0,-142.0,-825.0,-32.0,133.0,534.0,-559.0,-51.0
19:40:52.041000,-1101.0,-744.0,-144.0,-825.0,-32.0,133.0,526.0,-550.0,-66.0
19:40:52.046000,-1178.0,-766.0,-138.0,-854.0,-49.0,208.0,526.0,-550.0,-66.0
19:40:52.053000,-1255.0,-787.0,-132.0,-844.0,-69.0,238.0,516.0,-546.0,-60.0
19:40:52.055000,-1323.0,-805.0,-147.0,-844.0,-69.0,238.0,516.0,-546.0,-60.0
19:40:52.059000,-1383.0,-813.0,-182.0,-815.0,-80.0,256.0,516.0,-546.0,-60.0
19:40:52.065000,-1444.0,-833.0,-189.0,-861.0,-88.0,275.0,510.0,-547.0,-78.0
19:40:52.069000,-1514.0,-849.0,-91.0,-974.0,-136.0,304.0,510.0,-547.0,-78.0
19:40:52.074000,-1567.0,-833.0,-114.0,-986.0,-135.0,313.0,513.0,-532.0,-85.0
19:40:52.079000,-1589.0,-854.0,-137.0,-964.0,-88.0,337.0,513.0,-532.0,-85.0
19:40:52.083000,-1589.0,-854.0,-137.0,-1000.0,-103.0,384.0,513.0,-532.0,-85.0
19:40:52.088000,-1647.0,-868.0,-225.0,-1016.0,-124.0,425.0,511.0,-516.0,-85.0
19:40:52.093000,-1663.0,-848.0,-289.0,-1017.0,-103.0,458.0,511.0,-516.0,-85.0
19:40:52.097000,-1663.0,-848.0,-289.0,-995.0,-133.0,486.0,487.0,-508.0,-87.0
19:40:52.102000,-1689.0,-822.0,-388.0,-924.0,-257.0,505.0,487.0,-508.0,-87.0
19:40:52.106000,-1710.0,-802.0,-453.0,-845.0,-372.0,504.0,487.0,-508.0,-87.0
19:40:52.112000,-1739.0,-783.0,-473.0,-824.0,-405.0,489.0,501.0,-502.0,-106.0
19:40:52.116000,-1755.0,-772.0,-478.0,-867.0,-314.0,484.0,501.0,-502.0,-106.0
19:40:52.121000,-1792.0,-777.0,-499.0,-909.0,-159.0,509.0,501.0,-492.0,-114.0
19:40:52.126000,-1840.0,-794.0,-540.0,-895.0,-80.0,528.0,501.0,-492.0,-114.0
19:40:52.130000,-1881.0,-823.0,-567.0,-837.0,-113.0,539.0,501.0,-492.0,-114.0
19:40:52.134000,-1933.0,-857.0,-558.0,-775.0,-159.0,557.0,484.0,-471.0,-96.0
19:40:52.140000,-1985.0,-890.0,-581.0,-728.0,-150.0,575.0,484.0,-471.0,-96.0
19:40:52.144000,-2032.0,-928.0,-626.0,-728.0,-150.0,575.0,484.0,-471.0,-96.0
19:40:52.149000,-2091.0,-966.0,-662.0,-705.0,-3.0,629.0,484.0,-471.0,-96.0
19:40:52.153000,-2164.0,-1012.0,-694.0,-727.0,87.0,672.0,484.0,-471.0,-96.0
19:40:52.159000,-2248.0,-1064.0,-714.0,-727.0,87.0,672.0,480.0,-430.0,-124.0
19:40:52.163000,-2339.0,-1115.0,-722.0,-756.0,143.0,711.0,480.0,-430.0,-124.0
19:40:52.168000,-2424.0,-1180.0,-737.0,-793.0,159.0,759.0,483.0,-418.0,-141.0
19:40:52.173000,-2506.0,-1239.0,-744.0,-798.0,120.0,803.0,483.0,-418.0,-141.0
19:40:52.180000,-2585.0,-1290.0,-751.0,-742.0,49.0,869.0,469.0,-391.0,-133.0
19:40:52.182000,-2664.0,-1334.0,-753.0,-742.0,49.0,869.0,469.0,-391.0,-133.0
19:40:52.186000,-2745.0,-1374.0,-777.0,-759.0,74.0,905.0,469.0,-391.0,-133.0
19:40:52.191000,-2821.0,-1411.0,-835.0,-842.0,142.0,941.0,459.0,-388.0,-145.0
19:40:52.196000,-2896.0,-1428.0,-867.0,-910.0,203.0,966.0,459.0,-388.0,-145.0
19:40:52.201000,-2977.0,-1439.0,-847.0,-925.0,182.0,991.0,448.0,-357.0,-145.0
19:40:52.206000,-2977.0,-1439.0,-847.0,-936.0,133.0,1016.0,448.0,-357.0,-145.0
19:40:52.210000,-3048.0,-1442.0,-823.0,-955.0,103.0,1037.0,448.0,-357.0,-145.0
19:40:52.215000,-3111.0,-1437.0,-826.0,-961.0,97.0,1065.0,418.0,-315.0,-124.0
19:40:52.220000,-3169.0,-1428.0,-853.0,-941.0,101.0,1085.0,418.0,-315.0,-124.0
19:40:52.224000,-3217.0,-1415.0,-886.0,-910.0,78.0,1088.0,418.0,-315.0,-124.0
19:40:52.229000,-3240.0,-1393.0,-919.0,-881.0,49.0,1111.0,418.0,-315.0,-124.0
19:40:52.233000,-3265.0,-1372.0,-935.0,-806.0,82.0,1121.0,418.0,-315.0,-124.0
19:40:52.238000,-3275.0,-1351.0,-894.0,-703.0,136.0,1156.0,418.0,-274.0,-130.0
19:40:52.243000,-3313.0,-1328.0,-864.0,-492.0,48.0,1203.0,418.0,-274.0,-130.0
19:40:52.248000,-3346.0,-1233.0,-830.0,-737.0,167.0,1252.0,400.0,-256.0,-132.0
19:40:52.253000,-3422.0,-1261.0,-975.0,-1218.0,382.0,1240.0,400.0,-256.0,-132.0
19:40:52.257000,-3448.0,-1268.0,-1052.0,-1174.0,289.0,1182.0,400.0,-256.0,-132.0
19:40:52.262000,-3475.0,-1262.0,-945.0,-986.0,94.0,1157.0,388.0,-223.0,-123.0
19:40:52.267000,-3452.0,-1229.0,-819.0,-986.0,94.0,1157.0,388.0,-223.0,-123.0
19:40:52.271000,-3430.0,-1190.0,-716.0,-854.0,-33.0,1119.0,379.0,-211.0,-112.0
19:40:52.276000,-3410.0,-1166.0,-651.0,-771.0,-23.0,1123.0,379.0,-211.0,-112.0
19:40:52.280000,-3379.0,-1129.0,-646.0,-728.0,43.0,1118.0,379.0,-211.0,-112.0
19:40:52.285000,-3350.0,-1087.0,-639.0,-704.0,91.0,1103.0,370.0,-187.0,-102.0
19:40:52.290000,-3308.0,-1053.0,-605.0,-686.0,113.0,1093.0,370.0,-187.0,-102.0
19:40:52.295000,-3259.0,-1013.0,-566.0,-688.0,121.0,1075.0,358.0,-162.0,-85.0
19:40:52.300000,-3209.0,-972.0,-520.0,-707.0,124.0,1058.0,358.0,-162.0,-85.0
19:40:52.304000,-3209.0,-972.0,-520.0,-735.0,132.0,1045.0,358.0,-162.0,-85.0
19:40:52.309000,-3105.0,-885.0,-436.0,-748.0,147.0,1029.0,346.0,-132.0,-63.0
19:40:52.314000,-3105.0,-885.0,-436.0,-729.0,141.0,1003.0,346.0,-132.0,-63.0
19:40:52.318000,-3049.0,-833.0,-369.0,-712.0,121.0,976.0,336.0,-108.0,-52.0
19:40:52.323000,-2988.0,-773.0,-297.0,-717.0,116.0,946.0,336.0,-108.0,-52.0
19:40:52.327000,-2922.0,-710.0,-232.0,-718.0,117.0,918.0,336.0,-108.0,-52.0
19:40:52.332000,-2862.0,-648.0,-176.0,-705.0,134.0,890.0,330.0,-100.0,-43.0
19:40:52.337000,-2797.0,-586.0,-133.0,-678.0,156.0,852.0,330.0,-100.0,-43.0
19:40:52.341000,-2722.0,-515.0,-70.0,-661.0,172.0,819.0,327.0,-85.0,-24.0
19:40:52.347000,-2656.0,-450.0,2.0,-660.0,200.0,793.0,327.0,-85.0,-24.0
