hh:mm:ss.ms,gyroX[mdps],gyroY[mdps],gyroZ[mdps],accX[mg],accY[mg],accZ[mg],magX[mG],magY[mG],magZ[mG]
19:43:51.368000,-9.0,-242.0,-371.0,-1440.0,294.0,-417.0,0.0,0.0,0.0
19:43:51.373000,-46.0,-259.0,-450.0,-1516.0,225.0,-373.0,0.0,0.0,0.0
19:43:51.378000,-86.0,-268.0,-452.0,-1516.0,225.0,-373.0,0.0,0.0,0.0
19:43:51.382000,-121.0,-270.0,-413.0,-1413.0,254.0,-297.0,0.0,0.0,0.0
19:43:51.387000,-247.0,-255.0,-351.0,-1413.0,254.0,-297.0,0.0,0.0,0.0
19:43:51.392000,-295.0,-231.0,-175.0,-1413.0,138.0,-265.0,0.0,0.0,0.0
19:43:51.397000,-274.0,-217.0,-220.0,-1249.0,138.0,-256.0,0.0,0.0,0.0
19:43:51.401000,-177.0,-207.0,-289.0,-1249.0,138.0,-256.0,0.0,0.0,0.0
19:43:51.406000,-247.0,-219.0,-230.0,-1232.0,-228.0,-235.0,0.0,0.0,0.0
19:43:51.411000,-333.0,-211.0,-167.0,-1232.0,-228.0,-235.0,0.0,0.0,0.0
19:43:51.415000,-360.0,-171.0,226.0,-1132.0,-479.0,-185.0,0.0,0.0,0.0
19:43:51.420000,-350.0,-173.0,445.0,-1132.0,-479.0,-185.0,0.0,0.0,0.0
19:43:51.425000,-422.0,-147.0,396.0,-812.0,-687.0,-139.0,0.0,0.0,0.0
19:43:51.429000,-422.0,-184.0,219.0,-812.0,-687.0,-139.0,0.0,0.0,0.0
19:43:51.434000,-373.0,-226.0,155.0,-640.0,-910.0,-131.0,0.0,0.0,0.0
19:43:51.439000,-373.0,-226.0,155.0,-640.0,-910.0,-131.0,0.0,0.0,0.0
19:43:51.444000,-308.0,-238.0,219.0,-565.0,-1073.0,-161.0,0.0,0.0,0.0
19:43:51.448000,-223.0,-217.0,30.0,-565.0,-1073.0,-161.0,0.0,0.0,0.0
19:43:51.453000,-142.0,-250.0,-61.0,-536.0,-1237.0,-170.0,0.0,0.0,0.0
19:43:51.458000,-66.0,-289.0,-21.0,-536.0,-1237.0,-170.0,0.0,0.0,0.0
19:43:51.462000,-2.0,-340.0,-220.0,-582.0,-1112.0,-146.0,0.0,0.0,0.0
19:43:51.467000,24.0,-350.0,-436.0,-582.0,-1112.0,-146.0,0.0,0.0,0.0
19:43:51.472000,-88.0,-279.0,-556.0,-555.0,-635.0,-157.0,0.0,0.0,0.0
19:43:51.476000,-157.0,-270.0,-767.0,-555.0,-635.0,-157.0,0.0,0.0,0.0
19:43:51.481000,-200.0,-258.0,-725.0,-694.0,-539.0,-190.0,0.0,0.0,0.0
19:43:51.486000,-91.0,-286.0,-583.0,-694.0,-539.0,-190.0,0.0,0.0,0.0
19:43:51.491000,-48.0,-300.0,-594.0,-880.0,-822.0,-217.0,0.0,0.0,0.0
19:43:51.495000,-37.0,-280.0,-451.0,-880.0,-822.0,-217.0,0.0,0.0,0.0
19:43:51.500000,-98.0,-295.0,-676.0,-913.0,-530.0,-214.0,0.0,0.0,0.0
19:43:51.505000,-203.0,-276.0,-730.0,-913.0,-530.0,-214.0,0.0,0.0,0.0
19:43:51.509000,-282.0,-247.0,-375.0,-913.0,-530.0,-214.0,0.0,0.0,0.0
19:43:51.514000,-322.0,-282.0,-186.0,-775.0,-245.0,-212.0,0.0,0.0,0.0
19:43:51.519000,-280.0,-310.0,-165.0,-775.0,-245.0,-212.0,0.0,0.0,0.0
19:43:51.523000,-207.0,-345.0,-121.0,-737.0,-516.0,-237.0,0.0,0.0,0.0
19:43:51.528000,-158.0,-367.0,-80.0,-737.0,-516.0,-237.0,0.0,0.0,0.0
19:43:51.533000,-170.0,-319.0,-171.0,-872.0,-680.0,-244.0,0.0,0.0,0.0
19:43:51.538000,-287.0,-325.0,-121.0,-872.0,-680.0,-244.0,0.0,0.0,0.0
19:43:51.542000,-196.0,-315.0,217.0,-852.0,-666.0,-215.0,0.0,0.0,0.0
19:43:51.547000,-143.0,-333.0,220.0,-852.0,-666.0,-215.0,0.0,0.0,0.0
19:43:51.552000,-143.0,-333.0,220.0,-825.0,-652.0,-215.0,0.0,0.0,0.0
19:43:51.556000,-116.0,-336.0,-5.0,-825.0,-652.0,-215.0,0.0,0.0,0.0
19:43:51.561000,-105.0,-393.0,-121.0,-700.0,-469.0,-215.0,0.0,0.0,0.0
19:43:51.566000,-196.0,-368.0,-66.0,-700.0,-469.0,-215.0,0.0,0.0,0.0
19:43:51.570000,-201.0,-327.0,25.0,-678.0,-542.0,-210.0,0.0,0.0,0.0
19:43:51.575000,-147.0,-304.0,-32.0,-678.0,-542.0,-210.0,0.0,0.0,0.0
19:43:51.580000,-64.0,-353.0,-1.0,-892.0,-876.0,-212.0,0.0,0.0,0.0
19:43:51.585000,37.0,-353.0,-67.0,-892.0,-876.0,-212.0,0.0,0.0,0.0
19:43:51.589000,-16.0,-343.0,-177.0,-908.0,-765.0,-175.0,0.0,0.0,0.0
19:43:51.594000,-15.0,-310.0,-49.0,-908.0,-765.0,-175.0,0.0,0.0,0.0
19:43:51.599000,-11.0,-306.0,47.0,-825.0,-573.0,-152.0,0.0,0.0,0.0
19:43:51.603000,-4.0,-329.0,-95.0,-825.0,-573.0,-152.0,0.0,0.0,0.0
19:43:51.608000,-28.0,-291.0,-164.0,-802.0,-619.0,-155.0,0.0,0.0,0.0
19:43:51.613000,-86.0,-254.0,-28.0,-802.0,-619.0,-155.0,0.0,0.0,0.0
19:43:51.617000,-16.0,-266.0,-7.0,-802.0,-619.0,-155.0,0.0,0.0,0.0
19:43:51.622000,78.0,-231.0,-9.0,-872.0,-646.0,-141.0,0.0,0.0,0.0
19:43:51.627000,97.0,-219.0,-60.0,-872.0,-646.0,-141.0,0.0,0.0,0.0
19:43:51.632000,34.0,-191.0,25.0,-1036.0,-630.0,-88.0,0.0,0.0,0.0
19:43:51.636000,64.0,-197.0,118.0,-1036.0,-630.0,-88.0,0.0,0.0,0.0
19:43:51.641000,-40.0,-155.0,-21.0,-975.0,-558.0,-52.0,0.0,0.0,0.0
19:43:51.646000,-21.0,-106.0,-135.0,-975.0,-558.0,-52.0,0.0,0.0,0.0
19:43:51.650000,45.0,-145.0,-84.0,-836.0,-563.0,-63.0,0.0,0.0,0.0
19:43:51.655000,28.0,-148.0,-179.0,-836.0,-563.0,-63.0,0.0,0.0,0.0
19:43:51.660000,28.0,-148.0,-179.0,-886.0,-619.0,-55.0,0.0,0.0,0.0
19:43:51.664000,56.0,-154.0,-210.0,-886.0,-619.0,-55.0,0.0,0.0,0.0
19:43:51.669000,-32.0,-128.0,-89.0,-849.0,-553.0,-30.0,0.0,0.0,0.0
19:43:51.674000,-51.0,-95.0,-3.0,-849.0,-553.0,-30.0,0.0,0.0,0.0
19:43:51.679000,-19.0,-63.0,-101.0,-879.0,-504.0,-29.0,0.0,0.0,0.0
19:43:51.683000,30.0,-59.0,-269.0,-879.0,-504.0,-29.0,0.0,0.0,0.0
19:43:51.688000,42.0,-46.0,-317.0,-959.0,-552.0,-26.0,0.0,0.0,0.0
19:43:51.693000,79.0,-67.0,-201.0,-959.0,-552.0,-26.0,0.0,0.0,0.0
19:43:51.697000,15.0,-58.0,-151.0,-911.0,-503.0,-19.0,0.0,0.0,0.0
19:43:51.702000,-24.0,-52.0,-265.0,-911.0,-503.0,-19.0,0.0,0.0,0.0
19:43:51.707000,-29.0,-48.0,-302.0,-840.0,-432.0,-25.0,0.0,0.0,0.0
19:43:51.711000,-31.0,-18.0,-198.0,-840.0,-432.0,-25.0,0.0,0.0,0.0
19:43:51.716000,2.0,-32.0,-54.0,-798.0,-538.0,-36.0,0.0,0.0,0.0
19:43:51.721000,68.0,-46.0,-49.0,-798.0,-538.0,-36.0,0.0,0.0,0.0
19:43:51.726000,53.0,-23.0,-129.0,-798.0,-538.0,-36.0,0.0,0.0,0.0
19:43:51.730000,2.0,-15.0,-266.0,-904.0,-512.0,-42.0,0.0,0.0,0.0
19:43:51.735000,-33.0,-13.0,-263.0,-904.0,-512.0,-42.0,0.0,0.0,0.0
19:43:51.740000,-70.0,1.0,-170.0,-975.0,-425.0,-37.0,0.0,0.0,0.0
19:43:51.744000,-66.0,-11.0,-175.0,-975.0,-425.0,-37.0,0.0,0.0,0.0
19:43:51.749000,-59.0,-6.0,-102.0,-910.0,-465.0,-46.0,0.0,0.0,0.0
19:43:51.754000,-55.0,-14.0,-87.0,-910.0,-465.0,-46.0,0.0,0.0,0.0
19:43:51.758000,-63.0,-35.0,-93.0,-826.0,-405.0,-59.0,0.0,0.0,0.0
19:43:51.763000,-93.0,-16.0,-91.0,-826.0,-405.0,-59.0,0.0,0.0,0.0
19:43:51.768000,-93.0,-16.0,-91.0,-802.0,-410.0,-67.0,0.0,0.0,0.0
19:43:51.773000,-86.0,-7.0,23.0,-802.0,-410.0,-67.0,0.0,0.0,0.0
19:43:51.777000,-73.0,-16.0,124.0,-848.0,-514.0,-82.0,0.0,0.0,0.0
19:43:51.781000,-14.0,-46.0,126.0,-848.0,-514.0,-82.0,0.0,0.0,0.0
19:43:51.787000,-2.0,-73.0,-35.0,-883.0,-424.0,-85.0,0.0,0.0,0.0
19:43:51.791000,-32.0,-74.0,-300.0,-883.0,-424.0,-85.0,0.0,0.0,0.0
19:43:51.796000,-112.0,-85.0,-424.0,-806.0,-396.0,-79.0,0.0,0.0,0.0
19:43:51.801000,-168.0,-60.0,-378.0,-806.0,-396.0,-79.0,0.0,0.0,0.0
19:43:51.805000,-165.0,-56.0,-312.0,-804.0,-565.0,-84.0,0.0,0.0,0.0
19:43:51.810000,-139.0,-74.0,-246.0,-804.0,-565.0,-84.0,0.0,0.0,0.0
19:43:51.815000,-92.0,-76.0,-105.0,-886.0,-579.0,-96.0,0.0,0.0,0.0
19:43:51.820000,-108.0,-93.0,-55.0,-886.0,-579.0,-96.0,0.0,0.0,0.0
19:43:51.824000,-110.0,-96.0,-178.0,-846.0,-491.0,-106.0,0.0,0.0,0.0
19:43:51.829000,-70.0,-116.0,-318.0,-846.0,-491.0,-106.0,0.0,0.0,0.0
19:43:51.834000,-64.0,-132.0,-417.0,-846.0,-491.0,-106.0,0.0,0.0,0.0
19:43:51.838000,-79.0,-151.0,-387.0,-842.0,-474.0,-108.0,0.0,0.0,0.0
19:43:51.843000,-100.0,-157.0,-287.0,-842.0,-474.0,-108.0,0.0,0.0,0.0
19:43:51.848000,-73.0,-143.0,-234.0,-822.0,-486.0,-102.0,0.0,0.0,0.0
19:43:51.852000,-84.0,-143.0,-255.0,-822.0,-486.0,-102.0,0.0,0.0,0.0
19:43:51.857000,-96.0,-144.0,-303.0,-861.0,-476.0,-91.0,0.0,0.0,0.0
19:43:51.862000,-88.0,-141.0,-389.0,-861.0,-476.0,-91.0,0.0,0.0,0.0
19:43:51.867000,-71.0,-137.0,-515.0,-979.0,-432.0,-79.0,0.0,0.0,0.0
19:43:51.871000,-105.0,-120.0,-543.0,-979.0,-432.0,-79.0,0.0,0.0,0.0
19:43:51.876000,-109.0,-120.0,-364.0,-972.0,-435.0,-70.0,0.0,0.0,0.0
19:43:51.881000,-109.0,-103.0,-537.0,-972.0,-435.0,-70.0,0.0,0.0,0.0
19:43:51.885000,-102.0,-100.0,-548.0,-924.0,-425.0,-53.0,0.0,0.0,0.0
19:43:51.890000,-139.0,-88.0,-502.0,-924.0,-425.0,-53.0,0.0,0.0,0.0
19:43:51.895000,-130.0,-84.0,-360.0,-907.0,-453.0,-47.0,0.0,0.0,0.0
19:43:51.899000,-138.0,-72.0,-293.0,-907.0,-453.0,-47.0,0.0,0.0,0.0
19:43:51.904000,-112.0,-59.0,-358.0,-963.0,-474.0,-51.0,0.0,0.0,0.0
19:43:51.909000,-79.0,-60.0,-424.0,-963.0,-474.0,-51.0,0.0,0.0,0.0
19:43:51.914000,-78.0,-58.0,-420.0,-1025.0,-451.0,-44.0,0.0,0.0,0.0
19:43:51.918000,-63.0,-48.0,-443.0,-1025.0,-451.0,-44.0,0.0,0.0,0.0
19:43:51.923000,-43.0,-35.0,-451.0,-971.0,-481.0,-44.0,0.0,0.0,0.0
19:43:51.928000,-15.0,-30.0,-373.0,-971.0,-481.0,-44.0,0.0,0.0,0.0
19:43:51.932000,-5.0,-25.0,-280.0,-924.0,-416.0,-49.0,0.0,0.0,0.0
19:43:51.937000,-4.0,-15.0,-267.0,-924.0,-416.0,-49.0,0.0,0.0,0.0
19:43:51.942000,-24.0,-9.0,-332.0,-924.0,-416.0,-49.0,0.0,0.0,0.0
19:43:51.946000,-18.0,-10.0,-392.0,-955.0,-353.0,-42.0,0.0,0.0,0.0
19:43:51.951000,-3.0,-11.0,-402.0,-955.0,-353.0,-42.0,0.0,0.0,0.0
19:43:51.956000,9.0,0.0,-357.0,-945.0,-397.0,-48.0,0.0,0.0,0.0
19:43:51.961000,2.0,8.0,-373.0,-945.0,-397.0,-48.0,0.0,0.0,0.0
19:43:51.965000,-17.0,16.0,-384.0,-912.0,-390.0,-53.0,0.0,0.0,0.0
19:43:51.970000,-4.0,23.0,-389.0,-912.0,-390.0,-53.0,0.0,0.0,0.0
19:43:51.975000,28.0,31.0,-429.0,-977.0,-341.0,-55.0,0.0,0.0,0.0
19:43:51.979000,21.0,30.0,-442.0,-977.0,-341.0,-55.0,0.0,0.0,0.0
19:43:51.984000,15.0,28.0,-445.0,-1034.0,-356.0,-53.0,0.0,0.0,0.0
19:43:51.989000,15.0,28.0,-445.0,-1034.0,-356.0,-53.0,0.0,0.0,0.0
19:43:51.993000,3.0,43.0,-429.0,-977.0,-371.0,-44.0,0.0,0.0,0.0
19:43:51.998000,14.0,48.0,-423.0,-977.0,-371.0,-44.0,0.0,0.0,0.0
19:43:52.003000,1.0,48.0,-432.0,-943.0,-368.0,-39.0,0.0,0.0,0.0
19:43:52.008000,11.0,44.0,-455.0,-943.0,-368.0,-39.0,0.0,0.0,0.0
19:43:52.012000,39.0,48.0,-478.0,-970.0,-397.0,-46.0,0.0,0.0,0.0
19:43:52.017000,53.0,53.0,-452.0,-970.0,-397.0,-46.0,0.0,0.0,0.0
19:43:52.022000,95.0,53.0,-394.0,-990.0,-391.0,-50.0,0.0,0.0,0.0
19:43:52.026000,105.0,61.0,-391.0,-990.0,-391.0,-50.0,0.0,0.0,0.0
19:43:52.031000,81.0,79.0,-373.0,-1009.0,-311.0,-30.0,0.0,0.0,0.0
19:43:52.036000,68.0,87.0,-333.0,-1009.0,-311.0,-30.0,0.0,0.0,0.0
19:43:52.040000,69.0,90.0,-329.0,-989.0,-269.0,-14.0,0.0,0.0,0.0
19:43:52.045000,81.0,91.0,-367.0,-989.0,-269.0,-14.0,0.0,0.0,0.0
19:43:52.050000,102.0,92.0,-394.0,-989.0,-269.0,-14.0,0.0,0.0,0.0
19:43:52.055000,100.0,95.0,-418.0,-934.0,-294.0,-7.0,0.0,0.0,0.0
19:43:52.059000,102.0,98.0,-424.0,-934.0,-294.0,-7.0,0.0,0.0,0.0
19:43:52.064000,109.0,104.0,-430.0,-910.0,-320.0,4.0,0.0,0.0,0.0
19:43:52.069000,112.0,116.0,-410.0,-910.0,-320.0,4.0,0.0,0.0,0.0
19:43:52.073000,102.0,126.0,-364.0,-944.0,-307.0,4.0,0.0,0.0,0.0
19:43:52.078000,81.0,133.0,-333.0,-944.0,-307.0,4.0,0.0,0.0,0.0
19:43:52.083000,58.0,140.0,-337.0,-980.0,-249.0,-1.0,0.0,0.0,0.0
19:43:52.087000,43.0,142.0,-367.0,-980.0,-249.0,-1.0,0.0,0.0,0.0
19:43:52.092000,39.0,149.0,-393.0,-984.0,-221.0,-7.0,0.0,0.0,0.0
19:43:52.097000,39.0,149.0,-393.0,-984.0,-221.0,-7.0,0.0,0.0,0.0
19:43:52.102000,39.0,154.0,-392.0,-976.0,-216.0,-17.0,0.0,0.0,0.0
19:43:52.106000,26.0,160.0,-375.0,-976.0,-216.0,-17.0,0.0,0.0,0.0
19:43:52.111000,12.0,165.0,-359.0,-961.0,-201.0,-23.0,0.0,0.0,0.0
19:43:52.116000,0.0,172.0,-387.0,-961.0,-201.0,-23.0,0.0,0.0,0.0
19:43:52.120000,-10.0,177.0,-416.0,-955.0,-194.0,-29.0,0.0,0.0,0.0
19:43:52.125000,-21.0,182.0,-429.0,-955.0,-194.0,-29.0,0.0,0.0,0.0
19:43:52.130000,-38.0,191.0,-427.0,-974.0,-188.0,-41.0,0.0,0.0,0.0
19:43:52.134000,-56.0,198.0,-431.0,-974.0,-188.0,-41.0,0.0,0.0,0.0
19:43:52.139000,-64.0,198.0,-402.0,-1001.0,-208.0,-58.0,0.0,0.0,0.0
19:43:52.144000,-68.0,195.0,-354.0,-1001.0,-208.0,-58.0,0.0,0.0,0.0
19:43:52.149000,-65.0,187.0,-333.0,-1011.0,-229.0,-76.0,0.0,0.0,0.0
19:43:52.153000,-58.0,182.0,-341.0,-1011.0,-229.0,-76.0,0.0,0.0,0.0
19:43:52.158000,-49.0,179.0,-331.0,-1011.0,-229.0,-76.0,0.0,0.0,0.0
19:43:52.163000,-35.0,168.0,-326.0,-989.0,-230.0,-91.0,0.0,0.0,0.0
19:43:52.167000,-30.0,161.0,-348.0,-989.0,-230.0,-91.0,0.0,0.0,0.0
19:43:52.172000,-31.0,156.0,-366.0,-965.0,-213.0,-100.0,0.0,0.0,0.0
19:43:52.177000,-30.0,149.0,-359.0,-965.0,-213.0,-100.0,0.0,0.0,0.0
19:43:52.181000,-24.0,144.0,-364.0,-967.0,-216.0,-108.0,0.0,0.0,0.0
19:43:52.186000,-18.0,138.0,-382.0,-967.0,-216.0,-108.0,0.0,0.0,0.0
19:43:52.191000,-12.0,129.0,-375.0,-976.0,-249.0,-122.0,0.0,0.0,0.0
19:43:52.196000,0.0,119.0,-375.0,-976.0,-249.0,-122.0,0.0,0.0,0.0
19:43:52.200000,11.0,108.0,-382.0,-984.0,-248.0,-132.0,0.0,0.0,0.0
19:43:52.205000,11.0,108.0,-382.0,-984.0,-248.0,-132.0,0.0,0.0,0.0
19:43:52.210000,8.0,106.0,-406.0,-988.0,-222.0,-135.0,0.0,0.0,0.0
19:43:52.214000,-3.0,106.0,-433.0,-988.0,-222.0,-135.0,0.0,0.0,0.0
19:43:52.219000,-11.0,102.0,-440.0,-963.0,-171.0,-133.0,0.0,0.0,0.0
19:43:52.224000,-26.0,99.0,-440.0,-963.0,-171.0,-133.0,0.0,0.0,0.0
19:43:52.228000,-37.0,99.0,-425.0,-928.0,-125.0,-131.0,0.0,0.0,0.0
19:43:52.233000,-51.0,98.0,-422.0,-928.0,-125.0,-131.0,0.0,0.0,0.0
19:43:52.238000,-61.0,93.0,-420.0,-935.0,-126.0,-133.0,0.0,0.0,0.0
19:43:52.243000,-66.0,91.0,-412.0,-935.0,-126.0,-133.0,0.0,0.0,0.0
19:43:52.247000,-69.0,86.0,-413.0,-965.0,-147.0,-139.0,0.0,0.0,0.0
19:43:52.252000,-72.0,84.0,-415.0,-965.0,-147.0,-139.0,0.0,0.0,0.0
19:43:52.256000,-73.0,83.0,-425.0,-968.0,-156.0,-144.0,0.0,0.0,0.0
19:43:52.261000,-70.0,83.0,-415.0,-968.0,-156.0,-144.0,0.0,0.0,0.0
19:43:52.266000,-65.0,84.0,-399.0,-968.0,-152.0,-142.0,0.0,0.0,0.0
19:43:52.271000,-60.0,81.0,-400.0,-965.0,-152.0,-142.0,0.0,0.0,0.0
19:43:52.275000,-55.0,79.0,-405.0,-965.0,-152.0,-142.0,0.0,0.0,0.0
19:43:52.280000,-44.0,72.0,-378.0,-973.0,-144.0,-139.0,0.0,0.0,0.0
19:43:52.285000,-30.0,66.0,-337.0,-973.0,-144.0,-139.0,0.0,0.0,0.0
19:43:52.290000,-14.0,63.0,-315.0,-951.0,-143.0,-142.0,0.0,0.0,0.0
19:43:52.294000,-13.0,63.0,-293.0,-951.0,-143.0,-142.0,0.0,0.0,0.0
19:43:52.299000,-24.0,60.0,-284.0,-938.0,-117.0,-143.0,0.0,0.0,0.0
19:43:52.304000,-36.0,59.0,-319.0,-938.0,-117.0,-143.0,0.0,0.0,0.0
19:43:52.308000,-42.0,58.0,-340.0,-946.0,-50.0,-143.0,0.0,0.0,0.0
19:43:52.313000,-47.0,59.0,-317.0,-946.0,-50.0,-143.0,0.0,0.0,0.0
19:43:52.318000,-47.0,59.0,-317.0,-937.0,-45.0,-152.0,0.0,0.0,0.0
19:43:52.322000,-41.0,62.0,-305.0,-937.0,-45.0,-152.0,0.0,0.0,0.0
19:43:52.327000,-36.0,63.0,-312.0,-953.0,-84.0,-158.0,0.0,0.0,0.0
19:43:52.332000,-46.0,65.0,-290.0,-953.0,-84.0,-158.0,0.0,0.0,0.0
19:43:52.337000,-48.0,72.0,-256.0,-1005.0,-90.0,-160.0,0.0,0.0,0.0
19:43:52.341000,-56.0,82.0,-247.0,-1005.0,-90.0,-160.0,0.0,0.0,0.0
19:43:52.346000,-62.0,91.0,-240.0,-1040.0,-74.0,-165.0,0.0,0.0,0.0
19:43:52.351000,-65.0,95.0,-224.0,-1040.0,-74.0,-165.0,0.0,0.0,0.0
19:43:52.355000,-68.0,102.0,-221.0,-1007.0,-60.0,-170.0,0.0,0.0,0.0
19:43:52.360000,-69.0,107.0,-215.0,-1007.0,-60.0,-170.0,0.0,0.0,0.0
19:43:52.365000,-63.0,108.0,-229.0,-946.0,-85.0,-177.0,0.0,0.0,0.0
19:43:52.369000,-47.0,110.0,-259.0,-946.0,-85.0,-177.0,0.0,0.0,0.0
19:43:52.374000,-30.0,109.0,-266.0,-903.0,-94.0,-183.0,0.0,0.0,0.0
19:43:52.379000,-27.0,109.0,-250.0,-903.0,-94.0,-183.0,0.0,0.0,0.0
19:43:52.384000,-24.0,113.0,-240.0,-903.0,-94.0,-183.0,0.0,0.0,0.0
19:43:52.388000,-18.0,112.0,-241.0,-892.0,-76.0,-183.0,0.0,0.0,0.0
19:43:52.393000,-9.0,109.0,-242.0,-892.0,-76.0,-183.0,0.0,0.0,0.0
19:43:52.398000,8.0,105.0,-236.0,-909.0,-91.0,-184.0,0.0,0.0,0.0
19:43:52.402000,28.0,102.0,-235.0,-909.0,-91.0,-184.0,0.0,0.0,0.0
19:43:52.407000,44.0,97.0,-240.0,-911.0,-115.0,-187.0,0.0,0.0,0.0
19:43:52.412000,62.0,90.0,-238.0,-911.0,-115.0,-187.0,0.0,0.0,0.0
19:43:52.416000,77.0,84.0,-235.0,-897.0,-100.0,-187.0,0.0,0.0,0.0
19:43:52.421000,88.0,80.0,-236.0,-897.0,-100.0,-187.0,0.0,0.0,0.0
19:43:52.426000,88.0,80.0,-236.0,-888.0,-60.0,-187.0,0.0,0.0,0.0
19:43:52.431000,96.0,78.0,-231.0,-888.0,-60.0,-187.0,0.0,0.0,0.0
19:43:52.435000,101.0,79.0,-200.0,-907.0,-44.0,-189.0,0.0,0.0,0.0
19:43:52.440000,103.0,77.0,-167.0,-907.0,-44.0,-189.0,0.0,0.0,0.0
19:43:52.445000,105.0,73.0,-164.0,-959.0,-52.0,-191.0,0.0,0.0,0.0
19:43:52.449000,105.0,70.0,-182.0,-959.0,-52.0,-191.0,0.0,0.0,0.0
19:43:52.454000,103.0,70.0,-195.0,-978.0,-47.0,-186.0,0.0,0.0,0.0
19:43:52.459000,103.0,66.0,-196.0,-978.0,-47.0,-186.0,0.0,0.0,0.0
19:43:52.463000,112.0,68.0,-204.0,-954.0,-46.0,-179.0,0.0,0.0,0.0
19:43:52.468000,125.0,67.0,-216.0,-954.0,-46.0,-179.0,0.0,0.0,0.0
19:43:52.473000,137.0,63.0,-236.0,-948.0,-52.0,-172.0,0.0,0.0,0.0
19:43:52.478000,146.0,55.0,-266.0,-948.0,-52.0,-172.0,0.0,0.0,0.0
19:43:52.482000,151.0,49.0,-291.0,-946.0,-51.0,-165.0,0.0,0.0,0.0
19:43:52.487000,151.0,51.0,-304.0,-946.0,-51.0,-165.0,0.0,0.0,0.0
19:43:52.492000,151.0,49.0,-306.0,-946.0,-44.0,-159.0,0.0,0.0,0.0
19:43:52.496000,151.0,43.0,-305.0,-946.0,-44.0,-159.0,0.0,0.0,0.0
19:43:52.501000,153.0,35.0,-306.0,-946.0,-44.0,-159.0,0.0,0.0,0.0
19:43:52.506000,156.0,30.0,-319.0,-956.0,-41.0,-153.0,0.0,0.0,0.0
19:43:52.510000,158.0,29.0,-345.0,-956.0,-41.0,-153.0,0.0,0.0,0.0
19:43:52.515000,161.0,28.0,-371.0,-959.0,-20.0,-152.0,0.0,0.0,0.0
19:43:52.520000,160.0,24.0,-382.0,-959.0,-20.0,-152.0,0.0,0.0,0.0
19:43:52.525000,159.0,22.0,-383.0,-964.0,3.0,-152.0,0.0,0.0,0.0
19:43:52.529000,160.0,16.0,-381.0,-964.0,3.0,-152.0,0.0,0.0,0.0
19:43:52.534000,160.0,16.0,-381.0,-986.0,2.0,-150.0,0.0,0.0,0.0
19:43:52.539000,156.0,12.0,-387.0,-986.0,2.0,-150.0,0.0,0.0,0.0
19:43:52.543000,149.0,7.0,-403.0,-1009.0,3.0,-150.0,0.0,0.0,0.0
19:43:52.548000,147.0,4.0,-421.0,-1009.0,3.0,-150.0,0.0,0.0,0.0
19:43:52.553000,151.0,1.0,-433.0,-1005.0,1.0,-150.0,0.0,0.0,0.0
19:43:52.557000,158.0,-2.0,-434.0,-1005.0,1.0,-150.0,0.0,0.0,0.0
19:43:52.562000,166.0,-7.0,-436.0,-1003.0,-9.0,-149.0,0.0,0.0,0.0
19:43:52.567000,165.0,-9.0,-450.0,-1003.0,-9.0,-149.0,0.0,0.0,0.0
19:43:52.572000,163.0,-12.0,-475.0,-1027.0,-9.0,-148.0,0.0,0.0,0.0
19:43:52.576000,167.0,-17.0,-490.0,-1027.0,-9.0,-148.0,0.0,0.0,0.0
19:43:52.581000,170.0,-17.0,-496.0,-1024.0,-9.0,-149.0,0.0,0.0,0.0
19:43:52.586000,176.0,-21.0,-499.0,-1024.0,-9.0,-149.0,0.0,0.0,0.0
19:43:52.590000,174.0,-23.0,-498.0,-982.0,-1.0,-147.0,0.0,0.0,0.0
19:43:52.595000,174.0,-21.0,-496.0,-982.0,-1.0,-147.0,0.0,0.0,0.0
19:43:52.600000,177.0,-21.0,-492.0,-982.0,-1.0,-147.0,0.0,0.0,0.0
19:43:52.604000,182.0,-18.0,-500.0,-941.0,14.0,-144.0,0.0,0.0,0.0
19:43:52.609000,187.0,-17.0,-513.0,-941.0,14.0,-144.0,0.0,0.0,0.0
19:43:52.614000,182.0,-10.0,-511.0,-917.0,34.0,-146.0,0.0,0.0,0.0
19:43:52.619000,169.0,-5.0,-494.0,-917.0,34.0,-146.0,0.0,0.0,0.0
19:43:52.623000,158.0,-2.0,-475.0,-887.0,79.0,-146.0,0.0,0.0,0.0
19:43:52.628000,149.0,2.0,-466.0,-887.0,79.0,-146.0,0.0,0.0,0.0
19:43:52.633000,140.0,9.0,-474.0,-872.0,137.0,-147.0,0.0,0.0,0.0
19:43:52.637000,135.0,14.0,-472.0,-872.0,137.0,-147.0,0.0,0.0,0.0
19:43:52.642000,135.0,14.0,-472.0,-883.0,177.0,-153.0,0.0,0.0,0.0
19:43:52.647000,129.0,18.0,-457.0,-883.0,177.0,-153.0,0.0,0.0,0.0
19:43:52.651000,121.0,18.0,-449.0,-920.0,194.0,-155.0,0.0,0.0,0.0
19:43:52.656000,107.0,16.0,-443.0,-920.0,194.0,-155.0,0.0,0.0,0.0
19:43:52.661000,89.0,11.0,-425.0,-982.0,208.0,-147.0,0.0,0.0,0.0
19:43:52.666000,74.0,4.0,-413.0,-982.0,208.0,-147.0,0.0,0.0,0.0
19:43:52.670000,68.0,-5.0,-417.0,-1045.0,210.0,-143.0,0.0,0.0,0.0
19:43:52.675000,66.0,-14.0,-427.0,-1045.0,210.0,-143.0,0.0,0.0,0.0
19:43:52.680000,68.0,-18.0,-427.0,-1060.0,195.0,-145.0,0.0,0.0,0.0
19:43:52.684000,76.0,-27.0,-409.0,-1060.0,195.0,-145.0,0.0,0.0,0.0
19:43:52.689000,82.0,-35.0,-378.0,-1009.0,187.0,-147.0,0.0,0.0,0.0
19:43:52.694000,81.0,-34.0,-347.0,-1009.0,187.0,-147.0,0.0,0.0,0.0
19:43:52.698000,84.0,-32.0,-330.0,-992.0,209.0,-154.0,0.0,0.0,0.0
19:43:52.703000,93.0,-37.0,-343.0,-992.0,209.0,-154.0,0.0,0.0,0.0
19:43:52.708000,105.0,-39.0,-377.0,-992.0,209.0,-154.0,0.0,0.0,0.0
19:43:52.713000,103.0,-35.0,-384.0,-1034.0,237.0,-160.0,0.0,0.0,0.0
19:43:52.717000,106.0,-37.0,-347.0,-1034.0,237.0,-160.0,0.0,0.0,0.0
19:43:52.722000,119.0,-28.0,-285.0,-999.0,257.0,-162.0,0.0,0.0,0.0
19:43:52.727000,114.0,-18.0,-257.0,-999.0,257.0,-162.0,0.0,0.0,0.0
19:43:52.731000,109.0,-17.0,-277.0,-924.0,315.0,-156.0,0.0,0.0,0.0
19:43:52.735000,106.0,-7.0,-297.0,-924.0,315.0,-156.0,0.0,0.0,0.0
19:43:52.741000,93.0,10.0,-304.0,-899.0,404.0,-158.0,0.0,0.0,0.0
19:43:52.745000,79.0,30.0,-312.0,-899.0,404.0,-158.0,0.0,0.0,0.0
19:43:52.750000,62.0,49.0,-336.0,-936.0,454.0,-178.0,0.0,0.0,0.0
19:43:52.755000,62.0,49.0,-336.0,-936.0,454.0,-178.0,0.0,0.0,0.0
19:43:52.760000,52.0,64.0,-319.0,-1007.0,446.0,-198.0,0.0,0.0,0.0
19:43:52.764000,44.0,75.0,-277.0,-1007.0,446.0,-198.0,0.0,0.0,0.0
19:43:52.769000,24.0,88.0,-260.0,-1073.0,441.0,-209.0,0.0,0.0,0.0
19:43:52.774000,17.0,92.0,-277.0,-1073.0,441.0,-209.0,0.0,0.0,0.0
19:43:52.778000,9.0,93.0,-267.0,-1107.0,451.0,-209.0,0.0,0.0,0.0
19:43:52.783000,-8.0,91.0,-218.0,-1107.0,451.0,-209.0,0.0,0.0,0.0
19:43:52.788000,-18.0,86.0,-153.0,-1091.0,428.0,-205.0,0.0,0.0,0.0
19:43:52.792000,-25.0,86.0,-101.0,-1091.0,428.0,-205.0,0.0,0.0,0.0
19:43:52.797000,-18.0,74.0,-53.0,-1067.0,376.0,-202.0,0.0,0.0,0.0
19:43:52.802000,-19.0,61.0,-4.0,-1067.0,376.0,-202.0,0.0,0.0,0.0
19:43:52.807000,-18.0,40.0,25.0,-1047.0,341.0,-198.0,0.0,0.0,0.0
19:43:52.811000,-8.0,23.0,49.0,-1047.0,341.0,-198.0,0.0,0.0,0.0
19:43:52.816000,-4.0,15.0,95.0,-1047.0,341.0,-198.0,0.0,0.0,0.0
19:43:52.821000,8.0,2.0,135.0,-1010.0,300.0,-192.0,0.0,0.0,0.0
19:43:52.825000,24.0,-4.0,145.0,-1010.0,300.0,-192.0,0.0,0.0,0.0
19:43:52.830000,32.0,-5.0,144.0,-988.0,258.0,-192.0,0.0,0.0,0.0
19:43:52.835000,42.0,-9.0,173.0,-988.0,258.0,-192.0,0.0,0.0,0.0
19:43:52.839000,49.0,-11.0,198.0,-992.0,237.0,-193.0,0.0,0.0,0.0
19:43:52.844000,51.0,-14.0,201.0,-992.0,237.0,-193.0,0.0,0.0,0.0
19:43:52.849000,55.0,-26.0,197.0,-1002.0,225.0,-186.0,0.0,0.0,0.0
19:43:52.854000,59.0,-36.0,196.0,-1002.0,225.0,-186.0,0.0,0.0,0.0
19:43:52.858000,57.0,-46.0,184.0,-1014.0,225.0,-172.0,0.0,0.0,0.0
19:43:52.863000,57.0,-46.0,184.0,-1014.0,225.0,-172.0,0.0,0.0,0.0
19:43:52.868000,54.0,-65.0,186.0,-978.0,224.0,-151.0,0.0,0.0,0.0
19:43:52.872000,51.0,-85.0,198.0,-978.0,224.0,-151.0,0.0,0.0,0.0
19:43:52.877000,46.0,-102.0,200.0,-916.0,224.0,-130.0,0.0,0.0,0.0
19:43:52.882000,37.0,-118.0,203.0,-916.0,224.0,-130.0,0.0,0.0,0.0
19:43:52.886000,23.0,-127.0,219.0,-885.0,229.0,-122.0,0.0,0.0,0.0
19:43:52.891000,9.0,-130.0,240.0,-885.0,229.0,-122.0,0.0,0.0,0.0
19:43:52.896000,-7.0,-129.0,245.0,-882.0,214.0,-122.0,0.0,0.0,0.0
19:43:52.901000,-21.0,-125.0,247.0,-882.0,214.0,-122.0,0.0,0.0,0.0
19:43:52.905000,-35.0,-117.0,255.0,-872.0,162.0,-127.0,0.0,0.0,0.0
19:43:52.910000,-41.0,-105.0,254.0,-872.0,162.0,-127.0,0.0,0.0,0.0
19:43:52.915000,-46.0,-91.0,228.0,-865.0,120.0,-136.0,0.0,0.0,0.0
19:43:52.919000,-51.0,-78.0,188.0,-865.0,120.0,-136.0,0.0,0.0,0.0
19:43:52.924000,-54.0,-65.0,160.0,-865.0,120.0,-136.0,0.0,0.0,0.0
19:43:52.929000,-56.0,-48.0,144.0,-861.0,108.0,-142.0,0.0,0.0,0.0
19:43:52.933000,-58.0,-32.0,129.0,-861.0,108.0,-142.0,0.0,0.0,0.0
19:43:52.938000,-57.0,-17.0,112.0,-846.0,98.0,-145.0,0.0,0.0,0.0
19:43:52.943000,-53.0,-6.0,105.0,-846.0,98.0,-145.0,0.0,0.0,0.0
19:43:52.947000,-51.0,4.0,116.0,-820.0,84.0,-145.0,0.0,0.0,0.0
19:43:52.952000,-45.0,12.0,138.0,-820.0,84.0,-145.0,0.0,0.0,0.0
19:43:52.957000,-39.0,20.0,158.0,-763.0,68.0,-143.0,0.0,0.0,0.0
19:43:52.962000,-32.0,28.0,166.0,-763.0,68.0,-143.0,0.0,0.0,0.0
19:43:52.966000,-31.0,35.0,172.0,-696.0,75.0,-144.0,0.0,0.0,0.0
19:43:52.971000,-31.0,35.0,172.0,-696.0,75.0,-144.0,0.0,0.0,0.0
19:43:52.976000,-32.0,41.0,177.0,-632.0,91.0,-148.0,0.0,0.0,0.0
19:43:52.980000,-35.0,46.0,179.0,-632.0,91.0,-148.0,0.0,0.0,0.0
19:43:52.985000,-35.0,49.0,186.0,-569.0,83.0,-152.0,0.0,0.0,0.0
19:43:52.990000,-34.0,48.0,183.0,-569.0,83.0,-152.0,0.0,0.0,0.0
19:43:52.994000,-34.0,42.0,173.0,-534.0,74.0,-155.0,0.0,0.0,0.0
19:43:52.999000,-35.0,37.0,158.0,-534.0,74.0,-155.0,0.0,0.0,0.0
19:43:53.004000,-35.0,28.0,144.0,-529.0,88.0,-155.0,0.0,0.0,0.0
19:43:53.009000,-37.0,18.0,127.0,-529.0,88.0,-155.0,0.0,0.0,0.0
19:43:53.013000,-40.0,5.0,111.0,-538.0,103.0,-150.0,0.0,0.0,0.0
19:43:53.018000,-43.0,-7.0,102.0,-538.0,103.0,-150.0,0.0,0.0,0.0
19:43:53.023000,-46.0,-16.0,105.0,-542.0,93.0,-142.0,0.0,0.0,0.0
19:43:53.027000,-46.0,-24.0,112.0,-542.0,93.0,-142.0,0.0,0.0,0.0
19:43:53.032000,-49.0,-30.0,118.0,-542.0,80.0,-142.0,0.0,0.0,0.0
19:43:53.037000,-53.0,-39.0,121.0,-539.0,80.0,-138.0,0.0,0.0,0.0
19:43:53.041000,-58.0,-46.0,126.0,-537.0,84.0,-131.0,0.0,0.0,0.0
19:43:53.046000,-63.0,-53.0,126.0,-537.0,84.0,-131.0,0.0,0.0,0.0
19:43:53.051000,-68.0,-60.0,129.0,-537.0,84.0,-131.0,0.0,0.0,0.0
19:43:53.056000,-72.0,-65.0,138.0,-530.0,80.0,-124.0,0.0,0.0,0.0
19:43:53.060000,-73.0,-68.0,153.0,-530.0,80.0,-124.0,0.0,0.0,0.0
19:43:53.065000,-71.0,-70.0,167.0,-520.0,54.0,-123.0,0.0,0.0,0.0
19:43:53.070000,-70.0,-70.0,172.0,-520.0,54.0,-123.0,0.0,0.0,0.0
19:43:53.074000,-69.0,-74.0,174.0,-536.0,43.0,-126.0,0.0,0.0,0.0
19:43:53.079000,-69.0,-74.0,174.0,-536.0,43.0,-126.0,0.0,0.0,0.0
19:43:53.084000,-66.0,-78.0,178.0,-570.0,45.0,-126.0,0.0,0.0,0.0
19:43:53.088000,-58.0,-82.0,190.0,-570.0,45.0,-126.0,0.0,0.0,0.0
19:43:53.093000,-45.0,-84.0,203.0,-584.0,24.0,-124.0,0.0,0.0,0.0
19:43:53.098000,-29.0,-88.0,214.0,-584.0,24.0,-124.0,0.0,0.0,0.0
19:43:53.103000,-14.0,-91.0,225.0,-594.0,3.0,-122.0,0.0,0.0,0.0
19:43:53.107000,-2.0,-93.0,241.0,-594.0,3.0,-122.0,0.0,0.0,0.0
19:43:53.112000,7.0,-97.0,261.0,-601.0,-2.0,-113.0,0.0,0.0,0.0
19:43:53.117000,13.0,-99.0,285.0,-601.0,-2.0,-113.0,0.0,0.0,0.0
19:43:53.121000,16.0,-101.0,304.0,-601.0,-5.0,-101.0,0.0,0.0,0.0
19:43:53.126000,14.0,-102.0,318.0,-601.0,-5.0,-101.0,0.0,0.0,0.0
19:43:53.131000,11.0,-102.0,332.0,-602.0,-6.0,-91.0,0.0,0.0,0.0
19:43:53.135000,9.0,-100.0,343.0,-602.0,-6.0,-91.0,0.0,0.0,0.0
19:43:53.140000,8.0,-95.0,341.0,-600.0,-8.0,-86.0,0.0,0.0,0.0
19:43:53.145000,7.0,-88.0,324.0,-600.0,-8.0,-86.0,0.0,0.0,0.0
19:43:53.150000,7.0,-83.0,296.0,-600.0,-8.0,-86.0,0.0,0.0,0.0
19:43:53.154000,8.0,-81.0,265.0,-604.0,4.0,-83.0,0.0,0.0,0.0
19:43:53.159000,10.0,-80.0,235.0,-604.0,4.0,-83.0,0.0,0.0,0.0
19:43:53.164000,16.0,-79.0,210.0,-599.0,15.0,-78.0,0.0,0.0,0.0
19:43:53.168000,22.0,-77.0,189.0,-599.0,15.0,-78.0,0.0,0.0,0.0
19:43:53.173000,27.0,-74.0,176.0,-582.0,12.0,-80.0,0.0,0.0,0.0
19:43:53.178000,28.0,-70.0,173.0,-582.0,12.0,-80.0,0.0,0.0,0.0
19:43:53.182000,26.0,-63.0,184.0,-577.0,21.0,-85.0,0.0,0.0,0.0
19:43:53.187000,24.0,-57.0,203.0,-577.0,21.0,-85.0,0.0,0.0,0.0
19:43:53.192000,24.0,-57.0,203.0,-594.0,39.0,-90.0,0.0,0.0,0.0
19:43:53.197000,21.0,-52.0,223.0,-594.0,39.0,-90.0,0.0,0.0,0.0
19:43:53.201000,18.0,-49.0,245.0,-626.0,45.0,-93.0,0.0,0.0,0.0
19:43:53.206000,18.0,-46.0,267.0,-626.0,45.0,-93.0,0.0,0.0,0.0
19:43:53.211000,20.0,-42.0,287.0,-643.0,29.0,-95.0,0.0,0.0,0.0
19:43:53.215000,23.0,-39.0,303.0,-643.0,29.0,-95.0,0.0,0.0,0.0
19:43:53.220000,26.0,-37.0,310.0,-645.0,18.0,-93.0,0.0,0.0,0.0
19:43:53.225000,24.0,-34.0,311.0,-645.0,18.0,-93.0,0.0,0.0,0.0
19:43:53.229000,18.0,-31.0,308.0,-656.0,34.0,-86.0,0.0,0.0,0.0
19:43:53.234000,11.0,-27.0,304.0,-656.0,34.0,-86.0,0.0,0.0,0.0
19:43:53.239000,2.0,-25.0,297.0,-671.0,47.0,-81.0,0.0,0.0,0.0
19:43:53.244000,-7.0,-21.0,286.0,-671.0,47.0,-81.0,0.0,0.0,0.0
19:43:53.248000,-16.0,-17.0,274.0,-688.0,53.0,-78.0,0.0,0.0,0.0
19:43:53.253000,-25.0,-11.0,258.0,-688.0,53.0,-78.0,0.0,0.0,0.0
19:43:53.258000,-35.0,-4.0,242.0,-688.0,53.0,-78.0,0.0,0.0,0.0
19:43:53.262000,-46.0,2.0,228.0,-708.0,67.0,-81.0,0.0,0.0,0.0
19:43:53.267000,-55.0,9.0,219.0,-708.0,67.0,-81.0,0.0,0.0,0.0
19:43:53.272000,-62.0,17.0,216.0,-727.0,75.0,-86.0,0.0,0.0,0.0
19:43:53.276000,-64.0,23.0,212.0,-727.0,75.0,-86.0,0.0,0.0,0.0
19:43:53.281000,-63.0,27.0,204.0,-737.0,63.0,-94.0,0.0,0.0,0.0
19:43:53.286000,-60.0,29.0,194.0,-737.0,63.0,-94.0,0.0,0.0,0.0
19:43:53.291000,-59.0,30.0,186.0,-742.0,58.0,-102.0,0.0,0.0,0.0
19:43:53.295000,-60.0,30.0,179.0,-742.0,58.0,-102.0,0.0,0.0,0.0
19:43:53.300000,-60.0,30.0,179.0,-749.0,71.0,-109.0,0.0,0.0,0.0
19:43:53.305000,-63.0,28.0,174.0,-749.0,71.0,-109.0,0.0,0.0,0.0
19:43:53.309000,-70.0,26.0,164.0,-782.0,101.0,-119.0,0.0,0.0,0.0
19:43:53.314000,-84.0,23.0,147.0,-782.0,101.0,-119.0,0.0,0.0,0.0
19:43:53.319000,-104.0,18.0,135.0,-847.0,142.0,-128.0,0.0,0.0,0.0
19:43:53.323000,-128.0,11.0,130.0,-847.0,142.0,-128.0,0.0,0.0,0.0
19:43:53.328000,-153.0,2.0,127.0,-879.0,150.0,-135.0,0.0,0.0,0.0
19:43:53.333000,-178.0,-3.0,123.0,-879.0,150.0,-135.0,0.0,0.0,0.0
19:43:53.338000,-200.0,-3.0,122.0,-875.0,127.0,-147.0,0.0,0.0,0.0
19:43:53.342000,-216.0,0.0,119.0,-875.0,127.0,-147.0,0.0,0.0,0.0
19:43:53.347000,-224.0,4.0,111.0,-915.0,97.0,-167.0,0.0,0.0,0.0
19:43:53.352000,-226.0,4.0,101.0,-915.0,97.0,-167.0,0.0,0.0,0.0
19:43:53.356000,-224.0,0.0,95.0,-988.0,63.0,-182.0,0.0,0.0,0.0
19:43:53.361000,-219.0,-6.0,98.0,-988.0,63.0,-182.0,0.0,0.0,0.0
19:43:53.366000,-212.0,-11.0,105.0,-988.0,63.0,-182.0,0.0,0.0,0.0
19:43:53.370000,-208.0,-21.0,112.0,-998.0,44.0,-187.0,0.0,0.0,0.0
19:43:53.375000,-207.0,-33.0,117.0,-998.0,44.0,-187.0,0.0,0.0,0.0
19:43:53.380000,-210.0,-47.0,121.0,-948.0,67.0,-182.0,0.0,0.0,0.0
19:43:53.385000,-214.0,-64.0,129.0,-948.0,67.0,-182.0,0.0,0.0,0.0
19:43:53.389000,-219.0,-81.0,140.0,-906.0,105.0,-171.0,0.0,0.0,0.0
19:43:53.394000,-223.0,-99.0,149.0,-906.0,105.0,-171.0,0.0,0.0,0.0
19:43:53.399000,-226.0,-118.0,155.0,-898.0,128.0,-168.0,0.0,0.0,0.0
19:43:53.403000,-229.0,-135.0,158.0,-898.0,128.0,-168.0,0.0,0.0,0.0
19:43:53.408000,-229.0,-135.0,158.0,-924.0,148.0,-171.0,0.0,0.0,0.0
19:43:53.413000,-233.0,-147.0,162.0,-924.0,148.0,-171.0,0.0,0.0,0.0
19:43:53.417000,-238.0,-157.0,168.0,-952.0,164.0,-171.0,0.0,0.0,0.0
19:43:53.422000,-242.0,-166.0,166.0,-952.0,164.0,-171.0,0.0,0.0,0.0
19:43:53.427000,-253.0,-175.0,156.0,-953.0,185.0,-166.0,0.0,0.0,0.0
19:43:53.432000,-263.0,-184.0,134.0,-953.0,185.0,-166.0,0.0,0.0,0.0
19:43:53.436000,-268.0,-191.0,112.0,-927.0,211.0,-159.0,0.0,0.0,0.0
19:43:53.441000,-273.0,-198.0,95.0,-927.0,211.0,-159.0,0.0,0.0,0.0
19:43:53.446000,-275.0,-205.0,63.0,-911.0,239.0,-155.0,0.0,0.0,0.0
19:43:53.450000,-274.0,-208.0,23.0,-911.0,239.0,-155.0,0.0,0.0,0.0
19:43:53.455000,-273.0,-212.0,-10.0,-920.0,270.0,-145.0,0.0,0.0,0.0
19:43:53.460000,-278.0,-212.0,-32.0,-920.0,270.0,-145.0,0.0,0.0,0.0
19:43:53.464000,-288.0,-210.0,-46.0,-915.0,295.0,-135.0,0.0,0.0,0.0
19:43:53.469000,-301.0,-204.0,-52.0,-915.0,295.0,-135.0,0.0,0.0,0.0
19:43:53.474000,-313.0,-189.0,-58.0,-915.0,295.0,-135.0,0.0,0.0,0.0
19:43:53.479000,-333.0,-177.0,-68.0,-910.0,319.0,-139.0,0.0,0.0,0.0
19:43:53.483000,-348.0,-160.0,-65.0,-910.0,319.0,-139.0,0.0,0.0,0.0
19:43:53.488000,-357.0,-160.0,-76.0,-930.0,333.0,-147.0,0.0,0.0,0.0
19:43:53.493000,-355.0,-154.0,-86.0,-930.0,333.0,-147.0,0.0,0.0,0.0
19:43:53.497000,-348.0,-149.0,-98.0,-960.0,326.0,-148.0,0.0,0.0,0.0
19:43:53.502000,-338.0,-144.0,-114.0,-960.0,326.0,-148.0,0.0,0.0,0.0
19:43:53.507000,-294.0,-133.0,-128.0,-969.0,335.0,-151.0,0.0,0.0,0.0
19:43:53.511000,-292.0,-144.0,-88.0,-969.0,335.0,-151.0,0.0,0.0,0.0
19:43:53.516000,-292.0,-144.0,-88.0,-943.0,320.0,-144.0,0.0,0.0,0.0
19:43:53.521000,-266.0,-129.0,-11.0,-943.0,320.0,-144.0,0.0,0.0,0.0
19:43:53.526000,-232.0,-111.0,-53.0,-1048.0,377.0,-147.0,0.0,0.0,0.0
19:43:53.530000,-245.0,-111.0,-270.0,-1048.0,377.0,-147.0,0.0,0.0,0.0
19:43:53.535000,-259.0,-116.0,-331.0,-1199.0,417.0,-160.0,0.0,0.0,0.0
19:43:53.540000,-242.0,-82.0,228.0,-1199.0,417.0,-160.0,0.0,0.0,0.0
19:43:53.544000,-235.0,-66.0,366.0,-1041.0,473.0,-165.0,0.0,0.0,0.0
19:43:53.549000,-228.0,-57.0,136.0,-1041.0,473.0,-165.0,0.0,0.0,0.0
19:43:53.554000,-213.0,-60.0,-9.0,-970.0,549.0,-158.0,0.0,0.0,0.0
19:43:53.558000,-200.0,-49.0,116.0,-970.0,549.0,-158.0,0.0,0.0,0.0
19:43:53.563000,-193.0,-48.0,256.0,-1127.0,437.0,-157.0,0.0,0.0,0.0
19:43:53.568000,-165.0,-37.0,308.0,-1127.0,437.0,-157.0,0.0,0.0,0.0
19:43:53.573000,-126.0,-25.0,290.0,-1220.0,377.0,-181.0,0.0,0.0,0.0
19:43:53.577000,-104.0,-11.0,253.0,-1220.0,377.0,-181.0,0.0,0.0,0.0
19:43:53.582000,-93.0,0.0,217.0,-1220.0,377.0,-181.0,0.0,0.0,0.0
19:43:53.587000,-88.0,9.0,237.0,-1238.0,423.0,-204.0,0.0,0.0,0.0
19:43:53.591000,-82.0,18.0,277.0,-1218.0,427.0,-209.0,0.0,0.0,0.0
19:43:53.596000,-82.0,32.0,277.0,-1218.0,427.0,-209.0,0.0,0.0,0.0
19:43:53.601000,-92.0,41.0,245.0,-1218.0,427.0,-209.0,0.0,0.0,0.0
19:43:53.605000,-108.0,54.0,231.0,-1264.0,409.0,-207.0,0.0,0.0,0.0
19:43:53.610000,-125.0,60.0,226.0,-1264.0,409.0,-207.0,0.0,0.0,0.0
19:43:53.615000,-135.0,60.0,250.0,-1269.0,355.0,-199.0,0.0,0.0,0.0
19:43:53.620000,-142.0,61.0,274.0,-1269.0,355.0,-199.0,0.0,0.0,0.0
19:43:53.624000,-159.0,65.0,260.0,-1205.0,263.0,-192.0,0.0,0.0,0.0
19:43:53.629000,-159.0,65.0,260.0,-1205.0,263.0,-192.0,0.0,0.0,0.0
19:43:53.634000,-172.0,62.0,213.0,-1162.0,192.0,-175.0,0.0,0.0,0.0
19:43:53.638000,-189.0,58.0,210.0,-1162.0,192.0,-175.0,0.0,0.0,0.0
19:43:53.643000,-209.0,51.0,244.0,-1113.0,75.0,-145.0,0.0,0.0,0.0
19:43:53.648000,-232.0,38.0,268.0,-1113.0,75.0,-145.0,0.0,0.0,0.0
19:43:53.652000,-240.0,23.0,262.0,-1019.0,-51.0,-119.0,0.0,0.0,0.0
19:43:53.657000,-249.0,11.0,252.0,-1019.0,-51.0,-119.0,0.0,0.0,0.0
19:43:53.662000,-287.0,-1.0,268.0,-889.0,-167.0,-89.0,0.0,0.0,0.0
19:43:53.667000,-286.0,-28.0,281.0,-889.0,-167.0,-89.0,0.0,0.0,0.0
19:43:53.671000,-273.0,-51.0,249.0,-800.0,-268.0,-69.0,0.0,0.0,0.0
19:43:53.676000,-266.0,-70.0,206.0,-800.0,-268.0,-69.0,0.0,0.0,0.0
19:43:53.681000,-263.0,-86.0,186.0,-825.0,-318.0,-63.0,0.0,0.0,0.0
19:43:53.685000,-261.0,-106.0,158.0,-825.0,-318.0,-63.0,0.0,0.0,0.0
19:43:53.690000,-256.0,-122.0,102.0,-825.0,-318.0,-63.0,0.0,0.0,0.0
19:43:53.695000,-258.0,-149.0,16.0,-931.0,-305.0,-63.0,0.0,0.0,0.0
19:43:53.699000,-248.0,-169.0,-47.0,-931.0,-305.0,-63.0,0.0,0.0,0.0
19:43:53.704000,-247.0,-190.0,-83.0,-1051.0,-246.0,-77.0,0.0,0.0,0.0
19:43:53.708000,-245.0,-213.0,-160.0,-1121.0,-194.0,-95.0,0.0,0.0,0.0
19:43:53.714000,-247.0,-230.0,-234.0,-1121.0,-194.0,-95.0,0.0,0.0,0.0
19:43:53.718000,-251.0,-242.0,-296.0,-1121.0,-194.0,-95.0,0.0,0.0,0.0
19:43:53.723000,-257.0,-254.0,-324.0,-1170.0,-126.0,-108.0,0.0,0.0,0.0
19:43:53.728000,-311.0,-263.0,-360.0,-1170.0,-126.0,-108.0,0.0,0.0,0.0
19:43:53.732000,-324.0,-259.0,-425.0,-1246.0,-45.0,-109.0,0.0,0.0,0.0
19:43:53.737000,-324.0,-259.0,-425.0,-1246.0,-45.0,-109.0,0.0,0.0,0.0
19:43:53.742000,-345.0,-254.0,-477.0,-1336.0,20.0,-111.0,0.0,0.0,0.0
19:43:53.747000,-400.0,-246.0,-516.0,-1336.0,20.0,-111.0,0.0,0.0,0.0
19:43:53.751000,-485.0,-238.0,-567.0,-1435.0,59.0,-104.0,0.0,0.0,0.0
19:43:53.756000,-581.0,-213.0,-606.0,-1435.0,59.0,-104.0,0.0,0.0,0.0
19:43:53.761000,-511.0,-199.0,-678.0,-1501.0,94.0,-113.0,0.0,0.0,0.0
19:43:53.765000,-602.0,-200.0,-707.0,-1501.0,94.0,-113.0,0.0,0.0,0.0
19:43:53.770000,-674.0,-197.0,-668.0,-1531.0,114.0,-99.0,0.0,0.0,0.0
19:43:53.775000,-743.0,-217.0,-604.0,-1531.0,114.0,-99.0,0.0,0.0,0.0
19:43:53.779000,-793.0,-232.0,-531.0,-1502.0,169.0,-64.0,0.0,0.0,0.0
19:43:53.784000,-862.0,-234.0,-487.0,-1502.0,169.0,-64.0,0.0,0.0,0.0
19:43:53.789000,-960.0,-218.0,-452.0,-1369.0,171.0,-70.0,0.0,0.0,0.0
19:43:53.793000,-1062.0,-202.0,-369.0,-1369.0,171.0,-70.0,0.0,0.0,0.0
19:43:53.798000,-1005.0,-191.0,-396.0,-1369.0,171.0,-70.0,0.0,0.0,0.0
19:43:53.803000,-991.0,-203.0,-563.0,-1232.0,71.0,-99.0,0.0,0.0,0.0
19:43:53.808000,-1125.0,-232.0,-606.0,-1232.0,71.0,-99.0,0.0,0.0,0.0
19:43:53.812000,-1124.0,-261.0,-556.0,-1201.0,32.0,-82.0,0.0,0.0,0.0
19:43:53.817000,-1144.0,-302.0,-497.0,-1201.0,32.0,-82.0,0.0,0.0,0.0
19:43:53.822000,-1184.0,-340.0,-507.0,-1258.0,-2.0,-20.0,0.0,0.0,0.0
19:43:53.826000,-1199.0,-377.0,-560.0,-1258.0,-2.0,-20.0,0.0,0.0,0.0
19:43:53.831000,-1213.0,-412.0,-610.0,-1209.0,-28.0,0.0,0.0,0.0,0.0
19:43:53.836000,-1220.0,-427.0,-624.0,-1209.0,-28.0,0.0,0.0,0.0,0.0
19:43:53.840000,-1229.0,-441.0,-640.0,-1002.0,73.0,10.0,0.0,0.0,0.0
19:43:53.845000,-1229.0,-441.0,-640.0,-1002.0,73.0,10.0,0.0,0.0,0.0
19:43:53.850000,-1275.0,-457.0,-622.0,-904.0,100.0,33.0,0.0,0.0,0.0
19:43:53.855000,-1274.0,-462.0,-553.0,-904.0,100.0,33.0,0.0,0.0,0.0
19:43:53.859000,-1261.0,-465.0,-530.0,-994.0,72.0,8.0,0.0,0.0,0.0
19:43:53.864000,-1269.0,-484.0,-604.0,-994.0,72.0,8.0,0.0,0.0,0.0
19:43:53.869000,-1297.0,-513.0,-701.0,-1028.0,134.0,-28.0,0.0,0.0,0.0
19:43:53.873000,-1323.0,-548.0,-742.0,-1028.0,134.0,-28.0,0.0,0.0,0.0
19:43:53.878000,-1360.0,-580.0,-790.0,-944.0,73.0,-54.0,0.0,0.0,0.0
19:43:53.883000,-1378.0,-611.0,-810.0,-944.0,73.0,-54.0,0.0,0.0,0.0
19:43:53.887000,-1391.0,-684.0,-807.0,-980.0,102.0,3.0,0.0,0.0,0.0
19:43:53.892000,-1497.0,-756.0,-684.0,-980.0,102.0,3.0,0.0,0.0,0.0
19:43:53.897000,-1573.0,-817.0,-570.0,-1022.0,192.0,143.0,0.0,0.0,0.0
19:43:53.902000,-1608.0,-886.0,-529.0,-1022.0,192.0,143.0,0.0,0.0,0.0
19:43:53.906000,-1670.0,-943.0,-533.0,-1022.0,165.0,229.0,0.0,0.0,0.0
19:43:53.911000,-1725.0,-994.0,-504.0,-993.0,165.0,229.0,0.0,0.0,0.0
19:43:53.916000,-1765.0,-1029.0,-473.0,-993.0,165.0,229.0,0.0,0.0,0.0
19:43:53.920000,-1818.0,-1061.0,-469.0,-1047.0,165.0,266.0,0.0,0.0,0.0
19:43:53.925000,-1873.0,-1071.0,-479.0,-1047.0,165.0,266.0,0.0,0.0,0.0
19:43:53.930000,-1936.0,-1071.0,-520.0,-1078.0,166.0,275.0,0.0,0.0,0.0
19:43:53.934000,-2023.0,-1056.0,-550.0,-1078.0,166.0,275.0,0.0,0.0,0.0
19:43:53.939000,-2087.0,-1038.0,-520.0,-1080.0,193.0,272.0,0.0,0.0,0.0
19:43:53.944000,-2160.0,-1027.0,-503.0,-1080.0,193.0,272.0,0.0,0.0,0.0
19:43:53.949000,-2265.0,-1007.0,-494.0,-1140.0,262.0,305.0,0.0,0.0,0.0
19:43:53.953000,-2322.0,-987.0,-513.0,-1140.0,262.0,305.0,0.0,0.0,0.0
19:43:53.958000,-2322.0,-987.0,-513.0,-1201.0,275.0,360.0,0.0,0.0,0.0
19:43:53.963000,-2422.0,-956.0,-526.0,-1201.0,275.0,360.0,0.0,0.0,0.0
19:43:53.967000,-2409.0,-919.0,-596.0,-1202.0,268.0,350.0,0.0,0.0,0.0
19:43:53.972000,-2452.0,-888.0,-733.0,-1202.0,268.0,350.0,0.0,0.0,0.0
19:43:53.977000,-2487.0,-872.0,-795.0,-1155.0,186.0,343.0,0.0,0.0,0.0
19:43:53.981000,-2491.0,-864.0,-803.0,-1155.0,186.0,343.0,0.0,0.0,0.0
19:43:53.986000,-2484.0,-851.0,-805.0,-1088.0,39.0,359.0,0.0,0.0,0.0
19:43:53.991000,-2447.0,-842.0,-782.0,-1088.0,39.0,359.0,0.0,0.0,0.0
19:43:53.996000,-2395.0,-837.0,-745.0,-1063.0,43.0,371.0,0.0,0.0,0.0
19:43:54.000000,-2365.0,-837.0,-716.0,-1063.0,43.0,371.0,0.0,0.0,0.0
19:43:54.005000,-2342.0,-837.0,-730.0,-1071.0,90.0,385.0,0.0,0.0,0.0
19:43:54.010000,-2301.0,-840.0,-781.0,-1071.0,90.0,385.0,0.0,0.0,0.0
19:43:54.014000,-2260.0,-846.0,-799.0,-1044.0,102.0,379.0,0.0,0.0,0.0
19:43:54.019000,-2232.0,-855.0,-776.0,-1044.0,102.0,379.0,0.0,0.0,0.0
19:43:54.024000,-2193.0,-854.0,-773.0,-1044.0,102.0,379.0,0.0,0.0,0.0
19:43:54.028000,-2158.0,-856.0,-782.0,-1008.0,152.0,372.0,0.0,0.0,0.0
19:43:54.033000,-2125.0,-851.0,-770.0,-1008.0,152.0,372.0,0.0,0.0,0.0
19:43:54.038000,-2109.0,-843.0,-742.0,-1027.0,226.0,370.0,0.0,0.0,0.0
19:43:54.043000,-2083.0,-835.0,-715.0,-1027.0,226.0,370.0,0.0,0.0,0.0
19:43:54.047000,-2055.0,-815.0,-701.0,-1088.0,279.0,396.0,0.0,0.0,0.0
19:43:54.052000,-2034.0,-788.0,-683.0,-1088.0,279.0,396.0,0.0,0.0,0.0
19:43:54.057000,-2004.0,-766.0,-664.0,-1138.0,289.0,427.0,0.0,0.0,0.0
19:43:54.061000,-1989.0,-751.0,-676.0,-1138.0,289.0,427.0,0.0,0.0,0.0
19:43:54.066000,-1989.0,-751.0,-676.0,-1129.0,270.0,433.0,0.0,0.0,0.0
19:43:54.071000,-1962.0,-730.0,-715.0,-1129.0,270.0,433.0,0.0,0.0,0.0
19:43:54.075000,-1934.0,-697.0,-750.0,-1118.0,301.0,419.0,0.0,0.0,0.0
19:43:54.080000,-1912.0,-659.0,-743.0,-1118.0,301.0,419.0,0.0,0.0,0.0
19:43:54.085000,-1894.0,-618.0,-699.0,-1120.0,328.0,388.0,0.0,0.0,0.0
19:43:54.090000,-1859.0,-583.0,-616.0,-1120.0,328.0,388.0,0.0,0.0,0.0
19:43:54.094000,-1814.0,-557.0,-574.0,-1100.0,273.0,363.0,0.0,0.0,0.0
19:43:54.099000,-1775.0,-527.0,-612.0,-1100.0,273.0,363.0,0.0,0.0,0.0
19:43:54.104000,-1743.0,-501.0,-667.0,-1106.0,268.0,357.0,0.0,0.0,0.0
19:43:54.108000,-1706.0,-483.0,-690.0,-1106.0,268.0,357.0,0.0,0.0,0.0
19:43:54.113000,-1682.0,-472.0,-667.0,-1091.0,302.0,366.0,0.0,0.0,0.0
19:43:54.118000,-1647.0,-458.0,-651.0,-1091.0,302.0,366.0,0.0,0.0,0.0
19:43:54.122000,-1613.0,-434.0,-654.0,-1047.0,306.0,355.0,0.0,0.0,0.0
19:43:54.127000,-1582.0,-398.0,-666.0,-1047.0,306.0,355.0,0.0,0.0,0.0
19:43:54.132000,-1533.0,-366.0,-656.0,-1047.0,306.0,355.0,0.0,0.0,0.0
19:43:54.137000,-1484.0,-331.0,-612.0,-1024.0,317.0,321.0,0.0,0.0,0.0
19:43:54.141000,-1445.0,-277.0,-578.0,-1024.0,317.0,321.0,0.0,0.0,0.0
19:43:54.146000,-1428.0,-233.0,-607.0,-969.0,334.0,281.0,0.0,0.0,0.0
19:43:54.150000,-1400.0,-222.0,-651.0,-952.0,386.0,238.0,0.0,0.0,0.0
19:43:54.155000,-1338.0,-191.0,-669.0,-952.0,386.0,238.0,0.0,0.0,0.0
19:43:54.160000,-1282.0,-174.0,-652.0,-952.0,386.0,238.0,0.0,0.0,0.0
19:43:54.165000,-1199.0,-161.0,-581.0,-1004.0,388.0,204.0,0.0,0.0,0.0
19:43:54.169000,-1171.0,-154.0,-511.0,-1004.0,388.0,204.0,0.0,0.0,0.0
19:43:54.174000,-1171.0,-154.0,-511.0,-978.0,339.0,188.0,0.0,0.0,0.0
19:43:54.179000,-1132.0,-141.0,-534.0,-978.0,339.0,188.0,0.0,0.0,0.0
19:43:54.184000,-1084.0,-131.0,-573.0,-916.0,312.0,172.0,0.0,0.0,0.0
19:43:54.188000,-1030.0,-126.0,-550.0,-916.0,312.0,172.0,0.0,0.0,0.0
19:43:54.193000,-990.0,-120.0,-499.0,-895.0,310.0,148.0,0.0,0.0,0.0
19:43:54.198000,-944.0,-108.0,-470.0,-895.0,310.0,148.0,0.0,0.0,0.0
19:43:54.202000,-905.0,-91.0,-478.0,-900.0,361.0,128.0,0.0,0.0,0.0
19:43:54.207000,-874.0,-73.0,-499.0,-900.0,361.0,128.0,0.0,0.0,0.0
19:43:54.212000,-831.0,-60.0,-527.0,-909.0,417.0,114.0,0.0,0.0,0.0
19:43:54.216000,-794.0,-54.0,-553.0,-909.0,417.0,114.0,0.0,0.0,0.0
19:43:54.221000,-750.0,-47.0,-585.0,-870.0,422.0,104.0,0.0,0.0,0.0
19:43:54.226000,-706.0,-40.0,-617.0,-870.0,422.0,104.0,0.0,0.0,0.0
19:43:54.231000,-665.0,-32.0,-631.0,-821.0,413.0,85.0,0.0,0.0,0.0
19:43:54.235000,-632.0,-23.0,-620.0,-821.0,413.0,85.0,0.0,0.0,0.0
19:43:54.240000,-607.0,-9.0,-589.0,-821.0,413.0,85.0,0.0,0.0,0.0
19:43:54.245000,-590.0,2.0,-580.0,-818.0,450.0,68.0,0.0,0.0,0.0
19:43:54.249000,-583.0,10.0,-590.0,-818.0,450.0,68.0,0.0,0.0,0.0
19:43:54.254000,-576.0,16.0,-612.0,-846.0,542.0,69.0,0.0,0.0,0.0
19:43:54.259000,-569.0,19.0,-626.0,-846.0,542.0,69.0,0.0,0.0,0.0
19:43:54.263000,-559.0,19.0,-657.0,-853.0,612.0,75.0,0.0,0.0,0.0
19:43:54.268000,-552.0,16.0,-688.0,-853.0,612.0,75.0,0.0,0.0,0.0
19:43:54.273000,-545.0,7.0,-681.0,-838.0,623.0,77.0,0.0,0.0,0.0
19:43:54.278000,-538.0,-7.0,-674.0,-838.0,623.0,77.0,0.0,0.0,0.0
19:43:54.282000,-538.0,-7.0,-674.0,-818.0,617.0,80.0,0.0,0.0,0.0
19:43:54.287000,-529.0,-23.0,-672.0,-818.0,617.0,80.0,0.0,0.0,0.0
19:43:54.292000,-520.0,-35.0,-664.0,-794.0,625.0,77.0,0.0,0.0,0.0
19:43:54.296000,-512.0,-47.0,-659.0,-794.0,625.0,77.0,0.0,0.0,0.0
19:43:54.301000,-506.0,-60.0,-655.0,-793.0,659.0,70.0,0.0,0.0,0.0
19:43:54.306000,-501.0,-71.0,-648.0,-793.0,659.0,70.0,0.0,0.0,0.0
19:43:54.310000,-507.0,-77.0,-637.0,-805.0,699.0,62.0,0.0,0.0,0.0
19:43:54.315000,-513.0,-84.0,-612.0,-805.0,699.0,62.0,0.0,0.0,0.0
19:43:54.320000,-522.0,-87.0,-591.0,-812.0,733.0,53.0,0.0,0.0,0.0
19:43:54.325000,-532.0,-91.0,-576.0,-812.0,733.0,53.0,0.0,0.0,0.0
19:43:54.329000,-539.0,-92.0,-561.0,-807.0,742.0,44.0,0.0,0.0,0.0
19:43:54.334000,-544.0,-94.0,-548.0,-807.0,742.0,44.0,0.0,0.0,0.0
19:43:54.339000,-548.0,-95.0,-525.0,-776.0,720.0,38.0,0.0,0.0,0.0
19:43:54.343000,-547.0,-95.0,-504.0,-776.0,720.0,38.0,0.0,0.0,0.0
19:43:54.348000,-550.0,-96.0,-487.0,-776.0,720.0,38.0,0.0,0.0,0.0
19:43:54.353000,-553.0,-98.0,-471.0,-732.0,698.0,40.0,0.0,0.0,0.0
19:43:54.357000,-557.0,-98.0,-463.0,-732.0,698.0,40.0,0.0,0.0,0.0
19:43:54.362000,-560.0,-97.0,-459.0,-691.0,704.0,44.0,0.0,0.0,0.0
19:43:54.367000,-562.0,-95.0,-450.0,-691.0,704.0,44.0,0.0,0.0,0.0
19:43:54.372000,-560.0,-91.0,-438.0,-665.0,710.0,45.0,0.0,0.0,0.0
19:43:54.376000,-550.0,-88.0,-428.0,-665.0,710.0,45.0,0.0,0.0,0.0
19:43:54.381000,-534.0,-87.0,-420.0,-652.0,681.0,38.0,0.0,0.0,0.0
19:43:54.386000,-513.0,-87.0,-413.0,-652.0,681.0,38.0,0.0,0.0,0.0
19:43:54.390000,-492.0,-88.0,-399.0,-637.0,639.0,26.0,0.0,0.0,0.0
19:43:54.395000,-492.0,-88.0,-399.0,-637.0,639.0,26.0,0.0,0.0,0.0
19:43:54.400000,-471.0,-90.0,-379.0,-616.0,636.0,17.0,0.0,0.0,0.0
19:43:54.404000,-457.0,-92.0,-368.0,-616.0,636.0,17.0,0.0,0.0,0.0
19:43:54.409000,-452.0,-93.0,-359.0,-600.0,684.0,10.0,0.0,0.0,0.0
19:43:54.414000,-458.0,-98.0,-343.0,-600.0,684.0,10.0,0.0,0.0,0.0
19:43:54.419000,-470.0,-104.0,-317.0,-590.0,748.0,9.0,0.0,0.0,0.0
19:43:54.423000,-492.0,-110.0,-277.0,-590.0,748.0,9.0,0.0,0.0,0.0
19:43:54.428000,-512.0,-115.0,-232.0,-573.0,767.0,9.0,0.0,0.0,0.0
19:43:54.433000,-531.0,-120.0,-190.0,-573.0,767.0,9.0,0.0,0.0,0.0
19:43:54.437000,-546.0,-121.0,-152.0,-559.0,748.0,-3.0,0.0,0.0,0.0
19:43:54.442000,-560.0,-120.0,-123.0,-559.0,748.0,-3.0,0.0,0.0,0.0
19:43:54.447000,-572.0,-115.0,-102.0,-577.0,740.0,-26.0,0.0,0.0,0.0
