hh:mm:ss.ms,gyroX[mdps],gyroY[mdps],gyroZ[mdps],accX[mg],accY[mg],accZ[mg],magX[mG],magY[mG],magZ[mG]
19:39:50.268000,-1702.0,-734.0,-1405.0,-494.0,682.0,-1037.0,232.0,-526.0,475.0
19:39:50.273000,-1657.0,-752.0,-1255.0,-356.0,533.0,-1034.0,232.0,-526.0,475.0
19:39:50.278000,-1656.0,-715.0,-1425.0,-478.0,559.0,-1063.0,244.0,-538.0,472.0
19:39:50.282000,-1578.0,-698.0,-1565.0,-644.0,691.0,-1117.0,244.0,-538.0,472.0
19:39:50.286000,-1578.0,-698.0,-1565.0,-547.0,548.0,-1112.0,244.0,-538.0,472.0
19:39:50.292000,-1530.0,-799.0,-1297.0,-440.0,238.0,-1105.0,249.0,-550.0,471.0
19:39:50.296000,-1530.0,-799.0,-1297.0,-406.0,85.0,-1080.0,249.0,-550.0,471.0
19:39:50.301000,-1563.0,-879.0,-1179.0,-275.0,62.0,-1066.0,264.0,-568.0,462.0
19:39:50.306000,-1543.0,-931.0,-1121.0,-162.0,2.0,-1129.0,264.0,-568.0,462.0
19:39:50.310000,-1444.0,-982.0,-1186.0,-100.0,0.0,-1149.0,264.0,-568.0,462.0
19:39:50.315000,-1409.0,-1007.0,-1329.0,34.0,28.0,-1087.0,258.0,-577.0,447.0
19:39:50.320000,-1314.0,-1124.0,-1306.0,230.0,-136.0,-1030.0,258.0,-577.0,447.0
19:39:50.324000,-1176.0,-1246.0,-1125.0,317.0,-302.0,-1038.0,276.0,-582.0,444.0
19:39:50.329000,-1124.0,-1234.0,-1155.0,322.0,-270.0,-1017.0,276.0,-582.0,444.0
19:39:50.333000,-994.0,-1276.0,-1315.0,572.0,-523.0,-945.0,276.0,-582.0,444.0
19:39:50.339000,-1013.0,-1250.0,-1155.0,783.0,-852.0,-861.0,294.0,-583.0,439.0
19:39:50.343000,-1094.0,-1245.0,-1003.0,731.0,-719.0,-771.0,294.0,-583.0,439.0
19:39:50.348000,-1080.0,-1278.0,-1092.0,731.0,-719.0,-771.0,312.0,-597.0,447.0
19:39:50.353000,-1024.0,-1329.0,-1308.0,491.0,-465.0,-769.0,312.0,-597.0,447.0
19:39:50.357000,-1064.0,-1337.0,-1422.0,474.0,-506.0,-751.0,312.0,-597.0,447.0
19:39:50.361000,-1090.0,-1288.0,-1467.0,474.0,-506.0,-751.0,309.0,-595.0,423.0
19:39:50.367000,-1190.0,-1299.0,-1498.0,329.0,-537.0,-719.0,309.0,-595.0,423.0
19:39:50.372000,-1413.0,-1281.0,-1409.0,329.0,-537.0,-719.0,337.0,-613.0,412.0
19:39:50.376000,-1474.0,-1200.0,-1389.0,226.0,-308.0,-813.0,337.0,-613.0,412.0
19:39:50.380000,-1491.0,-1202.0,-1566.0,-100.0,-60.0,-939.0,337.0,-613.0,412.0
19:39:50.386000,-1455.0,-1237.0,-1889.0,-439.0,168.0,-922.0,345.0,-613.0,408.0
19:39:50.390000,-1460.0,-1197.0,-1903.0,-542.0,186.0,-965.0,345.0,-613.0,408.0
19:39:50.395000,-1576.0,-1225.0,-1563.0,-372.0,-41.0,-913.0,358.0,-616.0,396.0
19:39:50.400000,-1674.0,-1168.0,-1370.0,-201.0,-274.0,-889.0,358.0,-616.0,396.0
19:39:50.404000,-1674.0,-1168.0,-1370.0,-177.0,-324.0,-947.0,358.0,-616.0,396.0
19:39:50.409000,-1724.0,-1159.0,-1379.0,-152.0,-400.0,-947.0,370.0,-609.0,397.0
19:39:50.414000,-1747.0,-1150.0,-1362.0,-105.0,-545.0,-956.0,370.0,-609.0,397.0
19:39:50.419000,-1759.0,-1154.0,-1353.0,-24.0,-609.0,-983.0,366.0,-615.0,382.0
19:39:50.423000,-1717.0,-1150.0,-1269.0,77.0,-733.0,-1016.0,366.0,-615.0,382.0
19:39:50.427000,-1700.0,-1142.0,-1092.0,125.0,-733.0,-1034.0,366.0,-615.0,382.0
19:39:50.433000,-1616.0,-1164.0,-937.0,154.0,-656.0,-1052.0,388.0,-625.0,376.0
19:39:50.437000,-1547.0,-1184.0,-802.0,51.0,-570.0,-1060.0,388.0,-625.0,376.0
19:39:50.442000,-1523.0,-1197.0,-811.0,-101.0,-498.0,-1052.0,402.0,-642.0,360.0
19:39:50.447000,-1437.0,-1318.0,-967.0,-95.0,-507.0,-1114.0,402.0,-642.0,360.0
19:39:50.451000,-1225.0,-1387.0,-986.0,-20.0,-598.0,-1113.0,402.0,-642.0,360.0
19:39:50.456000,-1206.0,-1453.0,-726.0,-91.0,-680.0,-1024.0,414.0,-639.0,342.0
19:39:50.461000,-1325.0,-1399.0,-607.0,-348.0,-596.0,-1051.0,414.0,-639.0,342.0
19:39:50.466000,-1332.0,-1358.0,-843.0,-348.0,-596.0,-1051.0,430.0,-639.0,327.0
19:39:50.470000,-1253.0,-1414.0,-1000.0,-440.0,-525.0,-1083.0,430.0,-639.0,327.0
19:39:50.474000,-1211.0,-1462.0,-935.0,-242.0,-529.0,-1075.0,430.0,-639.0,327.0
19:39:50.480000,-1300.0,-1463.0,-837.0,-56.0,-533.0,-1014.0,420.0,-628.0,322.0
19:39:50.484000,-1252.0,-1519.0,-836.0,-14.0,-467.0,-970.0,420.0,-628.0,322.0
19:39:50.488000,-1199.0,-1574.0,-949.0,-76.0,-420.0,-953.0,441.0,-630.0,312.0
19:39:50.494000,-1194.0,-1581.0,-980.0,-126.0,-501.0,-915.0,441.0,-630.0,312.0
19:39:50.498000,-1171.0,-1618.0,-861.0,-128.0,-640.0,-878.0,441.0,-630.0,312.0
19:39:50.503000,-1164.0,-1642.0,-864.0,-170.0,-709.0,-829.0,421.0,-633.0,298.0
19:39:50.508000,-1140.0,-1638.0,-980.0,-231.0,-702.0,-816.0,421.0,-633.0,298.0
19:39:50.513000,-1103.0,-1641.0,-1057.0,-269.0,-696.0,-813.0,453.0,-630.0,288.0
19:39:50.517000,-1103.0,-1641.0,-1057.0,-313.0,-679.0,-799.0,453.0,-630.0,288.0
19:39:50.521000,-1104.0,-1619.0,-1094.0,-386.0,-574.0,-800.0,453.0,-630.0,288.0
19:39:50.527000,-1062.0,-1600.0,-1199.0,-431.0,-524.0,-785.0,468.0,-621.0,274.0
19:39:50.531000,-1014.0,-1624.0,-1192.0,-446.0,-573.0,-742.0,468.0,-621.0,274.0
19:39:50.536000,-1049.0,-1639.0,-1130.0,-517.0,-545.0,-710.0,469.0,-624.0,259.0
19:39:50.541000,-1070.0,-1652.0,-1154.0,-627.0,-486.0,-710.0,469.0,-624.0,259.0
19:39:50.545000,-1062.0,-1647.0,-1231.0,-686.0,-488.0,-698.0,469.0,-624.0,259.0
19:39:50.550000,-1073.0,-1638.0,-1217.0,-653.0,-531.0,-692.0,474.0,-627.0,253.0
19:39:50.555000,-1068.0,-1617.0,-1103.0,-607.0,-512.0,-688.0,474.0,-627.0,253.0
19:39:50.559000,-1072.0,-1600.0,-1092.0,-546.0,-523.0,-673.0,481.0,-621.0,240.0
19:39:50.564000,-1061.0,-1581.0,-1052.0,-444.0,-649.0,-667.0,481.0,-621.0,240.0
19:39:50.568000,-1040.0,-1550.0,-1031.0,-497.0,-754.0,-674.0,481.0,-621.0,240.0
19:39:50.574000,-980.0,-1519.0,-1158.0,-611.0,-754.0,-649.0,492.0,-624.0,235.0
19:39:50.578000,-996.0,-1505.0,-1239.0,-611.0,-754.0,-649.0,492.0,-624.0,235.0
19:39:50.583000,-1036.0,-1500.0,-1308.0,-742.0,-681.0,-622.0,489.0,-604.0,222.0
19:39:50.588000,-1087.0,-1492.0,-1288.0,-880.0,-626.0,-631.0,489.0,-604.0,222.0
19:39:50.592000,-1017.0,-1509.0,-1145.0,-811.0,-617.0,-670.0,489.0,-604.0,222.0
19:39:50.596000,-953.0,-1512.0,-1033.0,-678.0,-645.0,-711.0,505.0,-600.0,207.0
19:39:50.602000,-904.0,-1519.0,-1058.0,-667.0,-672.0,-703.0,505.0,-600.0,207.0
19:39:50.606000,-908.0,-1509.0,-1157.0,-710.0,-646.0,-681.0,523.0,-594.0,199.0
19:39:50.611000,-858.0,-1515.0,-1152.0,-702.0,-631.0,-662.0,523.0,-594.0,199.0
19:39:50.615000,-858.0,-1515.0,-1152.0,-710.0,-670.0,-666.0,523.0,-594.0,199.0
19:39:50.621000,-800.0,-1545.0,-1042.0,-756.0,-696.0,-629.0,499.0,-588.0,198.0
19:39:50.625000,-800.0,-1545.0,-1042.0,-795.0,-645.0,-607.0,499.0,-588.0,198.0
19:39:50.630000,-756.0,-1554.0,-1066.0,-856.0,-575.0,-621.0,520.0,-582.0,177.0
19:39:50.635000,-709.0,-1545.0,-1138.0,-873.0,-563.0,-603.0,520.0,-582.0,177.0
19:39:50.639000,-675.0,-1542.0,-1165.0,-788.0,-583.0,-584.0,520.0,-582.0,177.0
19:39:50.644000,-632.0,-1537.0,-1133.0,-681.0,-609.0,-562.0,525.0,-583.0,160.0
19:39:50.648000,-590.0,-1543.0,-1076.0,-634.0,-591.0,-543.0,525.0,-583.0,160.0
19:39:50.653000,-545.0,-1523.0,-1087.0,-658.0,-596.0,-528.0,526.0,-580.0,160.0
19:39:50.658000,-509.0,-1490.0,-1092.0,-712.0,-653.0,-493.0,526.0,-580.0,160.0
19:39:50.663000,-500.0,-1472.0,-1031.0,-771.0,-490.0,-459.0,514.0,-565.0,156.0
19:39:50.668000,-520.0,-1459.0,-998.0,-868.0,-224.0,-452.0,514.0,-565.0,156.0
19:39:50.672000,-518.0,-1435.0,-1042.0,-935.0,-182.0,-448.0,514.0,-565.0,156.0
19:39:50.677000,-535.0,-1407.0,-1072.0,-898.0,-328.0,-433.0,528.0,-550.0,133.0
19:39:50.682000,-529.0,-1383.0,-1043.0,-859.0,-475.0,-427.0,528.0,-550.0,133.0
19:39:50.686000,-503.0,-1356.0,-987.0,-859.0,-475.0,-427.0,537.0,-549.0,132.0
19:39:50.690000,-448.0,-1319.0,-963.0,-947.0,-449.0,-428.0,537.0,-549.0,132.0
19:39:50.695000,-419.0,-1278.0,-952.0,-947.0,-449.0,-428.0,537.0,-549.0,132.0
19:39:50.700000,-430.0,-1249.0,-947.0,-998.0,-340.0,-393.0,519.0,-544.0,127.0
19:39:50.705000,-460.0,-1220.0,-967.0,-1011.0,-250.0,-357.0,519.0,-544.0,127.0
19:39:50.710000,-452.0,-1169.0,-979.0,-990.0,-259.0,-356.0,534.0,-547.0,117.0
19:39:50.715000,-456.0,-1131.0,-984.0,-975.0,-324.0,-356.0,534.0,-547.0,117.0
19:39:50.719000,-436.0,-1103.0,-993.0,-984.0,-359.0,-336.0,534.0,-547.0,117.0
19:39:50.724000,-398.0,-1066.0,-960.0,-975.0,-391.0,-338.0,541.0,-535.0,102.0
19:39:50.729000,-375.0,-1017.0,-886.0,-960.0,-435.0,-335.0,541.0,-535.0,102.0
19:39:50.733000,-375.0,-1017.0,-886.0,-958.0,-431.0,-318.0,526.0,-525.0,114.0
19:39:50.738000,-363.0,-985.0,-831.0,-972.0,-365.0,-308.0,526.0,-525.0,114.0
19:39:50.742000,-352.0,-959.0,-855.0,-985.0,-292.0,-299.0,526.0,-525.0,114.0
19:39:50.747000,-357.0,-931.0,-901.0,-943.0,-279.0,-294.0,535.0,-531.0,94.0
19:39:50.752000,-348.0,-903.0,-849.0,-914.0,-301.0,-294.0,535.0,-531.0,94.0
19:39:50.757000,-303.0,-883.0,-778.0,-936.0,-337.0,-290.0,546.0,-522.0,88.0
19:39:50.762000,-242.0,-868.0,-732.0,-963.0,-356.0,-283.0,546.0,-522.0,88.0
19:39:50.766000,-214.0,-843.0,-707.0,-986.0,-319.0,-277.0,546.0,-522.0,88.0
19:39:50.771000,-209.0,-798.0,-728.0,-994.0,-279.0,-273.0,546.0,-511.0,85.0
19:39:50.776000,-208.0,-756.0,-739.0,-979.0,-278.0,-265.0,546.0,-511.0,85.0
19:39:50.780000,-171.0,-744.0,-725.0,-951.0,-306.0,-265.0,538.0,-511.0,84.0
19:39:50.785000,-127.0,-732.0,-715.0,-943.0,-296.0,-263.0,538.0,-511.0,84.0
19:39:50.789000,-104.0,-704.0,-743.0,-938.0,-258.0,-255.0,538.0,-511.0,84.0
19:39:50.794000,-91.0,-680.0,-737.0,-910.0,-269.0,-248.0,537.0,-507.0,75.0
19:39:50.799000,-91.0,-659.0,-653.0,-910.0,-269.0,-248.0,537.0,-507.0,75.0
19:39:50.804000,-58.0,-645.0,-579.0,-906.0,-291.0,-251.0,541.0,-502.0,76.0
19:39:50.809000,-39.0,-633.0,-624.0,-963.0,-263.0,-249.0,541.0,-502.0,76.0
19:39:50.813000,-22.0,-628.0,-670.0,-995.0,-202.0,-241.0,541.0,-502.0,76.0
19:39:50.818000,-25.0,-615.0,-598.0,-945.0,-214.0,-237.0,543.0,-495.0,72.0
19:39:50.823000,-40.0,-602.0,-527.0,-911.0,-223.0,-226.0,543.0,-495.0,72.0
19:39:50.827000,-49.0,-592.0,-546.0,-953.0,-125.0,-219.0,546.0,-495.0,69.0
19:39:50.832000,-70.0,-583.0,-578.0,-990.0,-68.0,-210.0,546.0,-495.0,69.0
19:39:50.836000,-70.0,-583.0,-578.0,-956.0,-100.0,-203.0,546.0,-495.0,69.0
19:39:50.841000,-101.0,-559.0,-487.0,-924.0,-129.0,-198.0,541.0,-496.0,64.0
19:39:50.846000,-101.0,-559.0,-487.0,-935.0,-118.0,-193.0,541.0,-496.0,64.0
19:39:50.851000,-110.0,-544.0,-457.0,-952.0,-111.0,-191.0,549.0,-484.0,64.0
19:39:50.856000,-102.0,-533.0,-457.0,-963.0,-137.0,-185.0,549.0,-484.0,64.0
19:39:50.860000,-88.0,-522.0,-468.0,-967.0,-161.0,-179.0,549.0,-484.0,64.0
19:39:50.865000,-84.0,-506.0,-477.0,-970.0,-172.0,-174.0,547.0,-492.0,52.0
19:39:50.870000,-80.0,-494.0,-446.0,-968.0,-190.0,-173.0,547.0,-492.0,52.0
19:39:50.874000,-77.0,-485.0,-368.0,-987.0,-185.0,-174.0,558.0,-495.0,51.0
19:39:50.879000,-79.0,-472.0,-327.0,-1020.0,-146.0,-173.0,558.0,-495.0,51.0
19:39:50.883000,-81.0,-458.0,-343.0,-1028.0,-148.0,-173.0,558.0,-495.0,51.0
19:39:50.888000,-82.0,-440.0,-347.0,-1015.0,-188.0,-175.0,549.0,-486.0,51.0
19:39:50.893000,-80.0,-432.0,-322.0,-994.0,-213.0,-166.0,549.0,-486.0,51.0
19:39:50.898000,-84.0,-431.0,-304.0,-994.0,-213.0,-166.0,552.0,-484.0,48.0
19:39:50.903000,-71.0,-429.0,-292.0,-910.0,-184.0,-164.0,552.0,-484.0,48.0
19:39:50.907000,-60.0,-440.0,-260.0,-910.0,-184.0,-164.0,552.0,-484.0,48.0
19:39:50.912000,-63.0,-434.0,-233.0,-888.0,-162.0,-164.0,534.0,-484.0,54.0
19:39:50.917000,-79.0,-425.0,-263.0,-908.0,-136.0,-165.0,534.0,-484.0,54.0
19:39:50.921000,-95.0,-418.0,-305.0,-955.0,-119.0,-165.0,534.0,-472.0,40.0
19:39:50.926000,-107.0,-412.0,-324.0,-980.0,-121.0,-168.0,534.0,-472.0,40.0
19:39:50.930000,-118.0,-401.0,-304.0,-976.0,-137.0,-172.0,534.0,-472.0,40.0
19:39:50.935000,-136.0,-383.0,-285.0,-973.0,-139.0,-175.0,549.0,-477.0,43.0
19:39:50.940000,-167.0,-360.0,-259.0,-970.0,-113.0,-171.0,549.0,-477.0,43.0
19:39:50.945000,-184.0,-340.0,-247.0,-967.0,-80.0,-168.0,546.0,-480.0,36.0
19:39:50.950000,-191.0,-316.0,-260.0,-975.0,-66.0,-175.0,546.0,-480.0,36.0
19:39:50.954000,-191.0,-316.0,-260.0,-986.0,-92.0,-177.0,546.0,-480.0,36.0
19:39:50.959000,-195.0,-299.0,-273.0,-988.0,-135.0,-182.0,543.0,-471.0,40.0
19:39:50.964000,-189.0,-277.0,-277.0,-990.0,-178.0,-195.0,543.0,-471.0,40.0
19:39:50.968000,-176.0,-250.0,-252.0,-1001.0,-209.0,-206.0,555.0,-471.0,33.0
19:39:50.973000,-152.0,-229.0,-211.0,-1015.0,-210.0,-214.0,555.0,-471.0,33.0
19:39:50.977000,-129.0,-212.0,-201.0,-1011.0,-193.0,-216.0,555.0,-471.0,33.0
19:39:50.982000,-99.0,-204.0,-207.0,-987.0,-180.0,-216.0,547.0,-472.0,37.0
19:39:50.987000,-72.0,-200.0,-204.0,-970.0,-169.0,-215.0,547.0,-472.0,37.0
19:39:50.991000,-56.0,-198.0,-207.0,-957.0,-163.0,-216.0,556.0,-466.0,36.0
19:39:50.997000,-37.0,-197.0,-182.0,-942.0,-164.0,-217.0,556.0,-466.0,36.0
19:39:51.001000,-23.0,-204.0,-125.0,-935.0,-157.0,-215.0,556.0,-466.0,36.0
19:39:51.006000,-9.0,-209.0,-78.0,-938.0,-131.0,-213.0,541.0,-471.0,33.0
19:39:51.011000,-4.0,-208.0,-65.0,-932.0,-107.0,-212.0,541.0,-471.0,33.0
19:39:51.015000,-9.0,-207.0,-57.0,-932.0,-107.0,-212.0,547.0,-469.0,37.0
19:39:51.020000,-22.0,-207.0,-42.0,-926.0,-98.0,-208.0,547.0,-469.0,37.0
19:39:51.024000,-37.0,-205.0,-10.0,-933.0,-98.0,-207.0,547.0,-469.0,37.0
19:39:51.029000,-66.0,-203.0,12.0,-944.0,-90.0,-206.0,544.0,-474.0,33.0
19:39:51.034000,-95.0,-200.0,7.0,-985.0,-11.0,-202.0,544.0,-474.0,33.0
19:39:51.039000,-130.0,-189.0,-16.0,-985.0,-11.0,-202.0,535.0,-466.0,42.0
19:39:51.044000,-161.0,-186.0,-16.0,-994.0,-5.0,-199.0,535.0,-466.0,42.0
19:39:51.048000,-187.0,-183.0,11.0,-993.0,-28.0,-196.0,558.0,-472.0,37.0
19:39:51.053000,-214.0,-175.0,19.0,-1003.0,-49.0,-198.0,558.0,-472.0,37.0
19:39:51.057000,-214.0,-175.0,19.0,-1012.0,-55.0,-192.0,558.0,-472.0,37.0
19:39:51.062000,-239.0,-172.0,18.0,-992.0,-65.0,-186.0,553.0,-469.0,27.0
19:39:51.067000,-254.0,-176.0,28.0,-960.0,-87.0,-183.0,553.0,-469.0,27.0
19:39:51.072000,-266.0,-178.0,30.0,-939.0,-110.0,-179.0,553.0,-472.0,21.0
19:39:51.076000,-273.0,-180.0,30.0,-935.0,-127.0,-181.0,553.0,-472.0,21.0
19:39:51.081000,-270.0,-179.0,36.0,-951.0,-124.0,-183.0,553.0,-472.0,21.0
19:39:51.086000,-266.0,-175.0,47.0,-973.0,-102.0,-178.0,547.0,-472.0,25.0
19:39:51.091000,-278.0,-167.0,58.0,-993.0,-67.0,-172.0,547.0,-472.0,25.0
19:39:51.095000,-293.0,-154.0,61.0,-1008.0,-35.0,-169.0,543.0,-469.0,21.0
19:39:51.100000,-310.0,-144.0,72.0,-1022.0,-23.0,-167.0,543.0,-469.0,21.0
19:39:51.104000,-322.0,-135.0,91.0,-1039.0,-28.0,-165.0,543.0,-469.0,21.0
19:39:51.109000,-332.0,-130.0,100.0,-1052.0,-46.0,-163.0,558.0,-469.0,16.0
19:39:51.114000,-342.0,-127.0,112.0,-1059.0,-69.0,-163.0,558.0,-469.0,16.0
19:39:51.119000,-343.0,-124.0,133.0,-1059.0,-69.0,-163.0,559.0,-471.0,21.0
19:39:51.123000,-340.0,-129.0,158.0,-1059.0,-100.0,-154.0,559.0,-471.0,21.0
19:39:51.128000,-339.0,-137.0,168.0,-1059.0,-100.0,-154.0,559.0,-471.0,21.0
19:39:51.133000,-338.0,-146.0,190.0,-1040.0,-109.0,-150.0,540.0,-468.0,24.0
19:39:51.138000,-340.0,-157.0,233.0,-1011.0,-115.0,-147.0,540.0,-468.0,24.0
19:39:51.142000,-354.0,-167.0,245.0,-997.0,-102.0,-141.0,547.0,-471.0,9.0
19:39:51.147000,-375.0,-183.0,223.0,-997.0,-58.0,-131.0,547.0,-471.0,9.0
19:39:51.151000,-400.0,-198.0,206.0,-987.0,-18.0,-119.0,547.0,-471.0,9.0
19:39:51.156000,-432.0,-210.0,199.0,-970.0,0.0,-107.0,549.0,-475.0,19.0
19:39:51.161000,-471.0,-219.0,203.0,-973.0,15.0,-91.0,549.0,-475.0,19.0
19:39:51.166000,-520.0,-228.0,212.0,-993.0,17.0,-72.0,562.0,-465.0,19.0
19:39:51.170000,-568.0,-240.0,214.0,-1007.0,20.0,-52.0,562.0,-465.0,19.0
19:39:51.175000,-568.0,-240.0,214.0,-1004.0,21.0,-36.0,562.0,-465.0,19.0
19:39:51.180000,-611.0,-256.0,216.0,-993.0,15.0,-22.0,544.0,-468.0,9.0
19:39:51.185000,-654.0,-272.0,219.0,-989.0,7.0,-11.0,544.0,-468.0,9.0
19:39:51.189000,-701.0,-286.0,218.0,-996.0,11.0,0.0,540.0,-463.0,12.0
19:39:51.194000,-743.0,-305.0,200.0,-1004.0,19.0,14.0,540.0,-463.0,12.0
19:39:51.198000,-783.0,-331.0,184.0,-1008.0,22.0,25.0,540.0,-463.0,12.0
19:39:51.203000,-830.0,-357.0,160.0,-1013.0,43.0,34.0,544.0,-462.0,-6.0
19:39:51.208000,-884.0,-384.0,105.0,-994.0,59.0,46.0,544.0,-462.0,-6.0
19:39:51.213000,-934.0,-419.0,100.0,-964.0,59.0,53.0,555.0,-456.0,-3.0
19:39:51.217000,-996.0,-451.0,126.0,-962.0,84.0,64.0,555.0,-456.0,-3.0
19:39:51.222000,-1066.0,-487.0,116.0,-967.0,103.0,75.0,555.0,-456.0,-3.0
19:39:51.227000,-1136.0,-528.0,114.0,-972.0,112.0,83.0,552.0,-456.0,12.0
19:39:51.232000,-1206.0,-564.0,89.0,-983.0,148.0,95.0,552.0,-456.0,12.0
19:39:51.236000,-1275.0,-605.0,48.0,-983.0,148.0,95.0,546.0,-456.0,-9.0
19:39:51.241000,-1355.0,-651.0,30.0,-982.0,181.0,113.0,546.0,-456.0,-9.0
19:39:51.245000,-1460.0,-693.0,6.0,-976.0,211.0,137.0,546.0,-456.0,-9.0
19:39:51.250000,-1563.0,-742.0,-18.0,-970.0,245.0,160.0,546.0,-454.0,-15.0
19:39:51.255000,-1672.0,-794.0,-14.0,-953.0,255.0,181.0,546.0,-454.0,-15.0
19:39:51.260000,-1785.0,-857.0,-29.0,-948.0,275.0,209.0,543.0,-438.0,-28.0
19:39:51.264000,-1887.0,-920.0,-47.0,-956.0,310.0,237.0,543.0,-438.0,-28.0
19:39:51.269000,-1887.0,-920.0,-47.0,-959.0,310.0,266.0,543.0,-438.0,-28.0
19:39:51.274000,-2118.0,-1061.0,-68.0,-942.0,297.0,297.0,520.0,-433.0,-33.0
19:39:51.279000,-2223.0,-1144.0,-108.0,-915.0,292.0,319.0,520.0,-433.0,-33.0
19:39:51.283000,-2223.0,-1144.0,-108.0,-884.0,287.0,341.0,532.0,-427.0,-33.0
19:39:51.288000,-2330.0,-1234.0,-139.0,-861.0,307.0,369.0,532.0,-427.0,-33.0
19:39:51.292000,-2452.0,-1320.0,-189.0,-849.0,348.0,403.0,532.0,-427.0,-33.0
19:39:51.297000,-2579.0,-1410.0,-238.0,-821.0,359.0,446.0,522.0,-418.0,-45.0
19:39:51.302000,-2708.0,-1514.0,-231.0,-788.0,348.0,490.0,522.0,-418.0,-45.0
19:39:51.306000,-2856.0,-1607.0,-216.0,-783.0,349.0,529.0,523.0,-405.0,-54.0
19:39:51.311000,-2995.0,-1703.0,-247.0,-782.0,357.0,573.0,523.0,-405.0,-54.0
19:39:51.316000,-3142.0,-1792.0,-299.0,-750.0,365.0,630.0,523.0,-405.0,-54.0
19:39:51.321000,-3286.0,-1890.0,-342.0,-708.0,382.0,686.0,495.0,-390.0,-39.0
19:39:51.326000,-3426.0,-1979.0,-389.0,-692.0,391.0,739.0,495.0,-390.0,-39.0
19:39:51.330000,-3558.0,-2067.0,-446.0,-708.0,386.0,793.0,499.0,-357.0,-63.0
19:39:51.335000,-3682.0,-2149.0,-506.0,-731.0,368.0,845.0,499.0,-357.0,-63.0
19:39:51.339000,-3796.0,-2228.0,-542.0,-745.0,350.0,890.0,499.0,-357.0,-63.0
19:39:51.344000,-3901.0,-2284.0,-557.0,-745.0,350.0,890.0,483.0,-343.0,-72.0
19:39:51.348000,-4022.0,-2331.0,-604.0,-809.0,371.0,994.0,483.0,-343.0,-72.0
19:39:51.354000,-4116.0,-2380.0,-679.0,-809.0,371.0,994.0,483.0,-316.0,-64.0
19:39:51.358000,-4195.0,-2415.0,-775.0,-839.0,370.0,1042.0,483.0,-316.0,-64.0
19:39:51.363000,-4263.0,-2451.0,-821.0,-847.0,330.0,1092.0,463.0,-295.0,-82.0
19:39:51.368000,-4323.0,-2480.0,-820.0,-840.0,263.0,1138.0,463.0,-295.0,-82.0
19:39:51.372000,-4344.0,-2496.0,-841.0,-848.0,229.0,1167.0,463.0,-295.0,-82.0
19:39:51.377000,-4356.0,-2501.0,-861.0,-875.0,206.0,1182.0,451.0,-273.0,-84.0
19:39:51.382000,-4363.0,-2506.0,-926.0,-919.0,188.0,1198.0,451.0,-273.0,-84.0
19:39:51.387000,-4347.0,-2513.0,-985.0,-952.0,196.0,1208.0,441.0,-250.0,-78.0
19:39:51.391000,-4347.0,-2513.0,-985.0,-945.0,181.0,1207.0,441.0,-250.0,-78.0
19:39:51.395000,-4318.0,-2510.0,-973.0,-924.0,134.0,1209.0,441.0,-250.0,-78.0
19:39:51.401000,-4296.0,-2508.0,-924.0,-929.0,134.0,1210.0,418.0,-192.0,-69.0
19:39:51.405000,-4272.0,-2494.0,-936.0,-938.0,176.0,1200.0,418.0,-192.0,-69.0
19:39:51.410000,-4237.0,-2468.0,-982.0,-922.0,196.0,1202.0,400.0,-172.0,-45.0
19:39:51.415000,-4203.0,-2450.0,-985.0,-903.0,225.0,1199.0,400.0,-172.0,-45.0
19:39:51.419000,-4165.0,-2419.0,-988.0,-920.0,281.0,1189.0,400.0,-172.0,-45.0
19:39:51.424000,-4130.0,-2374.0,-1041.0,-947.0,311.0,1184.0,381.0,-145.0,-42.0
19:39:51.429000,-4083.0,-2338.0,-1054.0,-954.0,290.0,1174.0,381.0,-145.0,-42.0
19:39:51.434000,-4020.0,-2311.0,-1026.0,-968.0,280.0,1144.0,363.0,-130.0,-4.0
19:39:51.438000,-3950.0,-2264.0,-1053.0,-993.0,270.0,1117.0,363.0,-130.0,-4.0
19:39:51.442000,-3896.0,-2209.0,-1074.0,-1012.0,246.0,1091.0,363.0,-130.0,-4.0
19:39:51.448000,-3808.0,-2164.0,-1067.0,-1026.0,253.0,1057.0,349.0,-99.0,-15.0
19:39:51.452000,-3705.0,-2122.0,-1064.0,-1026.0,247.0,1030.0,349.0,-99.0,-15.0
19:39:51.457000,-3610.0,-2072.0,-1028.0,-1016.0,247.0,1030.0,334.0,-94.0,7.0
19:39:51.462000,-3525.0,-2014.0,-954.0,-968.0,211.0,1000.0,334.0,-94.0,7.0
19:39:51.466000,-3439.0,-1955.0,-858.0,-911.0,184.0,968.0,334.0,-94.0,7.0
19:39:51.471000,-3341.0,-1892.0,-771.0,-886.0,184.0,928.0,312.0,-64.0,48.0
19:39:51.476000,-3243.0,-1822.0,-768.0,-918.0,245.0,878.0,312.0,-64.0,48.0
19:39:51.481000,-3150.0,-1750.0,-812.0,-961.0,356.0,831.0,295.0,-46.0,60.0
19:39:51.485000,-3074.0,-1677.0,-769.0,-942.0,404.0,793.0,295.0,-46.0,60.0
19:39:51.489000,-3074.0,-1677.0,-769.0,-874.0,361.0,761.0,295.0,-46.0,60.0
19:39:51.495000,-2929.0,-1579.0,-488.0,-841.0,328.0,736.0,292.0,-46.0,76.0
19:39:51.499000,-2929.0,-1579.0,-488.0,-867.0,376.0,692.0,292.0,-46.0,76.0
19:39:51.504000,-2837.0,-1516.0,-501.0,-886.0,444.0,643.0,288.0,-31.0,94.0
19:39:51.509000,-2744.0,-1449.0,-571.0,-848.0,468.0,609.0,288.0,-31.0,94.0
19:39:51.513000,-2647.0,-1397.0,-602.0,-770.0,453.0,580.0,288.0,-31.0,94.0
19:39:51.518000,-2555.0,-1359.0,-557.0,-713.0,434.0,557.0,283.0,-30.0,105.0
19:39:51.523000,-2468.0,-1327.0,-503.0,-700.0,451.0,528.0,283.0,-30.0,105.0
19:39:51.528000,-2375.0,-1294.0,-490.0,-701.0,470.0,501.0,268.0,-18.0,127.0
19:39:51.532000,-2279.0,-1263.0,-501.0,-685.0,467.0,477.0,268.0,-18.0,127.0
19:39:51.536000,-2179.0,-1235.0,-503.0,-649.0,455.0,452.0,268.0,-18.0,127.0
19:39:51.542000,-2078.0,-1205.0,-497.0,-609.0,447.0,438.0,262.0,-15.0,151.0
19:39:51.546000,-1988.0,-1184.0,-492.0,-577.0,466.0,431.0,262.0,-15.0,151.0
19:39:51.551000,-1913.0,-1161.0,-501.0,-577.0,466.0,431.0,252.0,-9.0,157.0
19:39:51.556000,-1843.0,-1130.0,-503.0,-543.0,546.0,394.0,252.0,-9.0,157.0
19:39:51.560000,-1779.0,-1097.0,-478.0,-545.0,579.0,384.0,252.0,-9.0,157.0
19:39:51.565000,-1736.0,-1072.0,-451.0,-545.0,579.0,384.0,262.0,-3.0,178.0
19:39:51.570000,-1701.0,-1042.0,-423.0,-554.0,627.0,378.0,262.0,-3.0,178.0
19:39:51.575000,-1674.0,-1005.0,-403.0,-561.0,683.0,367.0,247.0,-6.0,180.0
19:39:51.579000,-1663.0,-970.0,-385.0,-564.0,732.0,366.0,247.0,-6.0,180.0
19:39:51.583000,-1653.0,-940.0,-363.0,-561.0,766.0,365.0,247.0,-6.0,180.0
19:39:51.589000,-1641.0,-906.0,-354.0,-562.0,786.0,354.0,250.0,3.0,190.0
19:39:51.593000,-1629.0,-875.0,-351.0,-565.0,782.0,344.0,250.0,3.0,190.0
19:39:51.598000,-1607.0,-851.0,-343.0,-555.0,750.0,339.0,253.0,3.0,205.0
19:39:51.603000,-1577.0,-828.0,-327.0,-531.0,706.0,328.0,253.0,3.0,205.0
19:39:51.607000,-1577.0,-828.0,-327.0,-502.0,664.0,308.0,253.0,3.0,205.0
19:39:51.612000,-1537.0,-800.0,-310.0,-482.0,631.0,283.0,241.0,3.0,226.0
19:39:51.617000,-1493.0,-767.0,-303.0,-482.0,614.0,262.0,241.0,3.0,226.0
19:39:51.622000,-1444.0,-732.0,-315.0,-498.0,615.0,248.0,240.0,9.0,238.0
19:39:51.626000,-1401.0,-700.0,-326.0,-511.0,630.0,232.0,240.0,9.0,238.0
19:39:51.630000,-1358.0,-665.0,-329.0,-521.0,648.0,215.0,240.0,9.0,238.0
19:39:51.636000,-1328.0,-625.0,-324.0,-537.0,677.0,200.0,246.0,-1.0,247.0
19:39:51.640000,-1300.0,-585.0,-343.0,-552.0,711.0,182.0,246.0,-1.0,247.0
19:39:51.645000,-1271.0,-549.0,-373.0,-549.0,722.0,167.0,240.0,9.0,256.0
19:39:51.650000,-1246.0,-513.0,-385.0,-539.0,710.0,152.0,240.0,9.0,256.0
19:39:51.654000,-1222.0,-478.0,-378.0,-535.0,687.0,144.0,240.0,9.0,256.0
19:39:51.659000,-1192.0,-452.0,-366.0,-526.0,659.0,133.0,232.0,-4.0,282.0
19:39:51.664000,-1146.0,-431.0,-359.0,-505.0,633.0,123.0,232.0,-4.0,282.0
19:39:51.669000,-1093.0,-413.0,-372.0,-505.0,633.0,123.0,235.0,4.0,270.0
19:39:51.673000,-1032.0,-393.0,-410.0,-477.0,616.0,114.0,235.0,4.0,270.0
19:39:51.677000,-968.0,-377.0,-447.0,-437.0,607.0,105.0,235.0,4.0,270.0
19:39:51.683000,-905.0,-360.0,-451.0,-384.0,588.0,100.0,229.0,4.0,283.0
19:39:51.687000,-849.0,-343.0,-425.0,-340.0,571.0,93.0,229.0,4.0,283.0
19:39:51.692000,-796.0,-324.0,-406.0,-327.0,590.0,86.0,229.0,4.0,300.0
19:39:51.697000,-753.0,-304.0,-411.0,-343.0,656.0,77.0,229.0,4.0,300.0
19:39:51.701000,-724.0,-293.0,-424.0,-363.0,732.0,78.0,229.0,4.0,300.0
19:39:51.706000,-702.0,-280.0,-415.0,-368.0,780.0,84.0,223.0,0.0,300.0
19:39:51.711000,-681.0,-270.0,-389.0,-362.0,790.0,86.0,223.0,0.0,300.0
19:39:51.716000,-658.0,-261.0,-363.0,-362.0,779.0,90.0,223.0,6.0,301.0
19:39:51.720000,-658.0,-261.0,-363.0,-370.0,769.0,99.0,223.0,6.0,301.0
19:39:51.724000,-644.0,-256.0,-345.0,-374.0,764.0,113.0,223.0,6.0,301.0
19:39:51.730000,-625.0,-259.0,-343.0,-360.0,767.0,124.0,216.0,1.0,307.0
19:39:51.734000,-604.0,-263.0,-351.0,-330.0,770.0,136.0,216.0,1.0,307.0
19:39:51.739000,-587.0,-268.0,-352.0,-302.0,774.0,150.0,219.0,1.0,315.0
19:39:51.744000,-580.0,-272.0,-336.0,-289.0,778.0,162.0,219.0,1.0,315.0
19:39:51.749000,-583.0,-273.0,-307.0,-296.0,791.0,164.0,205.0,-1.0,324.0
19:39:51.753000,-580.0,-270.0,-300.0,-316.0,818.0,157.0,205.0,-1.0,324.0
19:39:51.757000,-574.0,-264.0,-319.0,-336.0,829.0,147.0,205.0,-1.0,324.0
19:39:51.762000,-569.0,-249.0,-327.0,-356.0,818.0,139.0,219.0,-6.0,324.0
19:39:51.767000,-562.0,-236.0,-316.0,-380.0,800.0,137.0,219.0,-6.0,324.0
19:39:51.772000,-555.0,-224.0,-301.0,-380.0,800.0,137.0,219.0,-4.0,325.0
19:39:51.777000,-538.0,-212.0,-300.0,-386.0,749.0,121.0,219.0,-4.0,325.0
19:39:51.781000,-513.0,-198.0,-306.0,-386.0,749.0,121.0,219.0,-4.0,325.0
19:39:51.786000,-476.0,-182.0,-316.0,-326.0,688.0,100.0,211.0,-1.0,334.0
19:39:51.791000,-434.0,-172.0,-321.0,-326.0,688.0,100.0,211.0,-1.0,334.0
19:39:51.796000,-396.0,-158.0,-301.0,-286.0,679.0,97.0,208.0,-7.0,333.0
19:39:51.800000,-364.0,-146.0,-256.0,-251.0,683.0,91.0,208.0,-7.0,333.0
19:39:51.804000,-336.0,-134.0,-211.0,-242.0,699.0,81.0,208.0,-7.0,333.0
19:39:51.810000,-312.0,-121.0,-176.0,-260.0,719.0,73.0,213.0,-3.0,337.0
19:39:51.814000,-291.0,-110.0,-151.0,-289.0,734.0,69.0,213.0,-3.0,337.0
19:39:51.819000,-274.0,-101.0,-123.0,-304.0,736.0,68.0,208.0,-13.0,340.0
19:39:51.824000,-252.0,-95.0,-88.0,-291.0,724.0,69.0,208.0,-13.0,340.0
19:39:51.828000,-252.0,-95.0,-88.0,-260.0,715.0,69.0,208.0,-13.0,340.0
19:39:51.833000,-223.0,-99.0,-53.0,-237.0,720.0,71.0,220.0,-9.0,352.0
19:39:51.838000,-196.0,-103.0,-34.0,-233.0,736.0,74.0,220.0,-9.0,352.0
19:39:51.843000,-176.0,-108.0,-26.0,-228.0,749.0,77.0,207.0,-3.0,354.0
19:39:51.847000,-156.0,-114.0,-22.0,-214.0,746.0,81.0,207.0,-3.0,354.0
19:39:51.851000,-142.0,-119.0,-19.0,-207.0,735.0,83.0,207.0,-3.0,354.0
19:39:51.857000,-130.0,-124.0,-11.0,-221.0,734.0,79.0,207.0,1.0,343.0
19:39:51.861000,-115.0,-127.0,-9.0,-249.0,744.0,72.0,207.0,1.0,343.0
19:39:51.866000,-96.0,-127.0,-19.0,-277.0,752.0,60.0,213.0,-3.0,355.0
19:39:51.871000,-67.0,-125.0,-40.0,-295.0,754.0,60.0,213.0,-3.0,355.0
19:39:51.875000,-51.0,-125.0,-77.0,-296.0,750.0,60.0,213.0,-3.0,355.0
19:39:51.880000,-18.0,-125.0,-111.0,-280.0,736.0,51.0,214.0,-4.0,345.0
19:39:51.885000,11.0,-123.0,-123.0,-268.0,724.0,45.0,214.0,-4.0,345.0
19:39:51.890000,42.0,-121.0,-124.0,-268.0,724.0,45.0,207.0,-6.0,358.0
19:39:51.894000,76.0,-119.0,-142.0,-274.0,733.0,40.0,207.0,-6.0,358.0
19:39:51.898000,114.0,-121.0,-160.0,-278.0,746.0,41.0,207.0,-6.0,358.0
19:39:51.904000,148.0,-126.0,-150.0,-258.0,741.0,44.0,208.0,-4.0,346.0
19:39:51.908000,181.0,-130.0,-111.0,-232.0,721.0,45.0,208.0,-4.0,346.0
19:39:51.913000,211.0,-135.0,-68.0,-227.0,713.0,48.0,210.0,-1.0,349.0
19:39:51.918000,235.0,-140.0,-46.0,-242.0,742.0,56.0,210.0,-1.0,349.0
19:39:51.922000,259.0,-144.0,-46.0,-248.0,796.0,67.0,210.0,-1.0,349.0
19:39:51.927000,278.0,-149.0,-40.0,-228.0,822.0,79.0,213.0,-1.0,340.0
19:39:51.932000,291.0,-154.0,-13.0,-195.0,806.0,90.0,213.0,-1.0,340.0
19:39:51.937000,310.0,-157.0,11.0,-178.0,787.0,92.0,207.0,3.0,342.0
19:39:51.941000,310.0,-157.0,11.0,-192.0,792.0,98.0,207.0,3.0,342.0
19:39:51.945000,323.0,-161.0,21.0,-217.0,818.0,106.0,207.0,3.0,342.0
19:39:51.951000,340.0,-163.0,20.0,-233.0,849.0,115.0,210.0,0.0,339.0
19:39:51.955000,343.0,-168.0,10.0,-227.0,869.0,113.0,210.0,0.0,339.0
19:39:51.960000,371.0,-169.0,-22.0,-200.0,842.0,111.0,216.0,0.0,333.0
19:39:51.965000,378.0,-161.0,-77.0,-174.0,811.0,108.0,216.0,0.0,333.0
19:39:51.969000,401.0,-153.0,-116.0,-180.0,829.0,95.0,216.0,0.0,333.0
19:39:51.974000,430.0,-147.0,-154.0,-209.0,852.0,91.0,211.0,0.0,340.0
19:39:51.979000,454.0,-141.0,-193.0,-228.0,843.0,85.0,211.0,0.0,340.0
19:39:51.984000,478.0,-133.0,-224.0,-230.0,824.0,77.0,213.0,6.0,333.0
19:39:51.988000,508.0,-129.0,-260.0,-219.0,816.0,68.0,213.0,6.0,333.0
19:39:51.992000,539.0,-129.0,-300.0,-200.0,816.0,61.0,213.0,6.0,333.0
19:39:51.997000,577.0,-132.0,-324.0,-180.0,803.0,57.0,210.0,-1.0,333.0
19:39:52.002000,619.0,-141.0,-312.0,-180.0,803.0,57.0,210.0,-1.0,333.0
19:39:52.007000,653.0,-155.0,-295.0,-166.0,785.0,54.0,201.0,1.0,325.0
19:39:52.012000,688.0,-170.0,-299.0,-157.0,796.0,49.0,201.0,1.0,325.0
19:39:52.016000,718.0,-187.0,-323.0,-158.0,836.0,45.0,201.0,1.0,325.0
19:39:52.021000,744.0,-204.0,-339.0,-163.0,876.0,45.0,204.0,6.0,321.0
19:39:52.026000,765.0,-224.0,-338.0,-163.0,898.0,49.0,204.0,6.0,321.0
19:39:52.031000,784.0,-244.0,-318.0,-155.0,889.0,52.0,210.0,16.0,321.0
19:39:52.035000,802.0,-263.0,-291.0,-141.0,856.0,52.0,210.0,16.0,321.0
19:39:52.039000,802.0,-263.0,-291.0,-133.0,826.0,47.0,210.0,16.0,321.0
19:39:52.045000,884.0,-299.0,-263.0,-137.0,811.0,45.0,201.0,7.0,310.0
19:39:52.049000,884.0,-299.0,-263.0,-144.0,803.0,51.0,201.0,7.0,310.0
19:39:52.054000,933.0,-319.0,-252.0,-144.0,789.0,60.0,198.0,1.0,303.0
19:39:52.059000,989.0,-340.0,-236.0,-137.0,768.0,74.0,198.0,1.0,303.0
19:39:52.063000,1049.0,-364.0,-219.0,-126.0,748.0,92.0,198.0,1.0,303.0
19:39:52.068000,1119.0,-388.0,-203.0,-119.0,732.0,106.0,199.0,9.0,294.0
19:39:52.073000,1194.0,-408.0,-187.0,-119.0,727.0,121.0,199.0,9.0,294.0
19:39:52.078000,1265.0,-428.0,-177.0,-127.0,739.0,143.0,183.0,3.0,301.0
19:39:52.082000,1339.0,-447.0,-169.0,-140.0,760.0,166.0,183.0,3.0,301.0
19:39:52.086000,1412.0,-463.0,-168.0,-145.0,766.0,184.0,183.0,3.0,301.0
19:39:52.092000,1488.0,-473.0,-172.0,-140.0,737.0,194.0,198.0,21.0,279.0
19:39:52.096000,1572.0,-479.0,-159.0,-144.0,700.0,201.0,198.0,21.0,279.0
19:39:52.101000,1661.0,-478.0,-141.0,-144.0,700.0,201.0,198.0,21.0,264.0
19:39:52.106000,1752.0,-474.0,-152.0,-236.0,715.0,231.0,198.0,21.0,264.0
19:39:52.110000,1847.0,-467.0,-180.0,-236.0,715.0,231.0,198.0,21.0,264.0
19:39:52.115000,1944.0,-463.0,-191.0,-261.0,710.0,259.0,189.0,18.0,241.0
19:39:52.119000,2051.0,-458.0,-188.0,-226.0,606.0,319.0,189.0,18.0,241.0
19:39:52.125000,2169.0,-450.0,-179.0,-226.0,606.0,319.0,187.0,25.0,226.0
19:39:52.129000,2286.0,-434.0,-180.0,-200.0,559.0,345.0,187.0,25.0,226.0
19:39:52.133000,2398.0,-411.0,-195.0,-197.0,548.0,376.0,187.0,25.0,226.0
19:39:52.139000,2506.0,-382.0,-201.0,-218.0,569.0,413.0,184.0,19.0,208.0
19:39:52.143000,2596.0,-347.0,-199.0,-246.0,588.0,452.0,184.0,19.0,208.0
19:39:52.148000,2677.0,-307.0,-191.0,-269.0,593.0,492.0,195.0,12.0,189.0
19:39:52.153000,2752.0,-263.0,-177.0,-289.0,600.0,527.0,195.0,12.0,189.0
19:39:52.157000,2752.0,-263.0,-177.0,-306.0,607.0,560.0,195.0,12.0,189.0
19:39:52.162000,2821.0,-219.0,-154.0,-316.0,599.0,591.0,184.0,12.0,174.0
19:39:52.167000,2883.0,-176.0,-126.0,-336.0,574.0,619.0,184.0,12.0,174.0
19:39:52.171000,2949.0,-139.0,-93.0,-350.0,540.0,642.0,181.0,3.0,148.0
19:39:52.176000,3014.0,-96.0,-51.0,-339.0,505.0,653.0,181.0,3.0,148.0
19:39:52.180000,3080.0,-51.0,5.0,-344.0,491.0,660.0,181.0,3.0,148.0
19:39:52.186000,3138.0,0.0,62.0,-383.0,508.0,662.0,189.0,-7.0,139.0
19:39:52.190000,3190.0,57.0,98.0,-439.0,533.0,671.0,189.0,-7.0,139.0
19:39:52.195000,3234.0,112.0,118.0,-487.0,542.0,682.0,195.0,-6.0,105.0
19:39:52.200000,3271.0,173.0,144.0,-513.0,515.0,691.0,195.0,-6.0,105.0
19:39:52.204000,3303.0,230.0,184.0,-520.0,467.0,711.0,195.0,-6.0,105.0
19:39:52.209000,3331.0,280.0,226.0,-522.0,421.0,737.0,193.0,-6.0,67.0
19:39:52.214000,3361.0,321.0,252.0,-512.0,387.0,766.0,193.0,-6.0,67.0
19:39:52.218000,3387.0,353.0,262.0,-512.0,387.0,766.0,186.0,-13.0,63.0
19:39:52.223000,3413.0,371.0,275.0,-479.0,360.0,799.0,186.0,-13.0,63.0
19:39:52.227000,3437.0,384.0,275.0,-442.0,340.0,833.0,186.0,-13.0,63.0
19:39:52.232000,3452.0,394.0,259.0,-410.0,328.0,864.0,198.0,-39.0,22.0
19:39:52.237000,3456.0,408.0,235.0,-381.0,323.0,890.0,198.0,-39.0,22.0
19:39:52.242000,3451.0,425.0,214.0,-367.0,330.0,912.0,207.0,-46.0,15.0
19:39:52.247000,3441.0,445.0,201.0,-371.0,343.0,933.0,207.0,-46.0,15.0
19:39:52.251000,3427.0,464.0,196.0,-386.0,343.0,949.0,207.0,-46.0,15.0
19:39:52.256000,3425.0,484.0,169.0,-411.0,323.0,954.0,201.0,-55.0,-19.0
19:39:52.261000,3428.0,512.0,100.0,-446.0,294.0,954.0,201.0,-55.0,-19.0
19:39:52.265000,3428.0,512.0,100.0,-467.0,254.0,960.0,210.0,-84.0,-52.0
19:39:52.270000,3437.0,546.0,46.0,-476.0,201.0,978.0,210.0,-84.0,-52.0
19:39:52.274000,3444.0,583.0,35.0,-490.0,145.0,1012.0,210.0,-84.0,-52.0
19:39:52.280000,3449.0,613.0,35.0,-522.0,106.0,1051.0,210.0,-100.0,-73.0
19:39:52.284000,3467.0,637.0,-11.0,-582.0,59.0,1086.0,210.0,-100.0,-73.0
19:39:52.289000,3504.0,684.0,-134.0,-701.0,-108.0,1184.0,216.0,-120.0,-79.0
19:39:52.294000,3521.0,697.0,-215.0,-523.0,-138.0,1216.0,216.0,-120.0,-79.0
19:39:52.298000,3516.0,737.0,-18.0,-281.0,-35.0,1192.0,216.0,-120.0,-79.0
19:39:52.303000,3497.0,788.0,92.0,-388.0,25.0,1222.0,228.0,-147.0,-100.0
19:39:52.308000,3484.0,828.0,26.0,-552.0,98.0,1214.0,228.0,-147.0,-100.0
19:39:52.312000,3499.0,882.0,-94.0,-635.0,43.0,1223.0,207.0,-165.0,-120.0
19:39:52.317000,3505.0,917.0,-146.0,-656.0,-85.0,1246.0,207.0,-165.0,-120.0
19:39:52.321000,3496.0,967.0,-159.0,-628.0,-169.0,1238.0,207.0,-165.0,-120.0
19:39:52.327000,3504.0,1024.0,-126.0,-565.0,-212.0,1237.0,226.0,-186.0,-142.0
19:39:52.331000,3502.0,1076.0,-81.0,-565.0,-212.0,1237.0,226.0,-186.0,-142.0
19:39:52.336000,3494.0,1131.0,-97.0,-569.0,-212.0,1242.0,241.0,-217.0,-165.0
19:39:52.341000,3492.0,1165.0,-158.0,-615.0,-187.0,1236.0,241.0,-217.0,-165.0
19:39:52.345000,3474.0,1210.0,-175.0,-617.0,-163.0,1210.0,241.0,-217.0,-165.0
19:39:52.350000,3451.0,1253.0,-144.0,-617.0,-163.0,1210.0,253.0,-246.0,-156.0
19:39:52.355000,3432.0,1296.0,-148.0,-619.0,-184.0,1188.0,253.0,-246.0,-156.0
19:39:52.359000,3392.0,1325.0,-128.0,-604.0,-225.0,1173.0,256.0,-271.0,-181.0
19:39:52.364000,3342.0,1358.0,-42.0,-547.0,-311.0,1166.0,256.0,-271.0,-181.0
19:39:52.368000,3342.0,1358.0,-42.0,-510.0,-362.0,1144.0,256.0,-271.0,-181.0
19:39:52.374000,3284.0,1369.0,-49.0,-511.0,-332.0,1137.0,267.0,-286.0,-187.0
19:39:52.378000,3284.0,1369.0,-49.0,-478.0,-303.0,1138.0,267.0,-286.0,-187.0
19:39:52.383000,3234.0,1365.0,-83.0,-409.0,-309.0,1129.0,276.0,-313.0,-195.0
19:39:52.388000,3176.0,1356.0,-67.0,-353.0,-312.0,1120.0,276.0,-313.0,-195.0
19:39:52.392000,3123.0,1326.0,-67.0,-295.0,-316.0,1115.0,276.0,-313.0,-195.0
19:39:52.397000,3069.0,1298.0,-89.0,-254.0,-325.0,1109.0,292.0,-321.0,-187.0
19:39:52.402000,3010.0,1292.0,-121.0,-236.0,-331.0,1114.0,292.0,-321.0,-187.0
19:39:52.406000,2947.0,1272.0,-137.0,-228.0,-307.0,1117.0,298.0,-355.0,-204.0
19:39:52.411000,2892.0,1260.0,-147.0,-258.0,-254.0,1095.0,298.0,-355.0,-204.0
19:39:52.415000,2845.0,1253.0,-179.0,-314.0,-224.0,1091.0,298.0,-355.0,-204.0
19:39:52.421000,2797.0,1234.0,-209.0,-355.0,-227.0,1102.0,316.0,-388.0,-201.0
19:39:52.425000,2740.0,1219.0,-208.0,-387.0,-234.0,1112.0,316.0,-388.0,-201.0
19:39:52.429000,2671.0,1209.0,-177.0,-426.0,-242.0,1130.0,322.0,-411.0,-198.0
19:39:52.435000,2593.0,1199.0,-126.0,-461.0,-241.0,1137.0,322.0,-411.0,-198.0
19:39:52.439000,2517.0,1196.0,-86.0,-461.0,-241.0,1137.0,322.0,-411.0,-198.0
19:39:52.444000,2432.0,1193.0,-60.0,-489.0,-246.0,1145.0,340.0,-429.0,-202.0
19:39:52.449000,2345.0,1220.0,-25.0,-493.0,-261.0,1139.0,340.0,-429.0,-202.0
19:39:52.453000,2263.0,1255.0,-9.0,-512.0,-249.0,1095.0,339.0,-454.0,-190.0
19:39:52.458000,2197.0,1276.0,-2.0,-579.0,-258.0,1056.0,339.0,-454.0,-190.0
19:39:52.462000,2161.0,1282.0,23.0,-626.0,-315.0,1038.0,339.0,-454.0,-190.0
19:39:52.467000,2130.0,1290.0,44.0,-632.0,-384.0,1021.0,345.0,-463.0,-193.0
19:39:52.472000,2094.0,1297.0,65.0,-619.0,-434.0,1001.0,345.0,-463.0,-193.0
19:39:52.477000,2062.0,1301.0,81.0,-584.0,-442.0,982.0,363.0,-481.0,-189.0
19:39:52.482000,2023.0,1305.0,76.0,-552.0,-410.0,963.0,363.0,-481.0,-189.0
19:39:52.486000,2023.0,1305.0,76.0,-540.0,-339.0,951.0,363.0,-481.0,-189.0
19:39:52.491000,1967.0,1306.0,60.0,-548.0,-242.0,941.0,387.0,-508.0,-175.0
19:39:52.496000,1894.0,1306.0,51.0,-554.0,-162.0,916.0,387.0,-508.0,-175.0
19:39:52.500000,1814.0,1306.0,62.0,-548.0,-130.0,883.0,390.0,-513.0,-177.0
19:39:52.505000,1729.0,1290.0,72.0,-554.0,-108.0,850.0,390.0,-513.0,-177.0
19:39:52.509000,1637.0,1274.0,50.0,-560.0,-76.0,811.0,390.0,-513.0,-177.0
19:39:52.515000,1529.0,1278.0,16.0,-545.0,-55.0,778.0,402.0,-529.0,-163.0
19:39:52.519000,1409.0,1281.0,8.0,-533.0,-40.0,754.0,402.0,-529.0,-163.0
19:39:52.524000,1298.0,1276.0,17.0,-534.0,-35.0,727.0,411.0,-529.0,-156.0
19:39:52.529000,1187.0,1271.0,29.0,-529.0,-56.0,697.0,411.0,-529.0,-156.0
19:39:52.533000,1083.0,1266.0,43.0,-529.0,-56.0,697.0,411.0,-543.0,-154.0
19:39:52.538000,995.0,1251.0,55.0,-502.0,-155.0,641.0,411.0,-543.0,-154.0
19:39:52.542000,927.0,1231.0,61.0,-484.0,-225.0,609.0,411.0,-543.0,-154.0
19:39:52.547000,869.0,1216.0,72.0,-484.0,-225.0,609.0,424.0,-553.0,-147.0
19:39:52.552000,826.0,1205.0,100.0,-467.0,-301.0,576.0,424.0,-553.0,-147.0
19:39:52.557000,788.0,1194.0,126.0,-467.0,-367.0,549.0,424.0,-559.0,-135.0
19:39:52.562000,760.0,1189.0,142.0,-501.0,-431.0,497.0,424.0,-559.0,-135.0
19:39:52.566000,728.0,1180.0,143.0,-501.0,-431.0,497.0,424.0,-559.0,-135.0
19:39:52.571000,702.0,1166.0,130.0,-518.0,-429.0,478.0,441.0,-573.0,-129.0
19:39:52.576000,668.0,1156.0,116.0,-522.0,-417.0,456.0,441.0,-573.0,-129.0
19:39:52.580000,627.0,1147.0,115.0,-512.0,-406.0,442.0,456.0,-571.0,-123.0
19:39:52.585000,588.0,1129.0,116.0,-500.0,-406.0,432.0,456.0,-571.0,-123.0
19:39:52.589000,588.0,1129.0,116.0,-495.0,-398.0,414.0,456.0,-571.0,-123.0
19:39:52.594000,547.0,1103.0,105.0,-490.0,-378.0,402.0,454.0,-573.0,-111.0
19:39:52.599000,500.0,1080.0,89.0,-485.0,-377.0,389.0,454.0,-573.0,-111.0
19:39:52.603000,456.0,1064.0,81.0,-490.0,-395.0,372.0,463.0,-574.0,-109.0
19:39:52.609000,421.0,1046.0,66.0,-507.0,-416.0,360.0,463.0,-574.0,-109.0
19:39:52.613000,391.0,1026.0,45.0,-522.0,-457.0,350.0,463.0,-574.0,-109.0
19:39:52.618000,361.0,1008.0,39.0,-541.0,-506.0,336.0,462.0,-586.0,-105.0
19:39:52.623000,327.0,994.0,41.0,-572.0,-536.0,322.0,462.0,-586.0,-105.0
19:39:52.627000,296.0,980.0,32.0,-610.0,-541.0,304.0,478.0,-589.0,-108.0
19:39:52.632000,279.0,961.0,4.0,-636.0,-555.0,285.0,478.0,-589.0,-108.0
19:39:52.636000,271.0,943.0,-18.0,-625.0,-599.0,267.0,478.0,-589.0,-108.0
19:39:52.641000,258.0,931.0,-25.0,-600.0,-625.0,248.0,478.0,-585.0,-85.0
19:39:52.646000,240.0,912.0,-37.0,-577.0,-634.0,233.0,478.0,-585.0,-85.0
19:39:52.650000,229.0,882.0,-49.0,-557.0,-643.0,218.0,478.0,-583.0,-84.0
19:39:52.656000,217.0,852.0,-65.0,-557.0,-632.0,204.0,478.0,-583.0,-84.0
19:39:52.660000,205.0,815.0,-93.0,-548.0,-632.0,204.0,478.0,-583.0,-84.0
19:39:52.665000,196.0,769.0,-135.0,-546.0,-615.0,197.0,493.0,-583.0,-82.0
19:39:52.670000,175.0,716.0,-189.0,-545.0,-600.0,196.0,493.0,-583.0,-82.0
19:39:52.674000,160.0,662.0,-244.0,-547.0,-595.0,191.0,490.0,-591.0,-76.0
19:39:52.679000,144.0,608.0,-301.0,-546.0,-629.0,180.0,490.0,-591.0,-76.0
19:39:52.683000,119.0,560.0,-357.0,-535.0,-686.0,174.0,490.0,-591.0,-76.0
19:39:52.688000,104.0,511.0,-403.0,-523.0,-727.0,172.0,510.0,-583.0,-69.0
19:39:52.693000,97.0,463.0,-438.0,-513.0,-759.0,163.0,510.0,-583.0,-69.0
19:39:52.698000,95.0,423.0,-485.0,-506.0,-793.0,150.0,504.0,-583.0,-72.0
19:39:52.703000,95.0,423.0,-485.0,-508.0,-814.0,134.0,504.0,-583.0,-72.0
19:39:52.707000,94.0,392.0,-544.0,-516.0,-833.0,117.0,504.0,-583.0,-72.0
19:39:52.712000,96.0,362.0,-581.0,-541.0,-850.0,109.0,511.0,-577.0,-54.0
19:39:52.717000,96.0,329.0,-609.0,-578.0,-854.0,102.0,511.0,-577.0,-54.0
19:39:52.721000,98.0,300.0,-633.0,-605.0,-856.0,99.0,523.0,-579.0,-64.0
19:39:52.726000,102.0,268.0,-651.0,-624.0,-879.0,96.0,523.0,-579.0,-64.0
19:39:52.730000,114.0,236.0,-658.0,-634.0,-915.0,88.0,523.0,-579.0,-64.0
19:39:52.735000,130.0,210.0,-648.0,-661.0,-936.0,76.0,522.0,-576.0,-61.0
19:39:52.740000,159.0,185.0,-657.0,-717.0,-915.0,67.0,522.0,-576.0,-61.0
19:39:52.745000,188.0,158.0,-687.0,-751.0,-892.0,61.0,523.0,-574.0,-55.0
19:39:52.750000,210.0,137.0,-702.0,-764.0,-877.0,58.0,523.0,-574.0,-55.0
19:39:52.754000,237.0,107.0,-725.0,-757.0,-853.0,61.0,523.0,-574.0,-55.0
19:39:52.759000,249.0,86.0,-731.0,-721.0,-862.0,63.0,514.0,-574.0,-52.0
19:39:52.764000,258.0,72.0,-684.0,-727.0,-845.0,70.0,514.0,-574.0,-52.0
19:39:52.768000,256.0,50.0,-656.0,-727.0,-845.0,70.0,532.0,-574.0,-57.0
19:39:52.773000,250.0,25.0,-676.0,-780.0,-782.0,78.0,532.0,-574.0,-57.0
19:39:52.777000,241.0,11.0,-710.0,-814.0,-716.0,76.0,532.0,-574.0,-57.0
19:39:52.782000,228.0,0.0,-723.0,-820.0,-687.0,75.0,544.0,-565.0,-49.0
19:39:52.787000,217.0,-8.0,-700.0,-808.0,-701.0,74.0,544.0,-565.0,-49.0
19:39:52.792000,205.0,-13.0,-669.0,-801.0,-726.0,67.0,520.0,-558.0,-37.0
19:39:52.797000,189.0,-16.0,-650.0,-814.0,-742.0,63.0,520.0,-558.0,-37.0
19:39:52.801000,189.0,-16.0,-650.0,-839.0,-738.0,60.0,520.0,-558.0,-37.0
19:39:52.806000,171.0,-18.0,-648.0,-862.0,-718.0,59.0,541.0,-555.0,-52.0
19:39:52.811000,163.0,-21.0,-662.0,-885.0,-701.0,61.0,541.0,-555.0,-52.0
19:39:52.815000,163.0,-21.0,-662.0,-899.0,-695.0,65.0,540.0,-556.0,-48.0
19:39:52.820000,157.0,-25.0,-655.0,-900.0,-694.0,69.0,540.0,-556.0,-48.0
19:39:52.824000,145.0,-27.0,-635.0,-902.0,-683.0,71.0,540.0,-556.0,-48.0
19:39:52.829000,126.0,-25.0,-612.0,-910.0,-649.0,71.0,544.0,-559.0,-49.0
19:39:52.834000,103.0,-21.0,-592.0,-927.0,-600.0,76.0,544.0,-559.0,-49.0
19:39:52.839000,79.0,-17.0,-583.0,-945.0,-553.0,78.0,541.0,-552.0,-43.0
19:39:52.844000,51.0,-13.0,-589.0,-949.0,-521.0,78.0,541.0,-552.0,-43.0
19:39:52.848000,16.0,-7.0,-580.0,-940.0,-515.0,72.0,541.0,-552.0,-43.0
19:39:52.853000,-6.0,-3.0,-546.0,-943.0,-525.0,65.0,543.0,-555.0,-49.0
19:39:52.858000,-28.0,-7.0,-511.0,-952.0,-524.0,62.0,543.0,-555.0,-49.0
19:39:52.862000,-44.0,-7.0,-483.0,-952.0,-524.0,62.0,555.0,-541.0,-40.0
19:39:52.867000,-53.0,-9.0,-458.0,-940.0,-553.0,61.0,555.0,-541.0,-40.0
19:39:52.871000,-61.0,-16.0,-430.0,-929.0,-554.0,58.0,555.0,-541.0,-40.0
19:39:52.876000,-66.0,-20.0,-387.0,-920.0,-546.0,52.0,546.0,-546.0,-43.0
19:39:52.881000,-76.0,-24.0,-339.0,-920.0,-546.0,52.0,546.0,-546.0,-43.0
19:39:52.886000,-85.0,-32.0,-289.0,-923.0,-539.0,51.0,549.0,-538.0,-46.0
19:39:52.891000,-94.0,-41.0,-240.0,-930.0,-535.0,53.0,549.0,-538.0,-46.0
19:39:52.895000,-106.0,-49.0,-190.0,-938.0,-528.0,56.0,549.0,-538.0,-46.0
19:39:52.900000,-116.0,-59.0,-147.0,-938.0,-524.0,63.0,553.0,-532.0,-49.0
19:39:52.905000,-123.0,-66.0,-119.0,-925.0,-518.0,69.0,553.0,-532.0,-49.0
19:39:52.909000,-127.0,-72.0,-110.0,-915.0,-505.0,73.0,549.0,-531.0,-45.0
19:39:52.914000,-135.0,-74.0,-94.0,-904.0,-499.0,82.0,549.0,-531.0,-45.0
19:39:52.918000,-135.0,-74.0,-94.0,-888.0,-502.0,94.0,549.0,-531.0,-45.0
19:39:52.923000,-150.0,-71.0,-72.0,-888.0,-493.0,105.0,549.0,-529.0,-45.0
19:39:52.928000,-170.0,-63.0,-67.0,-905.0,-472.0,113.0,549.0,-529.0,-45.0
19:39:52.933000,-191.0,-57.0,-82.0,-916.0,-450.0,118.0,550.0,-537.0,-46.0
19:39:52.938000,-217.0,-53.0,-102.0,-914.0,-433.0,123.0,550.0,-537.0,-46.0
19:39:52.942000,-246.0,-50.0,-117.0,-902.0,-427.0,130.0,550.0,-537.0,-46.0
19:39:52.947000,-282.0,-54.0,-116.0,-888.0,-428.0,140.0,550.0,-540.0,-51.0
19:39:52.952000,-319.0,-70.0,-88.0,-873.0,-439.0,147.0,550.0,-540.0,-51.0
19:39:52.956000,-351.0,-93.0,-63.0,-847.0,-456.0,145.0,546.0,-528.0,-51.0
19:39:52.961000,-376.0,-121.0,-55.0,-806.0,-478.0,138.0,546.0,-528.0,-51.0
19:39:52.965000,-388.0,-154.0,-45.0,-769.0,-502.0,129.0,546.0,-528.0,-51.0
19:39:52.970000,-383.0,-191.0,-33.0,-751.0,-527.0,121.0,558.0,-532.0,-49.0
19:39:52.975000,-368.0,-235.0,-17.0,-757.0,-539.0,110.0,558.0,-532.0,-49.0
19:39:52.980000,-340.0,-277.0,-11.0,-757.0,-539.0,110.0,547.0,-531.0,-46.0
19:39:52.985000,-301.0,-318.0,-18.0,-772.0,-548.0,97.0,547.0,-531.0,-46.0
19:39:52.989000,-255.0,-352.0,-16.0,-784.0,-563.0,83.0,547.0,-531.0,-46.0
19:39:52.994000,-213.0,-380.0,5.0,-796.0,-579.0,72.0,549.0,-522.0,-48.0
19:39:52.999000,-172.0,-405.0,35.0,-813.0,-594.0,66.0,549.0,-522.0,-48.0
19:39:53.003000,-135.0,-420.0,73.0,-838.0,-603.0,58.0,550.0,-520.0,-52.0
19:39:53.008000,-105.0,-425.0,110.0,-868.0,-603.0,46.0,550.0,-520.0,-52.0
19:39:53.015000,-87.0,-422.0,135.0,-910.0,-568.0,17.0,550.0,-519.0,-54.0
19:39:53.017000,-77.0,-412.0,154.0,-910.0,-568.0,17.0,550.0,-519.0,-54.0
19:39:53.022000,-77.0,-412.0,154.0,-910.0,-538.0,5.0,550.0,-519.0,-54.0
19:39:53.027000,-100.0,-394.0,182.0,-907.0,-511.0,0.0,540.0,-526.0,-58.0
19:39:53.032000,-100.0,-394.0,182.0,-901.0,-497.0,-8.0,540.0,-526.0,-58.0
19:39:53.036000,-131.0,-387.0,175.0,-887.0,-497.0,-18.0,532.0,-520.0,-61.0
19:39:53.041000,-165.0,-387.0,165.0,-861.0,-498.0,-32.0,532.0,-520.0,-61.0
19:39:53.045000,-212.0,-389.0,151.0,-841.0,-486.0,-43.0,532.0,-520.0,-61.0
19:39:53.050000,-272.0,-401.0,134.0,-836.0,-450.0,-50.0,535.0,-514.0,-66.0
19:39:53.055000,-335.0,-422.0,114.0,-840.0,-386.0,-52.0,535.0,-514.0,-66.0
19:39:53.060000,-408.0,-454.0,77.0,-838.0,-309.0,-43.0,529.0,-519.0,-60.0
19:39:53.064000,-494.0,-497.0,18.0,-823.0,-243.0,-24.0,529.0,-519.0,-60.0
19:39:53.069000,-584.0,-555.0,-42.0,-792.0,-193.0,0.0,529.0,-519.0,-60.0
19:39:53.074000,-676.0,-616.0,-99.0,-745.0,-168.0,28.0,532.0,-523.0,-73.0
19:39:53.079000,-770.0,-680.0,-147.0,-714.0,-151.0,59.0,532.0,-523.0,-73.0
19:39:53.083000,-858.0,-744.0,-198.0,-714.0,-151.0,59.0,528.0,-519.0,-78.0
19:39:53.088000,-939.0,-810.0,-254.0,-726.0,-152.0,115.0,528.0,-519.0,-78.0
19:39:53.092000,-1007.0,-876.0,-293.0,-746.0,-189.0,139.0,528.0,-519.0,-78.0
19:39:53.097000,-1065.0,-932.0,-322.0,-746.0,-189.0,139.0,513.0,-519.0,-82.0
19:39:53.102000,-1119.0,-978.0,-345.0,-804.0,-249.0,204.0,513.0,-519.0,-82.0
19:39:53.107000,-1177.0,-1010.0,-368.0,-804.0,-249.0,204.0,517.0,-499.0,-73.0
19:39:53.111000,-1241.0,-1036.0,-396.0,-845.0,-233.0,251.0,517.0,-499.0,-73.0
19:39:53.116000,-1316.0,-1059.0,-422.0,-887.0,-192.0,308.0,517.0,-499.0,-73.0
19:39:53.121000,-1392.0,-1084.0,-450.0,-934.0,-136.0,364.0,517.0,-495.0,-94.0
19:39:53.126000,-1473.0,-1101.0,-474.0,-973.0,-96.0,413.0,517.0,-495.0,-94.0
19:39:53.130000,-1554.0,-1108.0,-487.0,-991.0,-95.0,445.0,507.0,-486.0,-99.0
19:39:53.135000,-1635.0,-1108.0,-516.0,-1012.0,-97.0,468.0,507.0,-486.0,-99.0
19:39:53.139000,-1635.0,-1108.0,-516.0,-1054.0,-74.0,493.0,507.0,-486.0,-99.0
19:39:53.144000,-1715.0,-1107.0,-557.0,-1089.0,-28.0,515.0,495.0,-460.0,-109.0
19:39:53.149000,-1796.0,-1102.0,-596.0,-1090.0,-1.0,538.0,495.0,-460.0,-109.0
19:39:53.154000,-1883.0,-1096.0,-623.0,-1065.0,-35.0,558.0,489.0,-445.0,-111.0
19:39:53.158000,-1956.0,-1093.0,-639.0,-1019.0,-99.0,569.0,489.0,-445.0,-111.0
19:39:53.163000,-2016.0,-1092.0,-657.0,-956.0,-164.0,585.0,489.0,-445.0,-111.0
19:39:53.167000,-2075.0,-1095.0,-651.0,-898.0,-212.0,605.0,489.0,-442.0,-118.0
19:39:53.173000,-2125.0,-1101.0,-649.0,-891.0,-219.0,617.0,489.0,-442.0,-118.0
19:39:53.177000,-2164.0,-1116.0,-658.0,-897.0,-203.0,624.0,478.0,-415.0,-127.0
19:39:53.181000,-2198.0,-1130.0,-680.0,-877.0,-181.0,639.0,478.0,-415.0,-127.0
19:39:53.186000,-2229.0,-1159.0,-712.0,-842.0,-164.0,662.0,478.0,-415.0,-127.0
19:39:53.191000,-2250.0,-1191.0,-735.0,-812.0,-167.0,685.0,483.0,-402.0,-117.0
19:39:53.196000,-2267.0,-1226.0,-739.0,-817.0,-159.0,716.0,483.0,-402.0,-117.0
19:39:53.201000,-2293.0,-1268.0,-745.0,-817.0,-159.0,716.0,462.0,-388.0,-130.0
19:39:53.205000,-2329.0,-1304.0,-746.0,-835.0,-120.0,738.0,462.0,-388.0,-130.0
19:39:53.210000,-2368.0,-1340.0,-729.0,-824.0,-75.0,752.0,462.0,-388.0,-130.0
19:39:53.215000,-2403.0,-1378.0,-709.0,-797.0,-52.0,772.0,445.0,-349.0,-141.0
19:39:53.220000,-2450.0,-1413.0,-697.0,-776.0,-41.0,796.0,445.0,-349.0,-141.0
19:39:53.224000,-2510.0,-1449.0,-697.0,-762.0,0.0,821.0,439.0,-343.0,-132.0
19:39:53.229000,-2589.0,-1491.0,-692.0,-745.0,72.0,849.0,439.0,-343.0,-132.0
19:39:53.233000,-2676.0,-1534.0,-687.0,-721.0,148.0,882.0,439.0,-343.0,-132.0
19:39:53.238000,-2768.0,-1586.0,-683.0,-688.0,212.0,918.0,427.0,-325.0,-142.0
19:39:53.243000,-2859.0,-1638.0,-679.0,-654.0,237.0,956.0,427.0,-325.0,-142.0
19:39:53.248000,-2947.0,-1677.0,-676.0,-640.0,233.0,983.0,415.0,-300.0,-148.0
19:39:53.252000,-2947.0,-1677.0,-676.0,-644.0,225.0,1003.0,415.0,-300.0,-148.0
19:39:53.257000,-3033.0,-1703.0,-662.0,-668.0,208.0,1020.0,415.0,-300.0,-148.0
19:39:53.262000,-3115.0,-1717.0,-634.0,-719.0,190.0,1030.0,408.0,-286.0,-138.0
19:39:53.267000,-3196.0,-1712.0,-605.0,-786.0,175.0,1042.0,408.0,-286.0,-138.0
19:39:53.271000,-3271.0,-1696.0,-580.0,-847.0,159.0,1051.0,396.0,-261.0,-141.0
19:39:53.276000,-3344.0,-1669.0,-553.0,-885.0,150.0,1047.0,396.0,-261.0,-141.0
19:39:53.280000,-3409.0,-1631.0,-526.0,-913.0,144.0,1042.0,396.0,-261.0,-141.0
19:39:53.285000,-3466.0,-1581.0,-509.0,-930.0,124.0,1040.0,369.0,-222.0,-124.0
19:39:53.290000,-3508.0,-1520.0,-491.0,-927.0,75.0,1030.0,369.0,-222.0,-124.0
19:39:53.295000,-3533.0,-1461.0,-469.0,-918.0,36.0,1022.0,354.0,-198.0,-115.0
19:39:53.299000,-3546.0,-1410.0,-466.0,-903.0,19.0,1015.0,354.0,-198.0,-115.0
19:39:53.304000,-3535.0,-1360.0,-478.0,-858.0,-7.0,999.0,354.0,-198.0,-115.0
19:39:53.309000,-3499.0,-1312.0,-490.0,-795.0,-44.0,983.0,348.0,-177.0,-108.0
19:39:53.314000,-3448.0,-1272.0,-501.0,-795.0,-44.0,983.0,348.0,-177.0,-108.0
19:39:53.318000,-3388.0,-1241.0,-522.0,-736.0,-74.0,972.0,342.0,-174.0,-100.0
19:39:53.323000,-3324.0,-1202.0,-544.0,-685.0,-78.0,955.0,342.0,-174.0,-100.0
19:39:53.327000,-3259.0,-1155.0,-553.0,-645.0,-64.0,938.0,342.0,-174.0,-100.0
19:39:53.332000,-3193.0,-1103.0,-546.0,-620.0,-50.0,923.0,330.0,-138.0,-82.0
19:39:53.337000,-3122.0,-1055.0,-526.0,-621.0,-26.0,909.0,330.0,-138.0,-82.0
19:39:53.342000,-3052.0,-999.0,-494.0,-635.0,-9.0,891.0,319.0,-124.0,-58.0
19:39:53.346000,-2973.0,-940.0,-449.0,-648.0,-9.0,859.0,319.0,-124.0,-58.0
