hh:mm:ss.ms,gyroX[mdps],gyroY[mdps],gyroZ[mdps],accX[mg],accY[mg],accZ[mg],magX[mG],magY[mG],magZ[mG]
19:41:11.854000,-1772.0,-1390.0,-1858.0,-819.0,515.0,-1052.0,271.0,-550.0,495.0
19:41:11.860000,-1757.0,-1402.0,-1791.0,-823.0,412.0,-1068.0,291.0,-558.0,496.0
19:41:11.864000,-1736.0,-1423.0,-1755.0,-821.0,376.0,-1004.0,291.0,-558.0,496.0
19:41:11.869000,-1704.0,-1421.0,-1738.0,-821.0,376.0,-1004.0,294.0,-570.0,487.0
19:41:11.874000,-1670.0,-1436.0,-1711.0,-809.0,326.0,-1005.0,294.0,-570.0,487.0
19:41:11.879000,-1678.0,-1434.0,-1698.0,-731.0,254.0,-918.0,298.0,-579.0,474.0
19:41:11.883000,-1647.0,-1411.0,-1722.0,-792.0,149.0,-924.0,298.0,-579.0,474.0
19:41:11.887000,-1647.0,-1411.0,-1722.0,-718.0,135.0,-890.0,298.0,-579.0,474.0
19:41:11.893000,-1606.0,-1402.0,-1657.0,-654.0,-60.0,-843.0,325.0,-585.0,472.0
19:41:11.897000,-1563.0,-1372.0,-1577.0,-616.0,-64.0,-832.0,325.0,-585.0,472.0
19:41:11.902000,-1565.0,-1383.0,-1524.0,-615.0,-126.0,-743.0,346.0,-606.0,459.0
19:41:11.907000,-1570.0,-1383.0,-1585.0,-684.0,-277.0,-775.0,346.0,-606.0,459.0
19:41:11.911000,-1516.0,-1344.0,-1687.0,-523.0,-304.0,-767.0,346.0,-606.0,459.0
19:41:11.916000,-1430.0,-1343.0,-1673.0,-422.0,-433.0,-718.0,364.0,-613.0,447.0
19:41:11.921000,-1363.0,-1304.0,-1605.0,-395.0,-389.0,-767.0,364.0,-613.0,447.0
19:41:11.926000,-1331.0,-1249.0,-1540.0,-371.0,-386.0,-711.0,367.0,-612.0,429.0
19:41:11.930000,-1273.0,-1236.0,-1544.0,-514.0,-484.0,-707.0,367.0,-612.0,429.0
19:41:11.934000,-1237.0,-1217.0,-1631.0,-502.0,-384.0,-716.0,367.0,-612.0,429.0
19:41:11.940000,-1207.0,-1237.0,-1716.0,-486.0,-403.0,-670.0,379.0,-616.0,436.0
19:41:11.944000,-1171.0,-1216.0,-1782.0,-478.0,-412.0,-740.0,379.0,-616.0,436.0
19:41:11.948000,-1190.0,-1160.0,-1731.0,-325.0,-374.0,-679.0,406.0,-619.0,424.0
19:41:11.954000,-1240.0,-1149.0,-1583.0,-325.0,-374.0,-679.0,406.0,-619.0,424.0
19:41:11.958000,-1272.0,-1121.0,-1586.0,-422.0,-505.0,-645.0,406.0,-619.0,424.0
19:41:11.963000,-1249.0,-1157.0,-1594.0,-456.0,-453.0,-695.0,403.0,-621.0,423.0
19:41:11.968000,-1204.0,-1135.0,-1601.0,-372.0,-548.0,-650.0,403.0,-621.0,423.0
19:41:11.973000,-1141.0,-1054.0,-1563.0,-369.0,-746.0,-758.0,435.0,-619.0,403.0
19:41:11.977000,-1120.0,-1047.0,-1515.0,-311.0,-691.0,-762.0,435.0,-619.0,403.0
19:41:11.981000,-1096.0,-1015.0,-1551.0,-451.0,-684.0,-722.0,435.0,-619.0,403.0
19:41:11.987000,-1038.0,-1049.0,-1382.0,-459.0,-616.0,-776.0,454.0,-628.0,390.0
19:41:11.991000,-1058.0,-1022.0,-1236.0,-308.0,-677.0,-729.0,454.0,-628.0,390.0
19:41:11.996000,-1068.0,-1001.0,-1217.0,-344.0,-694.0,-768.0,448.0,-630.0,378.0
19:41:12.001000,-1068.0,-1001.0,-1217.0,-386.0,-530.0,-796.0,448.0,-630.0,378.0
19:41:12.005000,-1059.0,-984.0,-1315.0,-463.0,-493.0,-832.0,448.0,-630.0,378.0
19:41:12.010000,-1008.0,-945.0,-1479.0,-543.0,-474.0,-878.0,456.0,-627.0,369.0
19:41:12.015000,-987.0,-940.0,-1537.0,-550.0,-587.0,-870.0,456.0,-627.0,369.0
19:41:12.020000,-961.0,-940.0,-1492.0,-573.0,-652.0,-904.0,469.0,-622.0,373.0
19:41:12.024000,-935.0,-944.0,-1431.0,-586.0,-568.0,-915.0,469.0,-622.0,373.0
19:41:12.028000,-933.0,-945.0,-1460.0,-573.0,-437.0,-920.0,469.0,-622.0,373.0
19:41:12.034000,-911.0,-944.0,-1518.0,-526.0,-450.0,-916.0,472.0,-625.0,366.0
19:41:12.038000,-902.0,-961.0,-1485.0,-392.0,-594.0,-910.0,472.0,-625.0,366.0
19:41:12.043000,-856.0,-984.0,-1327.0,-365.0,-602.0,-928.0,480.0,-615.0,360.0
19:41:12.048000,-794.0,-989.0,-1281.0,-469.0,-499.0,-950.0,480.0,-615.0,360.0
19:41:12.052000,-732.0,-985.0,-1312.0,-556.0,-411.0,-946.0,480.0,-615.0,360.0
19:41:12.057000,-683.0,-993.0,-1281.0,-583.0,-412.0,-942.0,498.0,-609.0,343.0
19:41:12.062000,-631.0,-990.0,-1124.0,-583.0,-412.0,-942.0,498.0,-609.0,343.0
19:41:12.067000,-580.0,-971.0,-984.0,-605.0,-496.0,-961.0,517.0,-618.0,330.0
19:41:12.071000,-517.0,-956.0,-921.0,-645.0,-571.0,-957.0,517.0,-618.0,330.0
19:41:12.075000,-502.0,-931.0,-940.0,-645.0,-571.0,-957.0,517.0,-618.0,330.0
19:41:12.081000,-506.0,-921.0,-923.0,-546.0,-548.0,-932.0,520.0,-603.0,340.0
19:41:12.085000,-523.0,-902.0,-892.0,-457.0,-509.0,-905.0,520.0,-603.0,340.0
19:41:12.090000,-546.0,-872.0,-811.0,-464.0,-487.0,-889.0,534.0,-597.0,325.0
19:41:12.095000,-559.0,-851.0,-732.0,-517.0,-478.0,-877.0,534.0,-597.0,325.0
19:41:12.099000,-559.0,-851.0,-732.0,-613.0,-445.0,-867.0,534.0,-597.0,325.0
19:41:12.104000,-620.0,-804.0,-751.0,-668.0,-398.0,-851.0,543.0,-597.0,312.0
19:41:12.109000,-620.0,-804.0,-751.0,-652.0,-409.0,-858.0,543.0,-597.0,312.0
19:41:12.113000,-565.0,-799.0,-782.0,-599.0,-448.0,-859.0,550.0,-601.0,330.0
19:41:12.118000,-475.0,-795.0,-808.0,-516.0,-439.0,-825.0,550.0,-601.0,330.0
19:41:12.122000,-439.0,-791.0,-765.0,-509.0,-458.0,-787.0,550.0,-601.0,330.0
19:41:12.128000,-457.0,-770.0,-768.0,-572.0,-448.0,-765.0,558.0,-601.0,304.0
19:41:12.132000,-450.0,-771.0,-788.0,-617.0,-468.0,-748.0,558.0,-601.0,304.0
19:41:12.137000,-438.0,-779.0,-717.0,-620.0,-525.0,-749.0,556.0,-598.0,295.0
19:41:12.142000,-439.0,-763.0,-576.0,-615.0,-550.0,-744.0,556.0,-598.0,295.0
19:41:12.146000,-419.0,-770.0,-483.0,-662.0,-521.0,-736.0,556.0,-598.0,295.0
19:41:12.151000,-372.0,-783.0,-555.0,-636.0,-488.0,-703.0,561.0,-595.0,280.0
19:41:12.155000,-399.0,-787.0,-656.0,-501.0,-413.0,-646.0,561.0,-595.0,280.0
19:41:12.161000,-485.0,-791.0,-639.0,-428.0,-265.0,-636.0,568.0,-604.0,285.0
19:41:12.165000,-502.0,-802.0,-662.0,-516.0,-223.0,-645.0,568.0,-604.0,285.0
19:41:12.170000,-485.0,-806.0,-721.0,-516.0,-223.0,-645.0,568.0,-592.0,271.0
19:41:12.175000,-466.0,-823.0,-753.0,-613.0,-283.0,-649.0,568.0,-592.0,271.0
19:41:12.179000,-443.0,-838.0,-725.0,-653.0,-356.0,-639.0,568.0,-592.0,271.0
19:41:12.183000,-420.0,-839.0,-614.0,-665.0,-393.0,-640.0,577.0,-586.0,267.0
19:41:12.189000,-401.0,-847.0,-619.0,-688.0,-401.0,-638.0,577.0,-586.0,267.0
19:41:12.193000,-347.0,-861.0,-678.0,-714.0,-346.0,-635.0,583.0,-574.0,247.0
19:41:12.197000,-317.0,-861.0,-613.0,-673.0,-360.0,-629.0,583.0,-574.0,247.0
19:41:12.202000,-317.0,-861.0,-613.0,-642.0,-418.0,-608.0,583.0,-574.0,247.0
19:41:12.207000,-329.0,-865.0,-475.0,-685.0,-428.0,-597.0,583.0,-576.0,249.0
19:41:12.212000,-301.0,-858.0,-426.0,-751.0,-421.0,-601.0,583.0,-576.0,249.0
19:41:12.217000,-301.0,-858.0,-426.0,-764.0,-432.0,-601.0,588.0,-573.0,237.0
19:41:12.222000,-290.0,-845.0,-408.0,-741.0,-405.0,-595.0,588.0,-573.0,237.0
19:41:12.226000,-271.0,-837.0,-408.0,-711.0,-349.0,-592.0,588.0,-573.0,237.0
19:41:12.231000,-239.0,-831.0,-437.0,-677.0,-310.0,-585.0,583.0,-567.0,238.0
19:41:12.236000,-235.0,-815.0,-479.0,-652.0,-305.0,-574.0,583.0,-567.0,238.0
19:41:12.240000,-219.0,-806.0,-473.0,-653.0,-342.0,-575.0,589.0,-564.0,232.0
19:41:12.245000,-202.0,-795.0,-433.0,-692.0,-379.0,-576.0,589.0,-564.0,232.0
19:41:12.249000,-179.0,-796.0,-419.0,-728.0,-380.0,-574.0,589.0,-564.0,232.0
19:41:12.255000,-165.0,-791.0,-423.0,-735.0,-366.0,-568.0,591.0,-562.0,223.0
19:41:12.259000,-170.0,-786.0,-410.0,-706.0,-341.0,-554.0,591.0,-562.0,223.0
19:41:12.264000,-168.0,-788.0,-374.0,-706.0,-326.0,-545.0,595.0,-561.0,220.0
19:41:12.269000,-170.0,-783.0,-308.0,-668.0,-290.0,-543.0,595.0,-561.0,220.0
19:41:12.273000,-189.0,-763.0,-341.0,-718.0,-238.0,-544.0,595.0,-561.0,220.0
19:41:12.278000,-206.0,-745.0,-401.0,-718.0,-238.0,-544.0,603.0,-559.0,207.0
19:41:12.283000,-221.0,-726.0,-400.0,-731.0,-238.0,-548.0,603.0,-559.0,207.0
19:41:12.287000,-238.0,-702.0,-401.0,-731.0,-238.0,-548.0,601.0,-555.0,208.0
19:41:12.292000,-249.0,-677.0,-427.0,-750.0,-207.0,-548.0,601.0,-555.0,208.0
19:41:12.296000,-262.0,-656.0,-389.0,-748.0,-216.0,-548.0,601.0,-555.0,208.0
19:41:12.302000,-261.0,-644.0,-305.0,-732.0,-264.0,-550.0,619.0,-556.0,196.0
19:41:12.306000,-276.0,-623.0,-294.0,-761.0,-264.0,-549.0,619.0,-556.0,196.0
19:41:12.311000,-273.0,-607.0,-312.0,-801.0,-237.0,-546.0,607.0,-552.0,193.0
19:41:12.316000,-269.0,-591.0,-288.0,-799.0,-246.0,-550.0,607.0,-552.0,193.0
19:41:12.320000,-269.0,-591.0,-288.0,-791.0,-246.0,-549.0,607.0,-552.0,193.0
19:41:12.325000,-266.0,-585.0,-275.0,-795.0,-207.0,-542.0,615.0,-550.0,205.0
19:41:12.330000,-260.0,-586.0,-284.0,-793.0,-193.0,-538.0,615.0,-550.0,205.0
19:41:12.334000,-264.0,-581.0,-270.0,-808.0,-189.0,-532.0,615.0,-550.0,205.0
19:41:12.339000,-272.0,-578.0,-283.0,-823.0,-168.0,-521.0,615.0,-550.0,205.0
19:41:12.343000,-280.0,-580.0,-286.0,-807.0,-162.0,-509.0,615.0,-550.0,205.0
19:41:12.348000,-297.0,-581.0,-259.0,-786.0,-157.0,-500.0,619.0,-543.0,178.0
19:41:12.353000,-317.0,-577.0,-240.0,-788.0,-146.0,-488.0,619.0,-543.0,178.0
19:41:12.358000,-334.0,-581.0,-242.0,-808.0,-128.0,-478.0,612.0,-544.0,174.0
19:41:12.363000,-341.0,-587.0,-275.0,-817.0,-129.0,-467.0,612.0,-544.0,174.0
19:41:12.367000,-347.0,-592.0,-277.0,-808.0,-162.0,-452.0,612.0,-544.0,174.0
19:41:12.372000,-361.0,-595.0,-249.0,-801.0,-204.0,-441.0,613.0,-538.0,175.0
19:41:12.377000,-365.0,-600.0,-203.0,-809.0,-215.0,-433.0,613.0,-538.0,175.0
19:41:12.381000,-366.0,-606.0,-193.0,-809.0,-215.0,-433.0,621.0,-543.0,169.0
19:41:12.386000,-366.0,-603.0,-205.0,-812.0,-190.0,-414.0,621.0,-543.0,169.0
19:41:12.390000,-374.0,-599.0,-200.0,-812.0,-190.0,-414.0,621.0,-543.0,169.0
19:41:12.395000,-381.0,-590.0,-181.0,-811.0,-194.0,-402.0,607.0,-541.0,163.0
19:41:12.400000,-386.0,-582.0,-172.0,-828.0,-193.0,-396.0,607.0,-541.0,163.0
19:41:12.405000,-396.0,-570.0,-174.0,-852.0,-194.0,-390.0,612.0,-531.0,162.0
19:41:12.410000,-398.0,-558.0,-178.0,-878.0,-197.0,-387.0,612.0,-531.0,162.0
19:41:12.414000,-402.0,-546.0,-186.0,-902.0,-200.0,-387.0,612.0,-531.0,162.0
19:41:12.418000,-411.0,-539.0,-195.0,-920.0,-191.0,-383.0,622.0,-528.0,147.0
19:41:12.424000,-431.0,-532.0,-201.0,-926.0,-174.0,-374.0,622.0,-528.0,147.0
19:41:12.428000,-450.0,-532.0,-195.0,-905.0,-164.0,-366.0,609.0,-525.0,142.0
19:41:12.433000,-468.0,-526.0,-194.0,-879.0,-155.0,-360.0,609.0,-525.0,142.0
19:41:12.437000,-468.0,-526.0,-194.0,-871.0,-145.0,-354.0,609.0,-525.0,142.0
19:41:12.442000,-490.0,-515.0,-194.0,-875.0,-144.0,-348.0,627.0,-525.0,136.0
19:41:12.447000,-507.0,-506.0,-175.0,-897.0,-143.0,-348.0,627.0,-525.0,136.0
19:41:12.452000,-521.0,-490.0,-170.0,-926.0,-149.0,-350.0,612.0,-534.0,127.0
19:41:12.457000,-525.0,-473.0,-170.0,-943.0,-179.0,-355.0,612.0,-534.0,127.0
19:41:12.461000,-528.0,-446.0,-156.0,-958.0,-213.0,-361.0,615.0,-535.0,124.0
19:41:12.466000,-514.0,-420.0,-142.0,-969.0,-238.0,-363.0,615.0,-535.0,124.0
19:41:12.470000,-491.0,-400.0,-136.0,-972.0,-260.0,-365.0,615.0,-535.0,124.0
19:41:12.475000,-459.0,-378.0,-144.0,-969.0,-274.0,-365.0,616.0,-525.0,121.0
19:41:12.480000,-429.0,-358.0,-156.0,-951.0,-279.0,-365.0,616.0,-525.0,121.0
19:41:12.485000,-390.0,-345.0,-148.0,-951.0,-279.0,-365.0,621.0,-531.0,120.0
19:41:12.489000,-361.0,-337.0,-131.0,-918.0,-256.0,-359.0,621.0,-531.0,120.0
19:41:12.494000,-337.0,-332.0,-133.0,-899.0,-229.0,-355.0,621.0,-531.0,120.0
19:41:12.499000,-311.0,-337.0,-142.0,-899.0,-229.0,-355.0,619.0,-522.0,114.0
19:41:12.504000,-293.0,-347.0,-156.0,-861.0,-213.0,-347.0,619.0,-522.0,114.0
19:41:12.508000,-282.0,-360.0,-163.0,-821.0,-185.0,-342.0,619.0,-525.0,108.0
19:41:12.513000,-282.0,-375.0,-159.0,-803.0,-150.0,-338.0,619.0,-525.0,108.0
19:41:12.517000,-287.0,-392.0,-175.0,-811.0,-110.0,-334.0,619.0,-525.0,108.0
19:41:12.522000,-300.0,-408.0,-181.0,-815.0,-78.0,-329.0,625.0,-519.0,111.0
19:41:12.527000,-312.0,-425.0,-155.0,-803.0,-77.0,-326.0,625.0,-519.0,111.0
19:41:12.531000,-312.0,-425.0,-155.0,-810.0,-80.0,-325.0,613.0,-514.0,102.0
19:41:12.536000,-353.0,-447.0,-138.0,-838.0,-57.0,-324.0,613.0,-514.0,102.0
19:41:12.541000,-353.0,-447.0,-138.0,-859.0,-34.0,-316.0,613.0,-514.0,102.0
19:41:12.546000,-372.0,-466.0,-128.0,-862.0,-27.0,-307.0,618.0,-516.0,100.0
19:41:12.551000,-403.0,-478.0,-120.0,-857.0,-15.0,-298.0,618.0,-516.0,100.0
19:41:12.555000,-429.0,-496.0,-133.0,-849.0,-8.0,-288.0,622.0,-520.0,109.0
19:41:12.560000,-452.0,-516.0,-135.0,-841.0,-15.0,-279.0,622.0,-520.0,109.0
19:41:12.564000,-483.0,-534.0,-110.0,-847.0,-7.0,-270.0,622.0,-520.0,109.0
19:41:12.569000,-518.0,-550.0,-109.0,-864.0,22.0,-259.0,622.0,-516.0,90.0
19:41:12.574000,-553.0,-570.0,-126.0,-870.0,38.0,-250.0,622.0,-516.0,90.0
19:41:12.579000,-591.0,-580.0,-126.0,-887.0,41.0,-242.0,615.0,-502.0,91.0
19:41:12.583000,-637.0,-587.0,-124.0,-921.0,37.0,-228.0,615.0,-502.0,91.0
19:41:12.588000,-682.0,-597.0,-112.0,-945.0,25.0,-210.0,615.0,-502.0,91.0
19:41:12.593000,-727.0,-610.0,-94.0,-951.0,18.0,-193.0,615.0,-514.0,76.0
19:41:12.598000,-779.0,-623.0,-91.0,-949.0,18.0,-178.0,615.0,-514.0,76.0
19:41:12.602000,-828.0,-634.0,-88.0,-949.0,18.0,-178.0,618.0,-505.0,85.0
19:41:12.607000,-873.0,-639.0,-98.0,-949.0,13.0,-169.0,618.0,-505.0,85.0
19:41:12.611000,-924.0,-642.0,-113.0,-957.0,15.0,-162.0,618.0,-505.0,85.0
19:41:12.616000,-983.0,-645.0,-92.0,-967.0,22.0,-149.0,619.0,-505.0,81.0
19:41:12.621000,-1050.0,-647.0,-58.0,-1019.0,37.0,-117.0,619.0,-505.0,81.0
19:41:12.626000,-1121.0,-648.0,-46.0,-1019.0,37.0,-117.0,616.0,-498.0,73.0
19:41:12.630000,-1180.0,-652.0,-93.0,-1048.0,47.0,-103.0,616.0,-498.0,73.0
19:41:12.635000,-1241.0,-656.0,-131.0,-1044.0,40.0,-88.0,616.0,-498.0,73.0
19:41:12.640000,-1297.0,-668.0,-121.0,-1005.0,3.0,-71.0,619.0,-499.0,51.0
19:41:12.645000,-1355.0,-682.0,-133.0,-978.0,-13.0,-55.0,619.0,-499.0,51.0
19:41:12.649000,-1414.0,-700.0,-191.0,-981.0,8.0,-38.0,615.0,-484.0,43.0
19:41:12.654000,-1414.0,-700.0,-191.0,-984.0,37.0,-22.0,615.0,-484.0,43.0
19:41:12.658000,-1477.0,-718.0,-252.0,-972.0,40.0,-7.0,615.0,-484.0,43.0
19:41:12.663000,-1546.0,-728.0,-271.0,-976.0,26.0,11.0,610.0,-486.0,30.0
19:41:12.668000,-1614.0,-748.0,-273.0,-1001.0,21.0,31.0,610.0,-486.0,30.0
19:41:12.673000,-1687.0,-772.0,-289.0,-1011.0,18.0,49.0,603.0,-484.0,42.0
19:41:12.677000,-1773.0,-793.0,-308.0,-1000.0,31.0,67.0,603.0,-484.0,42.0
19:41:12.682000,-1861.0,-821.0,-340.0,-989.0,73.0,92.0,603.0,-484.0,42.0
19:41:12.687000,-1959.0,-856.0,-389.0,-966.0,104.0,127.0,604.0,-460.0,31.0
19:41:12.692000,-2069.0,-900.0,-417.0,-919.0,100.0,163.0,604.0,-460.0,31.0
19:41:12.696000,-2186.0,-956.0,-413.0,-874.0,79.0,193.0,609.0,-481.0,21.0
19:41:12.701000,-2303.0,-1019.0,-408.0,-848.0,66.0,220.0,609.0,-481.0,21.0
19:41:12.705000,-2418.0,-1091.0,-421.0,-831.0,63.0,244.0,609.0,-481.0,21.0
19:41:12.710000,-2522.0,-1171.0,-448.0,-809.0,53.0,264.0,604.0,-441.0,9.0
19:41:12.715000,-2622.0,-1257.0,-487.0,-809.0,38.0,264.0,604.0,-441.0,9.0
19:41:12.720000,-2733.0,-1346.0,-535.0,-788.0,38.0,285.0,592.0,-435.0,-10.0
19:41:12.724000,-2839.0,-1449.0,-590.0,-766.0,46.0,310.0,592.0,-435.0,-10.0
19:41:12.729000,-2944.0,-1560.0,-611.0,-731.0,56.0,341.0,592.0,-435.0,-10.0
19:41:12.734000,-3045.0,-1670.0,-622.0,-703.0,31.0,370.0,592.0,-421.0,-21.0
19:41:12.739000,-3126.0,-1782.0,-683.0,-715.0,22.0,391.0,592.0,-421.0,-21.0
19:41:12.743000,-3207.0,-1893.0,-756.0,-742.0,29.0,417.0,589.0,-409.0,-18.0
19:41:12.748000,-3295.0,-1999.0,-799.0,-741.0,24.0,454.0,589.0,-409.0,-18.0
19:41:12.752000,-3295.0,-1999.0,-799.0,-728.0,36.0,492.0,589.0,-409.0,-18.0
19:41:12.757000,-3470.0,-2200.0,-905.0,-720.0,60.0,531.0,574.0,-388.0,-28.0
19:41:12.762000,-3470.0,-2200.0,-905.0,-712.0,69.0,576.0,574.0,-388.0,-28.0
19:41:12.767000,-3551.0,-2297.0,-965.0,-700.0,64.0,619.0,571.0,-366.0,-42.0
19:41:12.771000,-3621.0,-2382.0,-1004.0,-706.0,55.0,658.0,571.0,-366.0,-42.0
19:41:12.776000,-3686.0,-2459.0,-1030.0,-721.0,61.0,696.0,571.0,-366.0,-42.0
19:41:12.781000,-3738.0,-2534.0,-1056.0,-734.0,83.0,735.0,553.0,-340.0,-49.0
19:41:12.786000,-3784.0,-2608.0,-1106.0,-742.0,117.0,769.0,553.0,-340.0,-49.0
19:41:12.790000,-3821.0,-2676.0,-1173.0,-735.0,134.0,803.0,529.0,-306.0,-60.0
19:41:12.795000,-3847.0,-2735.0,-1218.0,-738.0,117.0,841.0,529.0,-306.0,-60.0
19:41:12.799000,-3861.0,-2788.0,-1230.0,-753.0,104.0,866.0,529.0,-306.0,-60.0
19:41:12.804000,-3863.0,-2823.0,-1232.0,-789.0,102.0,885.0,498.0,-283.0,-70.0
19:41:12.809000,-3864.0,-2853.0,-1239.0,-828.0,124.0,911.0,498.0,-283.0,-70.0
19:41:12.814000,-3868.0,-2880.0,-1251.0,-828.0,124.0,911.0,496.0,-255.0,-72.0
19:41:12.818000,-3875.0,-2899.0,-1247.0,-815.0,200.0,954.0,496.0,-255.0,-72.0
19:41:12.823000,-3891.0,-2913.0,-1257.0,-800.0,242.0,984.0,496.0,-255.0,-72.0
19:41:12.828000,-3896.0,-2928.0,-1258.0,-800.0,242.0,984.0,478.0,-235.0,-75.0
19:41:12.833000,-3894.0,-2942.0,-1234.0,-780.0,257.0,1009.0,478.0,-235.0,-75.0
19:41:12.837000,-3898.0,-2935.0,-1208.0,-778.0,256.0,1031.0,460.0,-211.0,-67.0
19:41:12.842000,-3884.0,-2932.0,-1173.0,-778.0,256.0,1031.0,460.0,-211.0,-67.0
19:41:12.846000,-3863.0,-2922.0,-1148.0,-805.0,259.0,1039.0,460.0,-211.0,-67.0
19:41:12.851000,-3832.0,-2898.0,-1143.0,-822.0,264.0,1036.0,432.0,-181.0,-55.0
19:41:12.856000,-3784.0,-2876.0,-1131.0,-837.0,262.0,1035.0,432.0,-181.0,-55.0
19:41:12.861000,-3732.0,-2840.0,-1105.0,-849.0,250.0,1032.0,408.0,-136.0,-58.0
19:41:12.865000,-3665.0,-2809.0,-1072.0,-847.0,237.0,1026.0,408.0,-136.0,-58.0
19:41:12.870000,-3665.0,-2809.0,-1072.0,-834.0,231.0,1026.0,408.0,-136.0,-58.0
19:41:12.875000,-3599.0,-2769.0,-1034.0,-812.0,232.0,1023.0,385.0,-120.0,-51.0
19:41:12.879000,-3539.0,-2711.0,-987.0,-808.0,243.0,1016.0,385.0,-120.0,-51.0
19:41:12.884000,-3471.0,-2649.0,-945.0,-834.0,248.0,1004.0,369.0,-108.0,-10.0
19:41:12.889000,-3389.0,-2587.0,-902.0,-877.0,242.0,979.0,369.0,-108.0,-10.0
19:41:12.894000,-3287.0,-2516.0,-865.0,-916.0,229.0,946.0,346.0,-88.0,-19.0
19:41:12.898000,-3186.0,-2438.0,-829.0,-938.0,223.0,919.0,346.0,-88.0,-19.0
19:41:12.902000,-3087.0,-2356.0,-805.0,-936.0,235.0,888.0,346.0,-88.0,-19.0
19:41:12.908000,-2982.0,-2266.0,-789.0,-910.0,241.0,855.0,340.0,-81.0,3.0
19:41:12.912000,-2873.0,-2174.0,-767.0,-886.0,246.0,819.0,340.0,-81.0,3.0
19:41:12.917000,-2760.0,-2078.0,-749.0,-876.0,268.0,786.0,322.0,-60.0,18.0
19:41:12.922000,-2648.0,-1985.0,-742.0,-859.0,293.0,756.0,322.0,-60.0,18.0
19:41:12.926000,-2537.0,-1894.0,-728.0,-822.0,292.0,725.0,322.0,-60.0,18.0
19:41:12.931000,-2425.0,-1809.0,-680.0,-777.0,280.0,695.0,301.0,-42.0,42.0
19:41:12.936000,-2314.0,-1725.0,-622.0,-777.0,280.0,695.0,301.0,-42.0,42.0
19:41:12.941000,-2207.0,-1639.0,-595.0,-744.0,300.0,661.0,289.0,-33.0,49.0
19:41:12.945000,-2114.0,-1560.0,-598.0,-729.0,359.0,632.0,289.0,-33.0,49.0
19:41:12.949000,-2034.0,-1490.0,-592.0,-706.0,422.0,609.0,289.0,-33.0,49.0
19:41:12.955000,-1968.0,-1427.0,-565.0,-665.0,472.0,590.0,285.0,-28.0,63.0
19:41:12.959000,-1909.0,-1367.0,-536.0,-628.0,512.0,573.0,285.0,-28.0,63.0
19:41:12.964000,-1851.0,-1325.0,-518.0,-601.0,534.0,560.0,279.0,-25.0,67.0
19:41:12.969000,-1795.0,-1282.0,-518.0,-569.0,561.0,545.0,279.0,-25.0,67.0
19:41:12.973000,-1795.0,-1282.0,-518.0,-519.0,578.0,528.0,279.0,-25.0,67.0
19:41:12.978000,-1694.0,-1207.0,-461.0,-472.0,582.0,516.0,271.0,-24.0,85.0
19:41:12.983000,-1694.0,-1207.0,-461.0,-443.0,594.0,504.0,271.0,-24.0,85.0
19:41:12.988000,-1654.0,-1171.0,-424.0,-438.0,608.0,495.0,265.0,-13.0,85.0
19:41:12.992000,-1621.0,-1141.0,-376.0,-461.0,633.0,487.0,265.0,-13.0,85.0
19:41:12.996000,-1595.0,-1108.0,-326.0,-498.0,666.0,483.0,265.0,-13.0,85.0
19:41:13.002000,-1574.0,-1080.0,-291.0,-516.0,684.0,485.0,255.0,-10.0,100.0
19:41:13.006000,-1548.0,-1060.0,-273.0,-489.0,667.0,484.0,255.0,-10.0,100.0
19:41:13.011000,-1519.0,-1040.0,-249.0,-433.0,630.0,477.0,246.0,-1.0,124.0
19:41:13.016000,-1487.0,-1011.0,-203.0,-396.0,608.0,476.0,246.0,-1.0,124.0
19:41:13.020000,-1462.0,-989.0,-157.0,-383.0,617.0,479.0,246.0,-1.0,124.0
19:41:13.025000,-1440.0,-968.0,-137.0,-378.0,642.0,478.0,244.0,0.0,127.0
19:41:13.030000,-1414.0,-942.0,-129.0,-372.0,672.0,472.0,244.0,0.0,127.0
19:41:13.035000,-1386.0,-908.0,-130.0,-372.0,672.0,472.0,243.0,0.0,138.0
19:41:13.039000,-1369.0,-863.0,-132.0,-366.0,684.0,462.0,243.0,0.0,138.0
19:41:13.043000,-1360.0,-817.0,-132.0,-366.0,684.0,462.0,243.0,0.0,138.0
19:41:13.049000,-1341.0,-758.0,-123.0,-363.0,661.0,441.0,240.0,9.0,151.0
19:41:13.053000,-1330.0,-707.0,-119.0,-344.0,653.0,427.0,240.0,9.0,151.0
19:41:13.058000,-1316.0,-646.0,-125.0,-344.0,653.0,427.0,234.0,9.0,159.0
19:41:13.063000,-1288.0,-612.0,-114.0,-344.0,648.0,413.0,234.0,9.0,159.0
19:41:13.067000,-1246.0,-604.0,-129.0,-488.0,628.0,389.0,234.0,9.0,159.0
19:41:13.072000,-1239.0,-575.0,-175.0,-631.0,655.0,368.0,240.0,9.0,171.0
19:41:13.077000,-1235.0,-553.0,-168.0,-567.0,656.0,356.0,240.0,9.0,171.0
19:41:13.082000,-1216.0,-544.0,-140.0,-408.0,621.0,346.0,232.0,10.0,184.0
19:41:13.086000,-1195.0,-535.0,-128.0,-315.0,571.0,328.0,232.0,10.0,184.0
19:41:13.090000,-1195.0,-535.0,-128.0,-252.0,648.0,354.0,232.0,10.0,184.0
19:41:13.096000,-1162.0,-553.0,-142.0,-214.0,724.0,373.0,229.0,16.0,186.0
19:41:13.100000,-1108.0,-548.0,-163.0,-220.0,615.0,363.0,229.0,16.0,186.0
19:41:13.105000,-1054.0,-550.0,-132.0,-230.0,502.0,367.0,231.0,10.0,211.0
19:41:13.110000,-980.0,-541.0,-77.0,-259.0,421.0,355.0,231.0,10.0,211.0
19:41:13.114000,-905.0,-535.0,-44.0,-290.0,393.0,348.0,231.0,10.0,211.0
19:41:13.119000,-834.0,-527.0,-39.0,-310.0,426.0,342.0,229.0,3.0,201.0
19:41:13.124000,-767.0,-518.0,-39.0,-300.0,506.0,344.0,229.0,3.0,201.0
19:41:13.129000,-711.0,-508.0,-35.0,-273.0,598.0,355.0,234.0,9.0,211.0
19:41:13.133000,-683.0,-496.0,-42.0,-261.0,673.0,360.0,234.0,9.0,211.0
19:41:13.137000,-666.0,-476.0,-45.0,-270.0,714.0,360.0,234.0,9.0,211.0
19:41:13.143000,-665.0,-461.0,-35.0,-291.0,723.0,360.0,231.0,10.0,216.0
19:41:13.147000,-655.0,-448.0,-39.0,-308.0,720.0,348.0,231.0,10.0,216.0
19:41:13.152000,-640.0,-430.0,-52.0,-308.0,720.0,348.0,223.0,12.0,231.0
19:41:13.157000,-624.0,-413.0,-51.0,-323.0,715.0,338.0,223.0,12.0,231.0
19:41:13.161000,-618.0,-395.0,-46.0,-330.0,710.0,338.0,223.0,12.0,231.0
19:41:13.166000,-606.0,-375.0,-29.0,-317.0,708.0,334.0,225.0,12.0,229.0
19:41:13.171000,-591.0,-354.0,-7.0,-291.0,712.0,327.0,225.0,12.0,229.0
19:41:13.176000,-570.0,-331.0,0.0,-267.0,741.0,325.0,226.0,15.0,226.0
19:41:13.180000,-571.0,-305.0,7.0,-261.0,760.0,328.0,226.0,15.0,226.0
19:41:13.184000,-563.0,-282.0,23.0,-293.0,718.0,324.0,226.0,15.0,226.0
19:41:13.190000,-540.0,-257.0,23.0,-340.0,715.0,303.0,225.0,3.0,244.0
19:41:13.194000,-540.0,-231.0,23.0,-374.0,756.0,294.0,225.0,3.0,244.0
19:41:13.199000,-539.0,-231.0,34.0,-390.0,774.0,290.0,213.0,10.0,250.0
19:41:13.204000,-539.0,-210.0,34.0,-394.0,790.0,279.0,213.0,10.0,250.0
19:41:13.208000,-538.0,-189.0,28.0,-378.0,803.0,278.0,213.0,10.0,250.0
19:41:13.213000,-541.0,-179.0,6.0,-337.0,832.0,281.0,216.0,13.0,246.0
19:41:13.218000,-537.0,-174.0,-18.0,-288.0,860.0,283.0,216.0,13.0,246.0
19:41:13.223000,-532.0,-175.0,-37.0,-243.0,839.0,283.0,222.0,12.0,250.0
19:41:13.227000,-522.0,-177.0,-38.0,-217.0,774.0,285.0,222.0,12.0,250.0
19:41:13.231000,-525.0,-172.0,-40.0,-227.0,772.0,275.0,222.0,12.0,250.0
19:41:13.237000,-467.0,-177.0,-75.0,-257.0,720.0,253.0,225.0,9.0,253.0
19:41:13.241000,-434.0,-176.0,-135.0,-269.0,662.0,249.0,225.0,9.0,253.0
19:41:13.246000,-427.0,-182.0,-147.0,-265.0,747.0,246.0,220.0,9.0,277.0
19:41:13.251000,-392.0,-195.0,-95.0,-257.0,816.0,239.0,220.0,9.0,277.0
19:41:13.255000,-367.0,-205.0,-108.0,-231.0,799.0,242.0,220.0,9.0,277.0
19:41:13.260000,-333.0,-221.0,-128.0,-203.0,744.0,248.0,222.0,9.0,258.0
19:41:13.265000,-310.0,-242.0,-120.0,-203.0,744.0,248.0,222.0,9.0,258.0
19:41:13.270000,-287.0,-262.0,-133.0,-203.0,743.0,258.0,228.0,13.0,262.0
19:41:13.274000,-264.0,-283.0,-140.0,-218.0,761.0,268.0,228.0,13.0,262.0
19:41:13.278000,-231.0,-296.0,-168.0,-224.0,782.0,273.0,228.0,13.0,262.0
19:41:13.284000,-207.0,-303.0,-178.0,-205.0,811.0,280.0,216.0,12.0,279.0
19:41:13.288000,-201.0,-310.0,-128.0,-188.0,788.0,293.0,216.0,12.0,279.0
19:41:13.293000,-193.0,-306.0,-81.0,-213.0,763.0,292.0,235.0,12.0,271.0
19:41:13.298000,-186.0,-294.0,-106.0,-271.0,799.0,283.0,235.0,12.0,271.0
19:41:13.302000,-186.0,-294.0,-106.0,-306.0,873.0,268.0,235.0,12.0,271.0
19:41:13.307000,-140.0,-263.0,-180.0,-312.0,894.0,251.0,219.0,16.0,273.0
19:41:13.312000,-140.0,-263.0,-180.0,-322.0,860.0,239.0,219.0,16.0,273.0
19:41:13.317000,-116.0,-245.0,-189.0,-322.0,837.0,214.0,216.0,18.0,273.0
19:41:13.321000,-71.0,-224.0,-229.0,-311.0,812.0,187.0,216.0,18.0,273.0
19:41:13.325000,-25.0,-203.0,-270.0,-294.0,840.0,183.0,216.0,18.0,273.0
19:41:13.331000,14.0,-199.0,-332.0,-272.0,824.0,184.0,220.0,12.0,274.0
19:41:13.335000,50.0,-207.0,-334.0,-255.0,796.0,179.0,220.0,12.0,274.0
19:41:13.340000,107.0,-213.0,-347.0,-219.0,799.0,176.0,198.0,7.0,280.0
19:41:13.345000,170.0,-221.0,-331.0,-184.0,761.0,186.0,198.0,7.0,280.0
19:41:13.349000,209.0,-240.0,-283.0,-179.0,778.0,191.0,198.0,7.0,280.0
19:41:13.354000,251.0,-256.0,-267.0,-180.0,844.0,184.0,208.0,16.0,274.0
19:41:13.359000,287.0,-267.0,-277.0,-192.0,910.0,181.0,208.0,16.0,274.0
19:41:13.364000,306.0,-270.0,-281.0,-192.0,910.0,181.0,210.0,12.0,271.0
19:41:13.368000,314.0,-268.0,-291.0,-299.0,978.0,160.0,210.0,12.0,271.0
19:41:13.372000,325.0,-264.0,-328.0,-299.0,978.0,160.0,210.0,12.0,271.0
19:41:13.378000,340.0,-265.0,-364.0,-338.0,955.0,151.0,202.0,10.0,274.0
19:41:13.382000,362.0,-270.0,-365.0,-332.0,954.0,148.0,202.0,10.0,274.0
19:41:13.387000,397.0,-275.0,-361.0,-303.0,887.0,144.0,196.0,7.0,255.0
19:41:13.392000,456.0,-283.0,-382.0,-261.0,824.0,132.0,196.0,7.0,255.0
19:41:13.396000,518.0,-296.0,-414.0,-216.0,791.0,121.0,196.0,7.0,255.0
19:41:13.401000,587.0,-318.0,-426.0,-185.0,782.0,123.0,205.0,3.0,262.0
19:41:13.406000,650.0,-344.0,-420.0,-169.0,785.0,133.0,205.0,3.0,262.0
19:41:13.411000,712.0,-372.0,-417.0,-161.0,789.0,143.0,196.0,13.0,256.0
19:41:13.415000,781.0,-396.0,-415.0,-157.0,797.0,144.0,196.0,13.0,256.0
19:41:13.419000,781.0,-396.0,-415.0,-157.0,809.0,143.0,196.0,13.0,256.0
19:41:13.425000,843.0,-420.0,-403.0,-164.0,820.0,154.0,184.0,7.0,264.0
19:41:13.429000,902.0,-444.0,-373.0,-182.0,821.0,166.0,184.0,7.0,264.0
19:41:13.434000,963.0,-465.0,-346.0,-196.0,803.0,177.0,193.0,12.0,241.0
19:41:13.439000,1027.0,-480.0,-311.0,-204.0,776.0,193.0,193.0,12.0,241.0
19:41:13.443000,1088.0,-492.0,-264.0,-213.0,756.0,212.0,193.0,12.0,241.0
19:41:13.448000,1154.0,-501.0,-219.0,-224.0,749.0,235.0,190.0,9.0,244.0
19:41:13.453000,1224.0,-508.0,-179.0,-240.0,746.0,256.0,190.0,9.0,244.0
19:41:13.458000,1290.0,-504.0,-151.0,-254.0,749.0,268.0,190.0,13.0,229.0
19:41:13.462000,1358.0,-492.0,-126.0,-281.0,761.0,280.0,190.0,13.0,229.0
19:41:13.466000,1421.0,-472.0,-116.0,-323.0,782.0,294.0,190.0,13.0,229.0
19:41:13.472000,1488.0,-447.0,-121.0,-360.0,797.0,305.0,193.0,10.0,223.0
19:41:13.476000,1556.0,-413.0,-127.0,-380.0,787.0,318.0,193.0,10.0,223.0
19:41:13.481000,1626.0,-374.0,-129.0,-380.0,787.0,318.0,169.0,10.0,211.0
19:41:13.486000,1704.0,-333.0,-131.0,-398.0,759.0,332.0,169.0,10.0,211.0
19:41:13.490000,1793.0,-286.0,-142.0,-415.0,726.0,341.0,169.0,10.0,211.0
19:41:13.495000,1887.0,-236.0,-140.0,-419.0,682.0,353.0,181.0,6.0,198.0
19:41:13.500000,1983.0,-182.0,-120.0,-418.0,636.0,367.0,181.0,6.0,198.0
19:41:13.505000,2079.0,-131.0,-95.0,-427.0,610.0,388.0,180.0,3.0,174.0
19:41:13.509000,2175.0,-85.0,-59.0,-427.0,590.0,421.0,180.0,3.0,174.0
19:41:13.513000,2175.0,-85.0,-59.0,-403.0,557.0,463.0,180.0,3.0,174.0
19:41:13.519000,2366.0,-3.0,27.0,-380.0,536.0,502.0,184.0,-3.0,160.0
19:41:13.523000,2462.0,31.0,46.0,-376.0,548.0,535.0,184.0,-3.0,160.0
19:41:13.528000,2462.0,31.0,46.0,-379.0,574.0,573.0,174.0,-6.0,135.0
19:41:13.533000,2548.0,64.0,62.0,-372.0,592.0,624.0,174.0,-6.0,135.0
19:41:13.537000,2618.0,91.0,100.0,-360.0,596.0,684.0,174.0,-6.0,135.0
19:41:13.542000,2678.0,111.0,144.0,-340.0,595.0,728.0,177.0,0.0,129.0
19:41:13.547000,2737.0,131.0,173.0,-314.0,581.0,760.0,177.0,0.0,129.0
19:41:13.552000,2791.0,150.0,196.0,-313.0,580.0,784.0,183.0,-6.0,111.0
19:41:13.556000,2854.0,169.0,203.0,-344.0,591.0,803.0,183.0,-6.0,111.0
19:41:13.560000,2916.0,189.0,184.0,-371.0,571.0,826.0,183.0,-6.0,111.0
19:41:13.566000,2970.0,216.0,178.0,-372.0,502.0,853.0,178.0,-18.0,88.0
19:41:13.570000,3024.0,245.0,200.0,-371.0,422.0,888.0,178.0,-18.0,88.0
19:41:13.575000,3094.0,265.0,214.0,-366.0,357.0,923.0,195.0,-33.0,48.0
19:41:13.580000,3166.0,287.0,214.0,-344.0,317.0,956.0,195.0,-33.0,48.0
19:41:13.584000,3234.0,314.0,200.0,-325.0,321.0,992.0,195.0,-33.0,48.0
19:41:13.589000,3295.0,338.0,170.0,-325.0,351.0,1031.0,189.0,-42.0,37.0
19:41:13.594000,3332.0,366.0,144.0,-312.0,351.0,1031.0,189.0,-42.0,37.0
19:41:13.599000,3346.0,406.0,142.0,-303.0,389.0,1062.0,187.0,-51.0,13.0
19:41:13.603000,3353.0,442.0,142.0,-323.0,426.0,1082.0,187.0,-51.0,13.0
19:41:13.607000,3345.0,480.0,124.0,-365.0,461.0,1093.0,187.0,-51.0,13.0
19:41:13.613000,3333.0,520.0,114.0,-410.0,490.0,1091.0,193.0,-72.0,-3.0
19:41:13.617000,3319.0,563.0,111.0,-459.0,503.0,1083.0,193.0,-72.0,-3.0
19:41:13.622000,3303.0,601.0,104.0,-519.0,493.0,1078.0,180.0,-78.0,-21.0
19:41:13.627000,3294.0,658.0,67.0,-604.0,443.0,1070.0,180.0,-78.0,-21.0
19:41:13.631000,3294.0,658.0,67.0,-953.0,324.0,1077.0,180.0,-78.0,-21.0
19:41:13.636000,3312.0,761.0,-16.0,-966.0,211.0,1144.0,198.0,-99.0,-42.0
19:41:13.641000,3312.0,761.0,-16.0,-441.0,272.0,1138.0,198.0,-99.0,-42.0
19:41:13.646000,3268.0,846.0,260.0,-387.0,411.0,1099.0,208.0,-126.0,-69.0
19:41:13.650000,3234.0,891.0,178.0,-643.0,393.0,1132.0,208.0,-126.0,-69.0
19:41:13.654000,3194.0,921.0,30.0,-681.0,272.0,1087.0,208.0,-126.0,-69.0
19:41:13.660000,3231.0,1001.0,9.0,-644.0,138.0,1071.0,210.0,-141.0,-82.0
19:41:13.664000,3226.0,1042.0,4.0,-642.0,33.0,1109.0,210.0,-141.0,-82.0
19:41:13.669000,3238.0,1080.0,0.0,-579.0,-7.0,1103.0,216.0,-160.0,-112.0
19:41:13.674000,3269.0,1124.0,39.0,-504.0,-3.0,1103.0,216.0,-160.0,-112.0
19:41:13.678000,3297.0,1160.0,46.0,-499.0,25.0,1122.0,216.0,-160.0,-112.0
19:41:13.683000,3292.0,1190.0,21.0,-496.0,45.0,1142.0,225.0,-168.0,-124.0
19:41:13.688000,3268.0,1235.0,32.0,-509.0,58.0,1130.0,225.0,-168.0,-124.0
19:41:13.693000,3251.0,1285.0,30.0,-509.0,58.0,1130.0,231.0,-195.0,-127.0
19:41:13.697000,3234.0,1333.0,-10.0,-583.0,92.0,1103.0,231.0,-195.0,-127.0
19:41:13.705000,3217.0,1389.0,-34.0,-583.0,80.0,1080.0,241.0,-220.0,-145.0
19:41:13.707000,3173.0,1445.0,-7.0,-583.0,80.0,1080.0,241.0,-220.0,-145.0
19:41:13.711000,3119.0,1491.0,13.0,-602.0,55.0,1068.0,241.0,-220.0,-145.0
19:41:13.716000,3087.0,1540.0,-11.0,-649.0,38.0,1046.0,231.0,-240.0,-159.0
19:41:13.721000,3055.0,1594.0,-54.0,-660.0,25.0,1010.0,231.0,-240.0,-159.0
19:41:13.726000,3013.0,1646.0,-113.0,-655.0,6.0,998.0,276.0,-276.0,-168.0
19:41:13.730000,2980.0,1708.0,-118.0,-645.0,-39.0,977.0,276.0,-276.0,-168.0
19:41:13.734000,2980.0,1708.0,-118.0,-623.0,-138.0,963.0,276.0,-276.0,-168.0
19:41:13.740000,2937.0,1787.0,-66.0,-612.0,-235.0,973.0,283.0,-295.0,-175.0
19:41:13.744000,2945.0,1813.0,-77.0,-586.0,-294.0,959.0,283.0,-295.0,-175.0
19:41:13.749000,2945.0,1813.0,-77.0,-575.0,-321.0,955.0,277.0,-309.0,-160.0
19:41:13.754000,2963.0,1838.0,-120.0,-543.0,-325.0,972.0,277.0,-309.0,-160.0
19:41:13.758000,2979.0,1875.0,-142.0,-526.0,-305.0,1006.0,277.0,-309.0,-160.0
19:41:13.763000,2979.0,1894.0,-167.0,-537.0,-277.0,1034.0,307.0,-331.0,-190.0
19:41:13.768000,2983.0,1911.0,-183.0,-484.0,-276.0,1058.0,307.0,-331.0,-190.0
19:41:13.773000,2963.0,1918.0,-152.0,-420.0,-287.0,1087.0,327.0,-349.0,-187.0
19:41:13.777000,2937.0,1925.0,-90.0,-422.0,-296.0,1110.0,327.0,-349.0,-187.0
19:41:13.781000,2895.0,1924.0,-30.0,-463.0,-318.0,1119.0,327.0,-349.0,-187.0
19:41:13.787000,2863.0,1928.0,7.0,-505.0,-357.0,1112.0,348.0,-391.0,-160.0
19:41:13.791000,2831.0,1919.0,45.0,-573.0,-409.0,1113.0,348.0,-391.0,-160.0
19:41:13.796000,2800.0,1908.0,65.0,-573.0,-409.0,1113.0,361.0,-409.0,-180.0
19:41:13.801000,2760.0,1895.0,123.0,-573.0,-481.0,1113.0,361.0,-409.0,-180.0
19:41:13.805000,2710.0,1876.0,260.0,-531.0,-466.0,1118.0,361.0,-409.0,-180.0
19:41:13.810000,2653.0,1849.0,314.0,-531.0,-466.0,1118.0,367.0,-423.0,-184.0
19:41:13.815000,2598.0,1827.0,252.0,-562.0,-419.0,1115.0,367.0,-423.0,-184.0
19:41:13.820000,2536.0,1794.0,192.0,-579.0,-362.0,1106.0,397.0,-436.0,-177.0
19:41:13.824000,2468.0,1778.0,191.0,-557.0,-354.0,1083.0,397.0,-436.0,-177.0
19:41:13.828000,2399.0,1755.0,208.0,-586.0,-362.0,1022.0,397.0,-436.0,-177.0
19:41:13.834000,2330.0,1736.0,203.0,-610.0,-362.0,1022.0,397.0,-463.0,-172.0
19:41:13.838000,2231.0,1724.0,148.0,-591.0,-301.0,991.0,397.0,-463.0,-172.0
19:41:13.843000,2120.0,1717.0,106.0,-597.0,-258.0,963.0,411.0,-483.0,-156.0
19:41:13.848000,2013.0,1697.0,126.0,-614.0,-262.0,927.0,411.0,-483.0,-156.0
19:41:13.852000,2013.0,1697.0,126.0,-639.0,-272.0,887.0,411.0,-483.0,-156.0
19:41:13.857000,1906.0,1677.0,140.0,-663.0,-288.0,839.0,421.0,-492.0,-160.0
19:41:13.862000,1803.0,1666.0,94.0,-671.0,-313.0,796.0,421.0,-492.0,-160.0
19:41:13.867000,1721.0,1647.0,26.0,-650.0,-351.0,762.0,435.0,-505.0,-150.0
19:41:13.871000,1644.0,1621.0,-17.0,-622.0,-399.0,724.0,435.0,-505.0,-150.0
19:41:13.875000,1578.0,1591.0,-23.0,-607.0,-428.0,684.0,435.0,-505.0,-150.0
19:41:13.881000,1528.0,1568.0,-50.0,-610.0,-441.0,661.0,460.0,-519.0,-133.0
19:41:13.885000,1484.0,1535.0,-93.0,-609.0,-457.0,646.0,460.0,-519.0,-133.0
19:41:13.890000,1437.0,1504.0,-141.0,-586.0,-465.0,620.0,462.0,-532.0,-126.0
19:41:13.895000,1397.0,1478.0,-174.0,-554.0,-453.0,595.0,462.0,-532.0,-126.0
19:41:13.899000,1350.0,1450.0,-191.0,-548.0,-412.0,577.0,462.0,-532.0,-126.0
19:41:13.904000,1295.0,1422.0,-212.0,-564.0,-364.0,560.0,474.0,-535.0,-111.0
19:41:13.909000,1229.0,1395.0,-228.0,-585.0,-342.0,543.0,474.0,-535.0,-111.0
19:41:13.914000,1155.0,1367.0,-234.0,-585.0,-342.0,543.0,483.0,-543.0,-105.0
19:41:13.918000,1082.0,1339.0,-240.0,-630.0,-325.0,499.0,483.0,-543.0,-105.0
19:41:13.922000,1008.0,1313.0,-239.0,-630.0,-325.0,499.0,483.0,-543.0,-105.0
19:41:13.928000,928.0,1290.0,-237.0,-646.0,-335.0,451.0,492.0,-544.0,-85.0
19:41:13.932000,860.0,1265.0,-224.0,-660.0,-377.0,397.0,492.0,-544.0,-85.0
19:41:13.937000,799.0,1243.0,-191.0,-658.0,-447.0,353.0,493.0,-553.0,-91.0
19:41:13.942000,753.0,1199.0,-189.0,-686.0,-489.0,347.0,493.0,-553.0,-91.0
19:41:13.946000,714.0,1156.0,-191.0,-699.0,-523.0,352.0,493.0,-553.0,-91.0
19:41:13.951000,681.0,1120.0,-186.0,-672.0,-537.0,328.0,508.0,-549.0,-79.0
19:41:13.956000,646.0,1088.0,-183.0,-662.0,-512.0,309.0,508.0,-549.0,-79.0
19:41:13.960000,646.0,1088.0,-183.0,-667.0,-478.0,285.0,525.0,-552.0,-76.0
19:41:13.965000,606.0,1054.0,-171.0,-693.0,-446.0,275.0,525.0,-552.0,-76.0
19:41:13.970000,555.0,1013.0,-167.0,-700.0,-441.0,263.0,528.0,-559.0,-58.0
19:41:13.975000,519.0,980.0,-160.0,-694.0,-464.0,240.0,528.0,-559.0,-58.0
19:41:13.979000,489.0,945.0,-135.0,-704.0,-502.0,223.0,528.0,-559.0,-58.0
19:41:13.984000,460.0,919.0,-107.0,-737.0,-519.0,203.0,528.0,-567.0,-55.0
19:41:13.989000,437.0,900.0,-92.0,-796.0,-509.0,185.0,528.0,-567.0,-55.0
19:41:13.993000,415.0,889.0,-93.0,-843.0,-494.0,167.0,544.0,-559.0,-55.0
19:41:13.998000,394.0,880.0,-95.0,-881.0,-479.0,155.0,544.0,-559.0,-55.0
19:41:14.002000,368.0,865.0,-86.0,-907.0,-483.0,147.0,544.0,-559.0,-55.0
19:41:14.007000,342.0,850.0,-62.0,-915.0,-512.0,132.0,544.0,-562.0,-42.0
19:41:14.012000,329.0,831.0,-44.0,-910.0,-541.0,119.0,544.0,-562.0,-42.0
19:41:14.017000,317.0,808.0,-46.0,-910.0,-541.0,119.0,546.0,-565.0,-42.0
19:41:14.022000,308.0,782.0,-61.0,-848.0,-569.0,89.0,546.0,-565.0,-42.0
19:41:14.026000,305.0,757.0,-80.0,-813.0,-565.0,74.0,546.0,-565.0,-42.0
19:41:14.031000,298.0,723.0,-97.0,-813.0,-565.0,74.0,555.0,-570.0,-39.0
19:41:14.036000,291.0,689.0,-108.0,-774.0,-570.0,59.0,555.0,-570.0,-39.0
19:41:14.040000,291.0,650.0,-114.0,-740.0,-591.0,40.0,564.0,-568.0,-22.0
19:41:14.045000,289.0,609.0,-119.0,-721.0,-607.0,23.0,564.0,-568.0,-22.0
19:41:14.052000,288.0,561.0,-126.0,-717.0,-627.0,-3.0,555.0,-567.0,-18.0
19:41:14.054000,284.0,516.0,-123.0,-717.0,-627.0,-3.0,555.0,-567.0,-18.0
19:41:14.059000,282.0,461.0,-145.0,-735.0,-628.0,-17.0,555.0,-567.0,-18.0
19:41:14.064000,278.0,409.0,-200.0,-754.0,-605.0,-30.0,559.0,-576.0,-18.0
19:41:14.069000,266.0,356.0,-232.0,-741.0,-596.0,-38.0,559.0,-576.0,-18.0
19:41:14.073000,246.0,305.0,-221.0,-704.0,-608.0,-42.0,564.0,-562.0,-21.0
19:41:14.078000,246.0,305.0,-221.0,-668.0,-615.0,-42.0,564.0,-562.0,-21.0
19:41:14.082000,227.0,254.0,-203.0,-651.0,-608.0,-42.0,564.0,-562.0,-21.0
19:41:14.087000,205.0,205.0,-217.0,-648.0,-588.0,-51.0,564.0,-573.0,-7.0
19:41:14.092000,184.0,164.0,-258.0,-645.0,-566.0,-59.0,564.0,-573.0,-7.0
19:41:14.097000,163.0,130.0,-294.0,-647.0,-565.0,-63.0,574.0,-570.0,-12.0
19:41:14.101000,140.0,102.0,-297.0,-666.0,-592.0,-68.0,574.0,-570.0,-12.0
19:41:14.106000,116.0,85.0,-285.0,-703.0,-626.0,-72.0,574.0,-570.0,-12.0
19:41:14.111000,107.0,69.0,-271.0,-748.0,-656.0,-76.0,568.0,-556.0,-10.0
19:41:14.116000,110.0,57.0,-263.0,-789.0,-692.0,-80.0,568.0,-556.0,-10.0
19:41:14.120000,123.0,51.0,-254.0,-827.0,-722.0,-84.0,580.0,-561.0,-3.0
19:41:14.125000,145.0,51.0,-252.0,-860.0,-741.0,-87.0,580.0,-561.0,-3.0
19:41:14.129000,176.0,53.0,-252.0,-883.0,-752.0,-89.0,580.0,-561.0,-3.0
19:41:14.134000,205.0,58.0,-240.0,-902.0,-747.0,-91.0,576.0,-565.0,-3.0
19:41:14.139000,228.0,66.0,-222.0,-922.0,-719.0,-92.0,576.0,-565.0,-3.0
19:41:14.144000,244.0,74.0,-219.0,-922.0,-719.0,-92.0,577.0,-565.0,9.0
19:41:14.148000,250.0,79.0,-229.0,-931.0,-675.0,-91.0,577.0,-565.0,9.0
19:41:14.153000,252.0,81.0,-256.0,-929.0,-617.0,-91.0,577.0,-565.0,9.0
19:41:14.158000,242.0,81.0,-284.0,-922.0,-558.0,-96.0,576.0,-559.0,-1.0
19:41:14.163000,229.0,77.0,-289.0,-905.0,-522.0,-103.0,576.0,-559.0,-1.0
19:41:14.167000,214.0,66.0,-279.0,-882.0,-508.0,-108.0,582.0,-559.0,-1.0
19:41:14.172000,203.0,48.0,-266.0,-863.0,-508.0,-111.0,582.0,-559.0,-1.0
19:41:14.176000,203.0,48.0,-266.0,-849.0,-516.0,-117.0,582.0,-559.0,-1.0
19:41:14.181000,203.0,16.0,-254.0,-843.0,-521.0,-127.0,585.0,-574.0,9.0
19:41:14.186000,203.0,16.0,-254.0,-851.0,-516.0,-131.0,585.0,-574.0,9.0
19:41:14.191000,203.0,0.0,-238.0,-864.0,-514.0,-128.0,571.0,-553.0,7.0
19:41:14.195000,205.0,-23.0,-206.0,-873.0,-530.0,-126.0,571.0,-553.0,7.0
19:41:14.200000,207.0,-44.0,-158.0,-880.0,-562.0,-128.0,571.0,-553.0,7.0
19:41:14.205000,213.0,-64.0,-109.0,-887.0,-592.0,-131.0,580.0,-567.0,3.0
19:41:14.210000,219.0,-80.0,-65.0,-898.0,-608.0,-132.0,580.0,-567.0,3.0
19:41:14.214000,226.0,-98.0,-26.0,-904.0,-609.0,-131.0,588.0,-556.0,-4.0
19:41:14.219000,230.0,-116.0,-5.0,-896.0,-598.0,-129.0,588.0,-556.0,-4.0
19:41:14.223000,227.0,-132.0,0.0,-872.0,-586.0,-125.0,588.0,-556.0,-4.0
19:41:14.228000,219.0,-146.0,9.0,-845.0,-575.0,-123.0,585.0,-555.0,6.0
19:41:14.233000,207.0,-161.0,16.0,-826.0,-560.0,-120.0,585.0,-555.0,6.0
19:41:14.238000,194.0,-178.0,11.0,-826.0,-560.0,-120.0,592.0,-565.0,10.0
19:41:14.242000,182.0,-196.0,6.0,-826.0,-533.0,-129.0,592.0,-565.0,10.0
19:41:14.247000,166.0,-212.0,6.0,-826.0,-533.0,-129.0,592.0,-565.0,10.0
19:41:14.252000,148.0,-231.0,4.0,-850.0,-515.0,-134.0,580.0,-562.0,1.0
19:41:14.257000,133.0,-250.0,-1.0,-872.0,-500.0,-139.0,580.0,-562.0,1.0
19:41:14.261000,121.0,-271.0,4.0,-879.0,-496.0,-144.0,577.0,-565.0,7.0
19:41:14.266000,110.0,-295.0,29.0,-873.0,-494.0,-139.0,577.0,-565.0,7.0
19:41:14.270000,91.0,-315.0,72.0,-863.0,-484.0,-129.0,577.0,-565.0,7.0
19:41:14.275000,86.0,-346.0,128.0,-854.0,-485.0,-115.0,583.0,-565.0,3.0
19:41:14.280000,90.0,-368.0,126.0,-851.0,-498.0,-109.0,583.0,-565.0,3.0
19:41:14.285000,107.0,-392.0,94.0,-849.0,-498.0,-107.0,586.0,-559.0,13.0
19:41:14.289000,117.0,-417.0,103.0,-843.0,-492.0,-94.0,586.0,-559.0,13.0
19:41:14.294000,117.0,-417.0,103.0,-836.0,-505.0,-76.0,586.0,-559.0,13.0
19:41:14.299000,128.0,-443.0,140.0,-838.0,-536.0,-59.0,574.0,-567.0,0.0
19:41:14.304000,134.0,-466.0,174.0,-836.0,-575.0,-49.0,574.0,-567.0,0.0
19:41:14.308000,144.0,-485.0,221.0,-827.0,-610.0,-41.0,573.0,-559.0,-4.0
19:41:14.313000,157.0,-502.0,273.0,-827.0,-615.0,-29.0,573.0,-559.0,-4.0
19:41:14.317000,170.0,-517.0,302.0,-834.0,-594.0,-19.0,573.0,-559.0,-4.0
19:41:14.322000,181.0,-525.0,303.0,-839.0,-585.0,-5.0,567.0,-574.0,3.0
19:41:14.327000,186.0,-527.0,298.0,-843.0,-579.0,8.0,567.0,-574.0,3.0
19:41:14.332000,185.0,-527.0,295.0,-857.0,-554.0,21.0,567.0,-568.0,-15.0
19:41:14.336000,182.0,-528.0,273.0,-878.0,-520.0,30.0,567.0,-568.0,-15.0
19:41:14.341000,174.0,-526.0,243.0,-884.0,-503.0,38.0,567.0,-568.0,-15.0
19:41:14.346000,158.0,-524.0,221.0,-872.0,-503.0,38.0,568.0,-574.0,-15.0
19:41:14.351000,142.0,-515.0,200.0,-855.0,-502.0,29.0,568.0,-574.0,-15.0
19:41:14.355000,128.0,-506.0,177.0,-855.0,-502.0,29.0,559.0,-567.0,-16.0
19:41:14.360000,114.0,-497.0,139.0,-842.0,-486.0,24.0,559.0,-567.0,-16.0
19:41:14.364000,101.0,-492.0,98.0,-835.0,-450.0,22.0,559.0,-567.0,-16.0
19:41:14.369000,85.0,-490.0,80.0,-833.0,-418.0,26.0,559.0,-582.0,-13.0
19:41:14.374000,67.0,-493.0,90.0,-828.0,-429.0,29.0,559.0,-582.0,-13.0
19:41:14.379000,56.0,-495.0,94.0,-824.0,-462.0,30.0,541.0,-577.0,-6.0
19:41:14.383000,54.0,-500.0,79.0,-817.0,-487.0,27.0,541.0,-577.0,-6.0
19:41:14.388000,60.0,-504.0,61.0,-798.0,-502.0,19.0,541.0,-577.0,-6.0
19:41:14.393000,60.0,-501.0,60.0,-777.0,-507.0,13.0,553.0,-579.0,-19.0
19:41:14.398000,49.0,-501.0,81.0,-768.0,-503.0,13.0,553.0,-579.0,-19.0
19:41:14.402000,49.0,-501.0,81.0,-771.0,-483.0,13.0,547.0,-570.0,-18.0
19:41:14.407000,28.0,-500.0,100.0,-775.0,-457.0,8.0,547.0,-570.0,-18.0
19:41:14.411000,2.0,-500.0,109.0,-776.0,-434.0,5.0,547.0,-570.0,-18.0
19:41:14.416000,-25.0,-505.0,107.0,-771.0,-428.0,0.0,555.0,-582.0,-24.0
19:41:14.421000,-55.0,-509.0,103.0,-755.0,-444.0,-9.0,555.0,-582.0,-24.0
19:41:14.426000,-74.0,-513.0,97.0,-738.0,-466.0,-25.0,549.0,-583.0,-31.0
19:41:14.430000,-85.0,-516.0,91.0,-736.0,-483.0,-39.0,549.0,-583.0,-31.0
19:41:14.435000,-91.0,-522.0,85.0,-749.0,-494.0,-51.0,549.0,-583.0,-31.0
19:41:14.440000,-102.0,-527.0,89.0,-774.0,-493.0,-66.0,540.0,-583.0,-37.0
19:41:14.445000,-114.0,-528.0,93.0,-806.0,-472.0,-79.0,540.0,-583.0,-37.0
19:41:14.449000,-128.0,-529.0,83.0,-825.0,-441.0,-88.0,552.0,-574.0,-30.0
19:41:14.454000,-147.0,-525.0,62.0,-827.0,-416.0,-92.0,552.0,-574.0,-30.0
19:41:14.458000,-175.0,-520.0,43.0,-820.0,-402.0,-94.0,552.0,-574.0,-30.0
19:41:14.463000,-210.0,-515.0,33.0,-821.0,-386.0,-91.0,538.0,-574.0,-28.0
19:41:14.468000,-259.0,-515.0,21.0,-821.0,-386.0,-91.0,538.0,-574.0,-28.0
19:41:14.473000,-299.0,-512.0,0.0,-825.0,-377.0,-90.0,528.0,-582.0,-39.0
19:41:14.477000,-356.0,-518.0,-20.0,-812.0,-381.0,-74.0,528.0,-582.0,-39.0
19:41:14.482000,-404.0,-511.0,-32.0,-792.0,-389.0,-74.0,528.0,-582.0,-39.0
19:41:14.487000,-451.0,-513.0,-49.0,-790.0,-394.0,-90.0,532.0,-570.0,-51.0
19:41:14.492000,-514.0,-522.0,-80.0,-803.0,-385.0,-76.0,532.0,-570.0,-51.0
19:41:14.496000,-564.0,-543.0,-109.0,-796.0,-366.0,-68.0,534.0,-573.0,-49.0
19:41:14.501000,-624.0,-564.0,-135.0,-771.0,-354.0,-61.0,534.0,-573.0,-49.0
19:41:14.505000,-624.0,-564.0,-135.0,-752.0,-354.0,-54.0,534.0,-573.0,-49.0
19:41:14.510000,-730.0,-615.0,-192.0,-748.0,-343.0,-45.0,534.0,-571.0,-48.0
19:41:14.515000,-730.0,-615.0,-192.0,-762.0,-304.0,-29.0,534.0,-571.0,-48.0
19:41:14.520000,-788.0,-641.0,-244.0,-785.0,-248.0,-10.0,523.0,-571.0,-57.0
19:41:14.525000,-849.0,-670.0,-306.0,-808.0,-198.0,14.0,523.0,-571.0,-57.0
19:41:14.529000,-917.0,-698.0,-364.0,-824.0,-170.0,40.0,523.0,-571.0,-57.0
19:41:14.534000,-985.0,-724.0,-406.0,-835.0,-168.0,71.0,522.0,-564.0,-64.0
19:41:14.539000,-1056.0,-749.0,-440.0,-840.0,-180.0,103.0,522.0,-564.0,-64.0
19:41:14.543000,-1123.0,-770.0,-471.0,-845.0,-200.0,135.0,514.0,-553.0,-70.0
19:41:14.548000,-1186.0,-789.0,-493.0,-852.0,-226.0,167.0,514.0,-553.0,-70.0
19:41:14.552000,-1248.0,-801.0,-492.0,-872.0,-249.0,198.0,514.0,-553.0,-70.0
19:41:14.557000,-1306.0,-807.0,-485.0,-910.0,-264.0,232.0,523.0,-543.0,-79.0
19:41:14.562000,-1369.0,-809.0,-470.0,-962.0,-273.0,267.0,523.0,-543.0,-79.0
19:41:14.567000,-1438.0,-808.0,-438.0,-962.0,-273.0,267.0,517.0,-535.0,-84.0
19:41:14.571000,-1522.0,-803.0,-408.0,-1079.0,-212.0,352.0,517.0,-535.0,-84.0
19:41:14.576000,-1607.0,-798.0,-394.0,-1079.0,-212.0,352.0,517.0,-535.0,-84.0
19:41:14.581000,-1677.0,-789.0,-397.0,-1090.0,-157.0,389.0,511.0,-522.0,-93.0
19:41:14.586000,-1744.0,-782.0,-400.0,-1047.0,-115.0,422.0,511.0,-522.0,-93.0
19:41:14.590000,-1823.0,-779.0,-437.0,-1060.0,-82.0,518.0,511.0,-514.0,-100.0
19:41:14.595000,-1897.0,-774.0,-469.0,-1060.0,-82.0,518.0,511.0,-514.0,-100.0
19:41:14.599000,-1962.0,-771.0,-468.0,-1007.0,-107.0,543.0,511.0,-514.0,-100.0
19:41:14.604000,-2013.0,-763.0,-494.0,-948.0,-137.0,557.0,501.0,-505.0,-96.0
19:41:14.609000,-2081.0,-754.0,-565.0,-950.0,-147.0,583.0,501.0,-505.0,-96.0
19:41:14.614000,-2145.0,-750.0,-654.0,-947.0,-108.0,612.0,499.0,-478.0,-112.0
19:41:14.618000,-2207.0,-756.0,-731.0,-919.0,-92.0,643.0,499.0,-478.0,-112.0
19:41:14.623000,-2207.0,-756.0,-731.0,-885.0,-164.0,673.0,499.0,-478.0,-112.0
19:41:14.628000,-2263.0,-767.0,-773.0,-850.0,-293.0,676.0,498.0,-462.0,-115.0
19:41:14.632000,-2303.0,-778.0,-775.0,-843.0,-413.0,666.0,498.0,-462.0,-115.0
19:41:14.637000,-2340.0,-787.0,-701.0,-887.0,-399.0,646.0,490.0,-445.0,-106.0
19:41:14.642000,-2359.0,-790.0,-625.0,-962.0,-293.0,640.0,490.0,-445.0,-106.0
19:41:14.647000,-2392.0,-802.0,-618.0,-1009.0,-227.0,646.0,486.0,-426.0,-130.0
19:41:14.651000,-2421.0,-812.0,-673.0,-1015.0,-218.0,637.0,486.0,-426.0,-130.0
19:41:14.655000,-2424.0,-826.0,-734.0,-995.0,-258.0,629.0,486.0,-426.0,-130.0
19:41:14.660000,-2429.0,-836.0,-781.0,-965.0,-308.0,625.0,478.0,-403.0,-135.0
19:41:14.665000,-2431.0,-850.0,-798.0,-935.0,-302.0,619.0,478.0,-403.0,-135.0
19:41:14.670000,-2433.0,-858.0,-827.0,-935.0,-240.0,619.0,475.0,-394.0,-133.0
19:41:14.674000,-2441.0,-869.0,-877.0,-858.0,-165.0,651.0,475.0,-394.0,-133.0
19:41:14.679000,-2459.0,-894.0,-920.0,-792.0,-123.0,681.0,475.0,-394.0,-133.0
19:41:14.684000,-2487.0,-914.0,-949.0,-792.0,-123.0,681.0,471.0,-381.0,-126.0
19:41:14.689000,-2509.0,-940.0,-975.0,-738.0,-95.0,702.0,471.0,-381.0,-126.0
19:41:14.694000,-2541.0,-966.0,-1020.0,-707.0,-50.0,723.0,459.0,-336.0,-132.0
19:41:14.698000,-2584.0,-994.0,-1080.0,-697.0,30.0,750.0,459.0,-336.0,-132.0
19:41:14.702000,-2632.0,-1040.0,-1124.0,-697.0,102.0,793.0,459.0,-336.0,-132.0
19:41:14.708000,-2690.0,-1092.0,-1148.0,-680.0,154.0,837.0,439.0,-307.0,-133.0
19:41:14.712000,-2754.0,-1142.0,-1164.0,-647.0,173.0,871.0,439.0,-307.0,-133.0
19:41:14.717000,-2754.0,-1142.0,-1164.0,-625.0,174.0,912.0,442.0,-294.0,-132.0
19:41:14.722000,-2903.0,-1246.0,-1192.0,-624.0,189.0,960.0,442.0,-294.0,-132.0
19:41:14.726000,-2903.0,-1246.0,-1192.0,-628.0,208.0,992.0,442.0,-294.0,-132.0
19:41:14.731000,-2973.0,-1279.0,-1204.0,-631.0,225.0,1012.0,441.0,-283.0,-123.0
19:41:14.736000,-3044.0,-1299.0,-1206.0,-652.0,228.0,1034.0,441.0,-283.0,-123.0
19:41:14.741000,-3110.0,-1315.0,-1180.0,-686.0,222.0,1047.0,424.0,-253.0,-120.0
19:41:14.745000,-3174.0,-1317.0,-1143.0,-731.0,234.0,1056.0,424.0,-253.0,-120.0
19:41:14.749000,-3239.0,-1298.0,-1119.0,-785.0,259.0,1068.0,424.0,-253.0,-120.0
19:41:14.754000,-3291.0,-1272.0,-1106.0,-832.0,269.0,1079.0,400.0,-204.0,-100.0
19:41:14.759000,-3330.0,-1235.0,-1075.0,-865.0,259.0,1096.0,400.0,-204.0,-100.0
19:41:14.764000,-3367.0,-1195.0,-1034.0,-894.0,242.0,1112.0,400.0,-204.0,-100.0
19:41:14.769000,-3386.0,-1152.0,-998.0,-910.0,216.0,1118.0,400.0,-204.0,-100.0
19:41:14.773000,-3389.0,-1106.0,-960.0,-900.0,172.0,1129.0,400.0,-204.0,-100.0
19:41:14.778000,-3379.0,-1064.0,-907.0,-868.0,119.0,1132.0,373.0,-165.0,-93.0
19:41:14.783000,-3354.0,-1008.0,-833.0,-841.0,72.0,1126.0,373.0,-165.0,-93.0
19:41:14.788000,-3323.0,-951.0,-742.0,-841.0,72.0,1126.0,372.0,-153.0,-75.0
19:41:14.792000,-3283.0,-887.0,-663.0,-825.0,34.0,1107.0,372.0,-153.0,-75.0
19:41:14.800000,-3225.0,-814.0,-607.0,-826.0,34.0,1093.0,366.0,-114.0,-67.0
19:41:14.802000,-3166.0,-732.0,-569.0,-826.0,34.0,1093.0,366.0,-114.0,-67.0
19:41:14.806000,-3105.0,-652.0,-540.0,-835.0,42.0,1086.0,366.0,-114.0,-67.0
19:41:14.811000,-3040.0,-563.0,-502.0,-834.0,47.0,1068.0,357.0,-103.0,-49.0
19:41:14.816000,-2979.0,-464.0,-441.0,-824.0,40.0,1042.0,357.0,-103.0,-49.0
19:41:14.821000,-2907.0,-367.0,-375.0,-820.0,40.0,1013.0,354.0,-97.0,-45.0
19:41:14.825000,-2839.0,-273.0,-329.0,-834.0,62.0,986.0,354.0,-97.0,-45.0
19:41:14.829000,-2839.0,-273.0,-329.0,-842.0,62.0,959.0,354.0,-97.0,-45.0
19:41:14.835000,-2667.0,-85.0,-277.0,-816.0,59.0,920.0,358.0,-78.0,-21.0
19:41:14.839000,-2573.0,7.0,-249.0,-772.0,84.0,881.0,358.0,-78.0,-21.0
19:41:14.844000,-2573.0,7.0,-249.0,-728.0,121.0,850.0,340.0,-54.0,-9.0
19:41:14.849000,-2494.0,92.0,-234.0,-692.0,141.0,824.0,340.0,-54.0,-9.0
19:41:14.853000,-2423.0,166.0,-220.0,-663.0,142.0,794.0,340.0,-54.0,-9.0
19:41:14.858000,-2353.0,231.0,-200.0,-630.0,150.0,763.0,349.0,-49.0,19.0
19:41:14.863000,-2287.0,294.0,-177.0,-593.0,173.0,735.0,349.0,-49.0,19.0
19:41:14.868000,-2219.0,344.0,-163.0,-557.0,204.0,710.0,355.0,-39.0,28.0
19:41:14.872000,-2152.0,387.0,-158.0,-528.0,234.0,680.0,355.0,-39.0,28.0
19:41:14.876000,-2079.0,429.0,-170.0,-504.0,253.0,644.0,355.0,-39.0,28.0
19:41:14.882000,-2004.0,467.0,-182.0,-483.0,253.0,610.0,351.0,-30.0,36.0
19:41:14.886000,-1926.0,496.0,-178.0,-464.0,254.0,583.0,351.0,-30.0,36.0
19:41:14.891000,-1846.0,513.0,-168.0,-464.0,254.0,583.0,348.0,-27.0,70.0
19:41:14.896000,-1772.0,522.0,-167.0,-437.0,318.0,541.0,348.0,-27.0,70.0
19:41:14.900000,-1702.0,528.0,-172.0,-418.0,360.0,527.0,348.0,-27.0,70.0
19:41:14.905000,-1632.0,523.0,-172.0,-418.0,360.0,527.0,358.0,-13.0,70.0
19:41:14.910000,-1563.0,514.0,-155.0,-386.0,382.0,513.0,358.0,-13.0,70.0
19:41:14.915000,-1500.0,500.0,-121.0,-340.0,384.0,499.0,352.0,-15.0,78.0
19:41:14.919000,-1433.0,483.0,-100.0,-311.0,401.0,489.0,352.0,-15.0,78.0
19:41:14.923000,-1367.0,458.0,-92.0,-308.0,432.0,480.0,352.0,-15.0,78.0
19:41:14.929000,-1304.0,427.0,-80.0,-304.0,460.0,474.0,354.0,-6.0,100.0
19:41:14.933000,-1246.0,395.0,-45.0,-289.0,476.0,470.0,354.0,-6.0,100.0
