hh:mm:ss.ms,gyroX[mdps],gyroY[mdps],gyroZ[mdps],accX[mg],accY[mg],accZ[mg],magX[mG],magY[mG],magZ[mG]
19:40:37.575000,-2244.0,-1016.0,-1488.0,-886.0,610.0,-956.0,241.0,-516.0,499.0
19:40:37.580000,-2212.0,-1023.0,-1468.0,-890.0,689.0,-955.0,241.0,-516.0,499.0
19:40:37.585000,-2149.0,-1013.0,-1472.0,-920.0,596.0,-989.0,231.0,-535.0,480.0
19:40:37.589000,-2079.0,-1030.0,-1486.0,-895.0,525.0,-995.0,231.0,-535.0,480.0
19:40:37.594000,-2019.0,-1040.0,-1442.0,-861.0,492.0,-1002.0,231.0,-535.0,480.0
19:40:37.599000,-1969.0,-1012.0,-1390.0,-883.0,436.0,-1045.0,256.0,-556.0,475.0
19:40:37.604000,-1919.0,-1017.0,-1332.0,-928.0,464.0,-1024.0,256.0,-556.0,475.0
19:40:37.608000,-1855.0,-1072.0,-1332.0,-890.0,428.0,-1027.0,273.0,-564.0,466.0
19:40:37.613000,-1787.0,-1085.0,-1307.0,-890.0,428.0,-1027.0,273.0,-564.0,466.0
19:40:37.618000,-1705.0,-1078.0,-1367.0,-796.0,398.0,-1073.0,283.0,-571.0,465.0
19:40:37.622000,-1646.0,-1092.0,-1521.0,-726.0,467.0,-1038.0,283.0,-571.0,465.0
19:40:37.626000,-1557.0,-1122.0,-1673.0,-650.0,430.0,-1019.0,283.0,-571.0,465.0
19:40:37.632000,-1475.0,-1181.0,-1759.0,-604.0,360.0,-1017.0,300.0,-582.0,459.0
19:40:37.636000,-1390.0,-1262.0,-1827.0,-573.0,317.0,-972.0,300.0,-582.0,459.0
19:40:37.641000,-1358.0,-1268.0,-1759.0,-526.0,176.0,-960.0,297.0,-595.0,448.0
19:40:37.646000,-1374.0,-1313.0,-1537.0,-417.0,23.0,-909.0,297.0,-595.0,448.0
19:40:37.650000,-1374.0,-1313.0,-1537.0,-376.0,-107.0,-862.0,297.0,-595.0,448.0
19:40:37.655000,-1278.0,-1249.0,-1260.0,-417.0,-256.0,-903.0,322.0,-603.0,441.0
19:40:37.660000,-1278.0,-1249.0,-1260.0,-325.0,-460.0,-885.0,322.0,-603.0,441.0
19:40:37.665000,-1231.0,-1225.0,-989.0,-212.0,-622.0,-806.0,331.0,-609.0,439.0
19:40:37.669000,-1139.0,-1272.0,-800.0,-174.0,-564.0,-780.0,331.0,-609.0,439.0
19:40:37.673000,-1115.0,-1213.0,-903.0,-38.0,-574.0,-760.0,331.0,-609.0,439.0
19:40:37.679000,-1046.0,-1190.0,-944.0,131.0,-844.0,-804.0,346.0,-612.0,430.0
19:40:37.683000,-992.0,-1121.0,-763.0,163.0,-992.0,-797.0,346.0,-612.0,430.0
19:40:37.688000,-998.0,-1104.0,-698.0,55.0,-948.0,-783.0,351.0,-613.0,421.0
19:40:37.693000,-1017.0,-1050.0,-818.0,30.0,-755.0,-789.0,351.0,-613.0,421.0
19:40:37.697000,-994.0,-1156.0,-1032.0,74.0,-518.0,-829.0,351.0,-613.0,421.0
19:40:37.702000,-992.0,-1089.0,-1267.0,-2.0,-415.0,-949.0,355.0,-621.0,424.0
19:40:37.707000,-1017.0,-1023.0,-1365.0,-163.0,-419.0,-900.0,355.0,-621.0,424.0
19:40:37.712000,-1128.0,-1062.0,-1235.0,-163.0,-419.0,-900.0,375.0,-624.0,409.0
19:40:37.716000,-1228.0,-1012.0,-1190.0,-454.0,-336.0,-996.0,375.0,-624.0,409.0
19:40:37.720000,-1333.0,-952.0,-1327.0,-454.0,-336.0,-996.0,375.0,-624.0,409.0
19:40:37.726000,-1366.0,-955.0,-1373.0,-370.0,-294.0,-984.0,385.0,-624.0,399.0
19:40:37.730000,-1428.0,-914.0,-1354.0,-219.0,-565.0,-1024.0,385.0,-624.0,399.0
19:40:37.735000,-1442.0,-922.0,-1201.0,-219.0,-565.0,-1024.0,393.0,-628.0,391.0
19:40:37.740000,-1444.0,-886.0,-1100.0,-312.0,-735.0,-1057.0,393.0,-628.0,391.0
19:40:37.745000,-1461.0,-896.0,-1122.0,-450.0,-755.0,-1093.0,406.0,-627.0,385.0
19:40:37.749000,-1474.0,-960.0,-1179.0,-479.0,-659.0,-1022.0,406.0,-627.0,385.0
19:40:37.753000,-1474.0,-960.0,-1179.0,-415.0,-678.0,-1047.0,406.0,-627.0,385.0
19:40:37.759000,-1395.0,-1034.0,-1246.0,-283.0,-714.0,-1081.0,421.0,-640.0,367.0
19:40:37.763000,-1348.0,-1062.0,-1202.0,-156.0,-778.0,-1056.0,421.0,-640.0,367.0
19:40:37.768000,-1348.0,-1062.0,-1202.0,-115.0,-787.0,-1086.0,426.0,-633.0,367.0
19:40:37.773000,-1228.0,-1127.0,-1199.0,-177.0,-760.0,-1084.0,426.0,-633.0,367.0
19:40:37.777000,-1124.0,-1179.0,-1223.0,-277.0,-817.0,-1095.0,426.0,-633.0,367.0
19:40:37.782000,-1008.0,-1241.0,-1211.0,-297.0,-838.0,-1083.0,430.0,-639.0,358.0
19:40:37.787000,-960.0,-1283.0,-1205.0,-242.0,-751.0,-1045.0,430.0,-639.0,358.0
19:40:37.792000,-977.0,-1294.0,-1185.0,-191.0,-610.0,-1020.0,447.0,-639.0,343.0
19:40:37.796000,-1013.0,-1290.0,-1139.0,-198.0,-528.0,-1014.0,447.0,-639.0,343.0
19:40:37.800000,-978.0,-1277.0,-1050.0,-179.0,-547.0,-1085.0,447.0,-639.0,343.0
19:40:37.806000,-775.0,-1292.0,-887.0,-65.0,-878.0,-997.0,460.0,-633.0,331.0
19:40:37.810000,-946.0,-1230.0,-740.0,-25.0,-1272.0,-683.0,460.0,-633.0,331.0
19:40:37.815000,-1436.0,-1250.0,-830.0,-25.0,-1142.0,-699.0,459.0,-630.0,324.0
19:40:37.820000,-1450.0,-1234.0,-1406.0,-545.0,-632.0,-1021.0,459.0,-630.0,324.0
19:40:37.824000,-979.0,-1303.0,-1853.0,-563.0,-331.0,-1071.0,459.0,-630.0,324.0
19:40:37.829000,-836.0,-1279.0,-1780.0,-563.0,-349.0,-1071.0,486.0,-618.0,309.0
19:40:37.834000,-840.0,-1285.0,-1423.0,-436.0,-349.0,-900.0,486.0,-618.0,309.0
19:40:37.839000,-744.0,-1339.0,-1194.0,-398.0,-504.0,-838.0,495.0,-618.0,301.0
19:40:37.843000,-728.0,-1278.0,-1351.0,-579.0,-620.0,-870.0,495.0,-618.0,301.0
19:40:37.847000,-700.0,-1225.0,-1388.0,-697.0,-663.0,-886.0,495.0,-618.0,301.0
19:40:37.853000,-686.0,-1195.0,-1155.0,-643.0,-729.0,-868.0,501.0,-618.0,295.0
19:40:37.857000,-686.0,-1160.0,-1047.0,-593.0,-677.0,-846.0,501.0,-618.0,295.0
19:40:37.862000,-681.0,-1158.0,-1175.0,-560.0,-484.0,-829.0,502.0,-627.0,280.0
19:40:37.867000,-678.0,-1166.0,-1197.0,-499.0,-411.0,-793.0,502.0,-627.0,280.0
19:40:37.871000,-678.0,-1166.0,-1197.0,-449.0,-459.0,-762.0,502.0,-627.0,280.0
19:40:37.876000,-679.0,-1191.0,-1221.0,-451.0,-478.0,-750.0,520.0,-615.0,274.0
19:40:37.881000,-668.0,-1196.0,-1254.0,-455.0,-560.0,-771.0,520.0,-615.0,274.0
19:40:37.886000,-640.0,-1162.0,-1193.0,-528.0,-604.0,-779.0,519.0,-612.0,265.0
19:40:37.890000,-602.0,-1162.0,-1163.0,-571.0,-544.0,-762.0,519.0,-612.0,265.0
19:40:37.894000,-571.0,-1176.0,-1151.0,-552.0,-467.0,-752.0,519.0,-612.0,265.0
19:40:37.900000,-519.0,-1208.0,-1110.0,-525.0,-420.0,-745.0,520.0,-603.0,267.0
19:40:37.904000,-498.0,-1225.0,-1012.0,-553.0,-431.0,-733.0,520.0,-603.0,267.0
19:40:37.909000,-508.0,-1231.0,-933.0,-669.0,-435.0,-722.0,538.0,-603.0,255.0
19:40:37.914000,-515.0,-1232.0,-1023.0,-707.0,-487.0,-733.0,538.0,-603.0,255.0
19:40:37.918000,-453.0,-1241.0,-1037.0,-566.0,-546.0,-741.0,538.0,-603.0,255.0
19:40:37.923000,-409.0,-1240.0,-864.0,-486.0,-486.0,-711.0,534.0,-591.0,237.0
19:40:37.928000,-419.0,-1232.0,-763.0,-537.0,-394.0,-681.0,534.0,-591.0,237.0
19:40:37.933000,-413.0,-1234.0,-738.0,-537.0,-394.0,-681.0,546.0,-591.0,229.0
19:40:37.937000,-398.0,-1229.0,-737.0,-661.0,-413.0,-667.0,546.0,-591.0,229.0
19:40:37.941000,-384.0,-1252.0,-779.0,-661.0,-413.0,-667.0,546.0,-591.0,229.0
19:40:37.947000,-352.0,-1250.0,-933.0,-728.0,-371.0,-660.0,558.0,-585.0,237.0
19:40:37.951000,-301.0,-1239.0,-949.0,-751.0,-372.0,-673.0,558.0,-585.0,237.0
19:40:37.956000,-273.0,-1225.0,-825.0,-712.0,-507.0,-667.0,541.0,-591.0,220.0
19:40:37.961000,-259.0,-1208.0,-779.0,-725.0,-558.0,-653.0,541.0,-591.0,220.0
19:40:37.965000,-247.0,-1225.0,-762.0,-732.0,-504.0,-622.0,541.0,-591.0,220.0
19:40:37.970000,-261.0,-1225.0,-753.0,-685.0,-448.0,-596.0,546.0,-582.0,208.0
19:40:37.974000,-261.0,-1225.0,-753.0,-681.0,-413.0,-591.0,546.0,-582.0,208.0
19:40:37.980000,-229.0,-1233.0,-830.0,-721.0,-390.0,-573.0,558.0,-574.0,199.0
19:40:37.984000,-209.0,-1219.0,-841.0,-759.0,-416.0,-569.0,558.0,-574.0,199.0
19:40:37.989000,-209.0,-1219.0,-841.0,-828.0,-414.0,-571.0,561.0,-561.0,189.0
19:40:37.994000,-183.0,-1221.0,-893.0,-880.0,-358.0,-554.0,561.0,-561.0,189.0
19:40:37.998000,-178.0,-1207.0,-949.0,-840.0,-361.0,-554.0,561.0,-561.0,189.0
19:40:38.003000,-161.0,-1179.0,-862.0,-807.0,-372.0,-550.0,574.0,-558.0,181.0
19:40:38.008000,-149.0,-1157.0,-802.0,-824.0,-311.0,-518.0,574.0,-558.0,181.0
19:40:38.012000,-142.0,-1158.0,-814.0,-803.0,-274.0,-498.0,571.0,-556.0,175.0
19:40:38.017000,-144.0,-1135.0,-753.0,-812.0,-330.0,-495.0,571.0,-556.0,175.0
19:40:38.021000,-127.0,-1115.0,-751.0,-878.0,-396.0,-452.0,571.0,-556.0,175.0
19:40:38.027000,-123.0,-1120.0,-809.0,-878.0,-357.0,-422.0,565.0,-547.0,183.0
19:40:38.031000,-140.0,-1122.0,-764.0,-859.0,-194.0,-393.0,565.0,-547.0,183.0
19:40:38.036000,-194.0,-1137.0,-802.0,-859.0,-194.0,-393.0,576.0,-552.0,162.0
19:40:38.041000,-193.0,-1103.0,-759.0,-894.0,-232.0,-402.0,576.0,-552.0,162.0
19:40:38.045000,-200.0,-1079.0,-611.0,-937.0,-237.0,-378.0,576.0,-552.0,162.0
19:40:38.050000,-196.0,-1068.0,-689.0,-937.0,-237.0,-378.0,580.0,-546.0,148.0
19:40:38.055000,-210.0,-1036.0,-714.0,-999.0,-215.0,-370.0,580.0,-546.0,148.0
19:40:38.059000,-247.0,-1008.0,-641.0,-965.0,-232.0,-329.0,580.0,-538.0,150.0
19:40:38.064000,-273.0,-1001.0,-553.0,-965.0,-232.0,-329.0,580.0,-538.0,150.0
19:40:38.068000,-280.0,-982.0,-576.0,-974.0,-179.0,-320.0,580.0,-538.0,150.0
19:40:38.074000,-254.0,-946.0,-615.0,-979.0,-159.0,-330.0,589.0,-531.0,133.0
19:40:38.078000,-237.0,-914.0,-611.0,-991.0,-218.0,-327.0,589.0,-531.0,133.0
19:40:38.083000,-217.0,-903.0,-581.0,-999.0,-250.0,-309.0,589.0,-528.0,136.0
19:40:38.088000,-216.0,-898.0,-557.0,-991.0,-252.0,-290.0,589.0,-528.0,136.0
19:40:38.092000,-216.0,-898.0,-557.0,-994.0,-214.0,-279.0,589.0,-528.0,136.0
19:40:38.097000,-212.0,-883.0,-599.0,-989.0,-153.0,-273.0,573.0,-526.0,129.0
19:40:38.101000,-187.0,-876.0,-639.0,-935.0,-203.0,-262.0,573.0,-526.0,129.0
19:40:38.106000,-154.0,-873.0,-539.0,-916.0,-238.0,-254.0,586.0,-519.0,127.0
19:40:38.111000,-165.0,-849.0,-520.0,-963.0,-154.0,-240.0,586.0,-519.0,127.0
19:40:38.116000,-166.0,-843.0,-569.0,-980.0,-135.0,-226.0,585.0,-523.0,105.0
19:40:38.121000,-191.0,-833.0,-532.0,-980.0,-173.0,-228.0,585.0,-523.0,105.0
19:40:38.125000,-201.0,-808.0,-486.0,-1012.0,-169.0,-235.0,585.0,-523.0,105.0
19:40:38.130000,-186.0,-793.0,-506.0,-1021.0,-199.0,-224.0,582.0,-510.0,106.0
19:40:38.135000,-203.0,-761.0,-437.0,-999.0,-239.0,-213.0,582.0,-510.0,106.0
19:40:38.139000,-218.0,-744.0,-337.0,-1004.0,-194.0,-203.0,582.0,-511.0,102.0
19:40:38.144000,-219.0,-735.0,-336.0,-1023.0,-106.0,-188.0,582.0,-511.0,102.0
19:40:38.148000,-249.0,-718.0,-420.0,-996.0,-51.0,-178.0,582.0,-511.0,102.0
19:40:38.153000,-278.0,-695.0,-457.0,-955.0,-87.0,-176.0,585.0,-508.0,91.0
19:40:38.158000,-287.0,-679.0,-457.0,-955.0,-87.0,-176.0,585.0,-508.0,91.0
19:40:38.163000,-305.0,-654.0,-397.0,-948.0,-181.0,-171.0,594.0,-507.0,85.0
19:40:38.168000,-331.0,-630.0,-349.0,-986.0,-222.0,-161.0,594.0,-507.0,85.0
19:40:38.172000,-357.0,-586.0,-417.0,-1071.0,-163.0,-162.0,594.0,-507.0,85.0
19:40:38.177000,-365.0,-576.0,-456.0,-1098.0,-116.0,-155.0,583.0,-507.0,79.0
19:40:38.182000,-391.0,-554.0,-403.0,-1033.0,-160.0,-138.0,583.0,-507.0,79.0
19:40:38.186000,-393.0,-549.0,-370.0,-979.0,-175.0,-127.0,592.0,-496.0,79.0
19:40:38.191000,-380.0,-543.0,-359.0,-969.0,-129.0,-121.0,592.0,-496.0,79.0
19:40:38.195000,-380.0,-543.0,-359.0,-984.0,-109.0,-118.0,592.0,-496.0,79.0
19:40:38.200000,-387.0,-500.0,-419.0,-987.0,-102.0,-120.0,574.0,-504.0,82.0
19:40:38.205000,-387.0,-500.0,-419.0,-968.0,-119.0,-112.0,574.0,-504.0,82.0
19:40:38.210000,-399.0,-494.0,-428.0,-947.0,-145.0,-101.0,582.0,-493.0,69.0
19:40:38.215000,-396.0,-494.0,-424.0,-944.0,-147.0,-108.0,582.0,-493.0,69.0
19:40:38.219000,-394.0,-484.0,-453.0,-956.0,-134.0,-113.0,582.0,-493.0,69.0
19:40:38.224000,-371.0,-485.0,-443.0,-967.0,-105.0,-108.0,586.0,-469.0,61.0
19:40:38.229000,-377.0,-486.0,-409.0,-973.0,-53.0,-105.0,586.0,-469.0,61.0
19:40:38.233000,-388.0,-473.0,-421.0,-957.0,-33.0,-100.0,577.0,-487.0,78.0
19:40:38.238000,-399.0,-478.0,-398.0,-939.0,-63.0,-102.0,577.0,-487.0,78.0
19:40:38.242000,-423.0,-455.0,-332.0,-966.0,-55.0,-108.0,577.0,-487.0,78.0
19:40:38.247000,-443.0,-441.0,-319.0,-1014.0,-23.0,-107.0,586.0,-481.0,54.0
19:40:38.252000,-442.0,-436.0,-315.0,-1024.0,-25.0,-112.0,586.0,-481.0,54.0
19:40:38.257000,-464.0,-421.0,-279.0,-1024.0,-25.0,-112.0,600.0,-477.0,51.0
19:40:38.262000,-476.0,-410.0,-241.0,-1021.0,-12.0,-110.0,600.0,-477.0,51.0
19:40:38.266000,-479.0,-402.0,-234.0,-1021.0,-15.0,-117.0,600.0,-477.0,51.0
19:40:38.271000,-503.0,-371.0,-204.0,-1014.0,-28.0,-116.0,594.0,-475.0,60.0
19:40:38.276000,-518.0,-357.0,-131.0,-1014.0,-28.0,-116.0,594.0,-475.0,60.0
19:40:38.280000,-529.0,-337.0,-95.0,-1029.0,-25.0,-115.0,583.0,-474.0,45.0
19:40:38.285000,-550.0,-319.0,-114.0,-1055.0,-5.0,-117.0,583.0,-474.0,45.0
19:40:38.289000,-553.0,-310.0,-100.0,-1051.0,1.0,-113.0,583.0,-474.0,45.0
19:40:38.294000,-576.0,-294.0,-82.0,-1026.0,-6.0,-112.0,598.0,-471.0,40.0
19:40:38.299000,-595.0,-282.0,-56.0,-1014.0,9.0,-111.0,598.0,-471.0,40.0
19:40:38.304000,-620.0,-283.0,-28.0,-1006.0,34.0,-105.0,582.0,-474.0,43.0
19:40:38.309000,-649.0,-275.0,-18.0,-994.0,46.0,-105.0,582.0,-474.0,43.0
19:40:38.313000,-649.0,-275.0,-18.0,-990.0,54.0,-102.0,582.0,-474.0,43.0
19:40:38.318000,-676.0,-279.0,-24.0,-982.0,51.0,-97.0,589.0,-465.0,40.0
19:40:38.323000,-690.0,-287.0,-13.0,-960.0,29.0,-98.0,589.0,-465.0,40.0
19:40:38.327000,-718.0,-291.0,15.0,-953.0,5.0,-95.0,568.0,-462.0,42.0
19:40:38.332000,-734.0,-306.0,46.0,-955.0,28.0,-89.0,568.0,-462.0,42.0
19:40:38.336000,-757.0,-324.0,37.0,-934.0,34.0,-85.0,568.0,-462.0,42.0
19:40:38.341000,-779.0,-341.0,66.0,-909.0,20.0,-84.0,583.0,-462.0,31.0
19:40:38.346000,-804.0,-366.0,105.0,-909.0,24.0,-80.0,583.0,-462.0,31.0
19:40:38.351000,-835.0,-390.0,127.0,-908.0,51.0,-65.0,580.0,-450.0,28.0
19:40:38.356000,-864.0,-428.0,130.0,-905.0,74.0,-48.0,580.0,-450.0,28.0
19:40:38.360000,-891.0,-459.0,132.0,-912.0,100.0,-43.0,580.0,-450.0,28.0
19:40:38.365000,-929.0,-486.0,119.0,-924.0,121.0,-39.0,582.0,-457.0,30.0
19:40:38.370000,-988.0,-518.0,126.0,-916.0,128.0,-29.0,582.0,-457.0,30.0
19:40:38.374000,-1048.0,-546.0,157.0,-916.0,128.0,-29.0,582.0,-450.0,21.0
19:40:38.379000,-1118.0,-572.0,191.0,-916.0,108.0,-21.0,582.0,-450.0,21.0
19:40:38.383000,-1191.0,-599.0,187.0,-940.0,131.0,-9.0,582.0,-450.0,21.0
19:40:38.388000,-1269.0,-632.0,214.0,-954.0,153.0,1.0,583.0,-442.0,9.0
19:40:38.393000,-1360.0,-671.0,200.0,-957.0,174.0,30.0,583.0,-442.0,9.0
19:40:38.398000,-1449.0,-713.0,156.0,-948.0,214.0,57.0,580.0,-454.0,9.0
19:40:38.403000,-1537.0,-746.0,109.0,-914.0,241.0,63.0,580.0,-454.0,9.0
19:40:38.407000,-1635.0,-784.0,98.0,-890.0,242.0,79.0,580.0,-454.0,9.0
19:40:38.412000,-1735.0,-831.0,118.0,-882.0,199.0,107.0,579.0,-447.0,9.0
19:40:38.417000,-1837.0,-878.0,114.0,-895.0,181.0,129.0,579.0,-447.0,9.0
19:40:38.421000,-1928.0,-928.0,88.0,-919.0,192.0,156.0,562.0,-444.0,0.0
19:40:38.426000,-1928.0,-928.0,88.0,-923.0,191.0,184.0,562.0,-444.0,0.0
19:40:38.430000,-2023.0,-968.0,59.0,-922.0,200.0,210.0,562.0,-444.0,0.0
19:40:38.435000,-2123.0,-1003.0,3.0,-921.0,210.0,245.0,565.0,-423.0,-13.0
19:40:38.440000,-2217.0,-1057.0,-48.0,-894.0,199.0,282.0,565.0,-423.0,-13.0
19:40:38.445000,-2303.0,-1124.0,-98.0,-846.0,176.0,320.0,558.0,-417.0,-31.0
19:40:38.450000,-2383.0,-1194.0,-119.0,-822.0,154.0,352.0,558.0,-417.0,-31.0
19:40:38.457000,-2575.0,-1292.0,-196.0,-876.0,196.0,420.0,565.0,-414.0,-22.0
19:40:38.459000,-2575.0,-1292.0,-196.0,-876.0,196.0,420.0,565.0,-414.0,-22.0
19:40:38.463000,-2681.0,-1347.0,-277.0,-855.0,205.0,463.0,565.0,-414.0,-22.0
19:40:38.468000,-2780.0,-1411.0,-312.0,-830.0,203.0,498.0,546.0,-393.0,-31.0
19:40:38.473000,-2866.0,-1462.0,-352.0,-859.0,211.0,531.0,546.0,-393.0,-31.0
19:40:38.478000,-2949.0,-1511.0,-439.0,-859.0,211.0,531.0,541.0,-385.0,-39.0
19:40:38.482000,-3021.0,-1566.0,-475.0,-904.0,182.0,616.0,541.0,-385.0,-39.0
19:40:38.486000,-3110.0,-1617.0,-470.0,-904.0,182.0,616.0,541.0,-385.0,-39.0
19:40:38.492000,-3199.0,-1659.0,-539.0,-930.0,209.0,651.0,535.0,-369.0,-39.0
19:40:38.497000,-3291.0,-1696.0,-584.0,-928.0,256.0,716.0,535.0,-369.0,-39.0
19:40:38.501000,-3383.0,-1738.0,-580.0,-928.0,256.0,716.0,529.0,-334.0,-57.0
19:40:38.506000,-3486.0,-1770.0,-613.0,-923.0,258.0,752.0,529.0,-334.0,-57.0
19:40:38.510000,-3567.0,-1820.0,-683.0,-947.0,266.0,785.0,529.0,-334.0,-57.0
19:40:38.515000,-3650.0,-1852.0,-714.0,-931.0,278.0,815.0,525.0,-312.0,-57.0
19:40:38.520000,-3731.0,-1894.0,-751.0,-897.0,268.0,847.0,525.0,-312.0,-57.0
19:40:38.525000,-3781.0,-1938.0,-795.0,-879.0,299.0,875.0,508.0,-292.0,-61.0
19:40:38.529000,-3845.0,-1967.0,-875.0,-874.0,313.0,898.0,508.0,-292.0,-61.0
19:40:38.533000,-3845.0,-1967.0,-875.0,-856.0,309.0,923.0,508.0,-292.0,-61.0
19:40:38.539000,-3893.0,-1994.0,-882.0,-848.0,265.0,942.0,508.0,-273.0,-58.0
19:40:38.544000,-3931.0,-2023.0,-858.0,-885.0,281.0,957.0,508.0,-273.0,-58.0
19:40:38.548000,-3956.0,-2053.0,-938.0,-915.0,303.0,962.0,483.0,-256.0,-57.0
19:40:38.553000,-3964.0,-2079.0,-1024.0,-881.0,276.0,960.0,483.0,-256.0,-57.0
19:40:38.557000,-3962.0,-2102.0,-1035.0,-863.0,257.0,970.0,483.0,-256.0,-57.0
19:40:38.562000,-3966.0,-2123.0,-1059.0,-875.0,291.0,960.0,489.0,-231.0,-52.0
19:40:38.567000,-3952.0,-2132.0,-1089.0,-871.0,290.0,950.0,489.0,-231.0,-52.0
19:40:38.572000,-3930.0,-2148.0,-1074.0,-897.0,295.0,944.0,451.0,-213.0,-45.0
19:40:38.576000,-3901.0,-2151.0,-1088.0,-919.0,335.0,930.0,451.0,-213.0,-45.0
19:40:38.580000,-3878.0,-2149.0,-1120.0,-916.0,317.0,927.0,451.0,-213.0,-45.0
19:40:38.586000,-3831.0,-2164.0,-1150.0,-868.0,321.0,922.0,423.0,-169.0,-22.0
19:40:38.591000,-3779.0,-2181.0,-1129.0,-806.0,282.0,914.0,423.0,-169.0,-22.0
19:40:38.595000,-3735.0,-2191.0,-1075.0,-806.0,282.0,914.0,432.0,-144.0,-28.0
19:40:38.600000,-3685.0,-2195.0,-1037.0,-777.0,263.0,901.0,432.0,-144.0,-28.0
19:40:38.604000,-3619.0,-2209.0,-1015.0,-770.0,253.0,881.0,432.0,-144.0,-28.0
19:40:38.609000,-3546.0,-2205.0,-1031.0,-765.0,270.0,855.0,406.0,-123.0,-12.0
19:40:38.614000,-3465.0,-2205.0,-1075.0,-775.0,327.0,827.0,406.0,-123.0,-12.0
19:40:38.619000,-3395.0,-2205.0,-1050.0,-763.0,352.0,814.0,399.0,-109.0,-3.0
19:40:38.623000,-3336.0,-2195.0,-962.0,-731.0,336.0,804.0,399.0,-109.0,-3.0
19:40:38.627000,-3336.0,-2195.0,-962.0,-728.0,338.0,791.0,399.0,-109.0,-3.0
19:40:38.633000,-3219.0,-2170.0,-830.0,-755.0,357.0,777.0,382.0,-90.0,15.0
19:40:38.638000,-3147.0,-2153.0,-851.0,-780.0,393.0,755.0,382.0,-90.0,15.0
19:40:38.642000,-3147.0,-2153.0,-851.0,-770.0,405.0,734.0,366.0,-72.0,13.0
19:40:38.647000,-3073.0,-2136.0,-842.0,-720.0,363.0,715.0,366.0,-72.0,13.0
19:40:38.651000,-3000.0,-2111.0,-759.0,-681.0,321.0,693.0,366.0,-72.0,13.0
19:40:38.656000,-2935.0,-2076.0,-649.0,-702.0,336.0,674.0,349.0,-49.0,39.0
19:40:38.661000,-2877.0,-2035.0,-590.0,-747.0,403.0,652.0,349.0,-49.0,39.0
19:40:38.665000,-2827.0,-1992.0,-550.0,-778.0,460.0,630.0,340.0,-45.0,54.0
19:40:38.670000,-2776.0,-1942.0,-513.0,-800.0,496.0,604.0,340.0,-45.0,54.0
19:40:38.674000,-2723.0,-1889.0,-485.0,-806.0,502.0,589.0,340.0,-45.0,54.0
19:40:38.680000,-2669.0,-1843.0,-454.0,-795.0,483.0,581.0,340.0,-34.0,75.0
19:40:38.684000,-2615.0,-1789.0,-426.0,-768.0,446.0,561.0,340.0,-34.0,75.0
19:40:38.689000,-2551.0,-1734.0,-392.0,-743.0,415.0,543.0,330.0,-30.0,88.0
19:40:38.694000,-2475.0,-1680.0,-386.0,-733.0,417.0,526.0,330.0,-30.0,88.0
19:40:38.698000,-2394.0,-1622.0,-414.0,-730.0,424.0,507.0,330.0,-30.0,88.0
19:40:38.703000,-2308.0,-1564.0,-444.0,-736.0,440.0,487.0,319.0,-19.0,96.0
19:40:38.707000,-2220.0,-1512.0,-487.0,-737.0,462.0,467.0,319.0,-19.0,96.0
19:40:38.713000,-2137.0,-1456.0,-522.0,-737.0,462.0,467.0,309.0,-15.0,112.0
19:40:38.717000,-2057.0,-1398.0,-532.0,-719.0,467.0,441.0,309.0,-15.0,112.0
19:40:38.722000,-1987.0,-1348.0,-521.0,-708.0,463.0,424.0,304.0,-10.0,129.0
19:40:38.727000,-1924.0,-1302.0,-508.0,-711.0,476.0,411.0,304.0,-10.0,129.0
19:40:38.731000,-1867.0,-1253.0,-514.0,-712.0,516.0,391.0,304.0,-10.0,129.0
19:40:38.736000,-1813.0,-1209.0,-523.0,-698.0,556.0,375.0,300.0,-6.0,153.0
19:40:38.741000,-1761.0,-1169.0,-516.0,-666.0,572.0,364.0,300.0,-6.0,153.0
19:40:38.746000,-1712.0,-1129.0,-485.0,-626.0,565.0,352.0,295.0,6.0,157.0
19:40:38.750000,-1661.0,-1088.0,-454.0,-601.0,552.0,337.0,295.0,6.0,157.0
19:40:38.754000,-1661.0,-1088.0,-454.0,-597.0,551.0,320.0,295.0,6.0,157.0
19:40:38.760000,-1614.0,-1045.0,-446.0,-592.0,558.0,305.0,270.0,0.0,172.0
19:40:38.764000,-1566.0,-1005.0,-443.0,-576.0,562.0,291.0,270.0,0.0,172.0
19:40:38.769000,-1520.0,-963.0,-428.0,-558.0,571.0,277.0,280.0,1.0,180.0
19:40:38.774000,-1481.0,-920.0,-406.0,-543.0,586.0,265.0,280.0,1.0,180.0
19:40:38.778000,-1451.0,-870.0,-378.0,-537.0,611.0,255.0,280.0,1.0,180.0
19:40:38.783000,-1423.0,-821.0,-373.0,-537.0,637.0,248.0,282.0,3.0,187.0
19:40:38.788000,-1402.0,-779.0,-388.0,-522.0,651.0,242.0,282.0,3.0,187.0
19:40:38.793000,-1386.0,-738.0,-401.0,-493.0,655.0,229.0,276.0,7.0,198.0
19:40:38.797000,-1372.0,-695.0,-397.0,-468.0,653.0,215.0,276.0,7.0,198.0
19:40:38.801000,-1357.0,-658.0,-385.0,-459.0,649.0,203.0,276.0,7.0,198.0
19:40:38.807000,-1341.0,-629.0,-382.0,-454.0,641.0,187.0,277.0,7.0,229.0
19:40:38.811000,-1320.0,-603.0,-389.0,-441.0,633.0,170.0,277.0,7.0,229.0
19:40:38.816000,-1290.0,-582.0,-403.0,-441.0,633.0,170.0,273.0,13.0,228.0
19:40:38.821000,-1253.0,-564.0,-416.0,-418.0,620.0,156.0,273.0,13.0,228.0
19:40:38.825000,-1213.0,-550.0,-431.0,-387.0,601.0,149.0,273.0,13.0,228.0
19:40:38.830000,-1175.0,-534.0,-448.0,-351.0,589.0,145.0,267.0,13.0,238.0
19:40:38.835000,-1134.0,-522.0,-447.0,-313.0,590.0,144.0,267.0,13.0,238.0
19:40:38.840000,-1094.0,-514.0,-424.0,-279.0,598.0,145.0,262.0,10.0,243.0
19:40:38.844000,-1058.0,-508.0,-401.0,-264.0,609.0,148.0,262.0,10.0,243.0
19:40:38.848000,-1058.0,-508.0,-401.0,-267.0,624.0,148.0,262.0,10.0,243.0
19:40:38.853000,-1021.0,-499.0,-379.0,-280.0,636.0,147.0,262.0,9.0,262.0
19:40:38.858000,-957.0,-469.0,-340.0,-304.0,645.0,142.0,262.0,9.0,262.0
19:40:38.863000,-957.0,-469.0,-340.0,-337.0,652.0,137.0,258.0,4.0,265.0
19:40:38.868000,-926.0,-447.0,-320.0,-372.0,651.0,136.0,258.0,4.0,265.0
19:40:38.872000,-892.0,-427.0,-301.0,-393.0,645.0,137.0,258.0,4.0,265.0
19:40:38.877000,-861.0,-410.0,-280.0,-390.0,638.0,142.0,250.0,7.0,270.0
19:40:38.882000,-833.0,-395.0,-242.0,-371.0,632.0,146.0,250.0,7.0,270.0
19:40:38.886000,-803.0,-378.0,-197.0,-365.0,631.0,152.0,253.0,16.0,273.0
19:40:38.891000,-775.0,-362.0,-172.0,-375.0,636.0,160.0,253.0,16.0,273.0
19:40:38.895000,-748.0,-352.0,-161.0,-369.0,633.0,167.0,253.0,16.0,273.0
19:40:38.901000,-721.0,-343.0,-144.0,-347.0,634.0,171.0,250.0,13.0,276.0
19:40:38.905000,-695.0,-333.0,-131.0,-341.0,655.0,176.0,250.0,13.0,276.0
19:40:38.910000,-672.0,-329.0,-131.0,-341.0,655.0,176.0,246.0,9.0,282.0
19:40:38.915000,-656.0,-326.0,-133.0,-362.0,684.0,180.0,246.0,9.0,282.0
19:40:38.919000,-642.0,-320.0,-128.0,-366.0,678.0,177.0,246.0,9.0,282.0
19:40:38.924000,-627.0,-316.0,-129.0,-366.0,678.0,177.0,255.0,19.0,286.0
19:40:38.929000,-609.0,-313.0,-137.0,-358.0,667.0,174.0,255.0,19.0,286.0
19:40:38.933000,-585.0,-314.0,-140.0,-323.0,633.0,162.0,249.0,3.0,292.0
19:40:38.938000,-557.0,-309.0,-153.0,-323.0,633.0,162.0,249.0,3.0,292.0
19:40:38.942000,-531.0,-301.0,-185.0,-325.0,631.0,151.0,249.0,3.0,292.0
19:40:38.948000,-501.0,-296.0,-220.0,-331.0,636.0,143.0,253.0,12.0,298.0
19:40:38.952000,-475.0,-283.0,-238.0,-332.0,637.0,131.0,253.0,12.0,298.0
19:40:38.957000,-451.0,-269.0,-240.0,-338.0,638.0,119.0,255.0,3.0,297.0
19:40:38.962000,-436.0,-255.0,-245.0,-354.0,652.0,111.0,255.0,3.0,297.0
19:40:38.966000,-436.0,-255.0,-245.0,-368.0,668.0,103.0,255.0,3.0,297.0
19:40:38.971000,-418.0,-239.0,-259.0,-360.0,656.0,95.0,238.0,0.0,297.0
19:40:38.976000,-392.0,-222.0,-259.0,-348.0,621.0,90.0,238.0,0.0,297.0
19:40:38.980000,-355.0,-210.0,-265.0,-345.0,601.0,84.0,240.0,9.0,315.0
19:40:38.985000,-316.0,-192.0,-294.0,-329.0,603.0,74.0,240.0,9.0,315.0
19:40:38.989000,-275.0,-172.0,-309.0,-314.0,620.0,67.0,240.0,9.0,315.0
19:40:38.995000,-238.0,-154.0,-308.0,-328.0,650.0,67.0,237.0,12.0,304.0
19:40:38.999000,-202.0,-134.0,-318.0,-348.0,678.0,73.0,237.0,12.0,304.0
19:40:39.004000,-173.0,-114.0,-348.0,-338.0,680.0,84.0,241.0,10.0,318.0
19:40:39.009000,-146.0,-103.0,-349.0,-302.0,672.0,96.0,241.0,10.0,318.0
19:40:39.013000,-107.0,-97.0,-343.0,-271.0,679.0,109.0,241.0,10.0,318.0
19:40:39.018000,-74.0,-92.0,-357.0,-247.0,691.0,122.0,232.0,10.0,318.0
19:40:39.023000,-38.0,-90.0,-366.0,-226.0,705.0,141.0,232.0,10.0,318.0
19:40:39.028000,-6.0,-91.0,-359.0,-215.0,719.0,165.0,232.0,7.0,312.0
19:40:39.032000,21.0,-95.0,-347.0,-215.0,727.0,165.0,232.0,7.0,312.0
19:40:39.036000,50.0,-101.0,-326.0,-213.0,727.0,182.0,232.0,7.0,312.0
19:40:39.042000,83.0,-108.0,-310.0,-220.0,735.0,191.0,228.0,9.0,316.0
19:40:39.046000,123.0,-110.0,-312.0,-242.0,762.0,188.0,228.0,9.0,316.0
19:40:39.051000,147.0,-99.0,-338.0,-263.0,808.0,186.0,228.0,9.0,313.0
19:40:39.056000,158.0,-100.0,-340.0,-264.0,842.0,200.0,228.0,9.0,313.0
19:40:39.060000,200.0,-91.0,-308.0,-252.0,847.0,194.0,228.0,9.0,313.0
19:40:39.065000,223.0,-86.0,-268.0,-261.0,811.0,184.0,223.0,0.0,307.0
19:40:39.070000,262.0,-84.0,-242.0,-281.0,795.0,186.0,223.0,0.0,307.0
19:40:39.075000,296.0,-81.0,-228.0,-282.0,821.0,181.0,226.0,10.0,309.0
19:40:39.079000,296.0,-81.0,-228.0,-279.0,845.0,180.0,226.0,10.0,309.0
19:40:39.083000,340.0,-74.0,-217.0,-281.0,847.0,183.0,226.0,10.0,309.0
19:40:39.088000,367.0,-71.0,-208.0,-284.0,813.0,183.0,226.0,3.0,306.0
19:40:39.093000,400.0,-65.0,-181.0,-288.0,787.0,174.0,226.0,3.0,306.0
19:40:39.098000,456.0,-63.0,-149.0,-293.0,794.0,191.0,217.0,3.0,309.0
19:40:39.103000,490.0,-73.0,-141.0,-274.0,808.0,205.0,217.0,3.0,309.0
19:40:39.107000,529.0,-81.0,-142.0,-236.0,821.0,213.0,217.0,3.0,309.0
19:40:39.112000,553.0,-87.0,-139.0,-206.0,834.0,219.0,220.0,9.0,294.0
19:40:39.117000,581.0,-91.0,-128.0,-204.0,870.0,222.0,220.0,9.0,294.0
19:40:39.122000,585.0,-92.0,-125.0,-225.0,938.0,228.0,223.0,7.0,294.0
19:40:39.126000,582.0,-96.0,-155.0,-248.0,1000.0,224.0,223.0,7.0,294.0
19:40:39.130000,572.0,-98.0,-195.0,-256.0,1027.0,221.0,223.0,7.0,294.0
19:40:39.136000,562.0,-98.0,-240.0,-240.0,991.0,212.0,217.0,3.0,283.0
19:40:39.140000,553.0,-95.0,-266.0,-221.0,914.0,194.0,217.0,3.0,283.0
19:40:39.145000,555.0,-91.0,-273.0,-221.0,914.0,194.0,214.0,3.0,285.0
19:40:39.150000,566.0,-92.0,-296.0,-228.0,867.0,176.0,214.0,3.0,285.0
19:40:39.154000,587.0,-98.0,-331.0,-246.0,858.0,162.0,214.0,3.0,285.0
19:40:39.159000,617.0,-109.0,-359.0,-241.0,836.0,151.0,214.0,10.0,282.0
19:40:39.164000,660.0,-128.0,-382.0,-215.0,790.0,138.0,214.0,10.0,282.0
19:40:39.169000,716.0,-154.0,-414.0,-180.0,741.0,126.0,211.0,4.0,279.0
19:40:39.173000,781.0,-186.0,-458.0,-148.0,716.0,115.0,211.0,4.0,279.0
19:40:39.177000,781.0,-186.0,-458.0,-127.0,715.0,112.0,211.0,4.0,279.0
19:40:39.183000,910.0,-259.0,-491.0,-117.0,723.0,120.0,205.0,9.0,268.0
19:40:39.187000,968.0,-296.0,-482.0,-114.0,731.0,128.0,205.0,9.0,268.0
19:40:39.192000,968.0,-296.0,-482.0,-117.0,739.0,136.0,207.0,4.0,268.0
19:40:39.197000,1024.0,-335.0,-477.0,-123.0,747.0,150.0,207.0,4.0,268.0
19:40:39.201000,1079.0,-370.0,-478.0,-128.0,760.0,167.0,207.0,4.0,268.0
19:40:39.206000,1134.0,-401.0,-480.0,-132.0,768.0,183.0,207.0,7.0,264.0
19:40:39.211000,1189.0,-424.0,-470.0,-135.0,761.0,198.0,207.0,7.0,264.0
19:40:39.216000,1244.0,-443.0,-454.0,-137.0,748.0,210.0,193.0,7.0,247.0
19:40:39.220000,1305.0,-455.0,-441.0,-146.0,739.0,228.0,193.0,7.0,247.0
19:40:39.224000,1363.0,-462.0,-431.0,-162.0,748.0,247.0,193.0,7.0,247.0
19:40:39.230000,1425.0,-469.0,-418.0,-177.0,761.0,268.0,192.0,13.0,232.0
19:40:39.234000,1490.0,-471.0,-400.0,-194.0,759.0,291.0,192.0,13.0,232.0
19:40:39.239000,1558.0,-467.0,-387.0,-194.0,759.0,291.0,186.0,13.0,228.0
19:40:39.244000,1627.0,-459.0,-388.0,-219.0,748.0,337.0,186.0,13.0,228.0
19:40:39.248000,1699.0,-448.0,-390.0,-221.0,727.0,360.0,186.0,13.0,228.0
19:40:39.253000,1775.0,-429.0,-379.0,-221.0,727.0,360.0,180.0,1.0,214.0
19:40:39.258000,1852.0,-404.0,-366.0,-231.0,730.0,384.0,180.0,1.0,214.0
19:40:39.263000,1927.0,-378.0,-366.0,-271.0,800.0,460.0,183.0,9.0,196.0
19:40:39.267000,2005.0,-350.0,-344.0,-271.0,800.0,460.0,183.0,9.0,196.0
19:40:39.271000,2067.0,-319.0,-284.0,-283.0,776.0,496.0,183.0,9.0,196.0
19:40:39.277000,2129.0,-280.0,-207.0,-301.0,744.0,525.0,184.0,12.0,184.0
19:40:39.281000,2195.0,-233.0,-142.0,-322.0,724.0,544.0,184.0,12.0,184.0
19:40:39.286000,2246.0,-179.0,-81.0,-347.0,705.0,565.0,180.0,0.0,181.0
19:40:39.291000,2293.0,-124.0,-31.0,-376.0,687.0,590.0,180.0,0.0,181.0
19:40:39.295000,2293.0,-124.0,-31.0,-396.0,692.0,597.0,180.0,0.0,181.0
19:40:39.300000,2370.0,-60.0,-6.0,-409.0,709.0,599.0,184.0,1.0,154.0
19:40:39.305000,2436.0,4.0,3.0,-383.0,696.0,611.0,184.0,1.0,154.0
19:40:39.310000,2506.0,65.0,46.0,-384.0,646.0,621.0,181.0,0.0,130.0
19:40:39.314000,2571.0,126.0,91.0,-438.0,599.0,627.0,181.0,0.0,130.0
19:40:39.318000,2641.0,183.0,92.0,-438.0,555.0,638.0,181.0,0.0,130.0
19:40:39.323000,2697.0,229.0,93.0,-406.0,507.0,640.0,184.0,-7.0,115.0
19:40:39.328000,2782.0,272.0,123.0,-384.0,490.0,633.0,184.0,-7.0,115.0
19:40:39.333000,2873.0,320.0,126.0,-351.0,493.0,667.0,180.0,-16.0,88.0
19:40:39.338000,2938.0,340.0,112.0,-339.0,490.0,726.0,180.0,-16.0,88.0
19:40:39.342000,2987.0,340.0,84.0,-328.0,465.0,750.0,180.0,-16.0,88.0
19:40:39.347000,3076.0,352.0,88.0,-278.0,425.0,763.0,178.0,-25.0,76.0
19:40:39.352000,3178.0,353.0,106.0,-254.0,394.0,790.0,178.0,-25.0,76.0
19:40:39.356000,3276.0,367.0,91.0,-276.0,375.0,828.0,171.0,-40.0,54.0
19:40:39.361000,3363.0,387.0,77.0,-276.0,375.0,828.0,171.0,-40.0,54.0
19:40:39.365000,3442.0,408.0,88.0,-324.0,365.0,874.0,171.0,-40.0,54.0
19:40:39.371000,3497.0,428.0,106.0,-394.0,366.0,923.0,171.0,-40.0,54.0
19:40:39.375000,3523.0,462.0,138.0,-441.0,362.0,977.0,171.0,-40.0,54.0
19:40:39.380000,3528.0,492.0,119.0,-493.0,411.0,1026.0,186.0,-63.0,-6.0
19:40:39.385000,3516.0,534.0,74.0,-570.0,491.0,1065.0,186.0,-63.0,-6.0
19:40:39.389000,3506.0,581.0,9.0,-614.0,462.0,1086.0,186.0,-63.0,-6.0
19:40:39.394000,3496.0,621.0,-45.0,-630.0,386.0,1110.0,189.0,-78.0,-24.0
19:40:39.399000,3472.0,691.0,-90.0,-645.0,357.0,1131.0,189.0,-78.0,-24.0
19:40:39.404000,3446.0,747.0,-106.0,-604.0,359.0,1160.0,190.0,-93.0,-46.0
19:40:39.408000,3446.0,747.0,-106.0,-638.0,352.0,1199.0,190.0,-93.0,-46.0
19:40:39.412000,3419.0,791.0,-187.0,-554.0,480.0,1169.0,190.0,-93.0,-46.0
19:40:39.418000,3404.0,842.0,-217.0,-441.0,518.0,1157.0,192.0,-109.0,-66.0
19:40:39.422000,3377.0,874.0,-277.0,-512.0,389.0,1166.0,192.0,-109.0,-66.0
19:40:39.427000,3360.0,917.0,-321.0,-564.0,323.0,1142.0,201.0,-129.0,-76.0
19:40:39.432000,3342.0,973.0,-354.0,-601.0,236.0,1145.0,201.0,-129.0,-76.0
19:40:39.436000,3328.0,1010.0,-338.0,-560.0,180.0,1122.0,201.0,-129.0,-76.0
19:40:39.441000,3352.0,1052.0,-296.0,-515.0,144.0,1098.0,193.0,-145.0,-96.0
19:40:39.446000,3387.0,1093.0,-270.0,-512.0,128.0,1095.0,193.0,-145.0,-96.0
19:40:39.451000,3416.0,1135.0,-263.0,-549.0,140.0,1093.0,207.0,-183.0,-126.0
19:40:39.455000,3432.0,1182.0,-266.0,-557.0,127.0,1086.0,207.0,-183.0,-126.0
19:40:39.459000,3454.0,1245.0,-232.0,-558.0,119.0,1078.0,207.0,-183.0,-126.0
19:40:39.465000,3459.0,1309.0,-199.0,-580.0,103.0,1091.0,214.0,-208.0,-142.0
19:40:39.469000,3443.0,1360.0,-170.0,-580.0,61.0,1105.0,214.0,-208.0,-142.0
19:40:39.474000,3440.0,1407.0,-142.0,-591.0,61.0,1105.0,220.0,-223.0,-151.0
19:40:39.479000,3439.0,1468.0,-116.0,-575.0,32.0,1096.0,220.0,-223.0,-151.0
19:40:39.483000,3420.0,1515.0,-107.0,-535.0,26.0,1089.0,220.0,-223.0,-151.0
19:40:39.488000,3390.0,1567.0,-90.0,-527.0,11.0,1101.0,226.0,-253.0,-162.0
19:40:39.492000,3359.0,1621.0,-65.0,-535.0,-7.0,1095.0,226.0,-253.0,-162.0
19:40:39.498000,3322.0,1670.0,-50.0,-559.0,-7.0,1081.0,247.0,-270.0,-175.0
19:40:39.502000,3280.0,1719.0,-23.0,-581.0,-10.0,1074.0,247.0,-270.0,-175.0
19:40:39.507000,3251.0,1777.0,42.0,-568.0,-43.0,1058.0,253.0,-289.0,-180.0
19:40:39.512000,3230.0,1820.0,86.0,-556.0,-106.0,1051.0,253.0,-289.0,-180.0
19:40:39.516000,3230.0,1820.0,86.0,-577.0,-173.0,1066.0,253.0,-289.0,-180.0
19:40:39.521000,3213.0,1875.0,69.0,-578.0,-234.0,1079.0,280.0,-327.0,-183.0
19:40:39.526000,3210.0,1931.0,70.0,-539.0,-286.0,1091.0,280.0,-327.0,-183.0
19:40:39.530000,3210.0,1978.0,75.0,-521.0,-316.0,1103.0,291.0,-352.0,-190.0
19:40:39.535000,3206.0,2025.0,69.0,-511.0,-343.0,1110.0,291.0,-352.0,-190.0
19:40:39.539000,3196.0,2059.0,65.0,-519.0,-364.0,1124.0,291.0,-352.0,-190.0
19:40:39.545000,3182.0,2072.0,28.0,-525.0,-352.0,1133.0,313.0,-382.0,-190.0
19:40:39.549000,3173.0,2074.0,-12.0,-479.0,-358.0,1125.0,313.0,-382.0,-190.0
19:40:39.554000,3177.0,2072.0,-23.0,-455.0,-361.0,1119.0,321.0,-396.0,-195.0
19:40:39.559000,3160.0,2055.0,-18.0,-477.0,-359.0,1114.0,321.0,-396.0,-195.0
19:40:39.563000,3127.0,2047.0,-18.0,-433.0,-401.0,1106.0,321.0,-396.0,-195.0
19:40:39.568000,3085.0,2019.0,55.0,-377.0,-412.0,1093.0,334.0,-415.0,-186.0
19:40:39.573000,3052.0,1974.0,137.0,-385.0,-367.0,1067.0,334.0,-415.0,-186.0
19:40:39.577000,3012.0,1946.0,154.0,-421.0,-315.0,1048.0,357.0,-444.0,-198.0
19:40:39.582000,2968.0,1903.0,109.0,-421.0,-315.0,1048.0,357.0,-444.0,-198.0
19:40:39.586000,2905.0,1858.0,79.0,-445.0,-282.0,1041.0,357.0,-444.0,-198.0
19:40:39.592000,2825.0,1811.0,100.0,-433.0,-269.0,1031.0,378.0,-483.0,-163.0
19:40:39.596000,2720.0,1767.0,158.0,-424.0,-263.0,1025.0,378.0,-483.0,-163.0
19:40:39.601000,2618.0,1724.0,210.0,-426.0,-236.0,1006.0,396.0,-493.0,-163.0
19:40:39.606000,2521.0,1668.0,196.0,-448.0,-204.0,983.0,396.0,-493.0,-163.0
19:40:39.610000,2422.0,1617.0,152.0,-466.0,-200.0,960.0,396.0,-493.0,-163.0
19:40:39.615000,2318.0,1563.0,140.0,-461.0,-201.0,932.0,400.0,-519.0,-159.0
19:40:39.620000,2218.0,1509.0,177.0,-471.0,-208.0,908.0,400.0,-519.0,-159.0
19:40:39.624000,2128.0,1456.0,191.0,-468.0,-213.0,869.0,408.0,-529.0,-139.0
19:40:39.629000,2128.0,1456.0,191.0,-477.0,-220.0,831.0,408.0,-529.0,-139.0
19:40:39.633000,2033.0,1410.0,168.0,-507.0,-233.0,796.0,408.0,-529.0,-139.0
19:40:39.639000,1938.0,1371.0,152.0,-512.0,-232.0,759.0,423.0,-540.0,-142.0
19:40:39.643000,1841.0,1341.0,172.0,-517.0,-238.0,720.0,423.0,-540.0,-142.0
19:40:39.648000,1750.0,1320.0,198.0,-549.0,-235.0,672.0,426.0,-556.0,-133.0
19:40:39.653000,1660.0,1309.0,189.0,-607.0,-215.0,636.0,426.0,-556.0,-133.0
19:40:39.657000,1572.0,1288.0,169.0,-644.0,-198.0,607.0,426.0,-556.0,-133.0
19:40:39.662000,1485.0,1268.0,165.0,-655.0,-211.0,580.0,445.0,-579.0,-111.0
19:40:39.667000,1400.0,1243.0,176.0,-651.0,-262.0,554.0,445.0,-579.0,-111.0
19:40:39.671000,1325.0,1220.0,200.0,-638.0,-330.0,524.0,441.0,-576.0,-103.0
19:40:39.676000,1260.0,1201.0,228.0,-633.0,-405.0,503.0,441.0,-576.0,-103.0
19:40:39.680000,1197.0,1183.0,273.0,-644.0,-455.0,482.0,441.0,-576.0,-103.0
19:40:39.686000,1143.0,1168.0,324.0,-672.0,-466.0,464.0,459.0,-585.0,-105.0
19:40:39.690000,1090.0,1148.0,338.0,-672.0,-466.0,464.0,459.0,-585.0,-105.0
19:40:39.695000,1037.0,1128.0,328.0,-695.0,-462.0,445.0,469.0,-589.0,-91.0
19:40:39.700000,994.0,1102.0,300.0,-710.0,-479.0,413.0,469.0,-589.0,-91.0
19:40:39.704000,967.0,1073.0,265.0,-709.0,-579.0,342.0,469.0,-589.0,-91.0
19:40:39.709000,944.0,1036.0,227.0,-709.0,-579.0,342.0,466.0,-598.0,-85.0
19:40:39.714000,917.0,998.0,183.0,-686.0,-623.0,322.0,466.0,-598.0,-85.0
19:40:39.718000,897.0,959.0,144.0,-658.0,-651.0,293.0,471.0,-606.0,-75.0
19:40:39.723000,872.0,913.0,122.0,-629.0,-651.0,270.0,471.0,-606.0,-75.0
19:40:39.727000,872.0,913.0,122.0,-605.0,-621.0,247.0,471.0,-606.0,-75.0
19:40:39.733000,802.0,820.0,68.0,-587.0,-584.0,223.0,480.0,-601.0,-73.0
19:40:39.737000,802.0,820.0,68.0,-575.0,-564.0,205.0,480.0,-601.0,-73.0
19:40:39.742000,753.0,772.0,53.0,-574.0,-558.0,189.0,484.0,-621.0,-60.0
19:40:39.747000,705.0,719.0,38.0,-577.0,-570.0,164.0,484.0,-621.0,-60.0
19:40:39.754000,608.0,627.0,23.0,-599.0,-652.0,121.0,486.0,-612.0,-43.0
19:40:39.756000,608.0,627.0,23.0,-599.0,-652.0,121.0,486.0,-612.0,-43.0
19:40:39.760000,569.0,584.0,23.0,-623.0,-658.0,100.0,486.0,-612.0,-43.0
19:40:39.765000,539.0,546.0,-8.0,-646.0,-642.0,83.0,493.0,-630.0,-49.0
19:40:39.770000,509.0,513.0,-50.0,-659.0,-635.0,75.0,493.0,-630.0,-49.0
19:40:39.775000,479.0,482.0,-82.0,-663.0,-632.0,75.0,495.0,-631.0,-51.0
19:40:39.780000,450.0,454.0,-99.0,-672.0,-634.0,76.0,495.0,-631.0,-51.0
19:40:39.784000,422.0,427.0,-123.0,-686.0,-646.0,68.0,495.0,-631.0,-51.0
19:40:39.788000,403.0,408.0,-144.0,-694.0,-672.0,60.0,499.0,-624.0,-43.0
19:40:39.794000,392.0,385.0,-146.0,-695.0,-710.0,58.0,499.0,-624.0,-43.0
19:40:39.798000,385.0,357.0,-135.0,-692.0,-746.0,54.0,502.0,-624.0,-36.0
19:40:39.803000,375.0,327.0,-125.0,-692.0,-746.0,54.0,502.0,-624.0,-36.0
19:40:39.807000,372.0,298.0,-121.0,-690.0,-765.0,44.0,502.0,-624.0,-36.0
19:40:39.812000,369.0,274.0,-128.0,-692.0,-764.0,30.0,487.0,-631.0,-33.0
19:40:39.817000,355.0,247.0,-147.0,-706.0,-749.0,23.0,487.0,-631.0,-33.0
19:40:39.822000,337.0,211.0,-181.0,-722.0,-720.0,26.0,502.0,-630.0,-39.0
19:40:39.827000,319.0,172.0,-233.0,-724.0,-686.0,30.0,502.0,-630.0,-39.0
19:40:39.831000,319.0,172.0,-233.0,-709.0,-666.0,33.0,502.0,-630.0,-39.0
19:40:39.836000,267.0,85.0,-311.0,-680.0,-671.0,35.0,502.0,-624.0,-37.0
19:40:39.841000,239.0,41.0,-322.0,-662.0,-695.0,34.0,502.0,-624.0,-37.0
19:40:39.845000,239.0,41.0,-322.0,-662.0,-733.0,33.0,511.0,-628.0,-31.0
19:40:39.850000,210.0,0.0,-336.0,-670.0,-763.0,27.0,511.0,-628.0,-31.0
19:40:39.854000,191.0,-46.0,-357.0,-684.0,-772.0,22.0,511.0,-628.0,-31.0
19:40:39.859000,173.0,-84.0,-380.0,-700.0,-772.0,19.0,508.0,-627.0,-31.0
19:40:39.864000,151.0,-118.0,-410.0,-725.0,-755.0,18.0,508.0,-627.0,-31.0
19:40:39.869000,128.0,-155.0,-448.0,-755.0,-724.0,20.0,514.0,-625.0,-28.0
19:40:39.874000,100.0,-186.0,-494.0,-771.0,-696.0,26.0,514.0,-625.0,-28.0
19:40:39.878000,67.0,-219.0,-535.0,-779.0,-674.0,38.0,514.0,-625.0,-28.0
19:40:39.883000,26.0,-246.0,-567.0,-787.0,-657.0,52.0,511.0,-618.0,-37.0
19:40:39.888000,-16.0,-268.0,-597.0,-794.0,-651.0,56.0,511.0,-618.0,-37.0
19:40:39.892000,-51.0,-286.0,-620.0,-815.0,-651.0,56.0,519.0,-619.0,-28.0
19:40:39.897000,-85.0,-296.0,-635.0,-846.0,-658.0,60.0,519.0,-619.0,-28.0
19:40:39.901000,-115.0,-301.0,-642.0,-885.0,-663.0,63.0,519.0,-619.0,-28.0
19:40:39.906000,-141.0,-301.0,-641.0,-916.0,-666.0,65.0,513.0,-618.0,-30.0
19:40:39.911000,-160.0,-298.0,-637.0,-932.0,-666.0,65.0,513.0,-618.0,-30.0
19:40:39.916000,-168.0,-291.0,-632.0,-973.0,-679.0,62.0,514.0,-619.0,-25.0
19:40:39.921000,-165.0,-282.0,-632.0,-996.0,-705.0,59.0,514.0,-619.0,-25.0
19:40:39.925000,-155.0,-272.0,-637.0,-1001.0,-734.0,60.0,514.0,-619.0,-25.0
19:40:39.930000,-140.0,-256.0,-634.0,-995.0,-756.0,57.0,528.0,-603.0,-39.0
19:40:39.935000,-125.0,-238.0,-625.0,-986.0,-763.0,54.0,528.0,-603.0,-39.0
19:40:39.939000,-109.0,-221.0,-626.0,-981.0,-753.0,54.0,525.0,-604.0,-40.0
19:40:39.944000,-97.0,-205.0,-635.0,-978.0,-726.0,53.0,525.0,-604.0,-40.0
19:40:39.948000,-97.0,-205.0,-635.0,-968.0,-700.0,51.0,525.0,-604.0,-40.0
19:40:39.953000,-82.0,-175.0,-616.0,-956.0,-686.0,44.0,517.0,-601.0,-39.0
19:40:39.958000,-82.0,-175.0,-616.0,-953.0,-669.0,34.0,517.0,-601.0,-39.0
19:40:39.963000,-79.0,-155.0,-602.0,-961.0,-642.0,25.0,532.0,-594.0,-28.0
19:40:39.968000,-79.0,-134.0,-587.0,-973.0,-603.0,22.0,532.0,-594.0,-28.0
19:40:39.972000,-83.0,-121.0,-569.0,-985.0,-557.0,21.0,532.0,-594.0,-28.0
19:40:39.977000,-95.0,-112.0,-553.0,-998.0,-513.0,20.0,528.0,-594.0,-37.0
19:40:39.982000,-107.0,-105.0,-541.0,-1002.0,-486.0,20.0,528.0,-594.0,-37.0
19:40:39.986000,-125.0,-106.0,-529.0,-986.0,-483.0,20.0,517.0,-589.0,-39.0
19:40:39.991000,-142.0,-106.0,-511.0,-962.0,-499.0,18.0,517.0,-589.0,-39.0
19:40:39.995000,-158.0,-111.0,-482.0,-942.0,-525.0,15.0,517.0,-589.0,-39.0
19:40:40.000000,-172.0,-116.0,-454.0,-931.0,-540.0,7.0,528.0,-585.0,-40.0
19:40:40.005000,-181.0,-123.0,-434.0,-926.0,-535.0,5.0,528.0,-585.0,-40.0
19:40:40.010000,-187.0,-134.0,-420.0,-926.0,-535.0,5.0,526.0,-583.0,-36.0
19:40:40.015000,-192.0,-151.0,-410.0,-903.0,-512.0,24.0,526.0,-583.0,-36.0
19:40:40.019000,-193.0,-167.0,-400.0,-883.0,-533.0,31.0,526.0,-583.0,-36.0
19:40:40.023000,-193.0,-183.0,-383.0,-883.0,-533.0,31.0,532.0,-580.0,-42.0
19:40:40.029000,-186.0,-206.0,-368.0,-865.0,-563.0,37.0,532.0,-580.0,-42.0
19:40:40.033000,-172.0,-228.0,-364.0,-859.0,-581.0,40.0,523.0,-577.0,-37.0
19:40:40.038000,-164.0,-244.0,-349.0,-861.0,-579.0,48.0,523.0,-577.0,-37.0
19:40:40.042000,-155.0,-261.0,-323.0,-873.0,-566.0,57.0,523.0,-577.0,-37.0
19:40:40.047000,-150.0,-272.0,-311.0,-894.0,-550.0,62.0,526.0,-570.0,-46.0
19:40:40.052000,-147.0,-281.0,-289.0,-915.0,-531.0,73.0,526.0,-570.0,-46.0
19:40:40.057000,-150.0,-286.0,-249.0,-919.0,-531.0,84.0,537.0,-570.0,-42.0
19:40:40.062000,-154.0,-289.0,-209.0,-912.0,-537.0,91.0,537.0,-570.0,-42.0
19:40:40.066000,-154.0,-289.0,-209.0,-911.0,-529.0,96.0,535.0,-564.0,-46.0
19:40:40.071000,-158.0,-287.0,-201.0,-904.0,-515.0,98.0,535.0,-564.0,-46.0
19:40:40.075000,-159.0,-281.0,-211.0,-893.0,-503.0,99.0,535.0,-564.0,-46.0
19:40:40.080000,-162.0,-277.0,-208.0,-883.0,-498.0,102.0,535.0,-565.0,-48.0
19:40:40.085000,-172.0,-270.0,-186.0,-881.0,-496.0,101.0,535.0,-565.0,-48.0
19:40:40.090000,-182.0,-263.0,-159.0,-889.0,-491.0,93.0,522.0,-567.0,-48.0
19:40:40.094000,-188.0,-257.0,-151.0,-903.0,-485.0,80.0,522.0,-567.0,-48.0
19:40:40.098000,-194.0,-249.0,-156.0,-917.0,-477.0,67.0,522.0,-567.0,-48.0
19:40:40.104000,-200.0,-245.0,-154.0,-926.0,-464.0,56.0,541.0,-568.0,-64.0
19:40:40.109000,-208.0,-243.0,-147.0,-924.0,-451.0,44.0,541.0,-568.0,-64.0
19:40:40.113000,-215.0,-246.0,-146.0,-924.0,-451.0,44.0,529.0,-549.0,-52.0
19:40:40.118000,-222.0,-256.0,-144.0,-864.0,-465.0,23.0,529.0,-549.0,-52.0
19:40:40.122000,-226.0,-267.0,-140.0,-817.0,-484.0,9.0,529.0,-549.0,-52.0
19:40:40.127000,-229.0,-280.0,-140.0,-817.0,-484.0,9.0,531.0,-559.0,-63.0
19:40:40.132000,-232.0,-291.0,-141.0,-788.0,-492.0,-5.0,531.0,-559.0,-63.0
19:40:40.137000,-235.0,-300.0,-161.0,-776.0,-476.0,-22.0,535.0,-553.0,-58.0
19:40:40.141000,-238.0,-309.0,-198.0,-770.0,-440.0,-41.0,535.0,-553.0,-58.0
19:40:40.145000,-257.0,-319.0,-233.0,-776.0,-409.0,-53.0,535.0,-553.0,-58.0
19:40:40.151000,-282.0,-330.0,-254.0,-788.0,-391.0,-63.0,541.0,-550.0,-54.0
19:40:40.156000,-315.0,-343.0,-270.0,-794.0,-363.0,-75.0,541.0,-550.0,-54.0
19:40:40.160000,-352.0,-357.0,-283.0,-803.0,-320.0,-83.0,519.0,-546.0,-63.0
19:40:40.165000,-385.0,-382.0,-298.0,-816.0,-281.0,-91.0,519.0,-546.0,-63.0
19:40:40.169000,-385.0,-382.0,-298.0,-820.0,-267.0,-96.0,519.0,-546.0,-63.0
19:40:40.174000,-414.0,-420.0,-303.0,-807.0,-277.0,-93.0,523.0,-550.0,-66.0
19:40:40.179000,-438.0,-469.0,-293.0,-777.0,-309.0,-88.0,523.0,-550.0,-66.0
19:40:40.184000,-457.0,-520.0,-288.0,-737.0,-343.0,-84.0,531.0,-544.0,-63.0
19:40:40.188000,-469.0,-572.0,-291.0,-697.0,-347.0,-74.0,531.0,-544.0,-63.0
19:40:40.192000,-478.0,-624.0,-303.0,-680.0,-305.0,-55.0,531.0,-544.0,-63.0
19:40:40.198000,-494.0,-678.0,-329.0,-691.0,-241.0,-25.0,516.0,-532.0,-54.0
19:40:40.203000,-521.0,-730.0,-357.0,-705.0,-173.0,11.0,516.0,-532.0,-54.0
19:40:40.207000,-564.0,-778.0,-367.0,-719.0,-105.0,53.0,528.0,-529.0,-79.0
19:40:40.212000,-628.0,-822.0,-357.0,-751.0,-53.0,99.0,528.0,-529.0,-79.0
19:40:40.216000,-710.0,-863.0,-333.0,-788.0,-18.0,142.0,528.0,-529.0,-79.0
19:40:40.221000,-800.0,-896.0,-297.0,-804.0,7.0,188.0,522.0,-531.0,-88.0
19:40:40.226000,-899.0,-927.0,-244.0,-813.0,27.0,242.0,522.0,-531.0,-88.0
19:40:40.231000,-1006.0,-953.0,-186.0,-813.0,27.0,242.0,511.0,-525.0,-90.0
19:40:40.235000,-1113.0,-974.0,-133.0,-818.0,45.0,294.0,511.0,-525.0,-90.0
19:40:40.243000,-1211.0,-997.0,-104.0,-836.0,54.0,386.0,514.0,-508.0,-99.0
19:40:40.245000,-1306.0,-1013.0,-113.0,-836.0,54.0,386.0,514.0,-508.0,-99.0
19:40:40.249000,-1407.0,-1024.0,-125.0,-847.0,45.0,425.0,514.0,-508.0,-99.0
19:40:40.254000,-1495.0,-1037.0,-133.0,-865.0,30.0,463.0,501.0,-510.0,-106.0
19:40:40.259000,-1587.0,-1045.0,-133.0,-889.0,16.0,499.0,501.0,-510.0,-106.0
19:40:40.264000,-1686.0,-1052.0,-155.0,-920.0,3.0,536.0,499.0,-499.0,-106.0
19:40:40.268000,-1779.0,-1061.0,-198.0,-943.0,-4.0,565.0,499.0,-499.0,-106.0
19:40:40.272000,-1779.0,-1061.0,-198.0,-938.0,-27.0,576.0,499.0,-499.0,-106.0
19:40:40.278000,-1940.0,-1089.0,-259.0,-931.0,-52.0,589.0,484.0,-489.0,-123.0
19:40:40.282000,-1940.0,-1089.0,-259.0,-936.0,-48.0,599.0,484.0,-489.0,-123.0
19:40:40.287000,-2010.0,-1107.0,-324.0,-937.0,-21.0,607.0,472.0,-463.0,-123.0
19:40:40.292000,-2081.0,-1127.0,-388.0,-919.0,-13.0,628.0,472.0,-463.0,-123.0
19:40:40.296000,-2148.0,-1151.0,-429.0,-894.0,-42.0,651.0,472.0,-463.0,-123.0
19:40:40.301000,-2216.0,-1176.0,-441.0,-873.0,-78.0,669.0,469.0,-451.0,-130.0
19:40:40.306000,-2283.0,-1200.0,-442.0,-868.0,-80.0,686.0,469.0,-451.0,-130.0
19:40:40.311000,-2356.0,-1226.0,-456.0,-879.0,-56.0,705.0,462.0,-442.0,-139.0
19:40:40.315000,-2431.0,-1252.0,-479.0,-888.0,-23.0,721.0,462.0,-442.0,-139.0
19:40:40.319000,-2511.0,-1279.0,-499.0,-891.0,13.0,734.0,462.0,-442.0,-139.0
19:40:40.325000,-2598.0,-1306.0,-520.0,-895.0,51.0,743.0,459.0,-423.0,-132.0
19:40:40.329000,-2688.0,-1332.0,-543.0,-905.0,87.0,759.0,459.0,-423.0,-132.0
19:40:40.334000,-2784.0,-1367.0,-571.0,-905.0,87.0,759.0,438.0,-400.0,-132.0
19:40:40.339000,-2867.0,-1407.0,-597.0,-887.0,112.0,793.0,438.0,-400.0,-132.0
19:40:40.343000,-2946.0,-1450.0,-611.0,-850.0,89.0,814.0,438.0,-400.0,-132.0
19:40:40.348000,-3020.0,-1488.0,-626.0,-850.0,89.0,814.0,438.0,-363.0,-153.0
19:40:40.353000,-3092.0,-1528.0,-637.0,-812.0,67.0,836.0,438.0,-363.0,-153.0
19:40:40.358000,-3160.0,-1575.0,-635.0,-778.0,61.0,870.0,427.0,-345.0,-151.0
19:40:40.362000,-3234.0,-1622.0,-636.0,-756.0,74.0,905.0,427.0,-345.0,-151.0
19:40:40.366000,-3306.0,-1656.0,-623.0,-735.0,76.0,930.0,427.0,-345.0,-151.0
19:40:40.372000,-3367.0,-1689.0,-616.0,-729.0,75.0,950.0,406.0,-312.0,-153.0
19:40:40.376000,-3430.0,-1705.0,-634.0,-759.0,94.0,968.0,406.0,-312.0,-153.0
19:40:40.381000,-3484.0,-1715.0,-651.0,-794.0,104.0,982.0,408.0,-301.0,-156.0
19:40:40.386000,-3527.0,-1722.0,-647.0,-808.0,81.0,997.0,408.0,-301.0,-156.0
19:40:40.390000,-3527.0,-1722.0,-647.0,-813.0,48.0,999.0,408.0,-301.0,-156.0
19:40:40.395000,-3557.0,-1711.0,-644.0,-818.0,24.0,995.0,385.0,-283.0,-153.0
19:40:40.400000,-3577.0,-1701.0,-639.0,-826.0,22.0,1005.0,385.0,-283.0,-153.0
19:40:40.405000,-3583.0,-1700.0,-649.0,-828.0,46.0,1017.0,370.0,-249.0,-142.0
19:40:40.409000,-3584.0,-1692.0,-667.0,-804.0,76.0,1027.0,370.0,-249.0,-142.0
19:40:40.413000,-3577.0,-1682.0,-679.0,-764.0,86.0,1036.0,370.0,-249.0,-142.0
19:40:40.419000,-3563.0,-1659.0,-681.0,-732.0,74.0,1043.0,351.0,-208.0,-126.0
19:40:40.423000,-3537.0,-1633.0,-671.0,-723.0,50.0,1048.0,351.0,-208.0,-126.0
19:40:40.428000,-3497.0,-1598.0,-660.0,-720.0,4.0,1043.0,342.0,-183.0,-118.0
19:40:40.433000,-3441.0,-1553.0,-629.0,-699.0,-73.0,1025.0,342.0,-183.0,-118.0
19:40:40.437000,-3371.0,-1498.0,-576.0,-681.0,-142.0,990.0,342.0,-183.0,-118.0
19:40:40.442000,-3280.0,-1437.0,-525.0,-690.0,-154.0,942.0,325.0,-157.0,-108.0
19:40:40.446000,-3174.0,-1372.0,-506.0,-720.0,-110.0,897.0,325.0,-157.0,-108.0
19:40:40.452000,-3064.0,-1302.0,-501.0,-740.0,-51.0,870.0,318.0,-135.0,-79.0
19:40:40.456000,-2951.0,-1237.0,-478.0,-740.0,-51.0,870.0,318.0,-135.0,-79.0
19:40:40.461000,-2844.0,-1167.0,-437.0,-739.0,1.0,845.0,307.0,-130.0,-78.0
19:40:40.466000,-2738.0,-1099.0,-399.0,-728.0,52.0,826.0,307.0,-130.0,-78.0
19:40:40.470000,-2633.0,-1042.0,-349.0,-709.0,63.0,809.0,307.0,-130.0,-78.0
19:40:40.475000,-2530.0,-984.0,-279.0,-677.0,46.0,781.0,292.0,-112.0,-60.0
19:40:40.480000,-2432.0,-924.0,-194.0,-635.0,71.0,757.0,292.0,-112.0,-60.0
19:40:40.484000,-2336.0,-858.0,-109.0,-607.0,113.0,738.0,289.0,-105.0,-48.0
19:40:40.489000,-2244.0,-786.0,-52.0,-629.0,159.0,713.0,289.0,-105.0,-48.0
19:40:40.493000,-2244.0,-786.0,-52.0,-667.0,210.0,696.0,289.0,-105.0,-48.0
19:40:40.499000,-2064.0,-651.0,2.0,-677.0,238.0,691.0,286.0,-75.0,-24.0
19:40:40.503000,-2064.0,-651.0,2.0,-666.0,242.0,678.0,286.0,-75.0,-24.0
19:40:40.507000,-1973.0,-583.0,25.0,-650.0,228.0,665.0,279.0,-67.0,-12.0
19:40:40.513000,-1891.0,-515.0,58.0,-639.0,230.0,661.0,279.0,-67.0,-12.0
19:40:40.517000,-1817.0,-445.0,98.0,-643.0,271.0,657.0,279.0,-67.0,-12.0
19:40:40.522000,-1753.0,-375.0,122.0,-655.0,337.0,645.0,282.0,-70.0,-9.0
19:40:40.527000,-1696.0,-316.0,133.0,-659.0,396.0,631.0,282.0,-70.0,-9.0
19:40:40.531000,-1647.0,-261.0,151.0,-662.0,424.0,628.0,285.0,-45.0,7.0
19:40:40.536000,-1605.0,-205.0,176.0,-668.0,440.0,634.0,285.0,-45.0,7.0
19:40:40.540000,-1572.0,-154.0,196.0,-673.0,454.0,625.0,285.0,-45.0,7.0
19:40:40.546000,-1533.0,-109.0,209.0,-671.0,456.0,611.0,279.0,-48.0,39.0
19:40:40.550000,-1484.0,-73.0,203.0,-659.0,454.0,598.0,279.0,-48.0,39.0
19:40:40.555000,-1428.0,-43.0,173.0,-659.0,454.0,598.0,288.0,-36.0,21.0
19:40:40.560000,-1374.0,-11.0,166.0,-612.0,409.0,569.0,288.0,-36.0,21.0
19:40:40.564000,-1321.0,15.0,196.0,-612.0,409.0,569.0,288.0,-36.0,21.0
19:40:40.569000,-1254.0,39.0,193.0,-648.0,398.0,547.0,283.0,-30.0,24.0
19:40:40.574000,-1199.0,64.0,186.0,-687.0,390.0,523.0,283.0,-30.0,24.0
19:40:40.578000,-1159.0,85.0,209.0,-655.0,367.0,518.0,280.0,-22.0,49.0
19:40:40.583000,-1110.0,105.0,225.0,-626.0,455.0,508.0,280.0,-22.0,49.0
19:40:40.587000,-1073.0,117.0,240.0,-613.0,455.0,498.0,280.0,-22.0,49.0
19:40:40.593000,-1049.0,128.0,257.0,-575.0,479.0,495.0,283.0,-19.0,55.0
19:40:40.597000,-1029.0,142.0,265.0,-543.0,491.0,481.0,283.0,-19.0,55.0
19:40:40.602000,-1011.0,160.0,271.0,-530.0,496.0,457.0,292.0,-21.0,57.0
19:40:40.607000,-994.0,181.0,256.0,-541.0,510.0,435.0,292.0,-21.0,57.0
19:40:40.611000,-994.0,181.0,256.0,-564.0,533.0,424.0,292.0,-21.0,57.0
19:40:40.616000,-986.0,199.0,231.0,-560.0,550.0,409.0,295.0,-16.0,73.0
19:40:40.621000,-963.0,217.0,203.0,-509.0,562.0,386.0,295.0,-16.0,73.0
19:40:40.625000,-946.0,245.0,189.0,-470.0,560.0,377.0,295.0,-15.0,69.0
19:40:40.630000,-936.0,263.0,180.0,-511.0,558.0,367.0,295.0,-15.0,69.0
19:40:40.634000,-935.0,283.0,167.0,-541.0,544.0,350.0,295.0,-15.0,69.0
19:40:40.640000,-914.0,300.0,161.0,-516.0,528.0,340.0,297.0,-18.0,70.0
19:40:40.644000,-890.0,313.0,137.0,-501.0,542.0,334.0,297.0,-18.0,70.0
19:40:40.649000,-884.0,331.0,95.0,-479.0,562.0,322.0,292.0,-10.0,91.0
19:40:40.654000,-868.0,344.0,93.0,-471.0,570.0,316.0,292.0,-10.0,91.0
