hh:mm:ss.ms,gyroX[mdps],gyroY[mdps],gyroZ[mdps],accX[mg],accY[mg],accZ[mg],magX[mG],magY[mG],magZ[mG]
19:30:31.368000,-168.0,204.0,-379.0,-1381.0,656.0,-88.0,556.0,-280.0,387.0
19:30:31.373000,-289.0,354.0,-132.0,-1413.0,934.0,-98.0,559.0,-271.0,384.0
19:30:31.378000,-292.0,421.0,-683.0,-1495.0,734.0,-78.0,559.0,-271.0,384.0
19:30:31.383000,-201.0,434.0,-1015.0,-1321.0,298.0,-86.0,549.0,-283.0,385.0
19:30:31.387000,-167.0,450.0,-651.0,-1417.0,184.0,-73.0,549.0,-283.0,385.0
19:30:31.392000,-198.0,525.0,-632.0,-1507.0,171.0,-39.0,549.0,-283.0,385.0
19:30:31.397000,-316.0,524.0,-581.0,-1340.0,49.0,-19.0,549.0,-277.0,396.0
19:30:31.402000,-336.0,569.0,-267.0,-1340.0,49.0,-19.0,549.0,-277.0,396.0
19:30:31.406000,-310.0,493.0,-462.0,-1279.0,84.0,20.0,546.0,-282.0,397.0
19:30:31.411000,-394.0,539.0,-457.0,-1009.0,68.0,43.0,546.0,-282.0,397.0
19:30:31.415000,-439.0,470.0,-513.0,-811.0,-102.0,64.0,546.0,-282.0,397.0
19:30:31.420000,-627.0,327.0,-694.0,-875.0,-136.0,145.0,544.0,-292.0,402.0
19:30:31.425000,-662.0,474.0,-115.0,-471.0,-392.0,74.0,544.0,-292.0,402.0
19:30:31.430000,-384.0,422.0,-165.0,-509.0,-745.0,5.0,540.0,-280.0,411.0
19:30:31.434000,-321.0,405.0,-501.0,-1037.0,-910.0,62.0,540.0,-280.0,411.0
19:30:31.439000,-321.0,405.0,-501.0,-1094.0,-894.0,92.0,540.0,-280.0,411.0
19:30:31.444000,-445.0,389.0,-25.0,-736.0,-765.0,95.0,534.0,-282.0,402.0
19:30:31.449000,-445.0,389.0,-25.0,-504.0,-650.0,55.0,534.0,-282.0,402.0
19:30:31.453000,-379.0,408.0,37.0,-771.0,-567.0,-29.0,540.0,-291.0,409.0
19:30:31.458000,-173.0,462.0,-443.0,-1013.0,-872.0,-66.0,540.0,-291.0,409.0
19:30:31.462000,33.0,447.0,-732.0,-990.0,-1083.0,-20.0,540.0,-291.0,409.0
19:30:31.467000,0.0,355.0,-543.0,-827.0,-771.0,-75.0,540.0,-277.0,429.0
19:30:31.472000,95.0,490.0,-277.0,-872.0,-527.0,-163.0,540.0,-277.0,429.0
19:30:31.477000,181.0,554.0,-398.0,-1109.0,-487.0,-102.0,529.0,-288.0,418.0
19:30:31.481000,238.0,406.0,-631.0,-978.0,-348.0,-93.0,529.0,-288.0,418.0
19:30:31.486000,253.0,298.0,-539.0,-625.0,-2.0,-134.0,529.0,-288.0,418.0
19:30:31.491000,288.0,219.0,-518.0,-626.0,321.0,-101.0,528.0,-295.0,423.0
19:30:31.496000,226.0,187.0,-431.0,-887.0,337.0,-76.0,528.0,-295.0,423.0
19:30:31.500000,107.0,178.0,-371.0,-887.0,337.0,-76.0,522.0,-280.0,414.0
19:30:31.505000,34.0,240.0,-193.0,-1046.0,-141.0,-43.0,522.0,-280.0,414.0
19:30:31.509000,37.0,280.0,-119.0,-1298.0,-136.0,35.0,522.0,-280.0,414.0
19:30:31.514000,30.0,230.0,-505.0,-1298.0,-136.0,35.0,519.0,-280.0,427.0
19:30:31.519000,-63.0,224.0,-690.0,-1325.0,-41.0,58.0,519.0,-280.0,427.0
19:30:31.524000,-239.0,279.0,-222.0,-984.0,-131.0,79.0,519.0,-285.0,433.0
19:30:31.528000,-263.0,378.0,-270.0,-1032.0,-40.0,113.0,519.0,-285.0,433.0
19:30:31.533000,-326.0,416.0,-588.0,-1253.0,101.0,116.0,519.0,-285.0,433.0
19:30:31.538000,-431.0,341.0,-562.0,-1083.0,-115.0,148.0,525.0,-276.0,421.0
19:30:31.543000,-375.0,315.0,-261.0,-850.0,-308.0,137.0,525.0,-276.0,421.0
19:30:31.547000,-359.0,294.0,-179.0,-870.0,-295.0,148.0,522.0,-292.0,433.0
19:30:31.552000,-316.0,373.0,-449.0,-1183.0,-233.0,87.0,522.0,-292.0,433.0
19:30:31.559000,-293.0,345.0,-439.0,-1093.0,-176.0,72.0,514.0,-285.0,444.0
19:30:31.561000,-293.0,345.0,-439.0,-1093.0,-176.0,72.0,514.0,-285.0,444.0
19:30:31.565000,-326.0,325.0,-237.0,-1151.0,81.0,39.0,514.0,-285.0,444.0
19:30:31.571000,-229.0,403.0,-452.0,-1206.0,10.0,-31.0,520.0,-274.0,444.0
19:30:31.575000,-166.0,482.0,-466.0,-1166.0,-258.0,-45.0,520.0,-274.0,444.0
19:30:31.580000,-137.0,411.0,-492.0,-1134.0,-227.0,-24.0,507.0,-283.0,438.0
19:30:31.585000,-53.0,319.0,-655.0,-987.0,-73.0,-26.0,507.0,-283.0,438.0
19:30:31.589000,97.0,225.0,-643.0,-822.0,7.0,14.0,507.0,-283.0,438.0
19:30:31.594000,93.0,2.0,-224.0,-910.0,217.0,-24.0,508.0,-289.0,441.0
19:30:31.599000,-45.0,17.0,-328.0,-1143.0,413.0,-250.0,508.0,-289.0,441.0
19:30:31.604000,-21.0,329.0,-537.0,-1226.0,153.0,-256.0,513.0,-276.0,445.0
19:30:31.608000,94.0,317.0,-310.0,-1246.0,-180.0,-141.0,513.0,-276.0,445.0
19:30:31.612000,179.0,198.0,-237.0,-1189.0,-300.0,-98.0,513.0,-276.0,445.0
19:30:31.618000,183.0,92.0,-291.0,-1189.0,-296.0,-88.0,508.0,-283.0,451.0
19:30:31.622000,25.0,102.0,-321.0,-1121.0,-296.0,-88.0,508.0,-283.0,451.0
19:30:31.627000,-207.0,105.0,-186.0,-971.0,-196.0,-162.0,501.0,-277.0,448.0
19:30:31.632000,-296.0,126.0,19.0,-700.0,46.0,-179.0,501.0,-277.0,448.0
19:30:31.636000,-235.0,196.0,61.0,-676.0,281.0,-199.0,501.0,-277.0,448.0
19:30:31.641000,-83.0,188.0,-296.0,-959.0,267.0,-195.0,504.0,-280.0,454.0
19:30:31.646000,78.0,154.0,-660.0,-1245.0,47.0,-155.0,504.0,-280.0,454.0
19:30:31.651000,149.0,100.0,-230.0,-1120.0,-385.0,-120.0,492.0,-279.0,471.0
19:30:31.655000,60.0,21.0,264.0,-913.0,-625.0,-64.0,492.0,-279.0,471.0
19:30:31.659000,60.0,21.0,264.0,-1133.0,-363.0,-127.0,492.0,-279.0,471.0
19:30:31.665000,-63.0,144.0,-373.0,-1251.0,15.0,-163.0,496.0,-283.0,442.0
19:30:31.669000,-63.0,144.0,-373.0,-950.0,74.0,-115.0,496.0,-283.0,442.0
19:30:31.674000,-49.0,170.0,-2.0,-848.0,62.0,-104.0,508.0,-285.0,441.0
19:30:31.679000,-60.0,151.0,264.0,-1078.0,153.0,-121.0,508.0,-285.0,441.0
19:30:31.683000,-19.0,181.0,177.0,-1214.0,80.0,-137.0,508.0,-285.0,441.0
19:30:31.688000,60.0,184.0,-26.0,-1164.0,-121.0,-106.0,498.0,-285.0,450.0
19:30:31.692000,171.0,142.0,-75.0,-1042.0,-234.0,-70.0,498.0,-285.0,450.0
19:30:31.698000,166.0,88.0,-26.0,-1043.0,-155.0,-32.0,475.0,-295.0,447.0
19:30:31.702000,56.0,42.0,-249.0,-962.0,-11.0,-87.0,475.0,-295.0,447.0
19:30:31.706000,63.0,81.0,-275.0,-763.0,78.0,-95.0,475.0,-295.0,447.0
19:30:31.712000,51.0,42.0,-203.0,-799.0,71.0,-69.0,505.0,-276.0,465.0
19:30:31.716000,-46.0,140.0,-252.0,-1001.0,-13.0,-125.0,505.0,-276.0,465.0
19:30:31.721000,-45.0,223.0,-256.0,-1001.0,-13.0,-125.0,505.0,-283.0,460.0
19:30:31.726000,-3.0,144.0,-100.0,-1122.0,-184.0,-85.0,505.0,-283.0,460.0
19:30:31.730000,-67.0,156.0,-67.0,-1122.0,-184.0,-85.0,505.0,-283.0,460.0
19:30:31.735000,-24.0,176.0,-308.0,-1049.0,-36.0,-137.0,493.0,-285.0,451.0
19:30:31.740000,103.0,114.0,-331.0,-1049.0,-36.0,-137.0,493.0,-285.0,451.0
19:30:31.745000,133.0,-18.0,35.0,-826.0,-83.0,-84.0,487.0,-291.0,468.0
19:30:31.749000,-9.0,4.0,219.0,-713.0,62.0,-64.0,487.0,-291.0,468.0
19:30:31.753000,-68.0,85.0,-86.0,-906.0,331.0,-134.0,487.0,-291.0,468.0
19:30:31.759000,14.0,37.0,-307.0,-1092.0,357.0,-145.0,501.0,-282.0,463.0
19:30:31.763000,34.0,31.0,-270.0,-1042.0,136.0,-114.0,501.0,-282.0,463.0
19:30:31.768000,-28.0,21.0,-144.0,-1006.0,-60.0,-84.0,498.0,-285.0,469.0
19:30:31.773000,-95.0,99.0,-81.0,-1032.0,-126.0,-122.0,498.0,-285.0,469.0
19:30:31.777000,-95.0,99.0,-81.0,-1082.0,-56.0,-163.0,498.0,-285.0,469.0
19:30:31.782000,-173.0,98.0,-180.0,-1043.0,31.0,-139.0,493.0,-286.0,453.0
19:30:31.787000,-170.0,89.0,-378.0,-799.0,-30.0,-149.0,493.0,-286.0,453.0
19:30:31.792000,-63.0,42.0,-124.0,-643.0,-100.0,-119.0,498.0,-286.0,465.0
19:30:31.796000,-55.0,-80.0,168.0,-760.0,102.0,-130.0,498.0,-286.0,465.0
19:30:31.800000,-103.0,-21.0,17.0,-977.0,232.0,-207.0,498.0,-286.0,465.0
19:30:31.806000,-64.0,98.0,-131.0,-1113.0,17.0,-158.0,498.0,-285.0,460.0
19:30:31.810000,-26.0,52.0,-81.0,-1219.0,-120.0,-115.0,498.0,-285.0,460.0
19:30:31.815000,57.0,43.0,-301.0,-1178.0,-117.0,-138.0,499.0,-277.0,459.0
19:30:31.820000,142.0,8.0,-448.0,-930.0,-233.0,-128.0,499.0,-277.0,459.0
19:30:31.824000,151.0,-40.0,-71.0,-786.0,-181.0,-117.0,499.0,-277.0,459.0
19:30:31.829000,35.0,-55.0,177.0,-890.0,136.0,-148.0,489.0,-285.0,462.0
19:30:31.834000,42.0,7.0,21.0,-1041.0,292.0,-176.0,489.0,-285.0,462.0
19:30:31.839000,98.0,-5.0,-179.0,-1041.0,292.0,-176.0,493.0,-285.0,469.0
19:30:31.843000,114.0,-3.0,-106.0,-1062.0,126.0,-165.0,493.0,-285.0,469.0
19:30:31.847000,105.0,-23.0,-14.0,-1048.0,-110.0,-144.0,493.0,-285.0,469.0
19:30:31.853000,122.0,21.0,-132.0,-1113.0,-153.0,-165.0,502.0,-282.0,463.0
19:30:31.857000,81.0,-54.0,-302.0,-1141.0,-38.0,-138.0,502.0,-282.0,463.0
19:30:31.862000,47.0,11.0,-214.0,-974.0,96.0,-159.0,502.0,-283.0,459.0
19:30:31.867000,-32.0,53.0,16.0,-820.0,201.0,-205.0,502.0,-283.0,459.0
19:30:31.874000,5.0,105.0,25.0,-1213.0,201.0,-179.0,501.0,-276.0,465.0
19:30:31.876000,13.0,130.0,-213.0,-1213.0,201.0,-179.0,501.0,-276.0,465.0
19:30:31.880000,13.0,130.0,-213.0,-1246.0,-22.0,-157.0,501.0,-276.0,465.0
19:30:31.886000,18.0,157.0,-199.0,-1110.0,-281.0,-160.0,496.0,-276.0,462.0
19:30:31.890000,4.0,204.0,31.0,-1126.0,-329.0,-132.0,496.0,-276.0,462.0
19:30:31.895000,-53.0,187.0,4.0,-1194.0,-199.0,-157.0,498.0,-286.0,466.0
19:30:31.900000,58.0,209.0,-326.0,-1040.0,-182.0,-166.0,498.0,-286.0,466.0
19:30:31.904000,109.0,100.0,-262.0,-769.0,-184.0,-141.0,498.0,-286.0,466.0
19:30:31.909000,82.0,60.0,-14.0,-686.0,69.0,-187.0,490.0,-288.0,465.0
19:30:31.914000,125.0,33.0,-81.0,-810.0,297.0,-203.0,490.0,-288.0,465.0
19:30:31.918000,285.0,11.0,-389.0,-951.0,279.0,-200.0,487.0,-282.0,477.0
19:30:31.923000,359.0,0.0,-664.0,-994.0,47.0,-204.0,487.0,-282.0,477.0
19:30:31.927000,400.0,39.0,-615.0,-1031.0,-208.0,-198.0,487.0,-282.0,477.0
19:30:31.933000,324.0,46.0,-354.0,-1158.0,-228.0,-183.0,496.0,-273.0,465.0
19:30:31.937000,196.0,112.0,-287.0,-1258.0,-56.0,-207.0,496.0,-273.0,465.0
19:30:31.942000,140.0,171.0,-352.0,-1258.0,-56.0,-207.0,490.0,-267.0,468.0
19:30:31.947000,149.0,187.0,-327.0,-1205.0,48.0,-203.0,490.0,-267.0,468.0
19:30:31.951000,171.0,179.0,-336.0,-1131.0,48.0,-203.0,490.0,-267.0,468.0
19:30:31.956000,137.0,224.0,-408.0,-1077.0,26.0,-220.0,492.0,-280.0,463.0
19:30:31.961000,105.0,219.0,-459.0,-925.0,113.0,-221.0,492.0,-280.0,463.0
19:30:31.966000,133.0,205.0,-380.0,-925.0,113.0,-221.0,492.0,-276.0,474.0
19:30:31.970000,166.0,196.0,-344.0,-895.0,124.0,-236.0,492.0,-276.0,474.0
19:30:31.974000,189.0,179.0,-438.0,-965.0,148.0,-220.0,492.0,-276.0,474.0
19:30:31.980000,180.0,199.0,-459.0,-994.0,183.0,-201.0,495.0,-276.0,468.0
19:30:31.984000,166.0,235.0,-410.0,-975.0,152.0,-203.0,495.0,-276.0,468.0
19:30:31.989000,175.0,242.0,-399.0,-1031.0,133.0,-198.0,492.0,-264.0,466.0
19:30:31.994000,180.0,244.0,-410.0,-1117.0,132.0,-191.0,492.0,-264.0,466.0
19:30:31.998000,180.0,244.0,-410.0,-1175.0,104.0,-179.0,492.0,-264.0,466.0
19:30:32.003000,84.0,265.0,-463.0,-1166.0,45.0,-187.0,483.0,-268.0,478.0
19:30:32.008000,-41.0,349.0,-487.0,-1111.0,-6.0,-194.0,483.0,-268.0,478.0
19:30:32.013000,-109.0,364.0,-413.0,-1088.0,-16.0,-209.0,478.0,-255.0,483.0
19:30:32.017000,-99.0,408.0,-366.0,-1159.0,13.0,-236.0,478.0,-255.0,483.0
19:30:32.021000,-71.0,406.0,-463.0,-1174.0,24.0,-227.0,478.0,-255.0,483.0
19:30:32.027000,-34.0,410.0,-498.0,-1046.0,0.0,-223.0,477.0,-255.0,480.0
19:30:32.031000,38.0,401.0,-423.0,-925.0,0.0,-221.0,477.0,-255.0,480.0
19:30:32.036000,130.0,369.0,-322.0,-881.0,12.0,-220.0,480.0,-262.0,475.0
19:30:32.041000,182.0,366.0,-318.0,-941.0,69.0,-213.0,480.0,-262.0,475.0
19:30:32.045000,191.0,372.0,-455.0,-1008.0,143.0,-197.0,480.0,-262.0,475.0
19:30:32.050000,182.0,359.0,-589.0,-1002.0,190.0,-197.0,471.0,-255.0,493.0
19:30:32.055000,154.0,390.0,-714.0,-944.0,244.0,-203.0,471.0,-255.0,493.0
19:30:32.059000,126.0,374.0,-820.0,-944.0,244.0,-203.0,463.0,-250.0,484.0
19:30:32.064000,128.0,392.0,-856.0,-917.0,289.0,-186.0,463.0,-250.0,484.0
19:30:32.068000,125.0,397.0,-789.0,-929.0,311.0,-155.0,463.0,-250.0,484.0
19:30:32.074000,113.0,383.0,-697.0,-920.0,290.0,-137.0,468.0,-247.0,481.0
19:30:32.078000,90.0,376.0,-592.0,-869.0,316.0,-156.0,468.0,-247.0,481.0
19:30:32.083000,91.0,401.0,-508.0,-788.0,355.0,-194.0,457.0,-247.0,481.0
19:30:32.088000,184.0,350.0,-578.0,-686.0,343.0,-271.0,457.0,-247.0,481.0
19:30:32.092000,184.0,350.0,-578.0,-328.0,147.0,-461.0,457.0,-247.0,481.0
19:30:32.097000,249.0,354.0,-833.0,-524.0,158.0,-519.0,457.0,-241.0,481.0
19:30:32.102000,248.0,354.0,-769.0,-984.0,324.0,-422.0,457.0,-241.0,481.0
19:30:32.106000,248.0,354.0,-769.0,-1238.0,348.0,-341.0,435.0,-231.0,496.0
19:30:32.111000,114.0,399.0,-626.0,-1528.0,410.0,-304.0,435.0,-231.0,496.0
19:30:32.115000,-19.0,436.0,-499.0,-1514.0,330.0,-259.0,435.0,-231.0,496.0
19:30:32.121000,-119.0,417.0,-417.0,-1384.0,197.0,-259.0,444.0,-232.0,498.0
19:30:32.125000,-86.0,392.0,-422.0,-1108.0,-53.0,-274.0,444.0,-232.0,498.0
19:30:32.130000,-25.0,333.0,-442.0,-818.0,-175.0,-266.0,439.0,-246.0,493.0
19:30:32.135000,42.0,346.0,-389.0,-746.0,24.0,-290.0,439.0,-246.0,493.0
19:30:32.139000,86.0,333.0,-322.0,-805.0,251.0,-270.0,439.0,-246.0,493.0
19:30:32.144000,138.0,292.0,-284.0,-848.0,390.0,-273.0,432.0,-235.0,501.0
19:30:32.149000,158.0,276.0,-328.0,-898.0,465.0,-276.0,432.0,-235.0,501.0
19:30:32.153000,138.0,277.0,-478.0,-945.0,512.0,-264.0,430.0,-229.0,495.0
19:30:32.158000,116.0,287.0,-581.0,-976.0,459.0,-244.0,430.0,-229.0,495.0
19:30:32.162000,55.0,296.0,-565.0,-957.0,338.0,-218.0,430.0,-229.0,495.0
19:30:32.168000,-16.0,315.0,-510.0,-957.0,338.0,-218.0,430.0,-223.0,489.0
19:30:32.172000,-32.0,325.0,-487.0,-946.0,315.0,-211.0,430.0,-223.0,489.0
19:30:32.177000,51.0,280.0,-590.0,-901.0,297.0,-233.0,429.0,-234.0,490.0
19:30:32.182000,86.0,247.0,-719.0,-777.0,-5.0,-375.0,429.0,-234.0,490.0
19:30:32.189000,1.0,306.0,-826.0,-1014.0,742.0,-314.0,430.0,-226.0,496.0
19:30:32.191000,-68.0,348.0,-935.0,-1014.0,742.0,-314.0,430.0,-226.0,496.0
19:30:32.195000,-136.0,383.0,-814.0,-1110.0,854.0,-281.0,430.0,-226.0,496.0
19:30:32.200000,-168.0,399.0,-731.0,-1050.0,522.0,-244.0,414.0,-222.0,496.0
19:30:32.205000,-177.0,381.0,-673.0,-992.0,227.0,-286.0,414.0,-222.0,496.0
19:30:32.210000,-102.0,332.0,-650.0,-958.0,-11.0,-274.0,418.0,-220.0,508.0
19:30:32.215000,-102.0,332.0,-650.0,-955.0,-62.0,-334.0,418.0,-220.0,508.0
19:30:32.219000,-5.0,310.0,-692.0,-960.0,159.0,-340.0,418.0,-220.0,508.0
19:30:32.224000,36.0,301.0,-725.0,-903.0,384.0,-340.0,409.0,-223.0,505.0
19:30:32.229000,61.0,310.0,-789.0,-867.0,430.0,-356.0,409.0,-223.0,505.0
19:30:32.233000,62.0,308.0,-783.0,-807.0,328.0,-342.0,409.0,-210.0,511.0
19:30:32.238000,64.0,300.0,-708.0,-733.0,287.0,-372.0,409.0,-210.0,511.0
19:30:32.242000,84.0,284.0,-635.0,-681.0,353.0,-383.0,409.0,-210.0,511.0
19:30:32.247000,122.0,276.0,-628.0,-659.0,393.0,-381.0,400.0,-217.0,498.0
19:30:32.252000,218.0,226.0,-729.0,-588.0,304.0,-445.0,400.0,-217.0,498.0
19:30:32.257000,287.0,221.0,-820.0,-691.0,254.0,-491.0,402.0,-210.0,502.0
19:30:32.262000,279.0,243.0,-840.0,-887.0,332.0,-503.0,402.0,-210.0,502.0
19:30:32.266000,289.0,223.0,-847.0,-869.0,366.0,-613.0,402.0,-210.0,502.0
19:30:32.271000,284.0,232.0,-837.0,-1172.0,574.0,-585.0,396.0,-213.0,505.0
19:30:32.276000,277.0,249.0,-743.0,-1367.0,663.0,-494.0,396.0,-213.0,505.0
19:30:32.280000,273.0,224.0,-676.0,-1367.0,663.0,-494.0,379.0,-198.0,496.0
19:30:32.285000,231.0,207.0,-594.0,-1223.0,521.0,-473.0,379.0,-198.0,496.0
19:30:32.289000,173.0,201.0,-534.0,-1162.0,483.0,-430.0,379.0,-198.0,496.0
19:30:32.294000,144.0,167.0,-522.0,-1046.0,446.0,-418.0,391.0,-195.0,505.0
19:30:32.299000,175.0,124.0,-563.0,-929.0,486.0,-416.0,391.0,-195.0,505.0
19:30:32.304000,220.0,81.0,-618.0,-752.0,489.0,-427.0,382.0,-196.0,505.0
19:30:32.309000,268.0,4.0,-571.0,-569.0,417.0,-406.0,382.0,-196.0,505.0
19:30:32.313000,268.0,4.0,-571.0,-466.0,411.0,-400.0,382.0,-196.0,505.0
19:30:32.318000,248.0,-56.0,-448.0,-455.0,486.0,-404.0,387.0,-183.0,511.0
19:30:32.323000,254.0,-80.0,-471.0,-490.0,625.0,-409.0,387.0,-183.0,511.0
19:30:32.327000,254.0,-80.0,-471.0,-542.0,688.0,-417.0,363.0,-193.0,505.0
19:30:32.332000,228.0,-98.0,-469.0,-637.0,640.0,-405.0,363.0,-193.0,505.0
19:30:32.336000,203.0,-109.0,-429.0,-717.0,596.0,-382.0,363.0,-193.0,505.0
19:30:32.341000,218.0,-144.0,-451.0,-701.0,543.0,-389.0,376.0,-177.0,498.0
19:30:32.346000,206.0,-156.0,-518.0,-648.0,549.0,-417.0,376.0,-177.0,498.0
19:30:32.351000,211.0,-145.0,-528.0,-632.0,614.0,-424.0,382.0,-175.0,505.0
19:30:32.356000,267.0,-149.0,-492.0,-705.0,655.0,-421.0,382.0,-175.0,505.0
19:30:32.360000,308.0,-155.0,-483.0,-772.0,599.0,-407.0,382.0,-175.0,505.0
19:30:32.365000,299.0,-172.0,-530.0,-753.0,430.0,-404.0,387.0,-177.0,498.0
19:30:32.370000,266.0,-180.0,-550.0,-756.0,352.0,-388.0,387.0,-177.0,498.0
19:30:32.374000,131.0,-128.0,-533.0,-756.0,352.0,-388.0,375.0,-169.0,490.0
19:30:32.379000,135.0,-99.0,-476.0,-760.0,806.0,-434.0,375.0,-169.0,490.0
19:30:32.383000,211.0,-112.0,-409.0,-789.0,920.0,-426.0,375.0,-169.0,490.0
19:30:32.388000,236.0,-116.0,-396.0,-789.0,920.0,-426.0,370.0,-189.0,502.0
19:30:32.393000,186.0,-95.0,-344.0,-796.0,844.0,-397.0,370.0,-189.0,502.0
19:30:32.398000,173.0,-81.0,-296.0,-757.0,710.0,-371.0,382.0,-175.0,495.0
19:30:32.403000,205.0,-92.0,-254.0,-695.0,605.0,-354.0,382.0,-175.0,495.0
19:30:32.407000,247.0,-106.0,-172.0,-632.0,459.0,-366.0,382.0,-175.0,495.0
19:30:32.412000,247.0,-104.0,-102.0,-632.0,459.0,-366.0,379.0,-172.0,492.0
19:30:32.417000,243.0,-105.0,-77.0,-695.0,506.0,-351.0,379.0,-172.0,492.0
19:30:32.421000,245.0,-110.0,-70.0,-752.0,631.0,-342.0,373.0,-162.0,498.0
19:30:32.426000,237.0,-110.0,-80.0,-738.0,741.0,-326.0,373.0,-162.0,498.0
19:30:32.430000,237.0,-110.0,-80.0,-680.0,780.0,-315.0,373.0,-162.0,498.0
19:30:32.435000,206.0,-102.0,-116.0,-616.0,778.0,-311.0,376.0,-166.0,496.0
19:30:32.440000,193.0,-99.0,-117.0,-581.0,734.0,-300.0,376.0,-166.0,496.0
19:30:32.445000,176.0,-99.0,-53.0,-580.0,678.0,-286.0,388.0,-165.0,492.0
19:30:32.450000,168.0,-105.0,37.0,-594.0,644.0,-283.0,388.0,-165.0,492.0
19:30:32.454000,158.0,-107.0,128.0,-631.0,652.0,-288.0,388.0,-165.0,492.0
19:30:32.459000,144.0,-106.0,154.0,-670.0,692.0,-286.0,373.0,-157.0,511.0
19:30:32.464000,130.0,-116.0,135.0,-674.0,714.0,-280.0,373.0,-157.0,511.0
19:30:32.468000,113.0,-120.0,114.0,-645.0,717.0,-279.0,384.0,-162.0,495.0
19:30:32.473000,101.0,-121.0,107.0,-616.0,702.0,-277.0,384.0,-162.0,495.0
19:30:32.477000,86.0,-122.0,116.0,-609.0,666.0,-276.0,384.0,-162.0,495.0
19:30:32.482000,63.0,-121.0,151.0,-629.0,636.0,-280.0,385.0,-174.0,496.0
19:30:32.487000,51.0,-116.0,189.0,-657.0,625.0,-280.0,385.0,-174.0,496.0
19:30:32.492000,42.0,-120.0,227.0,-657.0,625.0,-280.0,381.0,-160.0,489.0
19:30:32.529000,45.0,-251.0,342.0,-569.0,551.0,-214.0,393.0,-156.0,490.0
19:30:32.534000,66.0,-281.0,364.0,-562.0,540.0,-213.0,384.0,-160.0,510.0
19:30:32.539000,76.0,-304.0,393.0,-572.0,530.0,-211.0,384.0,-160.0,510.0
19:30:32.544000,76.0,-304.0,393.0,-599.0,527.0,-208.0,402.0,-148.0,492.0
19:30:32.548000,84.0,-319.0,415.0,-628.0,534.0,-209.0,402.0,-148.0,492.0
19:30:32.552000,95.0,-329.0,416.0,-652.0,525.0,-214.0,402.0,-148.0,492.0
19:30:32.558000,97.0,-327.0,421.0,-662.0,498.0,-208.0,406.0,-160.0,486.0
19:30:32.562000,77.0,-323.0,443.0,-666.0,497.0,-205.0,406.0,-160.0,486.0
19:30:32.567000,72.0,-317.0,449.0,-662.0,517.0,-209.0,406.0,-157.0,490.0
19:30:32.572000,63.0,-308.0,429.0,-642.0,505.0,-206.0,406.0,-157.0,490.0
19:30:32.576000,53.0,-293.0,429.0,-620.0,452.0,-202.0,420.0,-165.0,486.0
19:30:32.581000,40.0,-278.0,462.0,-619.0,413.0,-198.0,420.0,-165.0,486.0
19:30:32.585000,27.0,-268.0,470.0,-633.0,415.0,-199.0,420.0,-165.0,486.0
19:30:32.591000,19.0,-256.0,435.0,-633.0,433.0,-202.0,411.0,-166.0,483.0
19:30:32.595000,11.0,-241.0,399.0,-621.0,444.0,-200.0,411.0,-166.0,483.0
19:30:32.600000,-7.0,-228.0,373.0,-621.0,444.0,-200.0,409.0,-160.0,487.0
19:30:32.605000,-18.0,-217.0,342.0,-615.0,469.0,-203.0,409.0,-160.0,487.0
19:30:32.609000,-29.0,-207.0,310.0,-617.0,469.0,-203.0,409.0,-160.0,487.0
19:30:32.614000,-37.0,-200.0,287.0,-623.0,473.0,-205.0,424.0,-166.0,486.0
19:30:32.619000,-40.0,-194.0,266.0,-659.0,483.0,-201.0,424.0,-166.0,486.0
19:30:32.623000,-57.0,-187.0,241.0,-659.0,483.0,-201.0,414.0,-168.0,493.0
19:30:32.628000,-80.0,-186.0,226.0,-667.0,487.0,-193.0,414.0,-168.0,493.0
19:30:32.632000,-105.0,-187.0,227.0,-652.0,487.0,-186.0,414.0,-168.0,493.0
19:30:32.638000,-130.0,-189.0,235.0,-621.0,487.0,-180.0,427.0,-166.0,486.0
19:30:32.642000,-154.0,-192.0,247.0,-588.0,484.0,-171.0,427.0,-166.0,486.0
19:30:32.647000,-178.0,-195.0,263.0,-560.0,471.0,-165.0,433.0,-165.0,489.0
19:30:32.652000,-198.0,-198.0,277.0,-548.0,443.0,-162.0,433.0,-165.0,489.0
19:30:32.656000,-198.0,-198.0,277.0,-551.0,406.0,-160.0,433.0,-165.0,489.0
19:30:32.661000,-209.0,-201.0,288.0,-558.0,368.0,-159.0,445.0,-162.0,481.0
19:30:32.666000,-215.0,-204.0,298.0,-565.0,325.0,-157.0,445.0,-162.0,481.0
19:30:32.670000,-217.0,-211.0,315.0,-572.0,290.0,-157.0,432.0,-166.0,489.0
19:30:32.675000,-207.0,-210.0,324.0,-572.0,267.0,-158.0,432.0,-166.0,489.0
19:30:32.679000,-191.0,-210.0,322.0,-563.0,249.0,-160.0,432.0,-166.0,489.0
19:30:32.685000,-175.0,-210.0,321.0,-561.0,238.0,-162.0,441.0,-172.0,493.0
19:30:32.689000,-149.0,-211.0,320.0,-574.0,240.0,-166.0,441.0,-172.0,493.0
19:30:32.694000,-126.0,-210.0,311.0,-599.0,251.0,-166.0,438.0,-172.0,487.0
19:30:32.699000,-107.0,-210.0,292.0,-618.0,267.0,-166.0,438.0,-172.0,487.0
19:30:32.703000,-94.0,-207.0,275.0,-628.0,285.0,-166.0,438.0,-172.0,487.0
19:30:32.708000,-91.0,-202.0,265.0,-630.0,313.0,-167.0,453.0,-174.0,477.0
19:30:32.713000,-95.0,-195.0,261.0,-623.0,332.0,-165.0,453.0,-174.0,477.0
19:30:32.717000,-109.0,-184.0,276.0,-623.0,332.0,-165.0,448.0,-171.0,475.0
19:30:32.722000,-129.0,-170.0,298.0,-616.0,338.0,-164.0,448.0,-171.0,475.0
19:30:32.726000,-158.0,-156.0,316.0,-614.0,339.0,-162.0,448.0,-171.0,475.0
19:30:32.732000,-187.0,-142.0,325.0,-611.0,334.0,-161.0,451.0,-183.0,472.0
19:30:32.736000,-215.0,-130.0,332.0,-603.0,327.0,-161.0,451.0,-183.0,472.0
19:30:32.741000,-238.0,-122.0,346.0,-593.0,310.0,-159.0,450.0,-180.0,477.0
19:30:32.746000,-255.0,-116.0,362.0,-586.0,280.0,-154.0,450.0,-180.0,477.0
19:30:32.750000,-255.0,-116.0,362.0,-585.0,246.0,-147.0,450.0,-180.0,477.0
19:30:32.755000,-264.0,-116.0,364.0,-582.0,211.0,-141.0,451.0,-181.0,496.0
19:30:32.760000,-254.0,-119.0,360.0,-571.0,174.0,-136.0,451.0,-181.0,496.0
19:30:32.764000,-254.0,-119.0,360.0,-563.0,145.0,-133.0,460.0,-187.0,489.0
19:30:32.769000,-235.0,-124.0,352.0,-568.0,133.0,-130.0,460.0,-187.0,489.0
19:30:32.773000,-212.0,-133.0,334.0,-581.0,128.0,-127.0,460.0,-187.0,489.0
19:30:32.779000,-184.0,-142.0,315.0,-595.0,128.0,-125.0,457.0,-192.0,481.0
19:30:32.783000,-157.0,-149.0,296.0,-609.0,133.0,-121.0,457.0,-192.0,481.0
19:30:32.788000,-135.0,-154.0,284.0,-619.0,137.0,-117.0,468.0,-183.0,483.0
19:30:32.793000,-117.0,-157.0,285.0,-627.0,139.0,-115.0,468.0,-183.0,483.0
19:30:32.797000,-100.0,-156.0,289.0,-635.0,146.0,-112.0,465.0,-195.0,490.0
19:30:32.802000,-88.0,-155.0,287.0,-637.0,150.0,-107.0,465.0,-195.0,490.0
19:30:32.806000,-79.0,-155.0,286.0,-631.0,151.0,-104.0,465.0,-195.0,490.0
19:30:32.811000,-76.0,-154.0,295.0,-626.0,154.0,-102.0,474.0,-201.0,484.0
19:30:32.816000,-74.0,-152.0,310.0,-624.0,154.0,-101.0,474.0,-201.0,484.0
19:30:32.821000,-79.0,-149.0,335.0,-624.0,154.0,-101.0,466.0,-196.0,481.0
19:30:32.826000,-83.0,-147.0,359.0,-629.0,151.0,-102.0,466.0,-196.0,481.0
19:30:32.830000,-86.0,-147.0,373.0,-638.0,149.0,-105.0,466.0,-196.0,481.0
19:30:32.835000,-90.0,-142.0,375.0,-648.0,148.0,-108.0,481.0,-198.0,484.0
19:30:32.840000,-93.0,-139.0,380.0,-665.0,127.0,-111.0,481.0,-198.0,484.0
19:30:32.844000,-94.0,-137.0,381.0,-665.0,127.0,-111.0,466.0,-207.0,492.0
19:30:32.849000,-100.0,-133.0,394.0,-669.0,113.0,-111.0,466.0,-207.0,492.0
19:30:32.853000,-105.0,-135.0,409.0,-672.0,99.0,-111.0,466.0,-207.0,492.0
19:30:32.858000,-107.0,-137.0,401.0,-678.0,101.0,-112.0,474.0,-204.0,486.0
19:30:32.863000,-111.0,-137.0,382.0,-672.0,108.0,-110.0,474.0,-204.0,486.0
19:30:32.868000,-121.0,-142.0,377.0,-645.0,105.0,-107.0,487.0,-199.0,484.0
19:30:32.873000,-121.0,-142.0,377.0,-608.0,93.0,-108.0,487.0,-199.0,484.0
19:30:32.877000,-129.0,-149.0,382.0,-580.0,86.0,-111.0,487.0,-199.0,484.0
19:30:32.882000,-133.0,-158.0,377.0,-563.0,89.0,-116.0,469.0,-204.0,481.0
19:30:32.887000,-135.0,-170.0,364.0,-551.0,96.0,-118.0,469.0,-204.0,481.0
19:30:32.891000,-137.0,-182.0,355.0,-549.0,106.0,-118.0,474.0,-210.0,498.0
19:30:32.896000,-137.0,-192.0,352.0,-558.0,112.0,-119.0,474.0,-210.0,498.0
19:30:32.900000,-137.0,-203.0,354.0,-570.0,107.0,-122.0,474.0,-210.0,498.0
19:30:32.905000,-130.0,-214.0,359.0,-581.0,91.0,-125.0,486.0,-213.0,492.0
19:30:32.910000,-119.0,-226.0,368.0,-592.0,77.0,-126.0,486.0,-213.0,492.0
19:30:32.915000,-106.0,-238.0,381.0,-602.0,73.0,-125.0,496.0,-208.0,480.0
19:30:32.920000,-96.0,-251.0,401.0,-607.0,76.0,-124.0,496.0,-208.0,480.0
19:30:32.924000,-93.0,-261.0,432.0,-609.0,94.0,-123.0,496.0,-208.0,480.0
19:30:32.929000,-95.0,-267.0,467.0,-608.0,121.0,-123.0,499.0,-210.0,486.0
19:30:32.934000,-102.0,-270.0,503.0,-608.0,143.0,-127.0,499.0,-210.0,486.0
19:30:32.938000,-113.0,-272.0,539.0,-605.0,143.0,-127.0,493.0,-216.0,486.0
19:30:32.943000,-125.0,-273.0,572.0,-603.0,163.0,-135.0,493.0,-216.0,486.0
19:30:32.947000,-140.0,-277.0,604.0,-604.0,188.0,-148.0,493.0,-216.0,486.0
19:30:32.952000,-154.0,-280.0,636.0,-613.0,218.0,-162.0,492.0,-223.0,484.0
19:30:32.957000,-169.0,-283.0,679.0,-624.0,235.0,-172.0,492.0,-223.0,484.0
19:30:32.962000,-184.0,-287.0,739.0,-627.0,227.0,-175.0,492.0,-226.0,480.0
19:30:32.967000,-196.0,-291.0,816.0,-622.0,202.0,-176.0,492.0,-226.0,480.0
19:30:32.971000,-196.0,-291.0,816.0,-614.0,169.0,-179.0,492.0,-226.0,480.0
19:30:32.976000,-189.0,-310.0,961.0,-608.0,140.0,-189.0,486.0,-231.0,486.0
19:30:32.981000,-172.0,-322.0,1015.0,-611.0,127.0,-202.0,486.0,-231.0,486.0
19:30:32.985000,-172.0,-322.0,1015.0,-621.0,131.0,-211.0,516.0,-238.0,480.0
19:30:32.990000,-156.0,-333.0,1065.0,-639.0,146.0,-218.0,516.0,-238.0,480.0
19:30:32.994000,-139.0,-341.0,1110.0,-659.0,158.0,-223.0,516.0,-238.0,480.0
19:30:32.999000,-123.0,-347.0,1152.0,-679.0,167.0,-222.0,508.0,-246.0,471.0
19:30:33.004000,-112.0,-352.0,1189.0,-696.0,177.0,-218.0,508.0,-246.0,471.0
19:30:33.009000,-105.0,-358.0,1222.0,-705.0,189.0,-214.0,526.0,-253.0,481.0
19:30:33.014000,-102.0,-365.0,1255.0,-705.0,199.0,-203.0,526.0,-253.0,481.0
19:30:33.018000,-105.0,-370.0,1293.0,-698.0,198.0,-182.0,526.0,-253.0,481.0
19:30:33.023000,-114.0,-374.0,1345.0,-685.0,182.0,-160.0,529.0,-255.0,486.0
19:30:33.028000,-126.0,-379.0,1408.0,-681.0,168.0,-143.0,529.0,-255.0,486.0
19:30:33.032000,-137.0,-382.0,1462.0,-681.0,169.0,-129.0,532.0,-253.0,474.0
19:30:33.037000,-149.0,-379.0,1490.0,-737.0,177.0,-116.0,532.0,-253.0,474.0
19:30:33.041000,-165.0,-373.0,1498.0,-783.0,188.0,-106.0,532.0,-253.0,474.0
19:30:33.046000,-184.0,-362.0,1495.0,-783.0,188.0,-106.0,531.0,-273.0,463.0
19:30:33.051000,-204.0,-347.0,1486.0,-835.0,195.0,-98.0,531.0,-273.0,463.0
19:30:33.056000,-226.0,-326.0,1476.0,-887.0,199.0,-90.0,543.0,-286.0,465.0
19:30:33.061000,-242.0,-298.0,1465.0,-945.0,180.0,-89.0,543.0,-286.0,465.0
19:30:33.065000,-247.0,-266.0,1450.0,-945.0,180.0,-89.0,543.0,-286.0,465.0
19:30:33.070000,-237.0,-232.0,1404.0,-959.0,177.0,-102.0,534.0,-300.0,465.0
19:30:33.075000,-211.0,-195.0,1312.0,-984.0,208.0,-128.0,534.0,-300.0,465.0
19:30:33.079000,-171.0,-154.0,1175.0,-1033.0,276.0,-170.0,544.0,-301.0,456.0
19:30:33.084000,-135.0,-107.0,1003.0,-1115.0,378.0,-214.0,544.0,-301.0,456.0
19:30:33.088000,-135.0,-107.0,1003.0,-1218.0,501.0,-248.0,544.0,-301.0,456.0
19:30:33.093000,-107.0,-58.0,823.0,-1306.0,617.0,-285.0,552.0,-301.0,453.0
19:30:33.098000,-87.0,-11.0,663.0,-1357.0,721.0,-323.0,552.0,-301.0,453.0
19:30:33.102000,-74.0,35.0,526.0,-1361.0,820.0,-342.0,546.0,-315.0,463.0
19:30:33.108000,-71.0,82.0,406.0,-1298.0,897.0,-351.0,546.0,-315.0,463.0
19:30:33.112000,-75.0,121.0,316.0,-1161.0,921.0,-347.0,546.0,-315.0,463.0
19:30:33.117000,-86.0,148.0,263.0,-969.0,882.0,-327.0,559.0,-319.0,468.0
19:30:33.122000,-88.0,153.0,241.0,-764.0,788.0,-293.0,559.0,-319.0,468.0
19:30:33.126000,-84.0,137.0,240.0,-589.0,663.0,-271.0,553.0,-315.0,463.0
19:30:33.131000,-47.0,121.0,242.0,-502.0,566.0,-269.0,553.0,-315.0,463.0
19:30:33.135000,16.0,82.0,195.0,-489.0,564.0,-241.0,553.0,-315.0,463.0
19:30:33.140000,64.0,28.0,115.0,-471.0,585.0,-215.0,543.0,-324.0,466.0
19:30:33.145000,87.0,3.0,81.0,-518.0,605.0,-206.0,543.0,-324.0,466.0
19:30:33.150000,118.0,-35.0,28.0,-627.0,643.0,-189.0,553.0,-321.0,472.0
19:30:33.155000,136.0,-74.0,-25.0,-627.0,643.0,-189.0,553.0,-321.0,472.0
19:30:33.159000,128.0,-79.0,-48.0,-699.0,658.0,-167.0,556.0,-318.0,462.0
19:30:33.164000,121.0,-67.0,-60.0,-773.0,656.0,-162.0,556.0,-318.0,462.0
19:30:33.168000,117.0,-71.0,-85.0,-882.0,663.0,-153.0,556.0,-318.0,462.0
19:30:33.173000,92.0,-46.0,-117.0,-972.0,702.0,-140.0,550.0,-313.0,463.0
19:30:33.178000,34.0,-2.0,-189.0,-1095.0,759.0,-135.0,550.0,-313.0,463.0
19:30:33.183000,-22.0,39.0,-451.0,-1538.0,767.0,-155.0,550.0,-322.0,472.0
19:30:33.187000,-59.0,52.0,-270.0,-1844.0,635.0,-172.0,550.0,-322.0,472.0
19:30:33.192000,-59.0,52.0,-270.0,-1597.0,418.0,-94.0,550.0,-322.0,472.0
19:30:33.197000,-242.0,165.0,430.0,-1050.0,600.0,-136.0,552.0,-322.0,460.0
19:30:33.202000,-242.0,165.0,430.0,-801.0,915.0,-233.0,552.0,-322.0,460.0
19:30:33.206000,-79.0,148.0,119.0,-1059.0,756.0,-211.0,541.0,-327.0,468.0
19:30:33.211000,58.0,126.0,-182.0,-1451.0,467.0,-106.0,541.0,-327.0,468.0
19:30:33.215000,15.0,46.0,-492.0,-1293.0,420.0,-149.0,541.0,-327.0,468.0
19:30:33.220000,-37.0,130.0,-310.0,-807.0,528.0,-253.0,543.0,-319.0,465.0
19:30:33.225000,-21.0,149.0,30.0,-817.0,625.0,-217.0,543.0,-319.0,465.0
19:30:33.230000,-35.0,151.0,84.0,-998.0,684.0,-248.0,544.0,-313.0,468.0
19:30:33.234000,-10.0,156.0,-30.0,-1127.0,622.0,-289.0,544.0,-313.0,468.0
19:30:33.242000,34.0,185.0,-158.0,-1324.0,344.0,-291.0,541.0,-318.0,463.0
19:30:33.244000,34.0,185.0,-158.0,-1324.0,344.0,-291.0,541.0,-318.0,463.0
19:30:33.248000,30.0,208.0,-115.0,-1349.0,317.0,-281.0,541.0,-318.0,463.0
19:30:33.253000,16.0,242.0,-44.0,-1321.0,324.0,-256.0,547.0,-319.0,462.0
19:30:33.258000,4.0,249.0,42.0,-1241.0,300.0,-243.0,547.0,-319.0,462.0
19:30:33.263000,-9.0,258.0,122.0,-1241.0,300.0,-243.0,540.0,-321.0,465.0
19:30:33.267000,-27.0,247.0,215.0,-1197.0,232.0,-229.0,540.0,-321.0,465.0
19:30:33.271000,-23.0,217.0,263.0,-1164.0,178.0,-214.0,540.0,-321.0,465.0
19:30:33.277000,-35.0,195.0,252.0,-1124.0,200.0,-232.0,526.0,-316.0,471.0
19:30:33.281000,-45.0,166.0,219.0,-1045.0,177.0,-223.0,526.0,-316.0,471.0
19:30:33.286000,-52.0,120.0,258.0,-1045.0,177.0,-223.0,525.0,-328.0,471.0
19:30:33.291000,-67.0,70.0,329.0,-984.0,57.0,-204.0,525.0,-328.0,471.0
19:30:33.295000,-70.0,18.0,326.0,-998.0,29.0,-197.0,525.0,-328.0,471.0
19:30:33.300000,-83.0,-12.0,242.0,-1061.0,97.0,-193.0,535.0,-325.0,462.0
19:30:33.305000,-114.0,-32.0,188.0,-1087.0,129.0,-175.0,535.0,-325.0,462.0
19:30:33.310000,-150.0,-43.0,196.0,-1084.0,94.0,-155.0,535.0,-319.0,465.0
19:30:33.314000,-150.0,-43.0,196.0,-1110.0,56.0,-139.0,535.0,-319.0,465.0
19:30:33.318000,-174.0,-52.0,177.0,-1160.0,40.0,-123.0,535.0,-319.0,465.0
19:30:33.324000,-195.0,-51.0,123.0,-1196.0,28.0,-111.0,516.0,-327.0,469.0
19:30:33.328000,-209.0,-43.0,80.0,-1230.0,9.0,-103.0,516.0,-327.0,469.0
19:30:33.333000,-214.0,-27.0,51.0,-1274.0,-12.0,-110.0,538.0,-331.0,477.0
19:30:33.338000,-214.0,-4.0,7.0,-1309.0,-56.0,-123.0,538.0,-331.0,477.0
19:30:33.342000,-201.0,21.0,-28.0,-1340.0,-99.0,-139.0,538.0,-331.0,477.0
19:30:33.347000,-173.0,42.0,-56.0,-1372.0,-111.0,-159.0,532.0,-334.0,469.0
19:30:33.352000,-135.0,57.0,-70.0,-1391.0,-110.0,-180.0,532.0,-334.0,469.0
19:30:33.357000,-96.0,77.0,-94.0,-1407.0,-80.0,-207.0,526.0,-334.0,472.0
19:30:33.361000,-65.0,102.0,-139.0,-1426.0,-37.0,-228.0,526.0,-334.0,472.0
19:30:33.365000,-44.0,127.0,-177.0,-1432.0,-16.0,-244.0,526.0,-334.0,472.0
19:30:33.371000,-33.0,151.0,-187.0,-1418.0,-14.0,-256.0,543.0,-336.0,478.0
19:30:33.375000,-28.0,169.0,-142.0,-1418.0,-14.0,-256.0,543.0,-336.0,478.0
19:30:33.380000,-25.0,176.0,-75.0,-1403.0,-25.0,-267.0,529.0,-330.0,471.0
19:30:33.385000,-30.0,189.0,-18.0,-1392.0,-43.0,-280.0,529.0,-330.0,471.0
19:30:33.389000,-37.0,198.0,10.0,-1378.0,-54.0,-291.0,529.0,-330.0,471.0
19:30:33.394000,-39.0,200.0,29.0,-1360.0,-71.0,-295.0,526.0,-330.0,471.0
19:30:33.399000,-32.0,202.0,-1.0,-1359.0,-67.0,-300.0,526.0,-330.0,471.0
19:30:33.404000,-35.0,211.0,-101.0,-1377.0,-47.0,-304.0,520.0,-331.0,472.0
19:30:33.408000,-30.0,223.0,-179.0,-1369.0,-75.0,-298.0,520.0,-331.0,472.0
19:30:33.412000,-30.0,223.0,-179.0,-1342.0,-146.0,-288.0,520.0,-331.0,472.0
19:30:33.418000,-27.0,228.0,-182.0,-1322.0,-199.0,-283.0,519.0,-328.0,486.0
19:30:33.422000,-27.0,228.0,-182.0,-1315.0,-200.0,-276.0,519.0,-328.0,486.0
19:30:33.427000,-37.0,236.0,-189.0,-1293.0,-161.0,-268.0,519.0,-331.0,481.0
19:30:33.432000,-19.0,229.0,-205.0,-1214.0,-133.0,-271.0,519.0,-331.0,481.0
19:30:33.436000,24.0,206.0,-191.0,-1154.0,-96.0,-283.0,519.0,-331.0,481.0
19:30:33.441000,38.0,203.0,-204.0,-1167.0,-32.0,-278.0,526.0,-333.0,486.0
19:30:33.446000,48.0,186.0,-226.0,-1157.0,12.0,-270.0,526.0,-333.0,486.0
19:30:33.451000,84.0,164.0,-217.0,-1151.0,35.0,-264.0,529.0,-331.0,480.0
19:30:33.455000,88.0,163.0,-219.0,-1206.0,-16.0,-257.0,529.0,-331.0,480.0
19:30:33.459000,82.0,186.0,-183.0,-1245.0,-111.0,-243.0,529.0,-331.0,480.0
19:30:33.465000,87.0,177.0,-118.0,-1233.0,-96.0,-223.0,516.0,-327.0,484.0
19:30:33.469000,88.0,151.0,-160.0,-1149.0,-14.0,-229.0,516.0,-327.0,484.0
19:30:33.474000,93.0,130.0,-144.0,-1149.0,-14.0,-229.0,520.0,-324.0,486.0
19:30:33.479000,56.0,121.0,-86.0,-1024.0,54.0,-211.0,520.0,-324.0,486.0
19:30:33.483000,23.0,109.0,-63.0,-1024.0,54.0,-211.0,520.0,-324.0,486.0
19:30:33.488000,-3.0,104.0,-108.0,-1017.0,86.0,-196.0,519.0,-328.0,469.0
19:30:33.493000,-33.0,128.0,-165.0,-943.0,129.0,-209.0,519.0,-328.0,469.0
19:30:33.498000,-9.0,144.0,-254.0,-923.0,236.0,-205.0,507.0,-322.0,483.0
19:30:33.502000,-36.0,146.0,-287.0,-1169.0,163.0,-200.0,507.0,-322.0,483.0
19:30:33.506000,-31.0,167.0,-111.0,-1090.0,-290.0,-238.0,520.0,-322.0,499.0
19:30:33.512000,4.0,149.0,-2.0,-1090.0,-290.0,-238.0,520.0,-322.0,499.0
19:30:33.516000,32.0,149.0,3.0,-1083.0,-166.0,-214.0,520.0,-322.0,499.0
19:30:33.521000,17.0,142.0,-35.0,-992.0,-33.0,-208.0,522.0,-319.0,489.0
19:30:33.526000,14.0,154.0,-10.0,-903.0,74.0,-234.0,522.0,-319.0,489.0
19:30:33.531000,14.0,154.0,-10.0,-902.0,155.0,-256.0,520.0,-321.0,487.0
19:30:33.535000,5.0,155.0,6.0,-984.0,119.0,-266.0,520.0,-321.0,487.0
19:30:33.539000,-17.0,170.0,-133.0,-1037.0,30.0,-278.0,520.0,-321.0,487.0
19:30:33.545000,-31.0,182.0,-246.0,-1011.0,-21.0,-277.0,511.0,-327.0,487.0
19:30:33.549000,-11.0,165.0,-185.0,-971.0,-91.0,-265.0,511.0,-327.0,487.0
19:30:33.554000,2.0,156.0,-64.0,-981.0,-132.0,-265.0,514.0,-331.0,484.0
19:30:33.559000,25.0,145.0,-27.0,-1030.0,-65.0,-270.0,514.0,-331.0,484.0
19:30:33.563000,50.0,142.0,-60.0,-1003.0,2.0,-260.0,514.0,-331.0,484.0
19:30:33.568000,50.0,136.0,-96.0,-927.0,-3.0,-248.0,507.0,-322.0,486.0
19:30:33.573000,58.0,132.0,-113.0,-891.0,-19.0,-238.0,507.0,-322.0,486.0
19:30:33.578000,55.0,120.0,-168.0,-877.0,-25.0,-221.0,505.0,-315.0,490.0
19:30:33.582000,61.0,98.0,-231.0,-874.0,-68.0,-221.0,505.0,-315.0,490.0
19:30:33.586000,98.0,65.0,-225.0,-888.0,-73.0,-220.0,505.0,-315.0,490.0
19:30:33.592000,121.0,32.0,-233.0,-888.0,-43.0,-207.0,519.0,-315.0,492.0
19:30:33.596000,121.0,11.0,-217.0,-926.0,-16.0,-201.0,519.0,-315.0,492.0
19:30:33.601000,121.0,-9.0,-224.0,-926.0,-16.0,-201.0,498.0,-310.0,508.0
19:30:33.606000,108.0,-24.0,-228.0,-962.0,25.0,-196.0,498.0,-310.0,508.0
19:30:33.610000,79.0,-20.0,-238.0,-971.0,59.0,-190.0,498.0,-310.0,508.0
19:30:33.615000,63.0,-28.0,-259.0,-972.0,91.0,-189.0,510.0,-318.0,483.0
19:30:33.620000,42.0,-27.0,-252.0,-965.0,83.0,-191.0,510.0,-318.0,483.0
19:30:33.625000,36.0,-31.0,-284.0,-989.0,65.0,-188.0,501.0,-319.0,487.0
19:30:33.629000,15.0,-33.0,-303.0,-1018.0,47.0,-178.0,501.0,-319.0,487.0
19:30:33.633000,15.0,-33.0,-303.0,-1030.0,43.0,-173.0,501.0,-319.0,487.0
19:30:33.639000,-26.0,-25.0,-332.0,-1036.0,55.0,-180.0,501.0,-312.0,481.0
19:30:33.643000,-26.0,-25.0,-332.0,-1020.0,70.0,-193.0,501.0,-312.0,481.0
19:30:33.648000,-11.0,-26.0,-367.0,-1019.0,92.0,-202.0,496.0,-310.0,487.0
19:30:33.653000,-1.0,-32.0,-420.0,-1018.0,70.0,-208.0,496.0,-310.0,487.0
19:30:33.657000,7.0,-30.0,-414.0,-1001.0,65.0,-212.0,496.0,-310.0,487.0
19:30:33.662000,15.0,-33.0,-373.0,-1012.0,84.0,-218.0,504.0,-315.0,486.0
19:30:33.667000,9.0,-20.0,-344.0,-1047.0,79.0,-225.0,504.0,-315.0,486.0
19:30:33.671000,10.0,-5.0,-332.0,-1057.0,82.0,-232.0,505.0,-301.0,486.0
19:30:33.676000,19.0,10.0,-318.0,-1036.0,122.0,-236.0,505.0,-301.0,486.0
19:30:33.680000,35.0,24.0,-328.0,-1088.0,166.0,-236.0,505.0,-301.0,486.0
19:30:33.686000,40.0,37.0,-357.0,-1054.0,123.0,-234.0,505.0,-304.0,489.0
19:30:33.690000,42.0,53.0,-317.0,-959.0,97.0,-238.0,505.0,-304.0,489.0
19:30:33.695000,49.0,58.0,-283.0,-959.0,97.0,-238.0,504.0,-303.0,487.0
19:30:33.700000,53.0,65.0,-331.0,-981.0,119.0,-245.0,504.0,-303.0,487.0
19:30:33.704000,71.0,65.0,-339.0,-981.0,119.0,-245.0,504.0,-303.0,487.0
19:30:33.709000,76.0,68.0,-324.0,-964.0,117.0,-254.0,502.0,-301.0,484.0
19:30:33.714000,82.0,77.0,-303.0,-960.0,149.0,-263.0,502.0,-301.0,484.0
19:30:33.718000,79.0,84.0,-289.0,-997.0,222.0,-265.0,498.0,-295.0,489.0
19:30:33.723000,39.0,104.0,-324.0,-1016.0,226.0,-258.0,498.0,-295.0,489.0
19:30:33.727000,18.0,115.0,-345.0,-1000.0,184.0,-259.0,498.0,-295.0,489.0
19:30:33.733000,24.0,118.0,-334.0,-999.0,176.0,-269.0,504.0,-297.0,486.0
19:30:33.737000,34.0,123.0,-319.0,-992.0,159.0,-272.0,504.0,-297.0,486.0
19:30:33.742000,35.0,133.0,-342.0,-996.0,157.0,-272.0,501.0,-303.0,489.0
19:30:33.747000,27.0,140.0,-350.0,-1007.0,155.0,-271.0,501.0,-303.0,489.0
19:30:33.751000,27.0,140.0,-350.0,-1004.0,140.0,-271.0,501.0,-303.0,489.0
19:30:33.756000,25.0,149.0,-319.0,-1019.0,142.0,-273.0,493.0,-292.0,493.0
19:30:33.761000,37.0,153.0,-311.0,-1040.0,127.0,-281.0,493.0,-292.0,493.0
19:30:33.765000,58.0,160.0,-353.0,-1034.0,90.0,-287.0,492.0,-300.0,489.0
19:30:33.770000,82.0,165.0,-380.0,-1020.0,98.0,-284.0,492.0,-300.0,489.0
19:30:33.774000,92.0,173.0,-356.0,-1006.0,118.0,-282.0,492.0,-300.0,489.0
19:30:33.780000,91.0,180.0,-330.0,-992.0,128.0,-285.0,493.0,-295.0,498.0
19:30:33.784000,95.0,186.0,-351.0,-978.0,126.0,-293.0,493.0,-295.0,498.0
19:30:33.789000,107.0,184.0,-370.0,-959.0,121.0,-300.0,495.0,-279.0,496.0
19:30:33.794000,116.0,183.0,-385.0,-936.0,149.0,-304.0,495.0,-279.0,496.0
19:30:33.798000,119.0,181.0,-396.0,-919.0,160.0,-310.0,495.0,-279.0,496.0
19:30:33.803000,136.0,176.0,-384.0,-903.0,134.0,-315.0,490.0,-292.0,496.0
19:30:33.808000,158.0,167.0,-377.0,-902.0,115.0,-310.0,490.0,-292.0,496.0
19:30:33.812000,158.0,163.0,-380.0,-902.0,115.0,-310.0,501.0,-285.0,493.0
19:30:33.817000,170.0,159.0,-381.0,-928.0,151.0,-309.0,501.0,-285.0,493.0
19:30:33.821000,164.0,163.0,-368.0,-951.0,201.0,-320.0,501.0,-285.0,493.0
19:30:33.827000,172.0,154.0,-387.0,-951.0,201.0,-320.0,487.0,-273.0,493.0
19:30:33.831000,186.0,154.0,-424.0,-945.0,219.0,-332.0,487.0,-273.0,493.0
19:30:33.836000,203.0,142.0,-424.0,-916.0,218.0,-335.0,493.0,-271.0,495.0
19:30:33.841000,198.0,133.0,-429.0,-899.0,226.0,-330.0,493.0,-271.0,495.0
19:30:33.845000,191.0,125.0,-469.0,-915.0,244.0,-330.0,493.0,-271.0,495.0
19:30:33.850000,194.0,113.0,-489.0,-938.0,247.0,-333.0,480.0,-277.0,499.0
19:30:33.855000,184.0,107.0,-476.0,-944.0,263.0,-330.0,480.0,-277.0,499.0
19:30:33.859000,184.0,107.0,-476.0,-953.0,306.0,-331.0,475.0,-265.0,501.0
19:30:33.864000,170.0,109.0,-445.0,-968.0,334.0,-331.0,475.0,-265.0,501.0
19:30:33.868000,149.0,107.0,-433.0,-981.0,350.0,-325.0,478.0,-259.0,505.0
19:30:33.874000,124.0,112.0,-443.0,-987.0,350.0,-325.0,478.0,-259.0,505.0
19:30:33.878000,107.0,114.0,-466.0,-989.0,320.0,-321.0,478.0,-259.0,505.0
19:30:33.883000,93.0,113.0,-453.0,-990.0,282.0,-314.0,483.0,-262.0,493.0
19:30:33.888000,81.0,109.0,-409.0,-997.0,256.0,-312.0,483.0,-262.0,493.0
19:30:33.892000,63.0,119.0,-386.0,-1013.0,274.0,-314.0,477.0,-262.0,492.0
19:30:33.897000,70.0,121.0,-421.0,-1011.0,275.0,-311.0,477.0,-262.0,492.0
19:30:33.901000,65.0,128.0,-441.0,-988.0,241.0,-309.0,477.0,-262.0,492.0
19:30:33.906000,73.0,130.0,-443.0,-976.0,229.0,-316.0,477.0,-255.0,496.0
19:30:33.911000,93.0,133.0,-464.0,-976.0,231.0,-325.0,477.0,-255.0,496.0
19:30:33.915000,109.0,144.0,-494.0,-990.0,248.0,-333.0,478.0,-258.0,498.0
19:30:33.921000,128.0,156.0,-527.0,-990.0,268.0,-341.0,478.0,-258.0,498.0
19:30:33.925000,140.0,170.0,-552.0,-1012.0,268.0,-341.0,478.0,-258.0,498.0
19:30:33.930000,169.0,177.0,-582.0,-1025.0,276.0,-354.0,456.0,-252.0,505.0
19:30:33.935000,212.0,165.0,-606.0,-1021.0,273.0,-369.0,456.0,-252.0,505.0
19:30:33.939000,249.0,147.0,-589.0,-1007.0,275.0,-385.0,463.0,-255.0,505.0
19:30:33.944000,245.0,140.0,-576.0,-1009.0,291.0,-386.0,463.0,-255.0,505.0
19:30:33.948000,254.0,128.0,-583.0,-1023.0,334.0,-387.0,463.0,-255.0,505.0
19:30:33.953000,256.0,117.0,-604.0,-1025.0,394.0,-404.0,472.0,-241.0,504.0
19:30:33.958000,254.0,114.0,-607.0,-995.0,425.0,-428.0,472.0,-241.0,504.0
19:30:33.963000,250.0,102.0,-571.0,-969.0,425.0,-434.0,454.0,-241.0,513.0
19:30:33.968000,259.0,91.0,-529.0,-974.0,429.0,-432.0,454.0,-241.0,513.0
19:30:33.972000,259.0,91.0,-529.0,-995.0,479.0,-444.0,454.0,-241.0,513.0
19:30:33.977000,265.0,73.0,-522.0,-1016.0,523.0,-445.0,462.0,-235.0,496.0
19:30:33.982000,256.0,60.0,-514.0,-1020.0,524.0,-444.0,462.0,-235.0,496.0
19:30:33.986000,260.0,42.0,-510.0,-1023.0,532.0,-447.0,459.0,-235.0,496.0
19:30:33.991000,263.0,23.0,-511.0,-1017.0,554.0,-441.0,459.0,-235.0,496.0
19:30:33.995000,250.0,18.0,-516.0,-998.0,582.0,-439.0,459.0,-235.0,496.0
19:30:34.000000,246.0,14.0,-529.0,-978.0,600.0,-435.0,448.0,-238.0,510.0
19:30:34.005000,238.0,-3.0,-555.0,-959.0,601.0,-423.0,448.0,-238.0,510.0
19:30:34.010000,247.0,-28.0,-576.0,-934.0,597.0,-425.0,463.0,-228.0,507.0
19:30:34.015000,266.0,-53.0,-571.0,-924.0,575.0,-423.0,463.0,-228.0,507.0
19:30:34.019000,249.0,-61.0,-545.0,-943.0,594.0,-414.0,463.0,-228.0,507.0
19:30:34.024000,247.0,-74.0,-529.0,-961.0,633.0,-416.0,450.0,-228.0,499.0
19:30:34.029000,253.0,-86.0,-528.0,-970.0,661.0,-422.0,450.0,-228.0,499.0
19:30:34.033000,281.0,-109.0,-525.0,-970.0,661.0,-422.0,451.0,-223.0,486.0
19:30:34.038000,293.0,-128.0,-488.0,-982.0,674.0,-408.0,451.0,-223.0,486.0
19:30:34.042000,287.0,-119.0,-436.0,-1011.0,660.0,-394.0,451.0,-223.0,486.0
19:30:34.047000,263.0,-115.0,-410.0,-1087.0,672.0,-383.0,454.0,-217.0,502.0
19:30:34.052000,233.0,-98.0,-392.0,-1169.0,696.0,-372.0,454.0,-217.0,502.0
19:30:34.057000,206.0,-82.0,-387.0,-1199.0,725.0,-371.0,448.0,-211.0,499.0
19:30:34.062000,182.0,-66.0,-346.0,-1180.0,737.0,-378.0,448.0,-211.0,499.0
19:30:34.066000,182.0,-66.0,-346.0,-1149.0,720.0,-388.0,448.0,-211.0,499.0
19:30:34.071000,165.0,-32.0,-268.0,-1149.0,705.0,-390.0,454.0,-205.0,498.0
19:30:34.076000,179.0,-28.0,-282.0,-1199.0,713.0,-381.0,454.0,-205.0,498.0
19:30:34.080000,179.0,-28.0,-282.0,-1223.0,716.0,-372.0,459.0,-214.0,492.0
19:30:34.085000,186.0,-23.0,-260.0,-1180.0,677.0,-357.0,459.0,-214.0,492.0
19:30:34.089000,191.0,-23.0,-229.0,-1105.0,624.0,-336.0,459.0,-214.0,492.0
19:30:34.094000,219.0,-51.0,-181.0,-1026.0,589.0,-323.0,448.0,-207.0,516.0
19:30:34.099000,233.0,-72.0,-138.0,-991.0,590.0,-311.0,448.0,-207.0,516.0
19:30:34.104000,256.0,-96.0,-124.0,-978.0,610.0,-285.0,448.0,-195.0,489.0
19:30:34.109000,252.0,-132.0,-126.0,-921.0,615.0,-267.0,448.0,-195.0,489.0
19:30:34.113000,256.0,-160.0,-109.0,-878.0,622.0,-257.0,448.0,-195.0,489.0
19:30:34.118000,247.0,-175.0,-104.0,-864.0,620.0,-232.0,457.0,-201.0,483.0
19:30:34.123000,217.0,-184.0,-58.0,-818.0,601.0,-228.0,457.0,-201.0,483.0
19:30:34.127000,197.0,-180.0,0.0,-810.0,596.0,-217.0,451.0,-195.0,496.0
19:30:34.132000,151.0,-163.0,38.0,-850.0,575.0,-194.0,451.0,-195.0,496.0
19:30:34.139000,95.0,-148.0,98.0,-873.0,526.0,-199.0,453.0,-198.0,490.0
19:30:34.141000,95.0,-148.0,98.0,-873.0,526.0,-199.0,453.0,-198.0,490.0
19:30:34.146000,67.0,-128.0,100.0,-890.0,473.0,-204.0,453.0,-198.0,490.0
19:30:34.151000,39.0,-109.0,97.0,-913.0,430.0,-201.0,447.0,-199.0,489.0
19:30:34.156000,16.0,-88.0,98.0,-910.0,379.0,-202.0,447.0,-199.0,489.0
19:30:34.160000,9.0,-82.0,89.0,-887.0,330.0,-210.0,459.0,-198.0,490.0
19:30:34.165000,9.0,-79.0,74.0,-852.0,310.0,-223.0,459.0,-198.0,490.0
19:30:34.169000,9.0,-76.0,52.0,-810.0,323.0,-237.0,459.0,-198.0,490.0
19:30:34.174000,13.0,-81.0,30.0,-770.0,351.0,-244.0,456.0,-201.0,481.0
19:30:34.179000,19.0,-91.0,11.0,-725.0,371.0,-246.0,456.0,-201.0,481.0
19:30:34.183000,19.0,-91.0,11.0,-672.0,386.0,-243.0,463.0,-198.0,489.0
19:30:34.188000,25.0,-101.0,-7.0,-620.0,390.0,-237.0,463.0,-198.0,489.0
19:30:34.193000,35.0,-112.0,-7.0,-574.0,378.0,-233.0,463.0,-198.0,489.0
19:30:34.198000,49.0,-124.0,7.0,-537.0,355.0,-234.0,468.0,-199.0,480.0
19:30:34.203000,67.0,-137.0,25.0,-522.0,334.0,-232.0,468.0,-199.0,480.0
19:30:34.207000,85.0,-151.0,41.0,-534.0,328.0,-228.0,469.0,-198.0,493.0
19:30:34.212000,96.0,-160.0,45.0,-563.0,319.0,-221.0,469.0,-198.0,493.0
19:30:34.216000,100.0,-162.0,58.0,-589.0,287.0,-210.0,469.0,-198.0,493.0
19:30:34.221000,103.0,-163.0,87.0,-617.0,251.0,-195.0,466.0,-184.0,489.0
19:30:34.225000,105.0,-162.0,107.0,-638.0,226.0,-180.0,466.0,-184.0,489.0
19:30:34.231000,111.0,-165.0,114.0,-633.0,195.0,-167.0,457.0,-193.0,484.0
19:30:34.235000,116.0,-172.0,137.0,-619.0,169.0,-154.0,457.0,-193.0,484.0
19:30:34.240000,121.0,-182.0,166.0,-615.0,178.0,-145.0,457.0,-193.0,484.0
19:30:34.245000,121.0,-189.0,196.0,-616.0,208.0,-139.0,469.0,-198.0,489.0
19:30:34.250000,112.0,-188.0,223.0,-616.0,243.0,-132.0,469.0,-198.0,489.0
19:30:34.254000,93.0,-179.0,239.0,-625.0,243.0,-132.0,481.0,-190.0,481.0
19:30:34.259000,65.0,-166.0,240.0,-639.0,269.0,-123.0,481.0,-190.0,481.0
19:30:34.263000,32.0,-152.0,228.0,-655.0,284.0,-114.0,481.0,-190.0,481.0
19:30:34.268000,-1.0,-137.0,207.0,-672.0,288.0,-108.0,484.0,-181.0,486.0
19:30:34.273000,-35.0,-119.0,175.0,-689.0,283.0,-108.0,484.0,-181.0,486.0
19:30:34.278000,-67.0,-98.0,138.0,-706.0,271.0,-111.0,486.0,-195.0,483.0
19:30:34.282000,-92.0,-78.0,95.0,-727.0,256.0,-117.0,486.0,-195.0,483.0
19:30:34.287000,-92.0,-78.0,95.0,-749.0,242.0,-126.0,486.0,-195.0,483.0
19:30:34.292000,-133.0,-32.0,2.0,-768.0,229.0,-134.0,478.0,-195.0,489.0
19:30:34.297000,-149.0,-9.0,-35.0,-774.0,212.0,-141.0,478.0,-195.0,489.0
19:30:34.301000,-149.0,-9.0,-35.0,-763.0,194.0,-147.0,483.0,-199.0,478.0
19:30:34.306000,-155.0,8.0,-68.0,-741.0,179.0,-151.0,483.0,-199.0,478.0
19:30:34.310000,-151.0,24.0,-101.0,-709.0,165.0,-152.0,483.0,-199.0,478.0
19:30:34.315000,-142.0,35.0,-121.0,-669.0,153.0,-148.0,480.0,-198.0,478.0
19:30:34.320000,-126.0,38.0,-124.0,-630.0,148.0,-138.0,480.0,-198.0,478.0
19:30:34.325000,-105.0,33.0,-121.0,-595.0,140.0,-129.0,474.0,-186.0,501.0
19:30:34.329000,-83.0,25.0,-108.0,-562.0,127.0,-121.0,474.0,-186.0,501.0
19:30:34.334000,-61.0,14.0,-78.0,-533.0,117.0,-112.0,474.0,-186.0,501.0
19:30:34.339000,-39.0,0.0,-37.0,-508.0,113.0,-104.0,475.0,-198.0,486.0
19:30:34.344000,-21.0,-16.0,8.0,-499.0,116.0,-100.0,475.0,-198.0,486.0
19:30:34.348000,-8.0,-30.0,49.0,-499.0,116.0,-100.0,474.0,-198.0,481.0
19:30:34.353000,0.0,-40.0,85.0,-496.0,145.0,-93.0,474.0,-198.0,481.0
19:30:34.357000,3.0,-48.0,117.0,-502.0,156.0,-90.0,474.0,-198.0,481.0
19:30:34.362000,4.0,-53.0,140.0,-502.0,156.0,-90.0,478.0,-193.0,487.0
19:30:34.367000,4.0,-55.0,151.0,-515.0,166.0,-92.0,478.0,-193.0,487.0
19:30:34.372000,2.0,-52.0,154.0,-515.0,166.0,-92.0,475.0,-195.0,489.0
19:30:34.376000,0.0,-46.0,149.0,-535.0,167.0,-97.0,475.0,-195.0,489.0
19:30:34.381000,-9.0,-35.0,135.0,-559.0,173.0,-103.0,475.0,-195.0,489.0
19:30:34.386000,-23.0,-18.0,123.0,-575.0,181.0,-110.0,487.0,-195.0,483.0
19:30:34.391000,-39.0,-2.0,112.0,-581.0,184.0,-116.0,487.0,-195.0,483.0
19:30:34.395000,-55.0,14.0,101.0,-577.0,184.0,-122.0,481.0,-199.0,484.0
19:30:34.400000,-66.0,29.0,91.0,-562.0,179.0,-125.0,481.0,-199.0,484.0
19:30:34.404000,-66.0,29.0,91.0,-547.0,175.0,-128.0,481.0,-199.0,484.0
19:30:34.409000,-72.0,41.0,79.0,-531.0,172.0,-131.0,489.0,-192.0,483.0
19:30:34.414000,-72.0,50.0,66.0,-514.0,162.0,-133.0,489.0,-192.0,483.0
19:30:34.419000,-67.0,54.0,63.0,-500.0,150.0,-134.0,490.0,-198.0,481.0
19:30:34.423000,-56.0,54.0,66.0,-491.0,144.0,-136.0,490.0,-198.0,481.0
19:30:34.428000,-44.0,49.0,73.0,-484.0,142.0,-136.0,490.0,-198.0,481.0
19:30:34.433000,-30.0,44.0,88.0,-479.0,147.0,-134.0,484.0,-199.0,486.0
19:30:34.438000,-19.0,37.0,109.0,-478.0,161.0,-130.0,484.0,-199.0,486.0
19:30:34.442000,-11.0,31.0,130.0,-474.0,171.0,-122.0,481.0,-193.0,484.0
19:30:34.447000,-3.0,24.0,151.0,-460.0,158.0,-113.0,481.0,-193.0,484.0
19:30:34.451000,9.0,15.0,171.0,-444.0,131.0,-106.0,481.0,-193.0,484.0
19:30:34.456000,30.0,4.0,185.0,-438.0,115.0,-103.0,481.0,-210.0,486.0
19:30:34.461000,53.0,-7.0,185.0,-444.0,119.0,-100.0,481.0,-210.0,486.0
19:30:34.466000,73.0,-17.0,177.0,-444.0,119.0,-100.0,490.0,-201.0,498.0
19:30:34.470000,84.0,-23.0,167.0,-455.0,143.0,-98.0,490.0,-201.0,498.0
19:30:34.475000,86.0,-26.0,159.0,-469.0,169.0,-96.0,490.0,-201.0,498.0
19:30:34.480000,82.0,-30.0,158.0,-481.0,186.0,-96.0,481.0,-207.0,474.0
