hh:mm:ss.ms,gyroX[mdps],gyroY[mdps],gyroZ[mdps],accX[mg],accY[mg],accZ[mg],magX[mG],magY[mG],magZ[mG]
19:45:45.623000,0.0,-322.0,-49.0,-1227.0,380.0,-434.0,0.0,0.0,0.0
19:45:45.628000,-35.0,-343.0,-301.0,-1326.0,347.0,-390.0,0.0,0.0,0.0
19:45:45.632000,-19.0,-323.0,-101.0,-1326.0,347.0,-390.0,0.0,0.0,0.0
19:45:45.637000,-54.0,-301.0,51.0,-1359.0,164.0,-310.0,0.0,0.0,0.0
19:45:45.642000,-123.0,-314.0,-6.0,-1359.0,164.0,-310.0,0.0,0.0,0.0
19:45:45.646000,-179.0,-315.0,34.0,-1359.0,164.0,-310.0,0.0,0.0,0.0
19:45:45.651000,-145.0,-288.0,118.0,-1191.0,168.0,-227.0,0.0,0.0,0.0
19:45:45.656000,-214.0,-268.0,-37.0,-1191.0,168.0,-227.0,0.0,0.0,0.0
19:45:45.661000,-317.0,-269.0,-156.0,-1113.0,114.0,-158.0,0.0,0.0,0.0
19:45:45.665000,-355.0,-245.0,-185.0,-1113.0,114.0,-158.0,0.0,0.0,0.0
19:45:45.670000,-335.0,-211.0,-25.0,-1040.0,-198.0,-107.0,0.0,0.0,0.0
19:45:45.675000,-255.0,-189.0,328.0,-1040.0,-198.0,-107.0,0.0,0.0,0.0
19:45:45.679000,-205.0,-184.0,453.0,-885.0,-697.0,-61.0,0.0,0.0,0.0
19:45:45.684000,-172.0,-184.0,305.0,-885.0,-697.0,-61.0,0.0,0.0,0.0
19:45:45.689000,-172.0,-184.0,305.0,-701.0,-1015.0,17.0,0.0,0.0,0.0
19:45:45.693000,-232.0,-147.0,378.0,-701.0,-1015.0,17.0,0.0,0.0,0.0
19:45:45.698000,-241.0,-118.0,68.0,-634.0,-1084.0,46.0,0.0,0.0,0.0
19:45:45.703000,-189.0,-109.0,-57.0,-634.0,-1084.0,46.0,0.0,0.0,0.0
19:45:45.708000,-190.0,-64.0,-80.0,-616.0,-1135.0,35.0,0.0,0.0,0.0
19:45:45.712000,-182.0,-76.0,-207.0,-616.0,-1135.0,35.0,0.0,0.0,0.0
19:45:45.717000,-128.0,-108.0,-116.0,-414.0,-1113.0,33.0,0.0,0.0,0.0
19:45:45.722000,-65.0,-97.0,84.0,-414.0,-1113.0,33.0,0.0,0.0,0.0
19:45:45.726000,19.0,-144.0,-58.0,-584.0,-1012.0,15.0,0.0,0.0,0.0
19:45:45.730000,74.0,-177.0,-499.0,-584.0,-1012.0,15.0,0.0,0.0,0.0
19:45:45.736000,76.0,-184.0,-632.0,-705.0,-778.0,0.0,0.0,0.0,0.0
19:45:45.740000,34.0,-196.0,-541.0,-705.0,-778.0,0.0,0.0,0.0,0.0
19:45:45.745000,-44.0,-204.0,-438.0,-516.0,-597.0,-36.0,0.0,0.0,0.0
19:45:45.750000,-53.0,-191.0,-205.0,-516.0,-597.0,-36.0,0.0,0.0,0.0
19:45:45.755000,-87.0,-179.0,-273.0,-516.0,-597.0,-36.0,0.0,0.0,0.0
19:45:45.759000,-7.0,-178.0,-437.0,-665.0,-580.0,-72.0,0.0,0.0,0.0
19:45:45.764000,-21.0,-204.0,-497.0,-665.0,-580.0,-72.0,0.0,0.0,0.0
19:45:45.769000,-46.0,-214.0,-606.0,-851.0,-662.0,-62.0,0.0,0.0,0.0
19:45:45.773000,-117.0,-228.0,-310.0,-851.0,-662.0,-62.0,0.0,0.0,0.0
19:45:45.778000,-61.0,-189.0,-11.0,-658.0,-660.0,-38.0,0.0,0.0,0.0
19:45:45.783000,18.0,-202.0,56.0,-658.0,-660.0,-38.0,0.0,0.0,0.0
19:45:45.787000,126.0,-165.0,-93.0,-574.0,-543.0,-58.0,0.0,0.0,0.0
19:45:45.792000,91.0,-189.0,-148.0,-574.0,-543.0,-58.0,0.0,0.0,0.0
19:45:45.797000,91.0,-189.0,-148.0,-783.0,-607.0,-51.0,0.0,0.0,0.0
19:45:45.802000,92.0,-172.0,-359.0,-783.0,-607.0,-51.0,0.0,0.0,0.0
19:45:45.806000,28.0,-180.0,-133.0,-661.0,-734.0,-19.0,0.0,0.0,0.0
19:45:45.811000,-56.0,-132.0,165.0,-661.0,-734.0,-19.0,0.0,0.0,0.0
19:45:45.816000,-44.0,-116.0,286.0,-617.0,-652.0,-35.0,0.0,0.0,0.0
19:45:45.820000,-70.0,-83.0,91.0,-617.0,-652.0,-35.0,0.0,0.0,0.0
19:45:45.825000,-8.0,-72.0,-286.0,-810.0,-617.0,-63.0,0.0,0.0,0.0
19:45:45.830000,10.0,-50.0,-329.0,-810.0,-617.0,-63.0,0.0,0.0,0.0
19:45:45.834000,23.0,-29.0,-100.0,-762.0,-760.0,-69.0,0.0,0.0,0.0
19:45:45.839000,55.0,-42.0,182.0,-762.0,-760.0,-69.0,0.0,0.0,0.0
19:45:45.844000,28.0,-41.0,480.0,-735.0,-758.0,-53.0,0.0,0.0,0.0
19:45:45.849000,42.0,-9.0,312.0,-735.0,-758.0,-53.0,0.0,0.0,0.0
19:45:45.853000,114.0,-14.0,-129.0,-866.0,-576.0,-59.0,0.0,0.0,0.0
19:45:45.858000,88.0,-2.0,-276.0,-866.0,-576.0,-59.0,0.0,0.0,0.0
19:45:45.863000,27.0,-3.0,-255.0,-866.0,-576.0,-59.0,0.0,0.0,0.0
19:45:45.867000,60.0,-27.0,-216.0,-886.0,-631.0,-60.0,0.0,0.0,0.0
19:45:45.872000,41.0,-42.0,12.0,-886.0,-631.0,-60.0,0.0,0.0,0.0
19:45:45.877000,56.0,-43.0,168.0,-746.0,-702.0,-56.0,0.0,0.0,0.0
19:45:45.881000,-8.0,-20.0,106.0,-746.0,-702.0,-56.0,0.0,0.0,0.0
19:45:45.886000,-37.0,-32.0,-156.0,-728.0,-598.0,-62.0,0.0,0.0,0.0
19:45:45.891000,-26.0,-15.0,-382.0,-728.0,-598.0,-62.0,0.0,0.0,0.0
19:45:45.896000,35.0,-49.0,-350.0,-891.0,-661.0,-54.0,0.0,0.0,0.0
19:45:45.900000,-16.0,-30.0,-232.0,-891.0,-661.0,-54.0,0.0,0.0,0.0
19:45:45.905000,-16.0,-30.0,-232.0,-898.0,-755.0,-52.0,0.0,0.0,0.0
19:45:45.910000,-56.0,-10.0,-34.0,-898.0,-755.0,-52.0,0.0,0.0,0.0
19:45:45.914000,-11.0,-4.0,26.0,-830.0,-714.0,-55.0,0.0,0.0,0.0
19:45:45.919000,40.0,-24.0,-110.0,-830.0,-714.0,-55.0,0.0,0.0,0.0
19:45:45.924000,84.0,-51.0,-305.0,-832.0,-684.0,-41.0,0.0,0.0,0.0
19:45:45.928000,66.0,-67.0,-326.0,-832.0,-684.0,-41.0,0.0,0.0,0.0
19:45:45.933000,21.0,-51.0,-329.0,-789.0,-604.0,-46.0,0.0,0.0,0.0
19:45:45.938000,-12.0,-42.0,-337.0,-789.0,-604.0,-46.0,0.0,0.0,0.0
19:45:45.943000,-82.0,-58.0,-63.0,-758.0,-575.0,-68.0,0.0,0.0,0.0
19:45:45.947000,-77.0,-53.0,-53.0,-758.0,-575.0,-68.0,0.0,0.0,0.0
19:45:45.952000,-53.0,-113.0,-420.0,-807.0,-684.0,-76.0,0.0,0.0,0.0
19:45:45.957000,-67.0,-110.0,-213.0,-807.0,-684.0,-76.0,0.0,0.0,0.0
19:45:45.961000,-11.0,-117.0,-5.0,-923.0,-706.0,-73.0,0.0,0.0,0.0
19:45:45.965000,-4.0,-151.0,-266.0,-923.0,-706.0,-73.0,0.0,0.0,0.0
19:45:45.971000,-15.0,-146.0,-645.0,-923.0,-706.0,-73.0,0.0,0.0,0.0
19:45:45.975000,-16.0,-115.0,-693.0,-929.0,-569.0,-65.0,0.0,0.0,0.0
19:45:45.980000,-34.0,-123.0,-485.0,-929.0,-569.0,-65.0,0.0,0.0,0.0
19:45:45.985000,-125.0,-68.0,-197.0,-829.0,-575.0,-54.0,0.0,0.0,0.0
19:45:45.990000,-138.0,-75.0,-333.0,-829.0,-575.0,-54.0,0.0,0.0,0.0
19:45:45.994000,-156.0,-58.0,-403.0,-931.0,-627.0,-53.0,0.0,0.0,0.0
19:45:45.999000,-132.0,-56.0,-107.0,-931.0,-627.0,-53.0,0.0,0.0,0.0
19:45:46.004000,-72.0,-88.0,10.0,-963.0,-533.0,-53.0,0.0,0.0,0.0
19:45:46.008000,-91.0,-100.0,-90.0,-963.0,-533.0,-53.0,0.0,0.0,0.0
19:45:46.013000,-110.0,-74.0,-102.0,-808.0,-503.0,-38.0,0.0,0.0,0.0
19:45:46.018000,-110.0,-74.0,-102.0,-808.0,-503.0,-38.0,0.0,0.0,0.0
19:45:46.022000,-61.0,-75.0,-130.0,-800.0,-540.0,-46.0,0.0,0.0,0.0
19:45:46.027000,-15.0,-95.0,-266.0,-800.0,-540.0,-46.0,0.0,0.0,0.0
19:45:46.032000,2.0,-98.0,-319.0,-807.0,-614.0,-63.0,0.0,0.0,0.0
19:45:46.037000,33.0,-89.0,-247.0,-807.0,-614.0,-63.0,0.0,0.0,0.0
19:45:46.041000,37.0,-84.0,-221.0,-841.0,-595.0,-53.0,0.0,0.0,0.0
19:45:46.046000,14.0,-98.0,-337.0,-841.0,-595.0,-53.0,0.0,0.0,0.0
19:45:46.051000,-21.0,-94.0,-435.0,-858.0,-553.0,-54.0,0.0,0.0,0.0
19:45:46.055000,-46.0,-78.0,-396.0,-858.0,-553.0,-54.0,0.0,0.0,0.0
19:45:46.060000,-44.0,-75.0,-385.0,-839.0,-569.0,-59.0,0.0,0.0,0.0
19:45:46.065000,-21.0,-88.0,-371.0,-839.0,-569.0,-59.0,0.0,0.0,0.0
19:45:46.069000,-44.0,-94.0,-434.0,-874.0,-520.0,-43.0,0.0,0.0,0.0
19:45:46.074000,-114.0,-79.0,-437.0,-874.0,-520.0,-43.0,0.0,0.0,0.0
19:45:46.079000,-131.0,-66.0,-413.0,-874.0,-520.0,-43.0,0.0,0.0,0.0
19:45:46.084000,-140.0,-57.0,-401.0,-903.0,-518.0,-50.0,0.0,0.0,0.0
19:45:46.088000,-98.0,-62.0,-338.0,-903.0,-518.0,-50.0,0.0,0.0,0.0
19:45:46.093000,-11.0,-100.0,-175.0,-878.0,-566.0,-69.0,0.0,0.0,0.0
19:45:46.098000,9.0,-88.0,-143.0,-878.0,-566.0,-69.0,0.0,0.0,0.0
19:45:46.102000,21.0,-99.0,-429.0,-824.0,-446.0,-55.0,0.0,0.0,0.0
19:45:46.107000,32.0,-90.0,-764.0,-824.0,-446.0,-55.0,0.0,0.0,0.0
19:45:46.112000,18.0,-96.0,-617.0,-833.0,-425.0,-38.0,0.0,0.0,0.0
19:45:46.116000,32.0,-86.0,-340.0,-833.0,-425.0,-38.0,0.0,0.0,0.0
19:45:46.121000,22.0,-102.0,-250.0,-862.0,-622.0,-38.0,0.0,0.0,0.0
19:45:46.126000,22.0,-102.0,-250.0,-862.0,-622.0,-38.0,0.0,0.0,0.0
19:45:46.131000,-60.0,-134.0,-240.0,-889.0,-556.0,-29.0,0.0,0.0,0.0
19:45:46.135000,-38.0,-115.0,-229.0,-889.0,-556.0,-29.0,0.0,0.0,0.0
19:45:46.140000,5.0,-77.0,-263.0,-911.0,-424.0,-34.0,0.0,0.0,0.0
19:45:46.145000,63.0,-62.0,-307.0,-911.0,-424.0,-34.0,0.0,0.0,0.0
19:45:46.149000,65.0,-88.0,-320.0,-854.0,-416.0,-11.0,0.0,0.0,0.0
19:45:46.154000,7.0,-100.0,-478.0,-854.0,-416.0,-11.0,0.0,0.0,0.0
19:45:46.159000,63.0,-42.0,-637.0,-877.0,-418.0,9.0,0.0,0.0,0.0
19:45:46.163000,21.0,-32.0,-518.0,-877.0,-418.0,9.0,0.0,0.0,0.0
19:45:46.168000,1.0,-15.0,-326.0,-960.0,-544.0,-4.0,0.0,0.0,0.0
19:45:46.173000,9.0,-32.0,-343.0,-960.0,-544.0,-4.0,0.0,0.0,0.0
19:45:46.178000,-34.0,-10.0,-292.0,-845.0,-499.0,17.0,0.0,0.0,0.0
19:45:46.182000,-37.0,-2.0,-80.0,-845.0,-499.0,17.0,0.0,0.0,0.0
19:45:46.187000,3.0,-3.0,-260.0,-845.0,-499.0,17.0,0.0,0.0,0.0
19:45:46.192000,35.0,-20.0,-520.0,-907.0,-342.0,28.0,0.0,0.0,0.0
19:45:46.196000,41.0,11.0,-366.0,-907.0,-342.0,28.0,0.0,0.0,0.0
19:45:46.200000,108.0,11.0,-245.0,-993.0,-463.0,15.0,0.0,0.0,0.0
19:45:46.206000,107.0,0.0,-349.0,-993.0,-463.0,15.0,0.0,0.0,0.0
19:45:46.210000,74.0,4.0,-409.0,-897.0,-449.0,25.0,0.0,0.0,0.0
19:45:46.215000,43.0,16.0,-408.0,-897.0,-449.0,25.0,0.0,0.0,0.0
19:45:46.220000,56.0,25.0,-553.0,-900.0,-275.0,42.0,0.0,0.0,0.0
19:45:46.225000,50.0,48.0,-541.0,-900.0,-275.0,42.0,0.0,0.0,0.0
19:45:46.229000,45.0,48.0,-378.0,-863.0,-320.0,42.0,0.0,0.0,0.0
19:45:46.234000,45.0,48.0,-378.0,-863.0,-320.0,42.0,0.0,0.0,0.0
19:45:46.239000,40.0,54.0,-258.0,-876.0,-371.0,43.0,0.0,0.0,0.0
19:45:46.243000,48.0,57.0,-142.0,-876.0,-371.0,43.0,0.0,0.0,0.0
19:45:46.248000,46.0,65.0,-105.0,-962.0,-369.0,34.0,0.0,0.0,0.0
19:45:46.253000,37.0,72.0,-182.0,-962.0,-369.0,34.0,0.0,0.0,0.0
19:45:46.257000,15.0,79.0,-274.0,-947.0,-305.0,28.0,0.0,0.0,0.0
19:45:46.262000,-11.0,84.0,-335.0,-947.0,-305.0,28.0,0.0,0.0,0.0
19:45:46.267000,-20.0,74.0,-380.0,-880.0,-285.0,21.0,0.0,0.0,0.0
19:45:46.272000,-2.0,76.0,-373.0,-880.0,-285.0,21.0,0.0,0.0,0.0
19:45:46.276000,0.0,84.0,-329.0,-870.0,-319.0,5.0,0.0,0.0,0.0
19:45:46.281000,0.0,87.0,-279.0,-870.0,-319.0,5.0,0.0,0.0,0.0
19:45:46.286000,-7.0,87.0,-235.0,-903.0,-279.0,-1.0,0.0,0.0,0.0
19:45:46.290000,-24.0,90.0,-237.0,-903.0,-279.0,-1.0,0.0,0.0,0.0
19:45:46.295000,-30.0,95.0,-235.0,-903.0,-310.0,-1.0,0.0,0.0,0.0
19:45:46.300000,-27.0,93.0,-154.0,-916.0,-286.0,-1.0,0.0,0.0,0.0
19:45:46.304000,-34.0,98.0,-62.0,-916.0,-286.0,-1.0,0.0,0.0,0.0
19:45:46.309000,-37.0,105.0,-30.0,-913.0,-315.0,-3.0,0.0,0.0,0.0
19:45:46.314000,-43.0,109.0,-59.0,-913.0,-315.0,-3.0,0.0,0.0,0.0
19:45:46.318000,-32.0,111.0,-115.0,-920.0,-284.0,0.0,0.0,0.0,0.0
19:45:46.323000,-24.0,107.0,-107.0,-920.0,-284.0,0.0,0.0,0.0,0.0
19:45:46.328000,-28.0,111.0,-51.0,-888.0,-324.0,0.0,0.0,0.0,0.0
19:45:46.333000,-24.0,118.0,-72.0,-888.0,-324.0,0.0,0.0,0.0,0.0
19:45:46.337000,-28.0,125.0,-126.0,-873.0,-326.0,-7.0,0.0,0.0,0.0
19:45:46.342000,-28.0,125.0,-126.0,-873.0,-326.0,-7.0,0.0,0.0,0.0
19:45:46.347000,-29.0,130.0,-128.0,-894.0,-261.0,-18.0,0.0,0.0,0.0
19:45:46.351000,-37.0,130.0,-87.0,-894.0,-261.0,-18.0,0.0,0.0,0.0
19:45:46.356000,-54.0,138.0,-84.0,-916.0,-252.0,-26.0,0.0,0.0,0.0
19:45:46.361000,-56.0,145.0,-97.0,-916.0,-252.0,-26.0,0.0,0.0,0.0
19:45:46.366000,-36.0,144.0,-93.0,-934.0,-283.0,-33.0,0.0,0.0,0.0
19:45:46.370000,-26.0,144.0,-58.0,-934.0,-283.0,-33.0,0.0,0.0,0.0
19:45:46.375000,-27.0,147.0,-14.0,-913.0,-336.0,-38.0,0.0,0.0,0.0
19:45:46.389000,-52.0,155.0,-80.0,-917.0,-341.0,-43.0,0.0,0.0,0.0
19:45:46.394000,-53.0,147.0,-123.0,-923.0,-342.0,-55.0,0.0,0.0,0.0
19:45:46.398000,-42.0,143.0,-128.0,-923.0,-342.0,-55.0,0.0,0.0,0.0
19:45:46.403000,-37.0,137.0,-56.0,-916.0,-381.0,-63.0,0.0,0.0,0.0
19:45:46.408000,-47.0,133.0,-33.0,-916.0,-381.0,-63.0,0.0,0.0,0.0
19:45:46.413000,-49.0,132.0,-91.0,-916.0,-381.0,-63.0,0.0,0.0,0.0
19:45:46.417000,-49.0,127.0,-156.0,-952.0,-369.0,-70.0,0.0,0.0,0.0
19:45:46.422000,-51.0,128.0,-144.0,-952.0,-369.0,-70.0,0.0,0.0,0.0
19:45:46.427000,-42.0,121.0,-81.0,-935.0,-355.0,-75.0,0.0,0.0,0.0
19:45:46.431000,-19.0,117.0,-98.0,-935.0,-355.0,-75.0,0.0,0.0,0.0
19:45:46.436000,-19.0,114.0,-171.0,-942.0,-366.0,-77.0,0.0,0.0,0.0
19:45:46.441000,-32.0,123.0,-198.0,-942.0,-366.0,-77.0,0.0,0.0,0.0
19:45:46.445000,-51.0,130.0,-208.0,-976.0,-322.0,-74.0,0.0,0.0,0.0
19:45:46.450000,-74.0,139.0,-205.0,-976.0,-322.0,-74.0,0.0,0.0,0.0
19:45:46.455000,-74.0,139.0,-205.0,-947.0,-294.0,-70.0,0.0,0.0,0.0
19:45:46.460000,-64.0,144.0,-240.0,-947.0,-294.0,-70.0,0.0,0.0,0.0
19:45:46.464000,-59.0,140.0,-240.0,-970.0,-302.0,-69.0,0.0,0.0,0.0
19:45:46.469000,-95.0,143.0,-263.0,-970.0,-302.0,-69.0,0.0,0.0,0.0
19:45:46.474000,-128.0,163.0,-308.0,-1042.0,-321.0,-71.0,0.0,0.0,0.0
19:45:46.478000,-128.0,175.0,-332.0,-1042.0,-321.0,-71.0,0.0,0.0,0.0
19:45:46.483000,-131.0,187.0,-325.0,-1110.0,-373.0,-76.0,0.0,0.0,0.0
19:45:46.488000,-136.0,200.0,-290.0,-1110.0,-373.0,-76.0,0.0,0.0,0.0
19:45:46.492000,-114.0,213.0,-277.0,-1090.0,-401.0,-69.0,0.0,0.0,0.0
19:45:46.497000,-118.0,224.0,-315.0,-1090.0,-401.0,-69.0,0.0,0.0,0.0
19:45:46.502000,-120.0,233.0,-339.0,-1050.0,-388.0,-57.0,0.0,0.0,0.0
19:45:46.507000,-116.0,235.0,-348.0,-1050.0,-388.0,-57.0,0.0,0.0,0.0
19:45:46.511000,-104.0,240.0,-373.0,-1054.0,-385.0,-56.0,0.0,0.0,0.0
19:45:46.516000,-86.0,242.0,-427.0,-1054.0,-385.0,-56.0,0.0,0.0,0.0
19:45:46.521000,-61.0,245.0,-463.0,-1054.0,-385.0,-56.0,0.0,0.0,0.0
19:45:46.525000,-39.0,244.0,-482.0,-1029.0,-380.0,-73.0,0.0,0.0,0.0
19:45:46.530000,-29.0,245.0,-466.0,-1029.0,-380.0,-73.0,0.0,0.0,0.0
19:45:46.535000,-24.0,241.0,-452.0,-1035.0,-361.0,-100.0,0.0,0.0,0.0
19:45:46.539000,-25.0,242.0,-499.0,-1035.0,-361.0,-100.0,0.0,0.0,0.0
19:45:46.544000,-23.0,242.0,-577.0,-1094.0,-318.0,-117.0,0.0,0.0,0.0
19:45:46.549000,1.0,240.0,-641.0,-1094.0,-318.0,-117.0,0.0,0.0,0.0
19:45:46.554000,4.0,240.0,-652.0,-1085.0,-294.0,-120.0,0.0,0.0,0.0
19:45:46.558000,11.0,246.0,-641.0,-1085.0,-294.0,-120.0,0.0,0.0,0.0
19:45:46.563000,11.0,246.0,-641.0,-1031.0,-288.0,-116.0,0.0,0.0,0.0
19:45:46.568000,12.0,256.0,-682.0,-1031.0,-288.0,-116.0,0.0,0.0,0.0
19:45:46.572000,0.0,266.0,-702.0,-1038.0,-272.0,-117.0,0.0,0.0,0.0
19:45:46.577000,2.0,267.0,-686.0,-1038.0,-272.0,-117.0,0.0,0.0,0.0
19:45:46.582000,-9.0,278.0,-697.0,-1094.0,-278.0,-127.0,0.0,0.0,0.0
19:45:46.586000,-4.0,285.0,-716.0,-1094.0,-278.0,-127.0,0.0,0.0,0.0
19:45:46.591000,0.0,289.0,-741.0,-1098.0,-318.0,-130.0,0.0,0.0,0.0
19:45:46.596000,19.0,290.0,-758.0,-1098.0,-318.0,-130.0,0.0,0.0,0.0
19:45:46.601000,32.0,291.0,-763.0,-1042.0,-320.0,-132.0,0.0,0.0,0.0
19:45:46.605000,28.0,300.0,-763.0,-1042.0,-320.0,-132.0,0.0,0.0,0.0
19:45:46.610000,32.0,310.0,-772.0,-1019.0,-252.0,-132.0,0.0,0.0,0.0
19:45:46.615000,29.0,312.0,-800.0,-1019.0,-252.0,-132.0,0.0,0.0,0.0
19:45:46.619000,29.0,316.0,-805.0,-1015.0,-249.0,-138.0,0.0,0.0,0.0
19:45:46.624000,46.0,317.0,-791.0,-1015.0,-249.0,-138.0,0.0,0.0,0.0
19:45:46.629000,54.0,309.0,-794.0,-1015.0,-249.0,-138.0,0.0,0.0,0.0
19:45:46.633000,67.0,301.0,-808.0,-988.0,-274.0,-149.0,0.0,0.0,0.0
19:45:46.638000,69.0,291.0,-833.0,-988.0,-274.0,-149.0,0.0,0.0,0.0
19:45:46.643000,72.0,282.0,-829.0,-980.0,-223.0,-162.0,0.0,0.0,0.0
19:45:46.648000,77.0,272.0,-827.0,-980.0,-223.0,-162.0,0.0,0.0,0.0
19:45:46.652000,83.0,259.0,-829.0,-992.0,-177.0,-174.0,0.0,0.0,0.0
19:45:46.657000,98.0,249.0,-820.0,-992.0,-177.0,-174.0,0.0,0.0,0.0
19:45:46.662000,113.0,238.0,-812.0,-979.0,-168.0,-183.0,0.0,0.0,0.0
19:45:46.666000,121.0,226.0,-815.0,-979.0,-168.0,-183.0,0.0,0.0,0.0
19:45:46.671000,121.0,226.0,-815.0,-978.0,-133.0,-193.0,0.0,0.0,0.0
19:45:46.676000,127.0,217.0,-809.0,-978.0,-133.0,-193.0,0.0,0.0,0.0
19:45:46.680000,130.0,207.0,-795.0,-995.0,-93.0,-198.0,0.0,0.0,0.0
19:45:46.685000,136.0,194.0,-793.0,-995.0,-93.0,-198.0,0.0,0.0,0.0
19:45:46.690000,142.0,179.0,-788.0,-992.0,-85.0,-206.0,0.0,0.0,0.0
19:45:46.695000,142.0,165.0,-777.0,-992.0,-85.0,-206.0,0.0,0.0,0.0
19:45:46.699000,137.0,152.0,-764.0,-989.0,-67.0,-208.0,0.0,0.0,0.0
19:45:46.704000,132.0,141.0,-759.0,-989.0,-67.0,-208.0,0.0,0.0,0.0
19:45:46.709000,122.0,131.0,-750.0,-998.0,-49.0,-206.0,0.0,0.0,0.0
19:45:46.713000,117.0,120.0,-734.0,-998.0,-49.0,-206.0,0.0,0.0,0.0
19:45:46.718000,117.0,111.0,-732.0,-979.0,-45.0,-202.0,0.0,0.0,0.0
19:45:46.723000,114.0,105.0,-744.0,-979.0,-45.0,-202.0,0.0,0.0,0.0
19:45:46.727000,109.0,102.0,-754.0,-959.0,-29.0,-204.0,0.0,0.0,0.0
19:45:46.732000,102.0,102.0,-753.0,-959.0,-29.0,-204.0,0.0,0.0,0.0
19:45:46.737000,95.0,102.0,-744.0,-972.0,-18.0,-208.0,0.0,0.0,0.0
19:45:46.742000,90.0,102.0,-733.0,-972.0,-18.0,-208.0,0.0,0.0,0.0
19:45:46.746000,81.0,98.0,-730.0,-972.0,-18.0,-208.0,0.0,0.0,0.0
19:45:46.751000,69.0,93.0,-725.0,-994.0,0.0,-209.0,0.0,0.0,0.0
19:45:46.756000,58.0,92.0,-722.0,-994.0,0.0,-209.0,0.0,0.0,0.0
19:45:46.760000,50.0,91.0,-730.0,-990.0,41.0,-208.0,0.0,0.0,0.0
19:45:46.765000,44.0,89.0,-740.0,-990.0,41.0,-208.0,0.0,0.0,0.0
19:45:46.770000,32.0,90.0,-741.0,-990.0,73.0,-208.0,0.0,0.0,0.0
19:45:46.774000,15.0,91.0,-727.0,-990.0,73.0,-208.0,0.0,0.0,0.0
19:45:46.778000,15.0,91.0,-727.0,-1019.0,97.0,-206.0,0.0,0.0,0.0
19:45:46.784000,-9.0,98.0,-709.0,-1019.0,97.0,-206.0,0.0,0.0,0.0
19:45:46.789000,-34.0,106.0,-701.0,-1061.0,111.0,-207.0,0.0,0.0,0.0
19:45:46.793000,-54.0,114.0,-694.0,-1061.0,111.0,-207.0,0.0,0.0,0.0
19:45:46.798000,-66.0,119.0,-687.0,-1082.0,114.0,-213.0,0.0,0.0,0.0
19:45:46.802000,-78.0,126.0,-687.0,-1082.0,114.0,-213.0,0.0,0.0,0.0
19:45:46.807000,-86.0,127.0,-703.0,-1072.0,140.0,-207.0,0.0,0.0,0.0
19:45:46.812000,-95.0,131.0,-725.0,-1072.0,140.0,-207.0,0.0,0.0,0.0
19:45:46.817000,-109.0,135.0,-718.0,-1057.0,157.0,-191.0,0.0,0.0,0.0
19:45:46.821000,-120.0,139.0,-693.0,-1057.0,157.0,-191.0,0.0,0.0,0.0
19:45:46.826000,-116.0,143.0,-707.0,-988.0,143.0,-160.0,0.0,0.0,0.0
19:45:46.831000,-109.0,144.0,-746.0,-988.0,143.0,-160.0,0.0,0.0,0.0
19:45:46.835000,-91.0,147.0,-745.0,-944.0,150.0,-140.0,0.0,0.0,0.0
19:45:46.840000,-70.0,163.0,-746.0,-944.0,150.0,-140.0,0.0,0.0,0.0
19:45:46.845000,-46.0,174.0,-777.0,-944.0,150.0,-140.0,0.0,0.0,0.0
19:45:46.850000,-49.0,184.0,-789.0,-993.0,198.0,-151.0,0.0,0.0,0.0
19:45:46.854000,-60.0,206.0,-809.0,-914.0,259.0,-183.0,0.0,0.0,0.0
19:45:46.859000,-66.0,212.0,-761.0,-914.0,259.0,-183.0,0.0,0.0,0.0
19:45:46.864000,-91.0,214.0,-662.0,-914.0,259.0,-183.0,0.0,0.0,0.0
19:45:46.868000,-134.0,242.0,-658.0,-955.0,322.0,-215.0,0.0,0.0,0.0
19:45:46.873000,-113.0,250.0,-735.0,-955.0,322.0,-215.0,0.0,0.0,0.0
19:45:46.878000,-98.0,234.0,-733.0,-944.0,312.0,-261.0,0.0,0.0,0.0
19:45:46.882000,-103.0,222.0,-693.0,-944.0,312.0,-261.0,0.0,0.0,0.0
19:45:46.887000,-109.0,223.0,-648.0,-990.0,324.0,-306.0,0.0,0.0,0.0
19:45:46.892000,-109.0,223.0,-648.0,-990.0,324.0,-306.0,0.0,0.0,0.0
19:45:46.897000,-92.0,214.0,-590.0,-988.0,315.0,-343.0,0.0,0.0,0.0
19:45:46.901000,-75.0,180.0,-536.0,-988.0,315.0,-343.0,0.0,0.0,0.0
19:45:46.906000,-83.0,153.0,-612.0,-879.0,310.0,-393.0,0.0,0.0,0.0
19:45:46.910000,-75.0,130.0,-638.0,-879.0,310.0,-393.0,0.0,0.0,0.0
19:45:46.915000,-52.0,103.0,-524.0,-1000.0,301.0,-432.0,0.0,0.0,0.0
19:45:46.920000,-32.0,61.0,-437.0,-1000.0,301.0,-432.0,0.0,0.0,0.0
19:45:46.925000,-53.0,28.0,-409.0,-1080.0,173.0,-443.0,0.0,0.0,0.0
19:45:46.929000,-4.0,-2.0,-352.0,-1080.0,173.0,-443.0,0.0,0.0,0.0
19:45:46.934000,35.0,-54.0,-355.0,-1134.0,102.0,-410.0,0.0,0.0,0.0
19:45:46.939000,38.0,-93.0,-352.0,-1134.0,102.0,-410.0,0.0,0.0,0.0
19:45:46.944000,85.0,-113.0,-268.0,-1087.0,81.0,-378.0,0.0,0.0,0.0
19:45:46.948000,125.0,-151.0,-281.0,-1087.0,81.0,-378.0,0.0,0.0,0.0
19:45:46.953000,133.0,-173.0,-353.0,-1087.0,81.0,-378.0,0.0,0.0,0.0
19:45:46.958000,163.0,-202.0,-344.0,-1076.0,121.0,-342.0,0.0,0.0,0.0
19:45:46.962000,179.0,-220.0,-325.0,-1076.0,121.0,-342.0,0.0,0.0,0.0
19:45:46.967000,188.0,-240.0,-317.0,-1056.0,190.0,-295.0,0.0,0.0,0.0
19:45:46.972000,195.0,-253.0,-330.0,-1056.0,190.0,-295.0,0.0,0.0,0.0
19:45:46.976000,177.0,-265.0,-351.0,-1000.0,259.0,-278.0,0.0,0.0,0.0
19:45:46.981000,156.0,-268.0,-320.0,-1000.0,259.0,-278.0,0.0,0.0,0.0
19:45:46.986000,154.0,-262.0,-304.0,-848.0,286.0,-253.0,0.0,0.0,0.0
19:45:46.991000,124.0,-254.0,-359.0,-848.0,286.0,-253.0,0.0,0.0,0.0
19:45:46.995000,90.0,-238.0,-360.0,-783.0,365.0,-222.0,0.0,0.0,0.0
19:45:47.000000,90.0,-238.0,-360.0,-783.0,365.0,-222.0,0.0,0.0,0.0
19:45:47.005000,48.0,-219.0,-308.0,-899.0,420.0,-210.0,0.0,0.0,0.0
19:45:47.009000,14.0,-197.0,-275.0,-899.0,420.0,-210.0,0.0,0.0,0.0
19:45:47.014000,-5.0,-179.0,-286.0,-960.0,358.0,-213.0,0.0,0.0,0.0
19:45:47.019000,-21.0,-158.0,-300.0,-960.0,358.0,-213.0,0.0,0.0,0.0
19:45:47.023000,-44.0,-136.0,-285.0,-970.0,342.0,-207.0,0.0,0.0,0.0
19:45:47.028000,-58.0,-121.0,-252.0,-970.0,342.0,-207.0,0.0,0.0,0.0
19:45:47.033000,-74.0,-109.0,-219.0,-948.0,363.0,-186.0,0.0,0.0,0.0
19:45:47.038000,-89.0,-94.0,-184.0,-948.0,363.0,-186.0,0.0,0.0,0.0
19:45:47.042000,-102.0,-84.0,-154.0,-931.0,372.0,-170.0,0.0,0.0,0.0
19:45:47.047000,-113.0,-75.0,-127.0,-931.0,372.0,-170.0,0.0,0.0,0.0
19:45:47.052000,-119.0,-68.0,-99.0,-925.0,361.0,-162.0,0.0,0.0,0.0
19:45:47.056000,-116.0,-65.0,-67.0,-925.0,361.0,-162.0,0.0,0.0,0.0
19:45:47.061000,-116.0,-65.0,-32.0,-925.0,361.0,-162.0,0.0,0.0,0.0
19:45:47.066000,-111.0,-66.0,1.0,-911.0,343.0,-157.0,0.0,0.0,0.0
19:45:47.070000,-100.0,-69.0,20.0,-911.0,343.0,-157.0,0.0,0.0,0.0
19:45:47.075000,-88.0,-74.0,25.0,-878.0,332.0,-158.0,0.0,0.0,0.0
19:45:47.080000,-79.0,-82.0,25.0,-878.0,332.0,-158.0,0.0,0.0,0.0
19:45:47.085000,-75.0,-88.0,30.0,-848.0,350.0,-154.0,0.0,0.0,0.0
19:45:47.089000,-70.0,-96.0,40.0,-848.0,350.0,-154.0,0.0,0.0,0.0
19:45:47.094000,-58.0,-109.0,56.0,-831.0,362.0,-146.0,0.0,0.0,0.0
19:45:47.099000,-42.0,-123.0,71.0,-831.0,362.0,-146.0,0.0,0.0,0.0
19:45:47.103000,-24.0,-137.0,80.0,-849.0,349.0,-143.0,0.0,0.0,0.0
19:45:47.108000,-24.0,-137.0,80.0,-849.0,349.0,-143.0,0.0,0.0,0.0
19:45:47.113000,-2.0,-149.0,86.0,-891.0,347.0,-142.0,0.0,0.0,0.0
19:45:47.117000,20.0,-161.0,93.0,-891.0,347.0,-142.0,0.0,0.0,0.0
19:45:47.122000,39.0,-170.0,113.0,-919.0,351.0,-138.0,0.0,0.0,0.0
19:45:47.127000,57.0,-180.0,142.0,-919.0,351.0,-138.0,0.0,0.0,0.0
19:45:47.132000,74.0,-188.0,175.0,-896.0,334.0,-128.0,0.0,0.0,0.0
19:45:47.136000,85.0,-193.0,209.0,-896.0,334.0,-128.0,0.0,0.0,0.0
19:45:47.141000,95.0,-199.0,248.0,-817.0,304.0,-115.0,0.0,0.0,0.0
19:45:47.146000,98.0,-200.0,302.0,-817.0,304.0,-115.0,0.0,0.0,0.0
19:45:47.150000,97.0,-198.0,352.0,-714.0,282.0,-106.0,0.0,0.0,0.0
19:45:47.155000,91.0,-193.0,397.0,-714.0,282.0,-106.0,0.0,0.0,0.0
19:45:47.160000,76.0,-183.0,450.0,-639.0,281.0,-103.0,0.0,0.0,0.0
19:45:47.164000,57.0,-168.0,501.0,-639.0,281.0,-103.0,0.0,0.0,0.0
19:45:47.169000,28.0,-144.0,545.0,-639.0,299.0,-107.0,0.0,0.0,0.0
19:45:47.174000,-9.0,-112.0,578.0,-616.0,299.0,-107.0,0.0,0.0,0.0
19:45:47.179000,-49.0,-74.0,608.0,-616.0,299.0,-107.0,0.0,0.0,0.0
19:45:47.183000,-98.0,-34.0,616.0,-629.0,327.0,-121.0,0.0,0.0,0.0
19:45:47.188000,-144.0,7.0,598.0,-629.0,327.0,-121.0,0.0,0.0,0.0
19:45:47.193000,-191.0,45.0,556.0,-656.0,353.0,-140.0,0.0,0.0,0.0
19:45:47.197000,-234.0,80.0,508.0,-656.0,353.0,-140.0,0.0,0.0,0.0
19:45:47.202000,-266.0,112.0,452.0,-640.0,346.0,-155.0,0.0,0.0,0.0
19:45:47.207000,-291.0,142.0,386.0,-640.0,346.0,-155.0,0.0,0.0,0.0
19:45:47.211000,-308.0,170.0,315.0,-567.0,302.0,-174.0,0.0,0.0,0.0
19:45:47.216000,-308.0,170.0,315.0,-567.0,302.0,-174.0,0.0,0.0,0.0
19:45:47.221000,-319.0,194.0,246.0,-526.0,262.0,-200.0,0.0,0.0,0.0
19:45:47.226000,-323.0,214.0,184.0,-526.0,262.0,-200.0,0.0,0.0,0.0
19:45:47.230000,-320.0,226.0,137.0,-547.0,223.0,-222.0,0.0,0.0,0.0
19:45:47.235000,-310.0,232.0,107.0,-547.0,223.0,-222.0,0.0,0.0,0.0
19:45:47.240000,-292.0,231.0,96.0,-577.0,178.0,-237.0,0.0,0.0,0.0
19:45:47.244000,-272.0,226.0,107.0,-577.0,178.0,-237.0,0.0,0.0,0.0
19:45:47.249000,-250.0,214.0,140.0,-579.0,144.0,-243.0,0.0,0.0,0.0
19:45:47.254000,-228.0,196.0,192.0,-579.0,144.0,-243.0,0.0,0.0,0.0
19:45:47.258000,-203.0,176.0,253.0,-572.0,128.0,-242.0,0.0,0.0,0.0
19:45:47.263000,-178.0,151.0,314.0,-572.0,128.0,-242.0,0.0,0.0,0.0
19:45:47.268000,-153.0,126.0,378.0,-575.0,115.0,-237.0,0.0,0.0,0.0
19:45:47.273000,-125.0,101.0,444.0,-575.0,115.0,-237.0,0.0,0.0,0.0
19:45:47.277000,-96.0,72.0,507.0,-575.0,91.0,-229.0,0.0,0.0,0.0
19:45:47.282000,-66.0,44.0,560.0,-575.0,91.0,-229.0,0.0,0.0,0.0
19:45:47.287000,-39.0,16.0,607.0,-575.0,91.0,-229.0,0.0,0.0,0.0
19:45:47.291000,-16.0,-7.0,646.0,-559.0,67.0,-217.0,0.0,0.0,0.0
19:45:47.296000,1.0,-25.0,670.0,-559.0,67.0,-217.0,0.0,0.0,0.0
19:45:47.301000,12.0,-39.0,682.0,-541.0,60.0,-202.0,0.0,0.0,0.0
19:45:47.305000,17.0,-49.0,690.0,-541.0,60.0,-202.0,0.0,0.0,0.0
19:45:47.310000,17.0,-56.0,689.0,-537.0,55.0,-186.0,0.0,0.0,0.0
19:45:47.315000,14.0,-58.0,679.0,-537.0,55.0,-186.0,0.0,0.0,0.0
19:45:47.320000,10.0,-55.0,662.0,-536.0,39.0,-167.0,0.0,0.0,0.0
19:45:47.324000,6.0,-51.0,637.0,-536.0,39.0,-167.0,0.0,0.0,0.0
19:45:47.329000,6.0,-51.0,637.0,-529.0,19.0,-151.0,0.0,0.0,0.0
19:45:47.334000,1.0,-42.0,604.0,-529.0,19.0,-151.0,0.0,0.0,0.0
19:45:47.338000,-5.0,-30.0,567.0,-532.0,9.0,-137.0,0.0,0.0,0.0
19:45:47.343000,-10.0,-13.0,522.0,-532.0,9.0,-137.0,0.0,0.0,0.0
19:45:47.348000,-15.0,7.0,478.0,-555.0,8.0,-130.0,0.0,0.0,0.0
19:45:47.352000,-23.0,29.0,432.0,-555.0,8.0,-130.0,0.0,0.0,0.0
19:45:47.357000,-32.0,52.0,382.0,-590.0,19.0,-126.0,0.0,0.0,0.0
19:45:47.362000,-41.0,74.0,338.0,-590.0,19.0,-126.0,0.0,0.0,0.0
19:45:47.367000,-50.0,94.0,305.0,-601.0,22.0,-121.0,0.0,0.0,0.0
19:45:47.371000,-58.0,112.0,280.0,-601.0,22.0,-121.0,0.0,0.0,0.0
19:45:47.376000,-62.0,126.0,256.0,-579.0,21.0,-118.0,0.0,0.0,0.0
19:45:47.381000,-63.0,139.0,227.0,-579.0,21.0,-118.0,0.0,0.0,0.0
19:45:47.385000,-64.0,147.0,210.0,-554.0,29.0,-120.0,0.0,0.0,0.0
19:45:47.390000,-60.0,149.0,203.0,-554.0,29.0,-120.0,0.0,0.0,0.0
19:45:47.394000,-52.0,144.0,198.0,-534.0,31.0,-124.0,0.0,0.0,0.0
19:45:47.399000,-39.0,134.0,190.0,-534.0,31.0,-124.0,0.0,0.0,0.0
19:45:47.404000,-24.0,119.0,182.0,-534.0,31.0,-124.0,0.0,0.0,0.0
19:45:47.409000,-6.0,98.0,182.0,-521.0,33.0,-130.0,0.0,0.0,0.0
19:45:47.414000,16.0,73.0,198.0,-521.0,33.0,-130.0,0.0,0.0,0.0
19:45:47.418000,39.0,45.0,221.0,-496.0,19.0,-135.0,0.0,0.0,0.0
19:45:47.423000,60.0,17.0,242.0,-496.0,19.0,-135.0,0.0,0.0,0.0
19:45:47.428000,78.0,-6.0,259.0,-474.0,5.0,-141.0,0.0,0.0,0.0
19:45:47.432000,88.0,-29.0,273.0,-474.0,5.0,-141.0,0.0,0.0,0.0
19:45:47.437000,88.0,-29.0,273.0,-486.0,27.0,-146.0,0.0,0.0,0.0
19:45:47.442000,91.0,-50.0,285.0,-486.0,27.0,-146.0,0.0,0.0,0.0
19:45:47.446000,93.0,-68.0,293.0,-515.0,60.0,-150.0,0.0,0.0,0.0
19:45:47.451000,91.0,-83.0,302.0,-515.0,60.0,-150.0,0.0,0.0,0.0
19:45:47.456000,87.0,-93.0,310.0,-542.0,72.0,-155.0,0.0,0.0,0.0
19:45:47.461000,81.0,-102.0,315.0,-542.0,72.0,-155.0,0.0,0.0,0.0
19:45:47.465000,74.0,-105.0,319.0,-569.0,65.0,-161.0,0.0,0.0,0.0
19:45:47.470000,70.0,-105.0,322.0,-569.0,65.0,-161.0,0.0,0.0,0.0
19:45:47.475000,65.0,-106.0,322.0,-593.0,50.0,-163.0,0.0,0.0,0.0
19:45:47.479000,61.0,-107.0,319.0,-593.0,50.0,-163.0,0.0,0.0,0.0
19:45:47.484000,61.0,-110.0,317.0,-608.0,29.0,-162.0,0.0,0.0,0.0
19:45:47.489000,65.0,-110.0,316.0,-608.0,29.0,-162.0,0.0,0.0,0.0
19:45:47.493000,72.0,-111.0,317.0,-620.0,-6.0,-163.0,0.0,0.0,0.0
19:45:47.498000,81.0,-109.0,317.0,-620.0,-6.0,-163.0,0.0,0.0,0.0
19:45:47.503000,90.0,-107.0,315.0,-620.0,-6.0,-163.0,0.0,0.0,0.0
19:45:47.508000,94.0,-103.0,310.0,-645.0,-29.0,-166.0,0.0,0.0,0.0
19:45:47.512000,95.0,-97.0,305.0,-645.0,-29.0,-166.0,0.0,0.0,0.0
19:45:47.517000,94.0,-91.0,300.0,-688.0,-21.0,-170.0,0.0,0.0,0.0
19:45:47.522000,91.0,-85.0,297.0,-688.0,-21.0,-170.0,0.0,0.0,0.0
19:45:47.526000,89.0,-79.0,291.0,-722.0,-15.0,-175.0,0.0,0.0,0.0
19:45:47.531000,88.0,-73.0,282.0,-722.0,-15.0,-175.0,0.0,0.0,0.0
19:45:47.536000,87.0,-67.0,268.0,-730.0,-16.0,-176.0,0.0,0.0,0.0
19:45:47.540000,86.0,-62.0,253.0,-730.0,-16.0,-176.0,0.0,0.0,0.0
19:45:47.545000,86.0,-62.0,253.0,-725.0,-8.0,-175.0,0.0,0.0,0.0
19:45:47.550000,85.0,-57.0,235.0,-725.0,-8.0,-175.0,0.0,0.0,0.0
19:45:47.555000,83.0,-52.0,217.0,-720.0,5.0,-173.0,0.0,0.0,0.0
19:45:47.559000,81.0,-51.0,202.0,-720.0,5.0,-173.0,0.0,0.0,0.0
19:45:47.564000,79.0,-51.0,191.0,-714.0,13.0,-167.0,0.0,0.0,0.0
19:45:47.569000,79.0,-54.0,184.0,-714.0,13.0,-167.0,0.0,0.0,0.0
19:45:47.573000,79.0,-58.0,182.0,-697.0,13.0,-162.0,0.0,0.0,0.0
19:45:47.578000,81.0,-61.0,179.0,-697.0,13.0,-162.0,0.0,0.0,0.0
19:45:47.583000,79.0,-65.0,177.0,-689.0,27.0,-158.0,0.0,0.0,0.0
19:45:47.587000,73.0,-69.0,175.0,-689.0,27.0,-158.0,0.0,0.0,0.0
19:45:47.592000,65.0,-73.0,172.0,-693.0,54.0,-155.0,0.0,0.0,0.0
19:45:47.597000,56.0,-76.0,175.0,-693.0,54.0,-155.0,0.0,0.0,0.0
19:45:47.602000,49.0,-78.0,182.0,-694.0,64.0,-158.0,0.0,0.0,0.0
19:45:47.606000,42.0,-77.0,182.0,-694.0,64.0,-158.0,0.0,0.0,0.0
19:45:47.611000,32.0,-74.0,177.0,-719.0,76.0,-168.0,0.0,0.0,0.0
19:45:47.616000,21.0,-72.0,182.0,-719.0,76.0,-168.0,0.0,0.0,0.0
19:45:47.620000,11.0,-70.0,194.0,-719.0,76.0,-168.0,0.0,0.0,0.0
19:45:47.625000,2.0,-69.0,207.0,-765.0,85.0,-177.0,0.0,0.0,0.0
19:45:47.630000,-5.0,-67.0,212.0,-765.0,85.0,-177.0,0.0,0.0,0.0
19:45:47.634000,-15.0,-67.0,212.0,-799.0,81.0,-185.0,0.0,0.0,0.0
19:45:47.639000,-26.0,-67.0,215.0,-799.0,81.0,-185.0,0.0,0.0,0.0
19:45:47.644000,-34.0,-69.0,218.0,-818.0,79.0,-190.0,0.0,0.0,0.0
19:45:47.649000,-39.0,-71.0,216.0,-818.0,79.0,-190.0,0.0,0.0,0.0
19:45:47.653000,-39.0,-71.0,216.0,-831.0,62.0,-192.0,0.0,0.0,0.0
19:45:47.658000,-45.0,-74.0,207.0,-831.0,62.0,-192.0,0.0,0.0,0.0
19:45:47.663000,-49.0,-77.0,196.0,-846.0,39.0,-197.0,0.0,0.0,0.0
19:45:47.667000,-53.0,-79.0,183.0,-846.0,39.0,-197.0,0.0,0.0,0.0
19:45:47.672000,-56.0,-78.0,172.0,-865.0,11.0,-205.0,0.0,0.0,0.0
19:45:47.677000,-57.0,-77.0,164.0,-865.0,11.0,-205.0,0.0,0.0,0.0
19:45:47.681000,-56.0,-75.0,156.0,-891.0,-14.0,-217.0,0.0,0.0,0.0
19:45:47.686000,-58.0,-72.0,147.0,-891.0,-14.0,-217.0,0.0,0.0,0.0
19:45:47.691000,-60.0,-66.0,144.0,-913.0,-14.0,-229.0,0.0,0.0,0.0
19:45:47.696000,-65.0,-60.0,149.0,-913.0,-14.0,-229.0,0.0,0.0,0.0
19:45:47.700000,-68.0,-53.0,160.0,-933.0,2.0,-241.0,0.0,0.0,0.0
19:45:47.705000,-72.0,-49.0,168.0,-933.0,2.0,-241.0,0.0,0.0,0.0
19:45:47.710000,-77.0,-46.0,175.0,-960.0,19.0,-249.0,0.0,0.0,0.0
19:45:47.714000,-79.0,-46.0,180.0,-960.0,19.0,-249.0,0.0,0.0,0.0
19:45:47.719000,-79.0,-49.0,188.0,-960.0,19.0,-249.0,0.0,0.0,0.0
19:45:47.724000,-77.0,-51.0,194.0,-980.0,33.0,-253.0,0.0,0.0,0.0
19:45:47.728000,-74.0,-53.0,203.0,-980.0,33.0,-253.0,0.0,0.0,0.0
19:45:47.733000,-71.0,-55.0,214.0,-987.0,41.0,-261.0,0.0,0.0,0.0
19:45:47.738000,-70.0,-64.0,226.0,-987.0,41.0,-261.0,0.0,0.0,0.0
19:45:47.743000,-64.0,-74.0,247.0,-1007.0,50.0,-264.0,0.0,0.0,0.0
19:45:47.747000,-53.0,-88.0,280.0,-1007.0,50.0,-264.0,0.0,0.0,0.0
19:45:47.752000,-37.0,-98.0,308.0,-1013.0,37.0,-260.0,0.0,0.0,0.0
19:45:47.757000,-23.0,-107.0,329.0,-1013.0,37.0,-260.0,0.0,0.0,0.0
19:45:47.761000,-11.0,-112.0,346.0,-993.0,24.0,-255.0,0.0,0.0,0.0
19:45:47.766000,-11.0,-112.0,346.0,-993.0,24.0,-255.0,0.0,0.0,0.0
19:45:47.771000,-5.0,-115.0,355.0,-982.0,49.0,-259.0,0.0,0.0,0.0
19:45:47.775000,-6.0,-116.0,372.0,-982.0,49.0,-259.0,0.0,0.0,0.0
19:45:47.780000,-11.0,-115.0,382.0,-1010.0,101.0,-267.0,0.0,0.0,0.0
19:45:47.785000,-20.0,-116.0,377.0,-1010.0,101.0,-267.0,0.0,0.0,0.0
19:45:47.790000,-38.0,-123.0,371.0,-1058.0,149.0,-268.0,0.0,0.0,0.0
19:45:47.794000,-51.0,-121.0,380.0,-1058.0,149.0,-268.0,0.0,0.0,0.0
19:45:47.799000,-57.0,-126.0,384.0,-1085.0,145.0,-267.0,0.0,0.0,0.0
19:45:47.804000,-57.0,-142.0,378.0,-1085.0,145.0,-267.0,0.0,0.0,0.0
19:45:47.808000,-51.0,-151.0,372.0,-1091.0,117.0,-267.0,0.0,0.0,0.0
19:45:47.813000,-50.0,-161.0,350.0,-1091.0,117.0,-267.0,0.0,0.0,0.0
19:45:47.818000,-49.0,-166.0,321.0,-1073.0,141.0,-257.0,0.0,0.0,0.0
19:45:47.822000,-44.0,-180.0,308.0,-1073.0,141.0,-257.0,0.0,0.0,0.0
19:45:47.827000,-21.0,-193.0,285.0,-1048.0,188.0,-251.0,0.0,0.0,0.0
19:45:47.832000,-14.0,-207.0,242.0,-1048.0,188.0,-251.0,0.0,0.0,0.0
19:45:47.837000,0.0,-226.0,231.0,-1048.0,188.0,-251.0,0.0,0.0,0.0
19:45:47.841000,16.0,-233.0,249.0,-1039.0,213.0,-246.0,0.0,0.0,0.0
19:45:47.846000,18.0,-252.0,238.0,-1039.0,213.0,-246.0,0.0,0.0,0.0
19:45:47.851000,30.0,-252.0,-28.0,-1119.0,249.0,-222.0,0.0,0.0,0.0
19:45:47.855000,28.0,-234.0,-110.0,-1119.0,249.0,-222.0,0.0,0.0,0.0
19:45:47.860000,14.0,-210.0,333.0,-1215.0,259.0,-201.0,0.0,0.0,0.0
19:45:47.865000,0.0,-198.0,496.0,-1215.0,259.0,-201.0,0.0,0.0,0.0
19:45:47.869000,5.0,-175.0,284.0,-1138.0,351.0,-186.0,0.0,0.0,0.0
19:45:47.874000,5.0,-175.0,284.0,-1138.0,351.0,-186.0,0.0,0.0,0.0
19:45:47.879000,26.0,-149.0,74.0,-1128.0,495.0,-187.0,0.0,0.0,0.0
19:45:47.883000,25.0,-145.0,97.0,-1128.0,495.0,-187.0,0.0,0.0,0.0
19:45:47.888000,35.0,-152.0,184.0,-1317.0,476.0,-192.0,0.0,0.0,0.0
19:45:47.893000,48.0,-151.0,186.0,-1317.0,476.0,-192.0,0.0,0.0,0.0
19:45:47.898000,39.0,-151.0,200.0,-1414.0,436.0,-176.0,0.0,0.0,0.0
19:45:47.902000,22.0,-139.0,221.0,-1414.0,436.0,-176.0,0.0,0.0,0.0
19:45:47.907000,34.0,-137.0,213.0,-1334.0,472.0,-168.0,0.0,0.0,0.0
19:45:47.912000,28.0,-126.0,206.0,-1334.0,472.0,-168.0,0.0,0.0,0.0
19:45:47.916000,21.0,-115.0,256.0,-1257.0,434.0,-168.0,0.0,0.0,0.0
19:45:47.921000,47.0,-127.0,329.0,-1257.0,434.0,-168.0,0.0,0.0,0.0
19:45:47.926000,70.0,-131.0,339.0,-1307.0,370.0,-171.0,0.0,0.0,0.0
19:45:47.931000,79.0,-120.0,332.0,-1307.0,370.0,-171.0,0.0,0.0,0.0
19:45:47.935000,94.0,-99.0,307.0,-1307.0,370.0,-171.0,0.0,0.0,0.0
19:45:47.940000,75.0,-98.0,252.0,-1357.0,363.0,-170.0,0.0,0.0,0.0
19:45:47.945000,109.0,-100.0,173.0,-1427.0,353.0,-171.0,0.0,0.0,0.0
19:45:47.949000,113.0,-78.0,179.0,-1427.0,353.0,-171.0,0.0,0.0,0.0
19:45:47.954000,65.0,-53.0,289.0,-1427.0,353.0,-171.0,0.0,0.0,0.0
19:45:47.959000,25.0,-14.0,360.0,-1395.0,326.0,-162.0,0.0,0.0,0.0
19:45:47.963000,29.0,0.0,245.0,-1395.0,326.0,-162.0,0.0,0.0,0.0
19:45:47.968000,23.0,0.0,142.0,-1366.0,325.0,-159.0,0.0,0.0,0.0
19:45:47.973000,-2.0,9.0,178.0,-1366.0,325.0,-159.0,0.0,0.0,0.0
19:45:47.978000,24.0,16.0,142.0,-1434.0,235.0,-175.0,0.0,0.0,0.0
19:45:47.982000,24.0,16.0,142.0,-1434.0,235.0,-175.0,0.0,0.0,0.0
19:45:47.987000,32.0,19.0,65.0,-1382.0,152.0,-188.0,0.0,0.0,0.0
19:45:47.992000,14.0,30.0,63.0,-1382.0,152.0,-188.0,0.0,0.0,0.0
19:45:47.996000,11.0,38.0,59.0,-1318.0,114.0,-203.0,0.0,0.0,0.0
19:45:48.001000,12.0,39.0,23.0,-1318.0,114.0,-203.0,0.0,0.0,0.0
19:45:48.006000,19.0,28.0,3.0,-1233.0,-8.0,-214.0,0.0,0.0,0.0
19:45:48.010000,28.0,18.0,3.0,-1233.0,-8.0,-214.0,0.0,0.0,0.0
19:45:48.015000,44.0,-4.0,-20.0,-1126.0,-106.0,-217.0,0.0,0.0,0.0
19:45:48.020000,47.0,-27.0,15.0,-1126.0,-106.0,-217.0,0.0,0.0,0.0
19:45:48.025000,42.0,-36.0,47.0,-1044.0,-163.0,-210.0,0.0,0.0,0.0
19:45:48.029000,70.0,-56.0,14.0,-1044.0,-163.0,-210.0,0.0,0.0,0.0
19:45:48.034000,101.0,-92.0,107.0,-933.0,-229.0,-190.0,0.0,0.0,0.0
19:45:48.039000,94.0,-113.0,233.0,-933.0,-229.0,-190.0,0.0,0.0,0.0
19:45:48.043000,82.0,-119.0,228.0,-933.0,-249.0,-169.0,0.0,0.0,0.0
19:45:48.048000,79.0,-140.0,188.0,-892.0,-249.0,-169.0,0.0,0.0,0.0
19:45:48.053000,79.0,-147.0,178.0,-892.0,-249.0,-169.0,0.0,0.0,0.0
19:45:48.057000,81.0,-145.0,121.0,-940.0,-245.0,-146.0,0.0,0.0,0.0
19:45:48.062000,83.0,-155.0,96.0,-940.0,-245.0,-146.0,0.0,0.0,0.0
19:45:48.067000,79.0,-162.0,95.0,-932.0,-276.0,-119.0,0.0,0.0,0.0
19:45:48.072000,90.0,-156.0,21.0,-932.0,-276.0,-119.0,0.0,0.0,0.0
19:45:48.076000,90.0,-165.0,-97.0,-937.0,-279.0,-102.0,0.0,0.0,0.0
19:45:48.081000,88.0,-172.0,-144.0,-937.0,-279.0,-102.0,0.0,0.0,0.0
19:45:48.086000,92.0,-179.0,-130.0,-902.0,-266.0,-84.0,0.0,0.0,0.0
19:45:48.090000,97.0,-179.0,-108.0,-902.0,-266.0,-84.0,0.0,0.0,0.0
19:45:48.095000,97.0,-179.0,-108.0,-873.0,-223.0,-68.0,0.0,0.0,0.0
19:45:48.100000,73.0,-165.0,-142.0,-873.0,-223.0,-68.0,0.0,0.0,0.0
19:45:48.104000,79.0,-160.0,-232.0,-998.0,-112.0,-69.0,0.0,0.0,0.0
19:45:48.109000,87.0,-159.0,-320.0,-998.0,-112.0,-69.0,0.0,0.0,0.0
19:45:48.114000,85.0,-161.0,-382.0,-1126.0,10.0,-63.0,0.0,0.0,0.0
19:45:48.119000,76.0,-142.0,-428.0,-1126.0,10.0,-63.0,0.0,0.0,0.0
19:45:48.123000,46.0,-119.0,-423.0,-1145.0,38.0,-56.0,0.0,0.0,0.0
19:45:48.128000,60.0,-107.0,-382.0,-1145.0,38.0,-56.0,0.0,0.0,0.0
19:45:48.133000,23.0,-91.0,-328.0,-1171.0,19.0,-59.0,0.0,0.0,0.0
19:45:48.137000,7.0,-82.0,-312.0,-1171.0,19.0,-59.0,0.0,0.0,0.0
19:45:48.142000,-25.0,-75.0,-303.0,-1182.0,77.0,-57.0,0.0,0.0,0.0
19:45:48.147000,-72.0,-42.0,-217.0,-1182.0,77.0,-57.0,0.0,0.0,0.0
19:45:48.151000,-44.0,-52.0,-130.0,-1159.0,132.0,-67.0,0.0,0.0,0.0
19:45:48.156000,-88.0,-24.0,-86.0,-1159.0,132.0,-67.0,0.0,0.0,0.0
19:45:48.161000,-129.0,9.0,-112.0,-1159.0,132.0,-67.0,0.0,0.0,0.0
19:45:48.166000,-131.0,27.0,-118.0,-1196.0,115.0,-75.0,0.0,0.0,0.0
19:45:48.170000,-154.0,50.0,-87.0,-1196.0,115.0,-75.0,0.0,0.0,0.0
19:45:48.175000,-141.0,55.0,-42.0,-1212.0,87.0,-76.0,0.0,0.0,0.0
19:45:48.180000,-154.0,55.0,9.0,-1212.0,87.0,-76.0,0.0,0.0,0.0
19:45:48.184000,-177.0,68.0,76.0,-1181.0,57.0,-81.0,0.0,0.0,0.0
19:45:48.189000,-168.0,72.0,109.0,-1181.0,57.0,-81.0,0.0,0.0,0.0
19:45:48.194000,-199.0,78.0,128.0,-1117.0,16.0,-75.0,0.0,0.0,0.0
19:45:48.198000,-191.0,85.0,106.0,-1117.0,16.0,-75.0,0.0,0.0,0.0
19:45:48.203000,-191.0,85.0,106.0,-1062.0,-45.0,-71.0,0.0,0.0,0.0
19:45:48.208000,-177.0,100.0,86.0,-1062.0,-45.0,-71.0,0.0,0.0,0.0
19:45:48.213000,-171.0,109.0,143.0,-1047.0,-135.0,-74.0,0.0,0.0,0.0
19:45:48.217000,-172.0,107.0,204.0,-1047.0,-135.0,-74.0,0.0,0.0,0.0
19:45:48.222000,-172.0,113.0,217.0,-1059.0,-175.0,-83.0,0.0,0.0,0.0
19:45:48.227000,-155.0,112.0,217.0,-1059.0,-175.0,-83.0,0.0,0.0,0.0
19:45:48.231000,-148.0,118.0,193.0,-1048.0,-191.0,-98.0,0.0,0.0,0.0
19:45:48.236000,-137.0,113.0,176.0,-1048.0,-191.0,-98.0,0.0,0.0,0.0
19:45:48.241000,-125.0,101.0,116.0,-997.0,-199.0,-116.0,0.0,0.0,0.0
19:45:48.245000,-126.0,93.0,39.0,-997.0,-199.0,-116.0,0.0,0.0,0.0
19:45:48.250000,-144.0,95.0,2.0,-961.0,-171.0,-134.0,0.0,0.0,0.0
19:45:48.255000,-149.0,84.0,0.0,-961.0,-171.0,-134.0,0.0,0.0,0.0
19:45:48.260000,-154.0,72.0,9.0,-938.0,-153.0,-149.0,0.0,0.0,0.0
19:45:48.264000,-173.0,68.0,7.0,-938.0,-153.0,-149.0,0.0,0.0,0.0
19:45:48.269000,-158.0,52.0,-7.0,-938.0,-153.0,-149.0,0.0,0.0,0.0
19:45:48.274000,-160.0,37.0,-30.0,-952.0,-176.0,-180.0,0.0,0.0,0.0
19:45:48.278000,-167.0,18.0,-67.0,-952.0,-176.0,-180.0,0.0,0.0,0.0
19:45:48.283000,-176.0,-1.0,-88.0,-988.0,-128.0,-197.0,0.0,0.0,0.0
19:45:48.288000,-183.0,-12.0,-52.0,-988.0,-128.0,-197.0,0.0,0.0,0.0
19:45:48.292000,-189.0,-28.0,2.0,-980.0,-103.0,-197.0,0.0,0.0,0.0
19:45:48.297000,-185.0,-53.0,-11.0,-980.0,-103.0,-197.0,0.0,0.0,0.0
19:45:48.302000,-186.0,-79.0,-45.0,-983.0,-132.0,-203.0,0.0,0.0,0.0
19:45:48.307000,-188.0,-103.0,-30.0,-983.0,-132.0,-203.0,0.0,0.0,0.0
19:45:48.311000,-188.0,-103.0,-30.0,-980.0,-130.0,-207.0,0.0,0.0,0.0
19:45:48.316000,-202.0,-131.0,11.0,-980.0,-130.0,-207.0,0.0,0.0,0.0
19:45:48.321000,-210.0,-168.0,37.0,-938.0,-116.0,-207.0,0.0,0.0,0.0
19:45:48.325000,-219.0,-196.0,12.0,-938.0,-116.0,-207.0,0.0,0.0,0.0
19:45:48.330000,-238.0,-227.0,-13.0,-919.0,-75.0,-205.0,0.0,0.0,0.0
19:45:48.335000,-259.0,-265.0,-18.0,-919.0,-75.0,-205.0,0.0,0.0,0.0
19:45:48.339000,-280.0,-305.0,16.0,-888.0,-59.0,-203.0,0.0,0.0,0.0
19:45:48.344000,-312.0,-343.0,55.0,-888.0,-59.0,-203.0,0.0,0.0,0.0
19:45:48.349000,-350.0,-373.0,63.0,-900.0,-24.0,-193.0,0.0,0.0,0.0
19:45:48.354000,-401.0,-395.0,39.0,-900.0,-24.0,-193.0,0.0,0.0,0.0
19:45:48.358000,-452.0,-412.0,5.0,-922.0,3.0,-183.0,0.0,0.0,0.0
19:45:48.362000,-480.0,-432.0,-23.0,-922.0,3.0,-183.0,0.0,0.0,0.0
19:45:48.368000,-525.0,-442.0,-42.0,-914.0,-6.0,-166.0,0.0,0.0,0.0
19:45:48.372000,-562.0,-454.0,-41.0,-914.0,-6.0,-166.0,0.0,0.0,0.0
19:45:48.377000,-597.0,-459.0,-37.0,-914.0,-6.0,-166.0,0.0,0.0,0.0
19:45:48.382000,-633.0,-461.0,-44.0,-927.0,-34.0,-141.0,0.0,0.0,0.0
19:45:48.386000,-637.0,-459.0,-86.0,-927.0,-34.0,-141.0,0.0,0.0,0.0
19:45:48.391000,-617.0,-458.0,-117.0,-951.0,-105.0,-129.0,0.0,0.0,0.0
19:45:48.396000,-618.0,-447.0,-103.0,-951.0,-105.0,-129.0,0.0,0.0,0.0
19:45:48.401000,-607.0,-443.0,-91.0,-968.0,-185.0,-120.0,0.0,0.0,0.0
19:45:48.405000,-602.0,-426.0,-112.0,-968.0,-185.0,-120.0,0.0,0.0,0.0
19:45:48.410000,-597.0,-408.0,-146.0,-1007.0,-202.0,-108.0,0.0,0.0,0.0
19:45:48.415000,-578.0,-394.0,-165.0,-1007.0,-202.0,-108.0,0.0,0.0,0.0
19:45:48.419000,-578.0,-394.0,-165.0,-1049.0,-218.0,-103.0,0.0,0.0,0.0
19:45:48.424000,-552.0,-381.0,-172.0,-1049.0,-218.0,-103.0,0.0,0.0,0.0
19:45:48.429000,-518.0,-367.0,-191.0,-1053.0,-255.0,-93.0,0.0,0.0,0.0
19:45:48.433000,-487.0,-352.0,-192.0,-1053.0,-255.0,-93.0,0.0,0.0,0.0
19:45:48.438000,-443.0,-338.0,-187.0,-1065.0,-276.0,-81.0,0.0,0.0,0.0
19:45:48.443000,-406.0,-322.0,-211.0,-1065.0,-276.0,-81.0,0.0,0.0,0.0
19:45:48.447000,-385.0,-299.0,-218.0,-1089.0,-275.0,-68.0,0.0,0.0,0.0
19:45:48.452000,-346.0,-287.0,-207.0,-1089.0,-275.0,-68.0,0.0,0.0,0.0
19:45:48.457000,-339.0,-268.0,-233.0,-1086.0,-228.0,-53.0,0.0,0.0,0.0
19:45:48.462000,-302.0,-255.0,-267.0,-1086.0,-228.0,-53.0,0.0,0.0,0.0
19:45:48.466000,-289.0,-235.0,-287.0,-1051.0,-211.0,-42.0,0.0,0.0,0.0
19:45:48.471000,-258.0,-223.0,-312.0,-1051.0,-211.0,-42.0,0.0,0.0,0.0
19:45:48.476000,-234.0,-208.0,-324.0,-1031.0,-210.0,-41.0,0.0,0.0,0.0
19:45:48.480000,-226.0,-191.0,-324.0,-1031.0,-210.0,-41.0,0.0,0.0,0.0
19:45:48.485000,-221.0,-175.0,-340.0,-1031.0,-210.0,-41.0,0.0,0.0,0.0
19:45:48.490000,-228.0,-162.0,-343.0,-1055.0,-147.0,-40.0,0.0,0.0,0.0
19:45:48.494000,-235.0,-152.0,-308.0,-1055.0,-147.0,-40.0,0.0,0.0,0.0
19:45:48.499000,-231.0,-144.0,-299.0,-1065.0,-125.0,-38.0,0.0,0.0,0.0
19:45:48.504000,-229.0,-137.0,-313.0,-1065.0,-125.0,-38.0,0.0,0.0,0.0
19:45:48.509000,-242.0,-133.0,-321.0,-1055.0,-110.0,-41.0,0.0,0.0,0.0
19:45:48.513000,-251.0,-125.0,-331.0,-1055.0,-110.0,-41.0,0.0,0.0,0.0
19:45:48.518000,-263.0,-118.0,-337.0,-1046.0,-50.0,-42.0,0.0,0.0,0.0
19:45:48.523000,-287.0,-102.0,-354.0,-1046.0,-50.0,-42.0,0.0,0.0,0.0
19:45:48.527000,-286.0,-97.0,-356.0,-1043.0,-41.0,-48.0,0.0,0.0,0.0
19:45:48.532000,-286.0,-97.0,-356.0,-1043.0,-41.0,-48.0,0.0,0.0,0.0
19:45:48.537000,-291.0,-97.0,-357.0,-1063.0,-54.0,-56.0,0.0,0.0,0.0
19:45:48.541000,-303.0,-91.0,-361.0,-1063.0,-54.0,-56.0,0.0,0.0,0.0
19:45:48.546000,-315.0,-82.0,-364.0,-1069.0,-44.0,-61.0,0.0,0.0,0.0
19:45:48.551000,-322.0,-78.0,-364.0,-1069.0,-44.0,-61.0,0.0,0.0,0.0
19:45:48.556000,-333.0,-80.0,-367.0,-1051.0,-40.0,-61.0,0.0,0.0,0.0
19:45:48.560000,-337.0,-88.0,-357.0,-1051.0,-40.0,-61.0,0.0,0.0,0.0
19:45:48.565000,-345.0,-95.0,-364.0,-1036.0,-63.0,-71.0,0.0,0.0,0.0
19:45:48.570000,-336.0,-107.0,-380.0,-1036.0,-63.0,-71.0,0.0,0.0,0.0
19:45:48.574000,-325.0,-129.0,-382.0,-1002.0,-88.0,-80.0,0.0,0.0,0.0
19:45:48.579000,-325.0,-158.0,-384.0,-1002.0,-88.0,-80.0,0.0,0.0,0.0
19:45:48.584000,-333.0,-190.0,-395.0,-928.0,-63.0,-67.0,0.0,0.0,0.0
19:45:48.588000,-343.0,-227.0,-415.0,-928.0,-63.0,-67.0,0.0,0.0,0.0
19:45:48.593000,-347.0,-273.0,-429.0,-928.0,-63.0,-67.0,0.0,0.0,0.0
19:45:48.598000,-352.0,-325.0,-440.0,-847.0,-29.0,-48.0,0.0,0.0,0.0
19:45:48.603000,-366.0,-378.0,-449.0,-847.0,-29.0,-48.0,0.0,0.0,0.0
19:45:48.607000,-380.0,-427.0,-461.0,-781.0,0.0,-7.0,0.0,0.0,0.0
19:45:48.612000,-403.0,-465.0,-471.0,-781.0,0.0,-7.0,0.0,0.0,0.0
19:45:48.617000,-426.0,-500.0,-485.0,-748.0,55.0,42.0,0.0,0.0,0.0
19:45:48.621000,-465.0,-533.0,-506.0,-748.0,55.0,42.0,0.0,0.0,0.0
19:45:48.626000,-514.0,-568.0,-553.0,-756.0,142.0,111.0,0.0,0.0,0.0
19:45:48.631000,-595.0,-596.0,-606.0,-756.0,142.0,111.0,0.0,0.0,0.0
19:45:48.635000,-675.0,-623.0,-639.0,-804.0,269.0,197.0,0.0,0.0,0.0
19:45:48.640000,-675.0,-623.0,-639.0,-804.0,269.0,197.0,0.0,0.0,0.0
19:45:48.645000,-760.0,-635.0,-671.0,-941.0,391.0,275.0,0.0,0.0,0.0
19:45:48.650000,-864.0,-614.0,-721.0,-941.0,391.0,275.0,0.0,0.0,0.0
19:45:48.654000,-978.0,-557.0,-767.0,-1181.0,438.0,271.0,0.0,0.0,0.0
19:45:48.659000,-1085.0,-501.0,-769.0,-1181.0,438.0,271.0,0.0,0.0,0.0
19:45:48.664000,-1182.0,-465.0,-709.0,-1360.0,337.0,215.0,0.0,0.0,0.0
19:45:48.668000,-1265.0,-435.0,-630.0,-1360.0,337.0,215.0,0.0,0.0,0.0
19:45:48.673000,-1339.0,-405.0,-566.0,-1360.0,188.0,183.0,0.0,0.0,0.0
19:45:48.678000,-1386.0,-374.0,-522.0,-1360.0,188.0,183.0,0.0,0.0,0.0
19:45:48.682000,-1431.0,-347.0,-492.0,-1286.0,122.0,149.0,0.0,0.0,0.0
19:45:48.687000,-1456.0,-331.0,-467.0,-1286.0,122.0,149.0,0.0,0.0,0.0
19:45:48.692000,-1461.0,-322.0,-443.0,-1215.0,49.0,137.0,0.0,0.0,0.0
19:45:48.697000,-1464.0,-307.0,-439.0,-1215.0,49.0,137.0,0.0,0.0,0.0
19:45:48.701000,-1468.0,-298.0,-450.0,-1215.0,49.0,137.0,0.0,0.0,0.0
19:45:48.706000,-1471.0,-303.0,-451.0,-1168.0,-7.0,128.0,0.0,0.0,0.0
19:45:48.711000,-1467.0,-320.0,-443.0,-1168.0,-7.0,128.0,0.0,0.0,0.0
