hh:mm:ss.ms,gyroX[mdps],gyroY[mdps],gyroZ[mdps],accX[mg],accY[mg],accZ[mg],magX[mG],magY[mG],magZ[mG]
19:41:00.454000,-2195.0,-770.0,-1558.0,-982.0,784.0,-921.0,210.0,-420.0,534.0
19:41:00.458000,-2226.0,-854.0,-1572.0,-863.0,681.0,-953.0,210.0,-420.0,534.0
19:41:00.462000,-2212.0,-878.0,-1432.0,-787.0,630.0,-1003.0,202.0,-447.0,538.0
19:41:00.468000,-2189.0,-928.0,-1347.0,-787.0,536.0,-1003.0,202.0,-447.0,538.0
19:41:00.472000,-2153.0,-968.0,-1333.0,-807.0,557.0,-1009.0,202.0,-447.0,538.0
19:41:00.477000,-2128.0,-1033.0,-1376.0,-840.0,587.0,-1019.0,216.0,-462.0,529.0
19:41:00.482000,-2100.0,-1049.0,-1411.0,-829.0,632.0,-1029.0,216.0,-462.0,529.0
19:41:00.486000,-2042.0,-1096.0,-1404.0,-772.0,593.0,-1069.0,223.0,-469.0,529.0
19:41:00.491000,-1976.0,-1139.0,-1405.0,-786.0,658.0,-1067.0,223.0,-469.0,529.0
19:41:00.495000,-1943.0,-1199.0,-1318.0,-836.0,578.0,-1044.0,223.0,-469.0,529.0
19:41:00.501000,-1888.0,-1200.0,-1196.0,-823.0,365.0,-1077.0,237.0,-483.0,525.0
19:41:00.505000,-1854.0,-1234.0,-1115.0,-829.0,270.0,-1065.0,237.0,-483.0,525.0
19:41:00.510000,-1830.0,-1219.0,-1078.0,-819.0,173.0,-1066.0,235.0,-498.0,535.0
19:41:00.515000,-1830.0,-1219.0,-1078.0,-724.0,201.0,-1058.0,235.0,-498.0,535.0
19:41:00.519000,-1818.0,-1258.0,-1139.0,-653.0,159.0,-974.0,235.0,-498.0,535.0
19:41:00.523000,-1791.0,-1281.0,-1246.0,-550.0,7.0,-1034.0,261.0,-528.0,513.0
19:41:00.529000,-1693.0,-1269.0,-1269.0,-381.0,-42.0,-987.0,261.0,-528.0,513.0
19:41:00.533000,-1685.0,-1289.0,-1215.0,-302.0,-148.0,-842.0,262.0,-532.0,520.0
19:41:00.538000,-1802.0,-1267.0,-1141.0,-289.0,-191.0,-910.0,262.0,-532.0,520.0
19:41:00.542000,-1765.0,-1222.0,-1216.0,-152.0,-211.0,-906.0,262.0,-532.0,520.0
19:41:00.548000,-1709.0,-1225.0,-1273.0,-62.0,-438.0,-828.0,286.0,-549.0,519.0
19:41:00.552000,-1652.0,-1235.0,-1351.0,2.0,-581.0,-891.0,286.0,-549.0,519.0
19:41:00.557000,-1626.0,-1178.0,-1339.0,80.0,-598.0,-829.0,297.0,-555.0,501.0
19:41:00.562000,-1639.0,-1163.0,-1363.0,82.0,-693.0,-803.0,297.0,-555.0,501.0
19:41:00.566000,-1605.0,-1127.0,-1454.0,155.0,-606.0,-879.0,297.0,-555.0,501.0
19:41:00.571000,-1579.0,-1092.0,-1500.0,175.0,-431.0,-804.0,306.0,-556.0,495.0
19:41:00.576000,-1651.0,-1126.0,-1597.0,89.0,-410.0,-835.0,306.0,-556.0,495.0
19:41:00.580000,-1618.0,-1122.0,-1740.0,89.0,-410.0,-835.0,313.0,-580.0,483.0
19:41:00.585000,-1649.0,-1036.0,-1729.0,186.0,-360.0,-909.0,313.0,-580.0,483.0
19:41:00.589000,-1644.0,-1033.0,-1779.0,186.0,-360.0,-909.0,313.0,-580.0,483.0
19:41:00.595000,-1672.0,-1042.0,-1907.0,37.0,-460.0,-948.0,319.0,-571.0,472.0
19:41:00.599000,-1675.0,-1079.0,-1971.0,-21.0,-393.0,-1016.0,319.0,-571.0,472.0
19:41:00.604000,-1678.0,-1139.0,-2002.0,-55.0,-294.0,-944.0,346.0,-594.0,472.0
19:41:00.609000,-1673.0,-1125.0,-2060.0,-176.0,-328.0,-1011.0,346.0,-594.0,472.0
19:41:00.613000,-1673.0,-1125.0,-2060.0,-126.0,-202.0,-1087.0,346.0,-594.0,472.0
19:41:00.618000,-1661.0,-1150.0,-1906.0,-87.0,-186.0,-1040.0,366.0,-598.0,463.0
19:41:00.622000,-1661.0,-1150.0,-1906.0,-177.0,-317.0,-1028.0,366.0,-598.0,463.0
19:41:00.627000,-1675.0,-1262.0,-2023.0,-118.0,-235.0,-952.0,372.0,-603.0,466.0
19:41:00.632000,-1699.0,-1385.0,-2190.0,110.0,-424.0,-977.0,372.0,-603.0,466.0
19:41:00.637000,-1688.0,-1463.0,-1977.0,323.0,-576.0,-986.0,379.0,-612.0,439.0
19:41:00.642000,-1682.0,-1596.0,-1671.0,263.0,-447.0,-951.0,379.0,-612.0,439.0
19:41:00.646000,-1664.0,-1661.0,-1652.0,98.0,-368.0,-1003.0,379.0,-612.0,439.0
19:41:00.651000,-1656.0,-1710.0,-1810.0,18.0,-392.0,-998.0,412.0,-619.0,435.0
19:41:00.656000,-1633.0,-1750.0,-1858.0,18.0,-445.0,-965.0,412.0,-619.0,435.0
19:41:00.660000,-1597.0,-1815.0,-1745.0,37.0,-463.0,-937.0,418.0,-613.0,423.0
19:41:00.665000,-1593.0,-1846.0,-1554.0,-30.0,-474.0,-930.0,418.0,-613.0,423.0
19:41:00.669000,-1537.0,-1914.0,-1416.0,-121.0,-425.0,-897.0,418.0,-613.0,423.0
19:41:00.674000,-1515.0,-1937.0,-1446.0,-177.0,-445.0,-864.0,427.0,-616.0,411.0
19:41:00.679000,-1559.0,-1927.0,-1465.0,-186.0,-505.0,-868.0,427.0,-616.0,411.0
19:41:00.684000,-1545.0,-1899.0,-1342.0,-186.0,-505.0,-868.0,456.0,-622.0,393.0
19:41:00.689000,-1464.0,-1892.0,-1183.0,-253.0,-613.0,-884.0,456.0,-622.0,393.0
19:41:00.693000,-1484.0,-1908.0,-1038.0,-264.0,-589.0,-827.0,456.0,-622.0,393.0
19:41:00.698000,-1502.0,-1872.0,-1059.0,-267.0,-549.0,-782.0,472.0,-619.0,378.0
19:41:00.703000,-1460.0,-1850.0,-1145.0,-312.0,-417.0,-780.0,472.0,-619.0,378.0
19:41:00.707000,-1414.0,-1822.0,-1186.0,-312.0,-417.0,-780.0,481.0,-622.0,385.0
19:41:00.712000,-1379.0,-1797.0,-1187.0,-303.0,-430.0,-767.0,481.0,-622.0,385.0
19:41:00.716000,-1381.0,-1765.0,-1212.0,-362.0,-496.0,-753.0,481.0,-622.0,385.0
19:41:00.721000,-1317.0,-1756.0,-1231.0,-456.0,-556.0,-757.0,489.0,-625.0,351.0
19:41:00.726000,-1272.0,-1744.0,-1225.0,-472.0,-585.0,-755.0,489.0,-625.0,351.0
19:41:00.731000,-1253.0,-1772.0,-1255.0,-463.0,-576.0,-699.0,504.0,-616.0,336.0
19:41:00.736000,-1253.0,-1772.0,-1255.0,-522.0,-523.0,-678.0,504.0,-616.0,336.0
19:41:00.740000,-1238.0,-1731.0,-1296.0,-613.0,-533.0,-740.0,504.0,-616.0,336.0
19:41:00.745000,-1196.0,-1663.0,-1276.0,-634.0,-597.0,-722.0,513.0,-613.0,328.0
19:41:00.750000,-1201.0,-1640.0,-1170.0,-634.0,-648.0,-682.0,513.0,-613.0,328.0
19:41:00.754000,-1178.0,-1624.0,-1165.0,-637.0,-558.0,-687.0,535.0,-618.0,309.0
19:41:00.759000,-1161.0,-1600.0,-1286.0,-631.0,-504.0,-676.0,535.0,-618.0,309.0
19:41:00.763000,-1131.0,-1600.0,-1302.0,-560.0,-462.0,-650.0,535.0,-618.0,309.0
19:41:00.768000,-1115.0,-1628.0,-1222.0,-513.0,-441.0,-625.0,541.0,-613.0,292.0
19:41:00.773000,-1113.0,-1632.0,-1257.0,-498.0,-381.0,-635.0,541.0,-613.0,292.0
19:41:00.778000,-1075.0,-1641.0,-1265.0,-500.0,-431.0,-621.0,549.0,-603.0,280.0
19:41:00.783000,-1056.0,-1629.0,-1211.0,-597.0,-464.0,-612.0,549.0,-603.0,280.0
19:41:00.787000,-1023.0,-1628.0,-1192.0,-748.0,-485.0,-592.0,549.0,-603.0,280.0
19:41:00.792000,-1012.0,-1626.0,-1218.0,-807.0,-500.0,-584.0,561.0,-603.0,265.0
19:41:00.797000,-991.0,-1628.0,-1210.0,-807.0,-500.0,-584.0,561.0,-603.0,265.0
19:41:00.801000,-973.0,-1617.0,-1193.0,-764.0,-439.0,-579.0,565.0,-591.0,252.0
19:41:00.806000,-965.0,-1622.0,-1153.0,-735.0,-427.0,-559.0,565.0,-591.0,252.0
19:41:00.810000,-952.0,-1617.0,-1165.0,-702.0,-414.0,-540.0,565.0,-591.0,252.0
19:41:00.815000,-951.0,-1592.0,-1135.0,-711.0,-441.0,-531.0,571.0,-592.0,240.0
19:41:00.820000,-938.0,-1583.0,-1064.0,-739.0,-506.0,-518.0,571.0,-592.0,240.0
19:41:00.824000,-928.0,-1572.0,-1078.0,-800.0,-497.0,-505.0,574.0,-586.0,229.0
19:41:00.830000,-926.0,-1564.0,-1061.0,-827.0,-431.0,-494.0,574.0,-586.0,229.0
19:41:00.834000,-926.0,-1564.0,-1061.0,-808.0,-437.0,-482.0,574.0,-586.0,229.0
19:41:00.839000,-879.0,-1548.0,-1096.0,-798.0,-419.0,-477.0,588.0,-574.0,211.0
19:41:00.844000,-879.0,-1548.0,-1096.0,-821.0,-398.0,-460.0,588.0,-574.0,211.0
19:41:00.848000,-856.0,-1549.0,-1124.0,-808.0,-374.0,-436.0,585.0,-574.0,205.0
19:41:00.853000,-855.0,-1544.0,-1057.0,-792.0,-335.0,-422.0,585.0,-574.0,205.0
19:41:00.857000,-851.0,-1526.0,-1019.0,-844.0,-307.0,-409.0,585.0,-574.0,205.0
19:41:00.862000,-857.0,-1514.0,-1025.0,-891.0,-291.0,-395.0,589.0,-558.0,186.0
19:41:00.867000,-847.0,-1502.0,-1042.0,-896.0,-309.0,-389.0,589.0,-558.0,186.0
19:41:00.872000,-835.0,-1478.0,-1008.0,-881.0,-358.0,-378.0,586.0,-553.0,178.0
19:41:00.877000,-833.0,-1449.0,-928.0,-911.0,-355.0,-360.0,586.0,-553.0,178.0
19:41:00.881000,-832.0,-1432.0,-900.0,-948.0,-310.0,-345.0,582.0,-546.0,162.0
19:41:00.886000,-828.0,-1395.0,-924.0,-997.0,-291.0,-347.0,582.0,-546.0,162.0
19:41:00.890000,-830.0,-1346.0,-994.0,-1031.0,-271.0,-331.0,582.0,-546.0,162.0
19:41:00.895000,-806.0,-1320.0,-990.0,-1040.0,-305.0,-322.0,595.0,-552.0,151.0
19:41:00.900000,-781.0,-1292.0,-917.0,-1035.0,-339.0,-309.0,595.0,-552.0,151.0
19:41:00.905000,-790.0,-1257.0,-893.0,-1035.0,-339.0,-309.0,606.0,-529.0,142.0
19:41:00.909000,-767.0,-1221.0,-907.0,-941.0,-356.0,-303.0,606.0,-529.0,142.0
19:41:00.914000,-716.0,-1183.0,-863.0,-941.0,-356.0,-303.0,606.0,-529.0,142.0
19:41:00.919000,-674.0,-1148.0,-881.0,-936.0,-378.0,-299.0,598.0,-523.0,130.0
19:41:00.924000,-629.0,-1123.0,-936.0,-972.0,-344.0,-288.0,598.0,-523.0,130.0
19:41:00.928000,-583.0,-1104.0,-877.0,-947.0,-339.0,-278.0,604.0,-520.0,120.0
19:41:00.933000,-550.0,-1076.0,-776.0,-935.0,-373.0,-271.0,604.0,-520.0,120.0
19:41:00.937000,-533.0,-1036.0,-790.0,-988.0,-306.0,-270.0,604.0,-520.0,120.0
19:41:00.942000,-490.0,-1003.0,-849.0,-1050.0,-221.0,-275.0,606.0,-511.0,118.0
19:41:00.946000,-490.0,-1003.0,-849.0,-1047.0,-260.0,-271.0,606.0,-511.0,118.0
19:41:00.952000,-473.0,-970.0,-766.0,-1019.0,-345.0,-262.0,610.0,-498.0,108.0
19:41:00.956000,-478.0,-939.0,-653.0,-1061.0,-293.0,-264.0,610.0,-498.0,108.0
19:41:00.960000,-471.0,-895.0,-681.0,-1105.0,-214.0,-264.0,610.0,-498.0,108.0
19:41:00.966000,-443.0,-875.0,-718.0,-1063.0,-222.0,-254.0,604.0,-505.0,99.0
19:41:00.971000,-441.0,-846.0,-669.0,-996.0,-217.0,-249.0,604.0,-505.0,99.0
19:41:00.975000,-440.0,-814.0,-597.0,-991.0,-180.0,-245.0,603.0,-493.0,94.0
19:41:00.980000,-425.0,-788.0,-588.0,-1010.0,-156.0,-241.0,603.0,-493.0,94.0
19:41:00.984000,-407.0,-762.0,-585.0,-1005.0,-203.0,-238.0,603.0,-493.0,94.0
19:41:00.989000,-387.0,-736.0,-537.0,-1007.0,-220.0,-227.0,601.0,-492.0,82.0
19:41:00.994000,-391.0,-714.0,-555.0,-1000.0,-183.0,-213.0,601.0,-492.0,82.0
19:41:00.999000,-385.0,-699.0,-562.0,-968.0,-183.0,-208.0,607.0,-484.0,72.0
19:41:01.003000,-391.0,-671.0,-492.0,-962.0,-203.0,-201.0,607.0,-484.0,72.0
19:41:01.007000,-396.0,-654.0,-431.0,-984.0,-178.0,-190.0,607.0,-484.0,72.0
19:41:01.013000,-418.0,-630.0,-449.0,-1004.0,-127.0,-178.0,607.0,-487.0,67.0
19:41:01.018000,-425.0,-617.0,-492.0,-1004.0,-127.0,-178.0,607.0,-487.0,67.0
19:41:01.022000,-426.0,-615.0,-457.0,-1011.0,-117.0,-167.0,609.0,-478.0,70.0
19:41:01.027000,-471.0,-593.0,-451.0,-1015.0,-122.0,-155.0,609.0,-478.0,70.0
19:41:01.034000,-495.0,-591.0,-422.0,-953.0,-150.0,-129.0,601.0,-472.0,66.0
19:41:01.036000,-512.0,-579.0,-396.0,-953.0,-150.0,-129.0,601.0,-472.0,66.0
19:41:01.040000,-523.0,-567.0,-378.0,-944.0,-169.0,-129.0,601.0,-472.0,66.0
19:41:01.046000,-526.0,-569.0,-414.0,-978.0,-138.0,-117.0,600.0,-466.0,55.0
19:41:01.050000,-545.0,-563.0,-525.0,-1022.0,-68.0,-107.0,600.0,-466.0,55.0
19:41:01.055000,-567.0,-560.0,-518.0,-983.0,-81.0,-94.0,597.0,-469.0,54.0
19:41:01.060000,-588.0,-564.0,-413.0,-906.0,-123.0,-79.0,597.0,-469.0,54.0
19:41:01.064000,-588.0,-564.0,-413.0,-918.0,-89.0,-67.0,597.0,-469.0,54.0
19:41:01.069000,-624.0,-560.0,-389.0,-978.0,-36.0,-50.0,591.0,-466.0,51.0
19:41:01.074000,-650.0,-574.0,-413.0,-983.0,-19.0,-38.0,591.0,-466.0,51.0
19:41:01.079000,-692.0,-577.0,-419.0,-966.0,-3.0,-29.0,603.0,-445.0,49.0
19:41:01.083000,-740.0,-574.0,-450.0,-951.0,11.0,-19.0,603.0,-445.0,49.0
19:41:01.087000,-763.0,-588.0,-413.0,-943.0,0.0,-14.0,603.0,-445.0,49.0
19:41:01.093000,-812.0,-583.0,-380.0,-955.0,5.0,0.0,597.0,-442.0,49.0
19:41:01.097000,-868.0,-589.0,-370.0,-959.0,28.0,14.0,597.0,-442.0,49.0
19:41:01.102000,-895.0,-605.0,-359.0,-952.0,16.0,24.0,601.0,-450.0,36.0
19:41:01.107000,-942.0,-614.0,-310.0,-949.0,-13.0,34.0,601.0,-450.0,36.0
19:41:01.111000,-1000.0,-620.0,-240.0,-985.0,20.0,36.0,601.0,-450.0,36.0
19:41:01.116000,-1054.0,-626.0,-266.0,-1012.0,70.0,38.0,601.0,-438.0,33.0
19:41:01.121000,-1098.0,-642.0,-304.0,-973.0,73.0,45.0,601.0,-438.0,33.0
19:41:01.126000,-1150.0,-658.0,-270.0,-973.0,73.0,45.0,594.0,-430.0,25.0
19:41:01.130000,-1225.0,-672.0,-201.0,-927.0,58.0,58.0,594.0,-430.0,25.0
19:41:01.134000,-1284.0,-697.0,-189.0,-925.0,81.0,69.0,594.0,-430.0,25.0
19:41:01.140000,-1348.0,-728.0,-210.0,-934.0,113.0,81.0,595.0,-424.0,21.0
19:41:01.144000,-1400.0,-761.0,-203.0,-916.0,97.0,92.0,595.0,-424.0,21.0
19:41:01.149000,-1450.0,-800.0,-174.0,-881.0,63.0,98.0,589.0,-427.0,4.0
19:41:01.154000,-1500.0,-837.0,-150.0,-860.0,50.0,106.0,589.0,-427.0,4.0
19:41:01.158000,-1500.0,-837.0,-150.0,-856.0,64.0,109.0,589.0,-427.0,4.0
19:41:01.163000,-1630.0,-905.0,-147.0,-880.0,120.0,119.0,588.0,-408.0,3.0
19:41:01.168000,-1712.0,-943.0,-158.0,-904.0,188.0,137.0,588.0,-408.0,3.0
19:41:01.173000,-1712.0,-943.0,-158.0,-890.0,195.0,144.0,583.0,-417.0,10.0
19:41:01.177000,-1785.0,-975.0,-133.0,-886.0,167.0,147.0,583.0,-417.0,10.0
19:41:01.181000,-1860.0,-1007.0,-127.0,-909.0,176.0,154.0,583.0,-417.0,10.0
19:41:01.187000,-1943.0,-1034.0,-152.0,-924.0,219.0,163.0,586.0,-394.0,-9.0
19:41:01.191000,-2044.0,-1055.0,-159.0,-924.0,250.0,179.0,586.0,-394.0,-9.0
19:41:01.196000,-2145.0,-1085.0,-120.0,-932.0,274.0,202.0,574.0,-397.0,-1.0
19:41:01.201000,-2246.0,-1123.0,-100.0,-940.0,300.0,224.0,574.0,-397.0,-1.0
19:41:01.205000,-2342.0,-1167.0,-160.0,-906.0,293.0,243.0,574.0,-397.0,-1.0
19:41:01.210000,-2429.0,-1212.0,-212.0,-844.0,231.0,262.0,567.0,-372.0,-19.0
19:41:01.215000,-2500.0,-1262.0,-176.0,-816.0,180.0,285.0,567.0,-372.0,-19.0
19:41:01.220000,-2572.0,-1317.0,-148.0,-816.0,212.0,285.0,562.0,-360.0,-19.0
19:41:01.224000,-2641.0,-1374.0,-182.0,-830.0,188.0,310.0,562.0,-360.0,-19.0
19:41:01.228000,-2692.0,-1435.0,-225.0,-806.0,168.0,347.0,562.0,-360.0,-19.0
19:41:01.234000,-2734.0,-1494.0,-236.0,-806.0,168.0,347.0,565.0,-349.0,-45.0
19:41:01.238000,-2771.0,-1557.0,-243.0,-784.0,131.0,368.0,565.0,-349.0,-45.0
19:41:01.243000,-2800.0,-1616.0,-252.0,-775.0,126.0,387.0,552.0,-339.0,-33.0
19:41:01.248000,-2825.0,-1669.0,-301.0,-788.0,140.0,402.0,552.0,-339.0,-33.0
19:41:01.252000,-2856.0,-1729.0,-368.0,-808.0,160.0,427.0,552.0,-339.0,-33.0
19:41:01.257000,-2881.0,-1785.0,-387.0,-799.0,170.0,460.0,552.0,-321.0,-40.0
19:41:01.262000,-2899.0,-1831.0,-387.0,-781.0,161.0,483.0,552.0,-321.0,-40.0
19:41:01.267000,-2925.0,-1873.0,-439.0,-801.0,166.0,508.0,535.0,-318.0,-39.0
19:41:01.271000,-2956.0,-1915.0,-487.0,-832.0,184.0,542.0,535.0,-318.0,-39.0
19:41:01.275000,-2956.0,-1915.0,-487.0,-836.0,185.0,574.0,535.0,-318.0,-39.0
19:41:01.281000,-2982.0,-1950.0,-518.0,-845.0,187.0,602.0,520.0,-285.0,-43.0
19:41:01.285000,-3000.0,-1973.0,-599.0,-856.0,188.0,624.0,520.0,-285.0,-43.0
19:41:01.290000,-3002.0,-1994.0,-671.0,-818.0,160.0,636.0,514.0,-261.0,-52.0
19:41:01.294000,-3010.0,-2013.0,-667.0,-800.0,168.0,656.0,514.0,-261.0,-52.0
19:41:01.299000,-3040.0,-2027.0,-663.0,-824.0,239.0,688.0,514.0,-261.0,-52.0
19:41:01.304000,-3060.0,-2050.0,-722.0,-832.0,284.0,723.0,480.0,-250.0,-51.0
19:41:01.309000,-3076.0,-2062.0,-777.0,-837.0,272.0,757.0,480.0,-250.0,-51.0
19:41:01.314000,-3096.0,-2065.0,-794.0,-850.0,275.0,779.0,486.0,-229.0,-52.0
19:41:01.318000,-3101.0,-2076.0,-858.0,-871.0,316.0,797.0,486.0,-229.0,-52.0
19:41:01.322000,-3112.0,-2078.0,-950.0,-872.0,340.0,816.0,486.0,-229.0,-52.0
19:41:01.328000,-3134.0,-2083.0,-976.0,-855.0,347.0,838.0,478.0,-219.0,-52.0
19:41:01.332000,-3168.0,-2087.0,-949.0,-863.0,388.0,853.0,478.0,-219.0,-52.0
19:41:01.337000,-3190.0,-2092.0,-970.0,-887.0,467.0,873.0,459.0,-187.0,-51.0
19:41:01.342000,-3220.0,-2093.0,-1053.0,-887.0,515.0,900.0,459.0,-187.0,-51.0
19:41:01.346000,-3246.0,-2090.0,-1110.0,-869.0,515.0,900.0,459.0,-187.0,-51.0
19:41:01.351000,-3259.0,-2070.0,-1126.0,-819.0,505.0,914.0,436.0,-163.0,-36.0
19:41:01.356000,-3278.0,-2038.0,-1111.0,-789.0,483.0,916.0,436.0,-163.0,-36.0
19:41:01.361000,-3299.0,-2012.0,-1122.0,-812.0,515.0,928.0,424.0,-141.0,-19.0
19:41:01.365000,-3325.0,-1983.0,-1145.0,-857.0,578.0,946.0,424.0,-141.0,-19.0
19:41:01.369000,-3342.0,-1962.0,-1130.0,-872.0,597.0,948.0,424.0,-141.0,-19.0
19:41:01.375000,-3345.0,-1943.0,-1035.0,-855.0,554.0,939.0,402.0,-127.0,-21.0
19:41:01.379000,-3345.0,-1943.0,-1035.0,-832.0,484.0,923.0,402.0,-127.0,-21.0
19:41:01.384000,-3320.0,-1871.0,-847.0,-840.0,448.0,902.0,390.0,-108.0,7.0
19:41:01.389000,-3280.0,-1838.0,-810.0,-836.0,448.0,881.0,390.0,-108.0,7.0
19:41:01.393000,-3280.0,-1838.0,-810.0,-783.0,443.0,849.0,378.0,-96.0,7.0
19:41:01.398000,-3239.0,-1796.0,-770.0,-744.0,461.0,818.0,378.0,-96.0,7.0
19:41:01.402000,-3186.0,-1760.0,-756.0,-741.0,500.0,792.0,378.0,-96.0,7.0
19:41:01.408000,-3138.0,-1719.0,-745.0,-726.0,511.0,759.0,360.0,-75.0,22.0
19:41:01.412000,-3080.0,-1673.0,-711.0,-703.0,501.0,720.0,360.0,-75.0,22.0
19:41:01.417000,-3022.0,-1623.0,-655.0,-710.0,493.0,685.0,363.0,-76.0,36.0
19:41:01.422000,-2956.0,-1590.0,-619.0,-736.0,507.0,651.0,363.0,-76.0,36.0
19:41:01.426000,-2889.0,-1575.0,-621.0,-720.0,523.0,618.0,363.0,-76.0,36.0
19:41:01.431000,-2812.0,-1568.0,-623.0,-667.0,517.0,587.0,346.0,-52.0,67.0
19:41:01.436000,-2721.0,-1558.0,-639.0,-623.0,501.0,555.0,346.0,-52.0,67.0
19:41:01.440000,-2620.0,-1553.0,-691.0,-623.0,501.0,555.0,336.0,-36.0,76.0
19:41:01.445000,-2516.0,-1549.0,-742.0,-592.0,497.0,490.0,336.0,-36.0,76.0
19:41:01.449000,-2424.0,-1548.0,-740.0,-604.0,498.0,476.0,336.0,-36.0,76.0
19:41:01.454000,-2336.0,-1549.0,-718.0,-604.0,498.0,476.0,321.0,-37.0,78.0
19:41:01.459000,-2250.0,-1543.0,-721.0,-621.0,507.0,463.0,321.0,-37.0,78.0
19:41:01.464000,-2158.0,-1533.0,-742.0,-622.0,517.0,443.0,321.0,-13.0,109.0
19:41:01.469000,-2066.0,-1516.0,-745.0,-597.0,556.0,421.0,321.0,-13.0,109.0
19:41:01.473000,-1982.0,-1493.0,-727.0,-571.0,545.0,410.0,321.0,-13.0,109.0
19:41:01.478000,-1913.0,-1463.0,-695.0,-558.0,575.0,404.0,304.0,-19.0,129.0
19:41:01.483000,-1851.0,-1425.0,-658.0,-554.0,607.0,396.0,304.0,-19.0,129.0
19:41:01.487000,-1799.0,-1381.0,-620.0,-558.0,630.0,387.0,306.0,-13.0,124.0
19:41:01.492000,-1747.0,-1331.0,-588.0,-572.0,642.0,375.0,306.0,-13.0,124.0
19:41:01.496000,-1747.0,-1331.0,-588.0,-587.0,642.0,361.0,306.0,-13.0,124.0
19:41:01.502000,-1702.0,-1276.0,-544.0,-596.0,633.0,350.0,289.0,0.0,148.0
19:41:01.506000,-1661.0,-1225.0,-496.0,-608.0,643.0,337.0,289.0,0.0,148.0
19:41:01.511000,-1624.0,-1172.0,-467.0,-620.0,677.0,323.0,283.0,1.0,163.0
19:41:01.516000,-1588.0,-1122.0,-466.0,-614.0,704.0,310.0,283.0,1.0,163.0
19:41:01.520000,-1546.0,-1075.0,-471.0,-590.0,703.0,294.0,283.0,1.0,163.0
19:41:01.525000,-1501.0,-1031.0,-459.0,-567.0,682.0,281.0,285.0,0.0,168.0
19:41:01.530000,-1453.0,-994.0,-442.0,-551.0,658.0,271.0,285.0,0.0,168.0
19:41:01.534000,-1403.0,-962.0,-434.0,-535.0,638.0,256.0,277.0,7.0,177.0
19:41:01.539000,-1351.0,-932.0,-424.0,-526.0,624.0,237.0,277.0,7.0,177.0
19:41:01.543000,-1297.0,-901.0,-409.0,-523.0,619.0,217.0,277.0,7.0,177.0
19:41:01.549000,-1241.0,-874.0,-397.0,-523.0,628.0,198.0,267.0,12.0,183.0
19:41:01.553000,-1183.0,-847.0,-395.0,-527.0,650.0,183.0,267.0,12.0,183.0
19:41:01.558000,-1130.0,-821.0,-402.0,-527.0,650.0,183.0,265.0,9.0,189.0
19:41:01.563000,-1086.0,-802.0,-393.0,-517.0,663.0,177.0,265.0,9.0,189.0
19:41:01.567000,-1045.0,-784.0,-374.0,-492.0,656.0,174.0,265.0,9.0,189.0
19:41:01.572000,-1004.0,-762.0,-365.0,-469.0,653.0,165.0,267.0,12.0,204.0
19:41:01.577000,-970.0,-736.0,-370.0,-453.0,664.0,161.0,267.0,12.0,204.0
19:41:01.581000,-940.0,-709.0,-376.0,-440.0,678.0,161.0,249.0,13.0,214.0
19:41:01.586000,-914.0,-685.0,-371.0,-422.0,684.0,162.0,249.0,13.0,214.0
19:41:01.590000,-896.0,-658.0,-357.0,-412.0,685.0,163.0,249.0,13.0,214.0
19:41:01.596000,-880.0,-629.0,-353.0,-418.0,690.0,158.0,249.0,3.0,217.0
19:41:01.600000,-857.0,-602.0,-380.0,-430.0,702.0,150.0,249.0,3.0,217.0
19:41:01.605000,-833.0,-574.0,-429.0,-436.0,717.0,143.0,259.0,13.0,244.0
19:41:01.610000,-833.0,-574.0,-429.0,-428.0,716.0,141.0,259.0,13.0,244.0
19:41:01.614000,-813.0,-546.0,-462.0,-406.0,697.0,140.0,259.0,13.0,244.0
19:41:01.619000,-795.0,-525.0,-465.0,-387.0,680.0,135.0,241.0,7.0,225.0
19:41:01.624000,-772.0,-503.0,-469.0,-381.0,675.0,125.0,241.0,7.0,225.0
19:41:01.628000,-749.0,-482.0,-493.0,-382.0,684.0,116.0,246.0,10.0,228.0
19:41:01.633000,-720.0,-464.0,-529.0,-383.0,694.0,110.0,246.0,10.0,228.0
19:41:01.637000,-694.0,-448.0,-547.0,-379.0,699.0,105.0,246.0,10.0,228.0
19:41:01.643000,-672.0,-430.0,-538.0,-379.0,716.0,99.0,246.0,15.0,243.0
19:41:01.647000,-654.0,-413.0,-528.0,-381.0,740.0,95.0,246.0,15.0,243.0
19:41:01.652000,-642.0,-392.0,-516.0,-380.0,758.0,92.0,231.0,13.0,246.0
19:41:01.657000,-634.0,-377.0,-494.0,-374.0,765.0,92.0,231.0,13.0,246.0
19:41:01.661000,-630.0,-362.0,-466.0,-361.0,765.0,97.0,231.0,13.0,246.0
19:41:01.666000,-623.0,-353.0,-442.0,-337.0,760.0,105.0,240.0,9.0,252.0
19:41:01.671000,-613.0,-347.0,-425.0,-337.0,760.0,105.0,240.0,9.0,252.0
19:41:01.675000,-599.0,-341.0,-408.0,-298.0,750.0,112.0,234.0,1.0,258.0
19:41:01.680000,-581.0,-336.0,-393.0,-254.0,743.0,114.0,234.0,1.0,258.0
19:41:01.684000,-564.0,-333.0,-380.0,-220.0,748.0,119.0,234.0,1.0,258.0
19:41:01.689000,-550.0,-332.0,-360.0,-207.0,764.0,128.0,228.0,9.0,264.0
19:41:01.694000,-542.0,-334.0,-331.0,-216.0,783.0,141.0,228.0,9.0,264.0
19:41:01.699000,-536.0,-342.0,-314.0,-240.0,796.0,157.0,225.0,15.0,270.0
19:41:01.704000,-525.0,-350.0,-305.0,-255.0,795.0,169.0,225.0,15.0,270.0
19:41:01.708000,-525.0,-350.0,-305.0,-246.0,774.0,180.0,225.0,15.0,270.0
19:41:01.713000,-494.0,-371.0,-254.0,-225.0,754.0,194.0,214.0,12.0,277.0
19:41:01.718000,-494.0,-371.0,-254.0,-197.0,754.0,205.0,214.0,12.0,277.0
19:41:01.722000,-478.0,-378.0,-225.0,-170.0,770.0,212.0,219.0,7.0,282.0
19:41:01.727000,-461.0,-382.0,-193.0,-152.0,799.0,220.0,219.0,7.0,282.0
19:41:01.731000,-453.0,-383.0,-170.0,-148.0,841.0,228.0,219.0,7.0,282.0
19:41:01.737000,-449.0,-382.0,-163.0,-162.0,877.0,239.0,225.0,7.0,276.0
19:41:01.741000,-447.0,-380.0,-160.0,-170.0,877.0,251.0,225.0,7.0,276.0
19:41:01.746000,-450.0,-375.0,-137.0,-161.0,846.0,259.0,219.0,7.0,277.0
19:41:01.751000,-455.0,-366.0,-100.0,-160.0,825.0,259.0,219.0,7.0,277.0
19:41:01.755000,-449.0,-352.0,-79.0,-178.0,819.0,260.0,219.0,7.0,277.0
19:41:01.760000,-438.0,-337.0,-76.0,-198.0,795.0,265.0,207.0,10.0,286.0
19:41:01.765000,-430.0,-323.0,-50.0,-198.0,764.0,266.0,207.0,10.0,286.0
19:41:01.769000,-429.0,-308.0,-7.0,-198.0,764.0,266.0,220.0,4.0,294.0
19:41:01.774000,-425.0,-290.0,18.0,-230.0,810.0,247.0,220.0,4.0,294.0
19:41:01.778000,-422.0,-270.0,17.0,-262.0,851.0,233.0,220.0,4.0,294.0
19:41:01.784000,-420.0,-246.0,10.0,-275.0,878.0,233.0,216.0,12.0,301.0
19:41:01.788000,-417.0,-215.0,3.0,-310.0,878.0,215.0,216.0,12.0,301.0
19:41:01.793000,-414.0,-192.0,16.0,-334.0,882.0,200.0,214.0,9.0,301.0
19:41:01.798000,-406.0,-161.0,21.0,-343.0,872.0,182.0,214.0,9.0,301.0
19:41:01.802000,-408.0,-140.0,15.0,-334.0,855.0,169.0,214.0,9.0,301.0
19:41:01.807000,-389.0,-121.0,16.0,-317.0,818.0,162.0,223.0,7.0,298.0
19:41:01.812000,-364.0,-103.0,25.0,-302.0,780.0,147.0,223.0,7.0,298.0
19:41:01.816000,-337.0,-89.0,42.0,-293.0,752.0,131.0,213.0,0.0,303.0
19:41:01.821000,-301.0,-79.0,32.0,-294.0,744.0,124.0,213.0,0.0,303.0
19:41:01.825000,-301.0,-79.0,32.0,-289.0,759.0,119.0,213.0,0.0,303.0
19:41:01.831000,-266.0,-67.0,5.0,-270.0,773.0,114.0,222.0,3.0,303.0
19:41:01.835000,-234.0,-54.0,-4.0,-258.0,774.0,112.0,222.0,3.0,303.0
19:41:01.840000,-203.0,-43.0,-2.0,-257.0,761.0,110.0,223.0,10.0,309.0
19:41:01.845000,-171.0,-32.0,4.0,-259.0,759.0,105.0,223.0,10.0,309.0
19:41:01.849000,-140.0,-23.0,-17.0,-256.0,785.0,104.0,223.0,10.0,309.0
19:41:01.854000,-105.0,-18.0,-73.0,-250.0,808.0,106.0,223.0,0.0,312.0
19:41:01.859000,-69.0,-21.0,-112.0,-238.0,811.0,112.0,223.0,0.0,312.0
19:41:01.863000,-42.0,-28.0,-113.0,-226.0,811.0,118.0,219.0,4.0,312.0
19:41:01.868000,-26.0,-30.0,-119.0,-226.0,823.0,121.0,219.0,4.0,312.0
19:41:01.872000,-11.0,-36.0,-147.0,-222.0,835.0,122.0,219.0,4.0,312.0
19:41:01.878000,1.0,-39.0,-173.0,-220.0,845.0,119.0,211.0,-3.0,310.0
19:41:01.882000,15.0,-39.0,-191.0,-231.0,869.0,116.0,211.0,-3.0,310.0
19:41:01.887000,28.0,-37.0,-217.0,-231.0,869.0,116.0,219.0,1.0,334.0
19:41:01.892000,34.0,-32.0,-254.0,-247.0,885.0,114.0,219.0,1.0,334.0
19:41:01.896000,43.0,-31.0,-270.0,-237.0,881.0,110.0,219.0,1.0,334.0
19:41:01.901000,61.0,-25.0,-261.0,-214.0,868.0,99.0,214.0,0.0,313.0
19:41:01.906000,81.0,-21.0,-264.0,-216.0,859.0,88.0,214.0,0.0,313.0
19:41:01.910000,109.0,-16.0,-298.0,-229.0,864.0,84.0,213.0,-4.0,307.0
19:41:01.915000,140.0,-13.0,-333.0,-224.0,873.0,80.0,213.0,-4.0,307.0
19:41:01.919000,174.0,-10.0,-348.0,-199.0,867.0,78.0,213.0,-4.0,307.0
19:41:01.924000,174.0,-10.0,-348.0,-173.0,862.0,80.0,214.0,3.0,303.0
19:41:01.929000,245.0,-13.0,-362.0,-159.0,865.0,88.0,214.0,3.0,303.0
19:41:01.934000,282.0,-17.0,-384.0,-146.0,872.0,94.0,214.0,-7.0,301.0
19:41:01.939000,282.0,-17.0,-384.0,-134.0,887.0,101.0,214.0,-7.0,301.0
19:41:01.943000,317.0,-22.0,-398.0,-133.0,912.0,111.0,214.0,-7.0,301.0
19:41:01.948000,345.0,-24.0,-399.0,-138.0,932.0,121.0,202.0,4.0,298.0
19:41:01.953000,368.0,-27.0,-389.0,-145.0,946.0,128.0,202.0,4.0,298.0
19:41:01.957000,387.0,-25.0,-389.0,-145.0,964.0,132.0,190.0,3.0,300.0
19:41:01.962000,405.0,-23.0,-391.0,-138.0,975.0,138.0,190.0,3.0,300.0
19:41:01.966000,422.0,-22.0,-373.0,-150.0,968.0,143.0,190.0,3.0,300.0
19:41:01.972000,437.0,-18.0,-352.0,-184.0,956.0,144.0,192.0,-1.0,300.0
19:41:01.976000,457.0,-14.0,-348.0,-200.0,941.0,142.0,192.0,-1.0,300.0
19:41:01.981000,483.0,-7.0,-345.0,-186.0,909.0,140.0,199.0,-1.0,297.0
19:41:01.986000,515.0,-3.0,-317.0,-176.0,881.0,140.0,199.0,-1.0,297.0
19:41:01.990000,552.0,-1.0,-308.0,-171.0,879.0,140.0,199.0,-1.0,297.0
19:41:01.995000,596.0,-3.0,-331.0,-144.0,890.0,149.0,172.0,1.0,298.0
19:41:02.000000,639.0,-11.0,-341.0,-144.0,890.0,149.0,172.0,1.0,298.0
19:41:02.004000,680.0,-19.0,-320.0,-113.0,892.0,165.0,184.0,1.0,298.0
19:41:02.009000,722.0,-29.0,-301.0,-131.0,862.0,171.0,184.0,1.0,298.0
19:41:02.013000,765.0,-39.0,-307.0,-149.0,860.0,173.0,184.0,1.0,298.0
19:41:02.019000,806.0,-46.0,-305.0,-119.0,901.0,182.0,181.0,4.0,277.0
19:41:02.023000,838.0,-46.0,-296.0,-92.0,924.0,192.0,181.0,4.0,277.0
19:41:02.027000,869.0,-42.0,-297.0,-95.0,946.0,202.0,178.0,4.0,277.0
19:41:02.033000,898.0,-35.0,-272.0,-128.0,959.0,213.0,178.0,4.0,277.0
19:41:02.037000,898.0,-35.0,-272.0,-186.0,928.0,222.0,178.0,4.0,277.0
19:41:02.042000,949.0,-12.0,-226.0,-222.0,904.0,228.0,186.0,1.0,267.0
19:41:02.047000,949.0,-12.0,-226.0,-220.0,893.0,230.0,186.0,1.0,267.0
19:41:02.051000,978.0,4.0,-217.0,-183.0,862.0,231.0,184.0,6.0,256.0
19:41:02.056000,1012.0,25.0,-190.0,-149.0,835.0,227.0,184.0,6.0,256.0
19:41:02.060000,1052.0,59.0,-160.0,-178.0,830.0,224.0,184.0,6.0,256.0
19:41:02.066000,1088.0,98.0,-149.0,-245.0,846.0,229.0,174.0,12.0,256.0
19:41:02.070000,1131.0,133.0,-166.0,-303.0,859.0,237.0,174.0,12.0,256.0
19:41:02.074000,1179.0,166.0,-191.0,-319.0,846.0,250.0,178.0,-3.0,249.0
19:41:02.080000,1228.0,204.0,-200.0,-298.0,817.0,266.0,178.0,-3.0,249.0
19:41:02.084000,1282.0,247.0,-200.0,-281.0,796.0,291.0,178.0,-3.0,249.0
19:41:02.089000,1336.0,291.0,-194.0,-285.0,799.0,320.0,175.0,4.0,235.0
19:41:02.094000,1385.0,340.0,-189.0,-298.0,826.0,345.0,175.0,4.0,235.0
19:41:02.098000,1429.0,396.0,-189.0,-298.0,826.0,345.0,175.0,7.0,222.0
19:41:02.103000,1467.0,455.0,-187.0,-332.0,877.0,400.0,175.0,7.0,222.0
19:41:02.107000,1495.0,507.0,-177.0,-332.0,882.0,400.0,175.0,7.0,222.0
19:41:02.113000,1517.0,557.0,-155.0,-343.0,882.0,423.0,171.0,3.0,205.0
19:41:02.117000,1537.0,602.0,-116.0,-336.0,869.0,436.0,171.0,3.0,205.0
19:41:02.121000,1563.0,646.0,-70.0,-316.0,845.0,453.0,160.0,7.0,199.0
19:41:02.127000,1591.0,685.0,-32.0,-316.0,845.0,453.0,160.0,7.0,199.0
19:41:02.131000,1626.0,719.0,-28.0,-318.0,856.0,459.0,160.0,7.0,199.0
19:41:02.136000,1663.0,753.0,-28.0,-315.0,864.0,462.0,159.0,-6.0,190.0
19:41:02.141000,1706.0,788.0,-6.0,-289.0,836.0,464.0,159.0,-6.0,190.0
19:41:02.145000,1752.0,819.0,11.0,-267.0,800.0,470.0,160.0,-10.0,165.0
19:41:02.150000,1803.0,848.0,14.0,-260.0,787.0,478.0,160.0,-10.0,165.0
19:41:02.154000,1803.0,848.0,14.0,-264.0,785.0,481.0,160.0,-10.0,165.0
19:41:02.159000,1852.0,870.0,23.0,-257.0,759.0,485.0,177.0,-3.0,144.0
19:41:02.164000,1894.0,884.0,73.0,-240.0,731.0,487.0,177.0,-3.0,144.0
19:41:02.168000,1937.0,893.0,129.0,-241.0,732.0,480.0,171.0,-10.0,132.0
19:41:02.174000,1985.0,907.0,158.0,-249.0,755.0,477.0,171.0,-10.0,132.0
19:41:02.178000,2027.0,916.0,169.0,-264.0,788.0,485.0,171.0,-10.0,132.0
19:41:02.183000,2057.0,922.0,187.0,-277.0,807.0,496.0,172.0,-12.0,127.0
19:41:02.188000,2082.0,925.0,230.0,-287.0,798.0,511.0,172.0,-12.0,127.0
19:41:02.192000,2111.0,924.0,282.0,-277.0,764.0,525.0,181.0,-15.0,106.0
19:41:02.197000,2145.0,923.0,323.0,-269.0,734.0,539.0,181.0,-15.0,106.0
19:41:02.201000,2186.0,924.0,357.0,-292.0,727.0,560.0,181.0,-15.0,106.0
19:41:02.207000,2225.0,928.0,380.0,-433.0,699.0,586.0,184.0,-18.0,88.0
19:41:02.211000,2263.0,934.0,316.0,-434.0,697.0,626.0,184.0,-18.0,88.0
19:41:02.215000,2286.0,935.0,408.0,-256.0,708.0,649.0,189.0,-31.0,63.0
19:41:02.221000,2305.0,952.0,564.0,-256.0,708.0,649.0,189.0,-31.0,63.0
19:41:02.225000,2322.0,958.0,578.0,-281.0,732.0,658.0,189.0,-31.0,63.0
19:41:02.230000,2352.0,961.0,552.0,-403.0,756.0,677.0,204.0,-30.0,36.0
19:41:02.235000,2394.0,966.0,561.0,-474.0,698.0,675.0,204.0,-30.0,36.0
19:41:02.239000,2465.0,971.0,602.0,-500.0,618.0,666.0,202.0,-42.0,33.0
19:41:02.244000,2544.0,976.0,634.0,-500.0,523.0,684.0,202.0,-42.0,33.0
19:41:02.248000,2634.0,969.0,618.0,-507.0,476.0,717.0,202.0,-42.0,33.0
19:41:02.254000,2704.0,959.0,603.0,-500.0,494.0,752.0,219.0,-49.0,19.0
19:41:02.258000,2769.0,957.0,607.0,-467.0,522.0,785.0,219.0,-49.0,19.0
19:41:02.262000,2769.0,957.0,607.0,-451.0,564.0,809.0,220.0,-58.0,-4.0
19:41:02.268000,2821.0,957.0,604.0,-457.0,580.0,842.0,220.0,-58.0,-4.0
19:41:02.272000,2861.0,963.0,599.0,-476.0,576.0,871.0,220.0,-58.0,-4.0
19:41:02.277000,2892.0,978.0,582.0,-497.0,574.0,898.0,201.0,-67.0,1.0
19:41:02.282000,2912.0,998.0,567.0,-506.0,576.0,917.0,201.0,-67.0,1.0
19:41:02.286000,2926.0,1032.0,561.0,-524.0,588.0,926.0,237.0,-78.0,-37.0
19:41:02.291000,2937.0,1071.0,567.0,-569.0,596.0,929.0,237.0,-78.0,-37.0
19:41:02.295000,2950.0,1113.0,578.0,-639.0,584.0,926.0,237.0,-78.0,-37.0
19:41:02.301000,2970.0,1166.0,594.0,-701.0,533.0,923.0,253.0,-106.0,-69.0
19:41:02.305000,3010.0,1223.0,637.0,-739.0,439.0,920.0,253.0,-106.0,-69.0
19:41:02.309000,3068.0,1291.0,701.0,-772.0,341.0,927.0,259.0,-126.0,-84.0
19:41:02.315000,3143.0,1356.0,745.0,-781.0,272.0,933.0,259.0,-126.0,-84.0
19:41:02.319000,3229.0,1418.0,777.0,-767.0,222.0,949.0,259.0,-126.0,-84.0
19:41:02.324000,3316.0,1460.0,828.0,-744.0,158.0,974.0,271.0,-142.0,-102.0
19:41:02.329000,3402.0,1501.0,905.0,-744.0,158.0,974.0,271.0,-142.0,-102.0
19:41:02.333000,3486.0,1544.0,984.0,-713.0,87.0,988.0,289.0,-150.0,-103.0
19:41:02.338000,3567.0,1595.0,1041.0,-706.0,15.0,1010.0,289.0,-150.0,-103.0
19:41:02.342000,3630.0,1655.0,1078.0,-722.0,6.0,1029.0,289.0,-150.0,-103.0
19:41:02.348000,3673.0,1713.0,1100.0,-761.0,25.0,1044.0,298.0,-177.0,-127.0
19:41:02.352000,3691.0,1766.0,1127.0,-783.0,43.0,1046.0,298.0,-177.0,-127.0
19:41:02.357000,3691.0,1817.0,1134.0,-804.0,88.0,1026.0,306.0,-202.0,-132.0
19:41:02.362000,3672.0,1866.0,1116.0,-847.0,112.0,1009.0,306.0,-202.0,-132.0
19:41:02.366000,3653.0,1899.0,1091.0,-876.0,111.0,1003.0,345.0,-253.0,-151.0
19:41:02.371000,3641.0,1913.0,1081.0,-860.0,67.0,995.0,345.0,-253.0,-151.0
19:41:02.375000,3641.0,1913.0,1081.0,-798.0,-15.0,991.0,345.0,-253.0,-151.0
19:41:02.380000,3645.0,1908.0,1068.0,-730.0,-114.0,998.0,351.0,-268.0,-162.0
19:41:02.385000,3658.0,1897.0,1047.0,-669.0,-205.0,997.0,351.0,-268.0,-162.0
19:41:02.390000,3687.0,1890.0,1019.0,-618.0,-262.0,1000.0,370.0,-304.0,-154.0
19:41:02.394000,3721.0,1869.0,1005.0,-584.0,-287.0,1015.0,370.0,-304.0,-154.0
19:41:02.399000,3752.0,1837.0,1018.0,-582.0,-308.0,1031.0,370.0,-304.0,-154.0
19:41:02.404000,3765.0,1814.0,1063.0,-601.0,-320.0,1060.0,378.0,-324.0,-154.0
19:41:02.409000,3762.0,1786.0,1109.0,-626.0,-282.0,1093.0,378.0,-324.0,-154.0
19:41:02.413000,3740.0,1755.0,1135.0,-644.0,-234.0,1114.0,397.0,-357.0,-168.0
19:41:02.418000,3691.0,1736.0,1149.0,-654.0,-196.0,1122.0,397.0,-357.0,-168.0
19:41:02.422000,3631.0,1724.0,1163.0,-678.0,-156.0,1127.0,397.0,-357.0,-168.0
19:41:02.427000,3556.0,1703.0,1149.0,-713.0,-131.0,1133.0,408.0,-381.0,-160.0
19:41:02.432000,3465.0,1684.0,1121.0,-723.0,-120.0,1123.0,408.0,-381.0,-160.0
19:41:02.436000,3372.0,1666.0,1094.0,-723.0,-130.0,1112.0,433.0,-426.0,-135.0
19:41:02.442000,3277.0,1641.0,1061.0,-723.0,-130.0,1112.0,433.0,-426.0,-135.0
19:41:02.446000,3189.0,1612.0,1002.0,-731.0,-151.0,1098.0,433.0,-426.0,-135.0
19:41:02.451000,3101.0,1592.0,928.0,-730.0,-169.0,1068.0,441.0,-451.0,-151.0
19:41:02.456000,3017.0,1587.0,856.0,-722.0,-182.0,1020.0,441.0,-451.0,-151.0
19:41:02.460000,2927.0,1584.0,778.0,-739.0,-172.0,979.0,457.0,-471.0,-147.0
19:41:02.465000,2827.0,1583.0,699.0,-771.0,-148.0,947.0,457.0,-471.0,-147.0
19:41:02.469000,2827.0,1583.0,699.0,-794.0,-127.0,914.0,457.0,-471.0,-147.0
19:41:02.474000,2612.0,1589.0,601.0,-804.0,-116.0,880.0,469.0,-498.0,-130.0
19:41:02.479000,2517.0,1593.0,577.0,-802.0,-129.0,836.0,469.0,-498.0,-130.0
19:41:02.484000,2517.0,1593.0,577.0,-794.0,-153.0,792.0,475.0,-511.0,-112.0
19:41:02.489000,2426.0,1598.0,546.0,-790.0,-165.0,754.0,475.0,-511.0,-112.0
19:41:02.493000,2333.0,1600.0,501.0,-781.0,-162.0,717.0,475.0,-511.0,-112.0
19:41:02.498000,2242.0,1598.0,461.0,-773.0,-152.0,685.0,474.0,-529.0,-111.0
19:41:02.503000,2150.0,1590.0,441.0,-775.0,-152.0,643.0,474.0,-529.0,-111.0
19:41:02.507000,2051.0,1580.0,447.0,-773.0,-172.0,596.0,498.0,-549.0,-87.0
19:41:02.512000,1955.0,1561.0,464.0,-756.0,-213.0,569.0,498.0,-549.0,-87.0
19:41:02.516000,1869.0,1528.0,471.0,-722.0,-266.0,530.0,498.0,-549.0,-87.0
19:41:02.521000,1796.0,1497.0,471.0,-685.0,-287.0,487.0,496.0,-565.0,-73.0
19:41:02.526000,1717.0,1465.0,462.0,-659.0,-265.0,454.0,496.0,-565.0,-73.0
19:41:02.531000,1647.0,1428.0,453.0,-651.0,-252.0,408.0,501.0,-573.0,-67.0
19:41:02.536000,1566.0,1398.0,464.0,-663.0,-249.0,368.0,501.0,-573.0,-67.0
19:41:02.540000,1477.0,1366.0,492.0,-686.0,-249.0,334.0,501.0,-573.0,-67.0
19:41:02.545000,1390.0,1323.0,514.0,-686.0,-259.0,309.0,516.0,-589.0,-57.0
19:41:02.550000,1302.0,1278.0,516.0,-702.0,-259.0,309.0,516.0,-589.0,-57.0
19:41:02.554000,1229.0,1232.0,512.0,-693.0,-262.0,282.0,519.0,-597.0,-42.0
19:41:02.559000,1134.0,1182.0,528.0,-668.0,-284.0,263.0,519.0,-597.0,-42.0
19:41:02.563000,1049.0,1142.0,544.0,-650.0,-316.0,244.0,519.0,-597.0,-42.0
19:41:02.568000,995.0,1084.0,532.0,-647.0,-319.0,216.0,526.0,-610.0,-13.0
19:41:02.573000,933.0,1035.0,503.0,-643.0,-314.0,197.0,526.0,-610.0,-13.0
19:41:02.578000,865.0,987.0,482.0,-631.0,-321.0,178.0,526.0,-621.0,-16.0
19:41:02.583000,807.0,943.0,473.0,-625.0,-317.0,154.0,526.0,-621.0,-16.0
19:41:02.587000,807.0,943.0,473.0,-631.0,-310.0,133.0,526.0,-621.0,-16.0
19:41:02.592000,740.0,911.0,472.0,-643.0,-323.0,127.0,532.0,-619.0,-16.0
19:41:02.597000,658.0,879.0,472.0,-652.0,-337.0,118.0,532.0,-619.0,-16.0
19:41:02.601000,580.0,849.0,452.0,-646.0,-354.0,99.0,537.0,-616.0,-6.0
19:41:02.606000,508.0,821.0,428.0,-654.0,-360.0,83.0,537.0,-616.0,-6.0
19:41:02.610000,446.0,789.0,412.0,-701.0,-376.0,70.0,537.0,-616.0,-6.0
19:41:02.615000,385.0,765.0,415.0,-709.0,-410.0,63.0,543.0,-624.0,-7.0
19:41:02.620000,336.0,724.0,385.0,-659.0,-447.0,58.0,543.0,-624.0,-7.0
19:41:02.625000,293.0,687.0,350.0,-619.0,-490.0,40.0,537.0,-625.0,3.0
19:41:02.630000,252.0,663.0,330.0,-607.0,-509.0,25.0,537.0,-625.0,3.0
19:41:02.634000,219.0,632.0,328.0,-620.0,-509.0,23.0,537.0,-625.0,3.0
19:41:02.639000,186.0,591.0,338.0,-643.0,-507.0,21.0,537.0,-637.0,12.0
19:41:02.644000,149.0,546.0,336.0,-653.0,-497.0,11.0,537.0,-637.0,12.0
19:41:02.648000,109.0,518.0,320.0,-653.0,-497.0,11.0,541.0,-639.0,12.0
19:41:02.653000,63.0,495.0,300.0,-646.0,-506.0,-10.0,541.0,-639.0,12.0
19:41:02.660000,25.0,464.0,269.0,-617.0,-527.0,-20.0,534.0,-640.0,37.0
19:41:02.662000,3.0,429.0,243.0,-617.0,-527.0,-20.0,534.0,-640.0,37.0
19:41:02.666000,-11.0,389.0,222.0,-606.0,-559.0,-30.0,534.0,-640.0,37.0
19:41:02.672000,-16.0,351.0,184.0,-632.0,-595.0,-44.0,532.0,-639.0,19.0
19:41:02.677000,-20.0,324.0,143.0,-650.0,-620.0,-65.0,532.0,-639.0,19.0
19:41:02.681000,-25.0,299.0,112.0,-648.0,-631.0,-81.0,540.0,-633.0,21.0
19:41:02.686000,-30.0,270.0,77.0,-651.0,-633.0,-94.0,540.0,-633.0,21.0
19:41:02.690000,-30.0,270.0,77.0,-663.0,-635.0,-100.0,540.0,-633.0,21.0
19:41:02.695000,-48.0,185.0,14.0,-650.0,-640.0,-101.0,537.0,-639.0,22.0
19:41:02.700000,-60.0,144.0,-36.0,-619.0,-632.0,-108.0,537.0,-639.0,22.0
19:41:02.704000,-60.0,144.0,-36.0,-581.0,-627.0,-107.0,540.0,-646.0,24.0
19:41:02.709000,-69.0,91.0,-84.0,-546.0,-618.0,-116.0,540.0,-646.0,24.0
19:41:02.713000,-77.0,53.0,-136.0,-556.0,-604.0,-129.0,540.0,-646.0,24.0
19:41:02.719000,-80.0,14.0,-179.0,-600.0,-608.0,-132.0,538.0,-636.0,12.0
19:41:02.723000,-105.0,-14.0,-184.0,-634.0,-622.0,-131.0,538.0,-636.0,12.0
19:41:02.728000,-143.0,-55.0,-163.0,-643.0,-626.0,-133.0,546.0,-640.0,25.0
19:41:02.733000,-163.0,-93.0,-182.0,-627.0,-625.0,-142.0,546.0,-640.0,25.0
19:41:02.737000,-189.0,-120.0,-214.0,-642.0,-657.0,-137.0,546.0,-640.0,25.0
19:41:02.742000,-210.0,-155.0,-205.0,-625.0,-674.0,-135.0,547.0,-643.0,21.0
19:41:02.747000,-223.0,-174.0,-254.0,-603.0,-688.0,-131.0,547.0,-643.0,21.0
19:41:02.751000,-230.0,-209.0,-243.0,-632.0,-727.0,-115.0,555.0,-631.0,21.0
19:41:02.756000,-235.0,-239.0,-263.0,-639.0,-732.0,-105.0,555.0,-631.0,21.0
19:41:02.760000,-219.0,-275.0,-342.0,-631.0,-740.0,-97.0,555.0,-631.0,21.0
19:41:02.766000,-210.0,-310.0,-385.0,-631.0,-740.0,-97.0,535.0,-631.0,22.0
19:41:02.770000,-195.0,-336.0,-351.0,-615.0,-790.0,-94.0,535.0,-631.0,22.0
19:41:02.775000,-172.0,-370.0,-334.0,-625.0,-841.0,-90.0,540.0,-628.0,7.0
19:41:02.780000,-151.0,-389.0,-368.0,-673.0,-843.0,-93.0,540.0,-628.0,7.0
19:41:02.784000,-142.0,-408.0,-401.0,-714.0,-816.0,-98.0,540.0,-628.0,7.0
19:41:02.789000,-136.0,-431.0,-410.0,-722.0,-800.0,-99.0,541.0,-622.0,15.0
19:41:02.793000,-140.0,-450.0,-444.0,-732.0,-758.0,-106.0,541.0,-622.0,15.0
19:41:02.799000,-153.0,-471.0,-512.0,-742.0,-683.0,-102.0,541.0,-625.0,15.0
19:41:02.803000,-175.0,-485.0,-549.0,-711.0,-645.0,-97.0,541.0,-625.0,15.0
19:41:02.808000,-196.0,-506.0,-554.0,-687.0,-643.0,-91.0,538.0,-625.0,12.0
19:41:02.813000,-196.0,-506.0,-554.0,-713.0,-639.0,-85.0,538.0,-625.0,12.0
19:41:02.817000,-214.0,-530.0,-557.0,-744.0,-649.0,-82.0,538.0,-625.0,12.0
19:41:02.822000,-224.0,-555.0,-553.0,-756.0,-687.0,-80.0,550.0,-615.0,9.0
19:41:02.827000,-230.0,-578.0,-548.0,-759.0,-735.0,-76.0,550.0,-615.0,9.0
19:41:02.832000,-225.0,-597.0,-525.0,-763.0,-779.0,-75.0,537.0,-613.0,-1.0
19:41:02.836000,-214.0,-611.0,-498.0,-777.0,-795.0,-63.0,537.0,-613.0,-1.0
19:41:02.840000,-191.0,-625.0,-473.0,-798.0,-800.0,-43.0,537.0,-613.0,-1.0
19:41:02.846000,-172.0,-630.0,-461.0,-820.0,-795.0,-31.0,538.0,-600.0,6.0
19:41:02.850000,-149.0,-632.0,-457.0,-840.0,-772.0,-20.0,538.0,-600.0,6.0
19:41:02.855000,-125.0,-630.0,-454.0,-849.0,-758.0,-6.0,547.0,-607.0,-12.0
19:41:02.860000,-113.0,-628.0,-440.0,-849.0,-741.0,-6.0,547.0,-607.0,-12.0
19:41:02.864000,-101.0,-625.0,-430.0,-875.0,-713.0,2.0,547.0,-607.0,-12.0
19:41:02.869000,-105.0,-611.0,-422.0,-901.0,-685.0,9.0,540.0,-597.0,-6.0
19:41:02.874000,-121.0,-599.0,-408.0,-901.0,-685.0,9.0,540.0,-597.0,-6.0
19:41:02.879000,-123.0,-584.0,-408.0,-925.0,-653.0,7.0,540.0,-594.0,-12.0
19:41:02.883000,-126.0,-571.0,-415.0,-939.0,-599.0,15.0,540.0,-594.0,-12.0
19:41:02.887000,-144.0,-553.0,-406.0,-939.0,-599.0,15.0,540.0,-594.0,-12.0
19:41:02.893000,-157.0,-548.0,-388.0,-915.0,-594.0,28.0,544.0,-589.0,-18.0
19:41:02.897000,-162.0,-543.0,-373.0,-887.0,-596.0,34.0,544.0,-589.0,-18.0
19:41:02.902000,-166.0,-538.0,-346.0,-862.0,-617.0,39.0,538.0,-579.0,-15.0
19:41:02.907000,-157.0,-540.0,-305.0,-847.0,-647.0,48.0,538.0,-579.0,-15.0
19:41:02.911000,-157.0,-540.0,-305.0,-846.0,-664.0,44.0,538.0,-579.0,-15.0
19:41:02.916000,-127.0,-533.0,-263.0,-862.0,-656.0,43.0,544.0,-582.0,-30.0
19:41:02.921000,-127.0,-533.0,-263.0,-875.0,-640.0,45.0,544.0,-582.0,-30.0
19:41:02.925000,-109.0,-532.0,-235.0,-875.0,-634.0,51.0,546.0,-588.0,-25.0
19:41:02.930000,-96.0,-534.0,-192.0,-872.0,-624.0,61.0,546.0,-588.0,-25.0
19:41:02.934000,-89.0,-534.0,-147.0,-875.0,-604.0,72.0,546.0,-588.0,-25.0
19:41:02.940000,-88.0,-537.0,-108.0,-887.0,-577.0,84.0,538.0,-591.0,-27.0
19:41:02.944000,-96.0,-536.0,-82.0,-890.0,-543.0,101.0,538.0,-591.0,-27.0
19:41:02.949000,-116.0,-539.0,-74.0,-875.0,-515.0,116.0,528.0,-585.0,-36.0
19:41:02.954000,-134.0,-543.0,-62.0,-854.0,-501.0,125.0,528.0,-585.0,-36.0
19:41:02.958000,-157.0,-546.0,-44.0,-847.0,-487.0,142.0,528.0,-585.0,-36.0
19:41:02.963000,-187.0,-547.0,-25.0,-847.0,-475.0,154.0,532.0,-579.0,-37.0
19:41:02.968000,-210.0,-548.0,-16.0,-847.0,-480.0,166.0,532.0,-579.0,-37.0
19:41:02.972000,-231.0,-545.0,2.0,-856.0,-505.0,180.0,526.0,-576.0,-33.0
19:41:02.977000,-240.0,-543.0,34.0,-869.0,-550.0,187.0,526.0,-576.0,-33.0
19:41:02.981000,-234.0,-536.0,70.0,-869.0,-609.0,187.0,526.0,-576.0,-33.0
19:41:02.987000,-214.0,-526.0,98.0,-885.0,-609.0,187.0,528.0,-589.0,-46.0
19:41:02.991000,-179.0,-510.0,107.0,-907.0,-657.0,183.0,528.0,-589.0,-46.0
19:41:02.996000,-147.0,-486.0,103.0,-933.0,-689.0,179.0,523.0,-583.0,-43.0
19:41:03.001000,-122.0,-457.0,92.0,-946.0,-700.0,173.0,523.0,-583.0,-43.0
19:41:03.005000,-112.0,-427.0,72.0,-948.0,-684.0,167.0,523.0,-583.0,-43.0
19:41:03.010000,-123.0,-396.0,40.0,-955.0,-635.0,163.0,517.0,-580.0,-49.0
19:41:03.015000,-150.0,-365.0,0.0,-963.0,-556.0,151.0,517.0,-580.0,-49.0
19:41:03.020000,-195.0,-337.0,-53.0,-972.0,-462.0,137.0,522.0,-583.0,-40.0
19:41:03.024000,-256.0,-315.0,-107.0,-984.0,-383.0,129.0,522.0,-583.0,-40.0
19:41:03.028000,-256.0,-315.0,-107.0,-992.0,-335.0,117.0,522.0,-583.0,-40.0
19:41:03.034000,-318.0,-297.0,-149.0,-980.0,-325.0,100.0,526.0,-577.0,-46.0
19:41:03.038000,-380.0,-291.0,-169.0,-949.0,-360.0,97.0,526.0,-577.0,-46.0
19:41:03.043000,-431.0,-304.0,-165.0,-917.0,-409.0,91.0,519.0,-583.0,-54.0
19:41:03.048000,-473.0,-318.0,-156.0,-878.0,-448.0,70.0,519.0,-583.0,-54.0
19:41:03.052000,-501.0,-329.0,-154.0,-852.0,-481.0,45.0,519.0,-583.0,-54.0
19:41:03.057000,-522.0,-341.0,-144.0,-859.0,-490.0,25.0,520.0,-567.0,-57.0
19:41:03.062000,-538.0,-358.0,-131.0,-877.0,-461.0,18.0,520.0,-567.0,-57.0
19:41:03.067000,-559.0,-379.0,-132.0,-882.0,-411.0,14.0,510.0,-564.0,-57.0
19:41:03.071000,-581.0,-399.0,-152.0,-859.0,-373.0,10.0,510.0,-564.0,-57.0
19:41:03.075000,-608.0,-425.0,-180.0,-829.0,-359.0,12.0,510.0,-564.0,-57.0
19:41:03.081000,-634.0,-458.0,-204.0,-816.0,-356.0,12.0,504.0,-567.0,-63.0
19:41:03.085000,-654.0,-497.0,-234.0,-809.0,-358.0,16.0,504.0,-567.0,-63.0
19:41:03.090000,-671.0,-538.0,-266.0,-809.0,-358.0,16.0,516.0,-553.0,-70.0
19:41:03.095000,-681.0,-578.0,-298.0,-794.0,-367.0,18.0,516.0,-553.0,-70.0
19:41:03.099000,-688.0,-611.0,-317.0,-770.0,-385.0,20.0,516.0,-553.0,-70.0
19:41:03.104000,-695.0,-641.0,-324.0,-742.0,-386.0,36.0,514.0,-550.0,-67.0
19:41:03.109000,-707.0,-660.0,-318.0,-742.0,-386.0,36.0,514.0,-550.0,-67.0
19:41:03.114000,-723.0,-679.0,-317.0,-742.0,-358.0,54.0,511.0,-550.0,-76.0
19:41:03.118000,-740.0,-694.0,-306.0,-762.0,-333.0,74.0,511.0,-550.0,-76.0
19:41:03.122000,-750.0,-706.0,-273.0,-784.0,-343.0,90.0,511.0,-550.0,-76.0
19:41:03.128000,-750.0,-713.0,-253.0,-814.0,-365.0,104.0,502.0,-546.0,-87.0
19:41:03.132000,-735.0,-711.0,-261.0,-851.0,-380.0,118.0,502.0,-546.0,-87.0
19:41:03.137000,-708.0,-706.0,-269.0,-871.0,-399.0,135.0,495.0,-535.0,-84.0
19:41:03.142000,-708.0,-706.0,-269.0,-869.0,-441.0,164.0,495.0,-535.0,-84.0
19:41:03.146000,-678.0,-702.0,-244.0,-867.0,-476.0,195.0,495.0,-535.0,-84.0
19:41:03.151000,-646.0,-690.0,-228.0,-875.0,-494.0,224.0,493.0,-517.0,-99.0
19:41:03.156000,-594.0,-686.0,-222.0,-872.0,-503.0,253.0,493.0,-517.0,-99.0
19:41:03.161000,-534.0,-675.0,-226.0,-856.0,-491.0,277.0,502.0,-525.0,-100.0
19:41:03.165000,-501.0,-644.0,-215.0,-858.0,-450.0,306.0,502.0,-525.0,-100.0
19:41:03.169000,-488.0,-616.0,-203.0,-873.0,-377.0,338.0,502.0,-525.0,-100.0
19:41:03.175000,-480.0,-588.0,-195.0,-889.0,-287.0,357.0,490.0,-523.0,-99.0
19:41:03.179000,-489.0,-548.0,-207.0,-893.0,-204.0,377.0,490.0,-523.0,-99.0
19:41:03.184000,-527.0,-495.0,-261.0,-880.0,-113.0,398.0,487.0,-505.0,-105.0
19:41:03.189000,-562.0,-446.0,-345.0,-847.0,-73.0,411.0,487.0,-505.0,-105.0
19:41:03.193000,-602.0,-395.0,-395.0,-791.0,-118.0,429.0,487.0,-505.0,-105.0
19:41:03.198000,-662.0,-343.0,-401.0,-749.0,-192.0,439.0,475.0,-507.0,-121.0
19:41:03.203000,-693.0,-302.0,-403.0,-749.0,-192.0,439.0,475.0,-507.0,-121.0
19:41:03.208000,-721.0,-268.0,-355.0,-735.0,-273.0,441.0,481.0,-502.0,-108.0
19:41:03.212000,-729.0,-238.0,-287.0,-737.0,-307.0,441.0,481.0,-502.0,-108.0
19:41:03.216000,-734.0,-216.0,-259.0,-772.0,-277.0,437.0,481.0,-502.0,-108.0
19:41:03.222000,-735.0,-205.0,-240.0,-818.0,-253.0,441.0,483.0,-504.0,-108.0
19:41:03.226000,-729.0,-200.0,-217.0,-828.0,-268.0,438.0,483.0,-504.0,-108.0
19:41:03.230000,-714.0,-198.0,-193.0,-808.0,-299.0,429.0,480.0,-493.0,-117.0
19:41:03.236000,-701.0,-199.0,-184.0,-788.0,-329.0,424.0,480.0,-493.0,-117.0
19:41:03.240000,-701.0,-199.0,-184.0,-773.0,-321.0,424.0,480.0,-493.0,-117.0
19:41:03.245000,-652.0,-213.0,-217.0,-745.0,-299.0,424.0,471.0,-486.0,-105.0
19:41:03.250000,-652.0,-213.0,-217.0,-707.0,-307.0,429.0,471.0,-486.0,-105.0
19:41:03.255000,-626.0,-227.0,-193.0,-688.0,-304.0,434.0,478.0,-478.0,-120.0
19:41:03.259000,-597.0,-245.0,-173.0,-688.0,-290.0,442.0,478.0,-478.0,-120.0
19:41:03.263000,-574.0,-265.0,-161.0,-691.0,-293.0,447.0,478.0,-478.0,-120.0
19:41:03.269000,-550.0,-280.0,-151.0,-699.0,-304.0,447.0,490.0,-475.0,-118.0
19:41:03.273000,-518.0,-299.0,-130.0,-722.0,-315.0,453.0,490.0,-475.0,-118.0
19:41:03.278000,-482.0,-321.0,-98.0,-753.0,-337.0,456.0,475.0,-469.0,-111.0
19:41:03.283000,-460.0,-326.0,-74.0,-777.0,-373.0,458.0,475.0,-469.0,-111.0
19:41:03.287000,-441.0,-333.0,-49.0,-792.0,-396.0,459.0,465.0,-471.0,-126.0
19:41:03.292000,-403.0,-335.0,-16.0,-794.0,-398.0,455.0,465.0,-471.0,-126.0
19:41:03.296000,-377.0,-326.0,9.0,-793.0,-381.0,460.0,465.0,-471.0,-126.0
19:41:03.302000,-361.0,-314.0,20.0,-790.0,-363.0,462.0,471.0,-468.0,-138.0
19:41:03.306000,-345.0,-302.0,25.0,-781.0,-360.0,464.0,471.0,-468.0,-138.0
19:41:03.311000,-334.0,-291.0,32.0,-781.0,-360.0,464.0,469.0,-462.0,-133.0
19:41:03.316000,-328.0,-280.0,39.0,-764.0,-357.0,467.0,469.0,-462.0,-133.0
19:41:03.320000,-323.0,-268.0,44.0,-764.0,-357.0,467.0,469.0,-462.0,-133.0
19:41:03.324000,-324.0,-256.0,49.0,-762.0,-350.0,468.0,468.0,-469.0,-136.0
19:41:03.330000,-322.0,-243.0,47.0,-758.0,-347.0,468.0,468.0,-469.0,-136.0
19:41:03.334000,-317.0,-231.0,47.0,-749.0,-359.0,463.0,472.0,-457.0,-126.0
19:41:03.339000,-310.0,-214.0,44.0,-742.0,-385.0,458.0,472.0,-457.0,-126.0
19:41:03.343000,-310.0,-214.0,44.0,-743.0,-405.0,448.0,472.0,-457.0,-126.0
19:41:03.349000,-276.0,-176.0,49.0,-750.0,-416.0,437.0,460.0,-457.0,-133.0
19:41:03.353000,-259.0,-158.0,58.0,-771.0,-409.0,432.0,460.0,-457.0,-133.0
19:41:03.357000,-259.0,-158.0,58.0,-802.0,-397.0,431.0,454.0,-454.0,-130.0
19:41:03.363000,-245.0,-140.0,67.0,-839.0,-370.0,432.0,454.0,-454.0,-130.0
19:41:03.367000,-233.0,-120.0,67.0,-880.0,-340.0,438.0,454.0,-454.0,-130.0
19:41:03.372000,-228.0,-104.0,67.0,-892.0,-347.0,445.0,468.0,-450.0,-138.0
19:41:03.377000,-227.0,-81.0,77.0,-882.0,-348.0,448.0,468.0,-450.0,-138.0
19:41:03.381000,-220.0,-65.0,97.0,-842.0,-372.0,438.0,463.0,-453.0,-132.0
19:41:03.386000,-212.0,-41.0,104.0,-778.0,-405.0,423.0,463.0,-453.0,-132.0
19:41:03.390000,-205.0,-20.0,88.0,-738.0,-375.0,422.0,463.0,-453.0,-132.0
19:41:03.396000,-182.0,-9.0,73.0,-720.0,-341.0,429.0,465.0,-445.0,-129.0
19:41:03.400000,-171.0,2.0,80.0,-712.0,-332.0,442.0,465.0,-445.0,-129.0
19:41:03.404000,-165.0,4.0,98.0,-731.0,-347.0,448.0,459.0,-436.0,-126.0
19:41:03.410000,-147.0,11.0,101.0,-762.0,-371.0,450.0,459.0,-436.0,-126.0
19:41:03.414000,-134.0,23.0,62.0,-770.0,-385.0,442.0,459.0,-436.0,-126.0
19:41:03.419000,-109.0,43.0,0.0,-747.0,-404.0,431.0,459.0,-454.0,-136.0
19:41:03.424000,-75.0,64.0,-34.0,-747.0,-404.0,431.0,459.0,-454.0,-136.0
19:41:03.428000,-40.0,77.0,-20.0,-713.0,-418.0,433.0,459.0,-445.0,-133.0
19:41:03.433000,-21.0,105.0,14.0,-694.0,-429.0,438.0,459.0,-445.0,-133.0
19:41:03.437000,-18.0,129.0,24.0,-701.0,-384.0,454.0,459.0,-445.0,-133.0
19:41:03.443000,-6.0,133.0,19.0,-720.0,-303.0,479.0,468.0,-448.0,-142.0
19:41:03.447000,-10.0,153.0,28.0,-715.0,-268.0,490.0,468.0,-448.0,-142.0
19:41:03.451000,-33.0,182.0,8.0,-717.0,-210.0,508.0,472.0,-447.0,-139.0
19:41:03.457000,-44.0,202.0,-50.0,-745.0,-159.0,528.0,472.0,-447.0,-139.0
19:41:03.461000,-44.0,202.0,-50.0,-749.0,-189.0,534.0,472.0,-447.0,-139.0
19:41:03.466000,-37.0,230.0,-138.0,-750.0,-234.0,544.0,454.0,-447.0,-126.0
19:41:03.471000,-37.0,230.0,-138.0,-775.0,-265.0,541.0,454.0,-447.0,-126.0
19:41:03.475000,-42.0,254.0,-161.0,-798.0,-263.0,542.0,468.0,-445.0,-129.0
19:41:03.480000,-59.0,275.0,-157.0,-806.0,-239.0,559.0,468.0,-445.0,-129.0
19:41:03.484000,-71.0,287.0,-143.0,-801.0,-219.0,569.0,468.0,-445.0,-129.0
19:41:03.490000,-96.0,310.0,-139.0,-783.0,-190.0,576.0,471.0,-448.0,-132.0
19:41:03.494000,-128.0,332.0,-144.0,-766.0,-177.0,583.0,471.0,-448.0,-132.0
19:41:03.499000,-156.0,343.0,-137.0,-765.0,-164.0,593.0,457.0,-445.0,-112.0
19:41:03.504000,-188.0,354.0,-119.0,-783.0,-134.0,600.0,457.0,-445.0,-112.0
19:41:03.508000,-223.0,359.0,-107.0,-795.0,-105.0,609.0,466.0,-439.0,-127.0
19:41:03.513000,-263.0,362.0,-107.0,-782.0,-109.0,623.0,466.0,-439.0,-127.0
19:41:03.517000,-297.0,360.0,-105.0,-757.0,-144.0,637.0,466.0,-439.0,-127.0
19:41:03.522000,-327.0,361.0,-109.0,-723.0,-186.0,648.0,483.0,-429.0,-123.0
19:41:03.527000,-349.0,357.0,-112.0,-685.0,-227.0,648.0,483.0,-429.0,-123.0
19:41:03.532000,-360.0,350.0,-101.0,-685.0,-227.0,648.0,466.0,-438.0,-127.0
