hh:mm:ss.ms,gyroX[mdps],gyroY[mdps],gyroZ[mdps],accX[mg],accY[mg],accZ[mg],magX[mG],magY[mG],magZ[mG]
19:44:23.970000,228.0,-384.0,-1192.0,-1441.0,-282.0,-217.0,0.0,0.0,0.0
19:44:23.975000,229.0,-366.0,-961.0,-1441.0,-282.0,-217.0,0.0,0.0,0.0
19:44:23.980000,163.0,-341.0,-851.0,-1441.0,-282.0,-217.0,0.0,0.0,0.0
19:44:23.984000,88.0,-333.0,-969.0,-1404.0,-447.0,-137.0,0.0,0.0,0.0
19:44:23.989000,35.0,-312.0,-737.0,-1404.0,-447.0,-137.0,0.0,0.0,0.0
19:44:23.994000,19.0,-267.0,-453.0,-1249.0,-609.0,-81.0,0.0,0.0,0.0
19:44:23.998000,15.0,-236.0,-441.0,-1249.0,-609.0,-81.0,0.0,0.0,0.0
19:44:24.003000,81.0,-250.0,-523.0,-1037.0,-931.0,-52.0,0.0,0.0,0.0
19:44:24.008000,44.0,-266.0,-597.0,-1037.0,-931.0,-52.0,0.0,0.0,0.0
19:44:24.013000,-79.0,-245.0,-202.0,-795.0,-1076.0,0.0,0.0,0.0,0.0
19:44:24.017000,-125.0,-240.0,-116.0,-795.0,-1076.0,0.0,0.0,0.0,0.0
19:44:24.022000,-125.0,-240.0,-116.0,-634.0,-949.0,20.0,0.0,0.0,0.0
19:44:24.027000,-179.0,-250.0,-509.0,-634.0,-949.0,20.0,0.0,0.0,0.0
19:44:24.031000,-270.0,-266.0,-687.0,-581.0,-801.0,8.0,0.0,0.0,0.0
19:44:24.036000,-281.0,-252.0,-507.0,-581.0,-801.0,8.0,0.0,0.0,0.0
19:44:24.041000,-289.0,-272.0,-441.0,-617.0,-852.0,9.0,0.0,0.0,0.0
19:44:24.045000,-326.0,-294.0,-552.0,-617.0,-852.0,9.0,0.0,0.0,0.0
19:44:24.050000,-185.0,-328.0,-618.0,-731.0,-868.0,2.0,0.0,0.0,0.0
19:44:24.055000,-157.0,-350.0,-592.0,-731.0,-868.0,2.0,0.0,0.0,0.0
19:44:24.060000,-192.0,-360.0,-622.0,-820.0,-693.0,9.0,0.0,0.0,0.0
19:44:24.064000,-163.0,-399.0,-715.0,-820.0,-693.0,9.0,0.0,0.0,0.0
19:44:24.069000,-153.0,-387.0,-651.0,-914.0,-552.0,26.0,0.0,0.0,0.0
19:44:24.074000,-186.0,-371.0,-677.0,-914.0,-552.0,26.0,0.0,0.0,0.0
19:44:24.078000,-257.0,-340.0,-705.0,-866.0,-577.0,42.0,0.0,0.0,0.0
19:44:24.083000,-238.0,-340.0,-661.0,-866.0,-577.0,42.0,0.0,0.0,0.0
19:44:24.088000,-250.0,-343.0,-555.0,-866.0,-577.0,42.0,0.0,0.0,0.0
19:44:24.092000,-277.0,-318.0,-404.0,-831.0,-590.0,67.0,0.0,0.0,0.0
19:44:24.097000,-256.0,-241.0,-324.0,-831.0,-590.0,67.0,0.0,0.0,0.0
19:44:24.102000,-189.0,-230.0,-405.0,-895.0,-684.0,57.0,0.0,0.0,0.0
19:44:24.107000,-162.0,-219.0,-338.0,-895.0,-684.0,57.0,0.0,0.0,0.0
19:44:24.111000,-182.0,-170.0,-182.0,-867.0,-818.0,53.0,0.0,0.0,0.0
19:44:24.116000,-169.0,-142.0,-177.0,-867.0,-818.0,53.0,0.0,0.0,0.0
19:44:24.121000,66.0,-105.0,-240.0,-831.0,-705.0,51.0,0.0,0.0,0.0
19:44:24.125000,124.0,-63.0,-569.0,-831.0,-705.0,51.0,0.0,0.0,0.0
19:44:24.130000,124.0,-63.0,-569.0,-912.0,-717.0,30.0,0.0,0.0,0.0
19:44:24.135000,94.0,-2.0,-499.0,-912.0,-717.0,30.0,0.0,0.0,0.0
19:44:24.139000,83.0,17.0,-248.0,-842.0,-859.0,29.0,0.0,0.0,0.0
19:44:24.144000,117.0,6.0,18.0,-842.0,-859.0,29.0,0.0,0.0,0.0
19:44:24.149000,100.0,37.0,-11.0,-756.0,-584.0,6.0,0.0,0.0,0.0
19:44:24.154000,191.0,91.0,-117.0,-756.0,-584.0,6.0,0.0,0.0,0.0
19:44:24.158000,247.0,110.0,-171.0,-808.0,-470.0,-26.0,0.0,0.0,0.0
19:44:24.163000,309.0,113.0,-368.0,-808.0,-470.0,-26.0,0.0,0.0,0.0
19:44:24.168000,264.0,93.0,-498.0,-785.0,-752.0,-24.0,0.0,0.0,0.0
19:44:24.172000,187.0,99.0,-35.0,-785.0,-752.0,-24.0,0.0,0.0,0.0
19:44:24.177000,188.0,105.0,254.0,-709.0,-551.0,-30.0,0.0,0.0,0.0
19:44:24.182000,188.0,89.0,-91.0,-709.0,-551.0,-30.0,0.0,0.0,0.0
19:44:24.186000,200.0,74.0,-583.0,-752.0,-201.0,-55.0,0.0,0.0,0.0
19:44:24.191000,267.0,84.0,-915.0,-752.0,-201.0,-55.0,0.0,0.0,0.0
19:44:24.196000,210.0,82.0,-661.0,-671.0,-637.0,-70.0,0.0,0.0,0.0
19:44:24.201000,97.0,73.0,-125.0,-671.0,-637.0,-70.0,0.0,0.0,0.0
19:44:24.205000,55.0,39.0,47.0,-671.0,-637.0,-70.0,0.0,0.0,0.0
19:44:24.210000,24.0,64.0,193.0,-666.0,-704.0,-97.0,0.0,0.0,0.0
19:44:24.215000,126.0,42.0,194.0,-666.0,-704.0,-97.0,0.0,0.0,0.0
19:44:24.219000,25.0,-11.0,-38.0,-902.0,-270.0,-135.0,0.0,0.0,0.0
19:44:24.224000,-5.0,1.0,-474.0,-902.0,-270.0,-135.0,0.0,0.0,0.0
19:44:24.229000,65.0,-11.0,-656.0,-844.0,-295.0,-128.0,0.0,0.0,0.0
19:44:24.233000,-68.0,-22.0,-319.0,-844.0,-295.0,-128.0,0.0,0.0,0.0
19:44:24.238000,-99.0,-34.0,70.0,-602.0,-519.0,-81.0,0.0,0.0,0.0
19:44:24.243000,-99.0,-34.0,70.0,-602.0,-519.0,-81.0,0.0,0.0,0.0
19:44:24.248000,-189.0,1.0,53.0,-690.0,-447.0,-74.0,0.0,0.0,0.0
19:44:24.252000,-210.0,10.0,-235.0,-690.0,-447.0,-74.0,0.0,0.0,0.0
19:44:24.257000,-193.0,-10.0,-196.0,-867.0,-436.0,-111.0,0.0,0.0,0.0
19:44:24.262000,-182.0,-37.0,55.0,-867.0,-436.0,-111.0,0.0,0.0,0.0
19:44:24.266000,-207.0,-21.0,193.0,-808.0,-500.0,-111.0,0.0,0.0,0.0
19:44:24.271000,-249.0,-12.0,107.0,-808.0,-500.0,-111.0,0.0,0.0,0.0
19:44:24.276000,-173.0,-12.0,-82.0,-830.0,-377.0,-106.0,0.0,0.0,0.0
19:44:24.281000,-124.0,-30.0,-230.0,-830.0,-377.0,-106.0,0.0,0.0,0.0
19:44:24.285000,-107.0,-47.0,-318.0,-865.0,-594.0,-99.0,0.0,0.0,0.0
19:44:24.290000,-247.0,-88.0,-149.0,-865.0,-594.0,-99.0,0.0,0.0,0.0
19:44:24.295000,-331.0,-63.0,67.0,-734.0,-637.0,-99.0,0.0,0.0,0.0
19:44:24.299000,-216.0,-30.0,205.0,-734.0,-637.0,-99.0,0.0,0.0,0.0
19:44:24.304000,-156.0,-29.0,93.0,-734.0,-637.0,-99.0,0.0,0.0,0.0
19:44:24.309000,-126.0,-27.0,-42.0,-833.0,-461.0,-109.0,0.0,0.0,0.0
19:44:24.313000,-110.0,-28.0,-157.0,-964.0,-647.0,-79.0,0.0,0.0,0.0
19:44:24.318000,-172.0,-43.0,-116.0,-964.0,-647.0,-79.0,0.0,0.0,0.0
19:44:24.323000,-151.0,-32.0,189.0,-964.0,-647.0,-79.0,0.0,0.0,0.0
19:44:24.327000,-138.0,-21.0,189.0,-815.0,-691.0,-72.0,0.0,0.0,0.0
19:44:24.332000,-91.0,19.0,-27.0,-815.0,-691.0,-72.0,0.0,0.0,0.0
19:44:24.337000,-80.0,46.0,-55.0,-873.0,-538.0,-96.0,0.0,0.0,0.0
19:44:24.342000,28.0,43.0,-63.0,-873.0,-538.0,-96.0,0.0,0.0,0.0
19:44:24.346000,140.0,21.0,-310.0,-950.0,-570.0,-89.0,0.0,0.0,0.0
19:44:24.351000,140.0,21.0,-310.0,-950.0,-570.0,-89.0,0.0,0.0,0.0
19:44:24.356000,137.0,1.0,-335.0,-788.0,-724.0,-46.0,0.0,0.0,0.0
19:44:24.360000,21.0,-29.0,-159.0,-788.0,-724.0,-46.0,0.0,0.0,0.0
19:44:24.365000,-65.0,-25.0,-181.0,-715.0,-677.0,-48.0,0.0,0.0,0.0
19:44:24.370000,-7.0,-9.0,-275.0,-715.0,-677.0,-48.0,0.0,0.0,0.0
19:44:24.374000,78.0,7.0,-79.0,-791.0,-554.0,-97.0,0.0,0.0,0.0
19:44:24.379000,157.0,-5.0,44.0,-791.0,-554.0,-97.0,0.0,0.0,0.0
19:44:24.384000,210.0,-58.0,-235.0,-976.0,-546.0,-87.0,0.0,0.0,0.0
19:44:24.389000,217.0,-57.0,-466.0,-976.0,-546.0,-87.0,0.0,0.0,0.0
19:44:24.393000,198.0,-42.0,-457.0,-922.0,-549.0,-45.0,0.0,0.0,0.0
19:44:24.398000,122.0,-32.0,-524.0,-922.0,-549.0,-45.0,0.0,0.0,0.0
19:44:24.403000,58.0,-44.0,-548.0,-694.0,-551.0,-33.0,0.0,0.0,0.0
19:44:24.407000,103.0,-42.0,-459.0,-694.0,-551.0,-33.0,0.0,0.0,0.0
19:44:24.412000,104.0,-58.0,-236.0,-694.0,-551.0,-33.0,0.0,0.0,0.0
19:44:24.417000,65.0,-72.0,-107.0,-777.0,-436.0,-37.0,0.0,0.0,0.0
19:44:24.421000,1.0,-82.0,-147.0,-777.0,-436.0,-37.0,0.0,0.0,0.0
19:44:24.426000,30.0,-42.0,-220.0,-914.0,-376.0,-43.0,0.0,0.0,0.0
19:44:24.431000,105.0,-53.0,-262.0,-914.0,-376.0,-43.0,0.0,0.0,0.0
19:44:24.436000,148.0,-74.0,-233.0,-855.0,-399.0,-40.0,0.0,0.0,0.0
19:44:24.440000,152.0,-98.0,-248.0,-855.0,-399.0,-40.0,0.0,0.0,0.0
19:44:24.445000,134.0,-91.0,-303.0,-824.0,-356.0,-10.0,0.0,0.0,0.0
19:44:24.450000,138.0,-74.0,-426.0,-824.0,-356.0,-10.0,0.0,0.0,0.0
19:44:24.454000,136.0,-52.0,-448.0,-848.0,-345.0,25.0,0.0,0.0,0.0
19:44:24.459000,136.0,-52.0,-448.0,-848.0,-345.0,25.0,0.0,0.0,0.0
19:44:24.464000,122.0,-56.0,-413.0,-829.0,-480.0,53.0,0.0,0.0,0.0
19:44:24.468000,37.0,-79.0,-306.0,-829.0,-480.0,53.0,0.0,0.0,0.0
19:44:24.473000,38.0,-79.0,-65.0,-829.0,-426.0,58.0,0.0,0.0,0.0
19:44:24.478000,25.0,-63.0,80.0,-829.0,-426.0,58.0,0.0,0.0,0.0
19:44:24.483000,4.0,-44.0,7.0,-881.0,-248.0,45.0,0.0,0.0,0.0
19:44:24.487000,0.0,-51.0,-193.0,-881.0,-248.0,45.0,0.0,0.0,0.0
19:44:24.492000,7.0,-19.0,-302.0,-896.0,-353.0,33.0,0.0,0.0,0.0
19:44:24.497000,31.0,-4.0,-261.0,-896.0,-353.0,33.0,0.0,0.0,0.0
19:44:24.501000,34.0,5.0,-107.0,-845.0,-432.0,23.0,0.0,0.0,0.0
19:44:24.506000,47.0,7.0,-72.0,-845.0,-432.0,23.0,0.0,0.0,0.0
19:44:24.510000,45.0,20.0,-102.0,-870.0,-308.0,29.0,0.0,0.0,0.0
19:44:24.515000,39.0,33.0,-108.0,-870.0,-308.0,29.0,0.0,0.0,0.0
19:44:24.520000,37.0,39.0,-99.0,-870.0,-339.0,29.0,0.0,0.0,0.0
19:44:24.525000,32.0,57.0,-158.0,-935.0,-315.0,28.0,0.0,0.0,0.0
19:44:24.530000,23.0,71.0,-196.0,-935.0,-315.0,28.0,0.0,0.0,0.0
19:44:24.534000,8.0,74.0,-146.0,-926.0,-359.0,27.0,0.0,0.0,0.0
19:44:24.539000,-14.0,77.0,-78.0,-926.0,-359.0,27.0,0.0,0.0,0.0
19:44:24.544000,-18.0,86.0,-55.0,-874.0,-421.0,23.0,0.0,0.0,0.0
19:44:24.548000,-9.0,75.0,-23.0,-874.0,-421.0,23.0,0.0,0.0,0.0
19:44:24.553000,0.0,75.0,36.0,-874.0,-457.0,18.0,0.0,0.0,0.0
19:44:24.558000,10.0,79.0,34.0,-874.0,-457.0,18.0,0.0,0.0,0.0
19:44:24.562000,31.0,72.0,-32.0,-921.0,-405.0,15.0,0.0,0.0,0.0
19:44:24.567000,31.0,72.0,-32.0,-921.0,-405.0,15.0,0.0,0.0,0.0
19:44:24.572000,14.0,68.0,-86.0,-923.0,-399.0,24.0,0.0,0.0,0.0
19:44:24.577000,11.0,63.0,-146.0,-923.0,-399.0,24.0,0.0,0.0,0.0
19:44:24.581000,-20.0,60.0,-168.0,-894.0,-427.0,36.0,0.0,0.0,0.0
19:44:24.586000,-82.0,56.0,-88.0,-894.0,-427.0,36.0,0.0,0.0,0.0
19:44:24.591000,-78.0,61.0,42.0,-932.0,-413.0,16.0,0.0,0.0,0.0
19:44:24.595000,-67.0,73.0,89.0,-932.0,-413.0,16.0,0.0,0.0,0.0
19:44:24.600000,-66.0,75.0,44.0,-1023.0,-350.0,-3.0,0.0,0.0,0.0
19:44:24.605000,-53.0,74.0,-60.0,-1023.0,-350.0,-3.0,0.0,0.0,0.0
19:44:24.609000,-47.0,93.0,-87.0,-1019.0,-401.0,-5.0,0.0,0.0,0.0
19:44:24.614000,-40.0,106.0,-90.0,-1019.0,-401.0,-5.0,0.0,0.0,0.0
19:44:24.619000,-42.0,113.0,-112.0,-936.0,-466.0,0.0,0.0,0.0,0.0
19:44:24.624000,-32.0,114.0,-131.0,-936.0,-466.0,0.0,0.0,0.0,0.0
19:44:24.628000,-11.0,116.0,-143.0,-901.0,-452.0,4.0,0.0,0.0,0.0
19:44:24.633000,-2.0,120.0,-142.0,-901.0,-452.0,4.0,0.0,0.0,0.0
19:44:24.638000,2.0,127.0,-112.0,-901.0,-452.0,4.0,0.0,0.0,0.0
19:44:24.642000,2.0,131.0,-92.0,-919.0,-476.0,1.0,0.0,0.0,0.0
19:44:24.647000,13.0,133.0,-107.0,-919.0,-476.0,1.0,0.0,0.0,0.0
19:44:24.652000,38.0,142.0,-198.0,-978.0,-477.0,-5.0,0.0,0.0,0.0
19:44:24.656000,60.0,157.0,-272.0,-978.0,-477.0,-5.0,0.0,0.0,0.0
19:44:24.661000,71.0,162.0,-207.0,-1005.0,-466.0,-18.0,0.0,0.0,0.0
19:44:24.666000,72.0,161.0,-119.0,-1005.0,-466.0,-18.0,0.0,0.0,0.0
19:44:24.671000,71.0,168.0,-110.0,-958.0,-475.0,-22.0,0.0,0.0,0.0
19:44:24.675000,70.0,175.0,-137.0,-958.0,-475.0,-22.0,0.0,0.0,0.0
19:44:24.680000,70.0,175.0,-137.0,-931.0,-437.0,-20.0,0.0,0.0,0.0
19:44:24.685000,68.0,177.0,-154.0,-931.0,-437.0,-20.0,0.0,0.0,0.0
19:44:24.689000,70.0,177.0,-169.0,-944.0,-406.0,-26.0,0.0,0.0,0.0
19:44:24.694000,67.0,177.0,-212.0,-944.0,-406.0,-26.0,0.0,0.0,0.0
19:44:24.699000,51.0,178.0,-239.0,-939.0,-403.0,-32.0,0.0,0.0,0.0
19:44:24.703000,35.0,179.0,-223.0,-939.0,-403.0,-32.0,0.0,0.0,0.0
19:44:24.708000,17.0,175.0,-217.0,-927.0,-383.0,-36.0,0.0,0.0,0.0
19:44:24.713000,-2.0,165.0,-230.0,-927.0,-383.0,-36.0,0.0,0.0,0.0
19:44:24.718000,-11.0,152.0,-240.0,-931.0,-372.0,-45.0,0.0,0.0,0.0
19:44:24.722000,-15.0,139.0,-253.0,-931.0,-372.0,-45.0,0.0,0.0,0.0
19:44:24.727000,-16.0,133.0,-273.0,-937.0,-383.0,-55.0,0.0,0.0,0.0
19:44:24.732000,-14.0,123.0,-298.0,-937.0,-383.0,-55.0,0.0,0.0,0.0
19:44:24.736000,-17.0,114.0,-291.0,-913.0,-394.0,-55.0,0.0,0.0,0.0
19:44:24.741000,-27.0,107.0,-268.0,-913.0,-394.0,-55.0,0.0,0.0,0.0
19:44:24.745000,-28.0,98.0,-287.0,-892.0,-373.0,-53.0,0.0,0.0,0.0
19:44:24.750000,-30.0,96.0,-322.0,-892.0,-373.0,-53.0,0.0,0.0,0.0
19:44:24.755000,-40.0,98.0,-342.0,-892.0,-373.0,-53.0,0.0,0.0,0.0
19:44:24.760000,-53.0,100.0,-348.0,-899.0,-327.0,-53.0,0.0,0.0,0.0
19:44:24.765000,-66.0,102.0,-346.0,-899.0,-327.0,-53.0,0.0,0.0,0.0
19:44:24.769000,-78.0,105.0,-328.0,-914.0,-296.0,-54.0,0.0,0.0,0.0
19:44:24.774000,-84.0,107.0,-308.0,-914.0,-296.0,-54.0,0.0,0.0,0.0
19:44:24.779000,-86.0,109.0,-303.0,-928.0,-309.0,-61.0,0.0,0.0,0.0
19:44:24.783000,-88.0,110.0,-301.0,-928.0,-309.0,-61.0,0.0,0.0,0.0
19:44:24.788000,-88.0,110.0,-301.0,-936.0,-329.0,-68.0,0.0,0.0,0.0
19:44:24.793000,-103.0,117.0,-300.0,-936.0,-329.0,-68.0,0.0,0.0,0.0
19:44:24.797000,-123.0,122.0,-298.0,-946.0,-307.0,-70.0,0.0,0.0,0.0
19:44:24.802000,-137.0,126.0,-292.0,-946.0,-307.0,-70.0,0.0,0.0,0.0
19:44:24.807000,-150.0,132.0,-270.0,-949.0,-294.0,-74.0,0.0,0.0,0.0
19:44:24.812000,-150.0,133.0,-277.0,-949.0,-294.0,-74.0,0.0,0.0,0.0
19:44:24.816000,-144.0,128.0,-329.0,-951.0,-299.0,-80.0,0.0,0.0,0.0
19:44:24.821000,-142.0,124.0,-364.0,-951.0,-299.0,-80.0,0.0,0.0,0.0
19:44:24.826000,-135.0,122.0,-345.0,-911.0,-334.0,-85.0,0.0,0.0,0.0
19:44:24.830000,-121.0,120.0,-294.0,-911.0,-334.0,-85.0,0.0,0.0,0.0
19:44:24.835000,-109.0,118.0,-276.0,-892.0,-345.0,-93.0,0.0,0.0,0.0
19:44:24.839000,-100.0,113.0,-284.0,-892.0,-345.0,-93.0,0.0,0.0,0.0
19:44:24.844000,-90.0,113.0,-288.0,-922.0,-309.0,-98.0,0.0,0.0,0.0
19:44:24.849000,-88.0,111.0,-287.0,-922.0,-309.0,-98.0,0.0,0.0,0.0
19:44:24.854000,-84.0,113.0,-282.0,-922.0,-309.0,-98.0,0.0,0.0,0.0
19:44:24.859000,-78.0,114.0,-263.0,-938.0,-310.0,-103.0,0.0,0.0,0.0
19:44:24.863000,-72.0,118.0,-262.0,-938.0,-313.0,-108.0,0.0,0.0,0.0
19:44:24.868000,-65.0,119.0,-266.0,-957.0,-313.0,-108.0,0.0,0.0,0.0
19:44:24.873000,-54.0,118.0,-255.0,-957.0,-313.0,-108.0,0.0,0.0,0.0
19:44:24.877000,-33.0,116.0,-259.0,-946.0,-331.0,-114.0,0.0,0.0,0.0
19:44:24.882000,-7.0,111.0,-286.0,-946.0,-331.0,-114.0,0.0,0.0,0.0
19:44:24.887000,6.0,106.0,-305.0,-914.0,-359.0,-126.0,0.0,0.0,0.0
19:44:24.891000,20.0,101.0,-319.0,-914.0,-359.0,-126.0,0.0,0.0,0.0
19:44:24.896000,20.0,101.0,-319.0,-913.0,-350.0,-133.0,0.0,0.0,0.0
19:44:24.901000,31.0,101.0,-323.0,-913.0,-350.0,-133.0,0.0,0.0,0.0
19:44:24.906000,45.0,94.0,-311.0,-935.0,-351.0,-135.0,0.0,0.0,0.0
19:44:24.910000,65.0,85.0,-317.0,-935.0,-351.0,-135.0,0.0,0.0,0.0
19:44:24.915000,77.0,80.0,-336.0,-939.0,-351.0,-137.0,0.0,0.0,0.0
19:44:24.920000,91.0,72.0,-338.0,-939.0,-351.0,-137.0,0.0,0.0,0.0
19:44:24.924000,104.0,65.0,-346.0,-929.0,-320.0,-134.0,0.0,0.0,0.0
19:44:24.929000,112.0,60.0,-370.0,-929.0,-320.0,-134.0,0.0,0.0,0.0
19:44:24.934000,119.0,53.0,-396.0,-946.0,-294.0,-129.0,0.0,0.0,0.0
19:44:24.938000,121.0,48.0,-401.0,-946.0,-294.0,-129.0,0.0,0.0,0.0
19:44:24.943000,123.0,44.0,-389.0,-982.0,-287.0,-127.0,0.0,0.0,0.0
19:44:24.948000,118.0,44.0,-382.0,-982.0,-287.0,-127.0,0.0,0.0,0.0
19:44:24.953000,114.0,45.0,-379.0,-1030.0,-282.0,-128.0,0.0,0.0,0.0
19:44:24.957000,112.0,45.0,-399.0,-1030.0,-282.0,-128.0,0.0,0.0,0.0
19:44:24.962000,109.0,46.0,-426.0,-1030.0,-282.0,-128.0,0.0,0.0,0.0
19:44:24.967000,99.0,48.0,-446.0,-1065.0,-271.0,-126.0,0.0,0.0,0.0
19:44:24.971000,87.0,52.0,-448.0,-1065.0,-271.0,-126.0,0.0,0.0,0.0
19:44:24.976000,81.0,63.0,-445.0,-1069.0,-291.0,-122.0,0.0,0.0,0.0
19:44:24.981000,75.0,71.0,-463.0,-1069.0,-336.0,-121.0,0.0,0.0,0.0
19:44:24.985000,73.0,80.0,-497.0,-1100.0,-336.0,-121.0,0.0,0.0,0.0
19:44:24.990000,79.0,86.0,-548.0,-1100.0,-336.0,-121.0,0.0,0.0,0.0
19:44:24.995000,86.0,89.0,-594.0,-1135.0,-340.0,-125.0,0.0,0.0,0.0
19:44:25.000000,94.0,90.0,-633.0,-1135.0,-340.0,-125.0,0.0,0.0,0.0
19:44:25.004000,94.0,90.0,-633.0,-1107.0,-276.0,-129.0,0.0,0.0,0.0
19:44:25.009000,99.0,87.0,-672.0,-1107.0,-276.0,-129.0,0.0,0.0,0.0
19:44:25.014000,96.0,85.0,-697.0,-1058.0,-201.0,-127.0,0.0,0.0,0.0
19:44:25.018000,94.0,83.0,-709.0,-1058.0,-201.0,-127.0,0.0,0.0,0.0
19:44:25.023000,97.0,81.0,-718.0,-1053.0,-185.0,-122.0,0.0,0.0,0.0
19:44:25.028000,101.0,78.0,-728.0,-1053.0,-185.0,-122.0,0.0,0.0,0.0
19:44:25.032000,110.0,74.0,-738.0,-1077.0,-209.0,-120.0,0.0,0.0,0.0
19:44:25.037000,123.0,73.0,-739.0,-1077.0,-209.0,-120.0,0.0,0.0,0.0
19:44:25.042000,147.0,69.0,-725.0,-1069.0,-232.0,-121.0,0.0,0.0,0.0
19:44:25.046000,166.0,67.0,-715.0,-1069.0,-232.0,-121.0,0.0,0.0,0.0
19:44:25.051000,177.0,68.0,-703.0,-1067.0,-230.0,-120.0,0.0,0.0,0.0
19:44:25.056000,181.0,69.0,-697.0,-1067.0,-230.0,-120.0,0.0,0.0,0.0
19:44:25.061000,182.0,69.0,-700.0,-1080.0,-192.0,-116.0,0.0,0.0,0.0
19:44:25.065000,185.0,70.0,-704.0,-1080.0,-192.0,-116.0,0.0,0.0,0.0
19:44:25.070000,192.0,75.0,-709.0,-1080.0,-192.0,-116.0,0.0,0.0,0.0
19:44:25.075000,194.0,81.0,-720.0,-1086.0,-165.0,-115.0,0.0,0.0,0.0
19:44:25.079000,189.0,89.0,-729.0,-1086.0,-165.0,-115.0,0.0,0.0,0.0
19:44:25.084000,184.0,102.0,-739.0,-1102.0,-148.0,-115.0,0.0,0.0,0.0
19:44:25.089000,181.0,116.0,-758.0,-1102.0,-148.0,-115.0,0.0,0.0,0.0
19:44:25.093000,175.0,133.0,-778.0,-1107.0,-122.0,-116.0,0.0,0.0,0.0
19:44:25.098000,168.0,148.0,-788.0,-1107.0,-122.0,-116.0,0.0,0.0,0.0
19:44:25.103000,161.0,164.0,-789.0,-1110.0,-111.0,-120.0,0.0,0.0,0.0
19:44:25.108000,158.0,179.0,-796.0,-1110.0,-111.0,-120.0,0.0,0.0,0.0
19:44:25.112000,158.0,196.0,-807.0,-1118.0,-106.0,-125.0,0.0,0.0,0.0
19:44:25.117000,158.0,196.0,-807.0,-1118.0,-106.0,-125.0,0.0,0.0,0.0
19:44:25.122000,161.0,214.0,-817.0,-1112.0,-99.0,-132.0,0.0,0.0,0.0
19:44:25.126000,163.0,229.0,-823.0,-1112.0,-99.0,-132.0,0.0,0.0,0.0
19:44:25.131000,163.0,245.0,-830.0,-1091.0,-87.0,-142.0,0.0,0.0,0.0
19:44:25.136000,163.0,261.0,-840.0,-1091.0,-87.0,-142.0,0.0,0.0,0.0
19:44:25.140000,165.0,275.0,-842.0,-1075.0,-67.0,-153.0,0.0,0.0,0.0
19:44:25.145000,171.0,288.0,-841.0,-1075.0,-67.0,-153.0,0.0,0.0,0.0
19:44:25.150000,180.0,298.0,-844.0,-1077.0,-57.0,-169.0,0.0,0.0,0.0
19:44:25.155000,192.0,303.0,-851.0,-1077.0,-57.0,-169.0,0.0,0.0,0.0
19:44:25.159000,204.0,301.0,-856.0,-1069.0,-51.0,-180.0,0.0,0.0,0.0
19:44:25.164000,217.0,293.0,-857.0,-1069.0,-51.0,-180.0,0.0,0.0,0.0
19:44:25.169000,230.0,284.0,-855.0,-1022.0,-36.0,-185.0,0.0,0.0,0.0
19:44:25.173000,240.0,273.0,-856.0,-1022.0,-36.0,-185.0,0.0,0.0,0.0
19:44:25.178000,248.0,258.0,-857.0,-1022.0,-36.0,-185.0,0.0,0.0,0.0
19:44:25.183000,256.0,239.0,-855.0,-977.0,-13.0,-190.0,0.0,0.0,0.0
19:44:25.187000,263.0,219.0,-852.0,-977.0,-13.0,-190.0,0.0,0.0,0.0
19:44:25.192000,270.0,199.0,-856.0,-955.0,15.0,-197.0,0.0,0.0,0.0
19:44:25.197000,273.0,179.0,-877.0,-955.0,15.0,-197.0,0.0,0.0,0.0
19:44:25.202000,266.0,162.0,-890.0,-938.0,59.0,-206.0,0.0,0.0,0.0
19:44:25.206000,259.0,142.0,-883.0,-938.0,59.0,-206.0,0.0,0.0,0.0
19:44:25.211000,250.0,123.0,-872.0,-923.0,105.0,-217.0,0.0,0.0,0.0
19:44:25.215000,250.0,123.0,-872.0,-923.0,105.0,-217.0,0.0,0.0,0.0
19:44:25.220000,213.0,90.0,-851.0,-913.0,145.0,-222.0,0.0,0.0,0.0
19:44:25.225000,213.0,90.0,-851.0,-913.0,145.0,-222.0,0.0,0.0,0.0
19:44:25.230000,196.0,75.0,-844.0,-903.0,186.0,-230.0,0.0,0.0,0.0
19:44:25.234000,183.0,63.0,-843.0,-903.0,186.0,-230.0,0.0,0.0,0.0
19:44:25.239000,172.0,52.0,-840.0,-907.0,223.0,-239.0,0.0,0.0,0.0
19:44:25.244000,158.0,41.0,-825.0,-907.0,223.0,-239.0,0.0,0.0,0.0
19:44:25.249000,147.0,31.0,-800.0,-902.0,252.0,-234.0,0.0,0.0,0.0
19:44:25.253000,140.0,20.0,-771.0,-902.0,252.0,-234.0,0.0,0.0,0.0
19:44:25.258000,130.0,8.0,-751.0,-880.0,293.0,-213.0,0.0,0.0,0.0
19:44:25.263000,111.0,1.0,-744.0,-880.0,293.0,-213.0,0.0,0.0,0.0
19:44:25.267000,93.0,-10.0,-741.0,-886.0,365.0,-171.0,0.0,0.0,0.0
19:44:25.272000,75.0,-18.0,-733.0,-886.0,365.0,-171.0,0.0,0.0,0.0
19:44:25.277000,58.0,-17.0,-698.0,-918.0,414.0,-177.0,0.0,0.0,0.0
19:44:25.281000,43.0,-21.0,-636.0,-918.0,414.0,-177.0,0.0,0.0,0.0
19:44:25.286000,27.0,-36.0,-578.0,-918.0,414.0,-177.0,0.0,0.0,0.0
19:44:25.291000,11.0,-43.0,-550.0,-962.0,421.0,-196.0,0.0,0.0,0.0
19:44:25.296000,-7.0,-42.0,-536.0,-962.0,421.0,-196.0,0.0,0.0,0.0
19:44:25.300000,-25.0,-38.0,-502.0,-1008.0,446.0,-186.0,0.0,0.0,0.0
19:44:25.305000,-42.0,-41.0,-464.0,-1008.0,446.0,-186.0,0.0,0.0,0.0
19:44:25.310000,-60.0,-44.0,-428.0,-1030.0,475.0,-193.0,0.0,0.0,0.0
19:44:25.314000,-81.0,-46.0,-395.0,-1030.0,475.0,-193.0,0.0,0.0,0.0
19:44:25.319000,-96.0,-46.0,-364.0,-1007.0,486.0,-189.0,0.0,0.0,0.0
19:44:25.324000,-109.0,-51.0,-331.0,-1007.0,486.0,-189.0,0.0,0.0,0.0
19:44:25.328000,-116.0,-57.0,-274.0,-949.0,485.0,-169.0,0.0,0.0,0.0
19:44:25.333000,-116.0,-57.0,-274.0,-949.0,485.0,-169.0,0.0,0.0,0.0
19:44:25.338000,-112.0,-60.0,-210.0,-864.0,456.0,-153.0,0.0,0.0,0.0
19:44:25.343000,-98.0,-62.0,-195.0,-864.0,456.0,-153.0,0.0,0.0,0.0
19:44:25.347000,-91.0,-60.0,-218.0,-856.0,418.0,-162.0,0.0,0.0,0.0
19:44:25.352000,-83.0,-63.0,-228.0,-856.0,418.0,-162.0,0.0,0.0,0.0
19:44:25.357000,-81.0,-67.0,-174.0,-840.0,421.0,-190.0,0.0,0.0,0.0
19:44:25.361000,-78.0,-61.0,-86.0,-840.0,421.0,-190.0,0.0,0.0,0.0
19:44:25.366000,-58.0,-50.0,-67.0,-932.0,444.0,-195.0,0.0,0.0,0.0
19:44:25.371000,-71.0,-105.0,-108.0,-932.0,444.0,-195.0,0.0,0.0,0.0
19:44:25.375000,-82.0,-106.0,-118.0,-1155.0,393.0,-152.0,0.0,0.0,0.0
19:44:25.380000,-102.0,-117.0,-42.0,-1155.0,393.0,-152.0,0.0,0.0,0.0
19:44:25.385000,-103.0,-99.0,121.0,-1068.0,275.0,-150.0,0.0,0.0,0.0
19:44:25.390000,-72.0,-102.0,156.0,-1068.0,275.0,-150.0,0.0,0.0,0.0
19:44:25.394000,-55.0,-98.0,35.0,-1068.0,293.0,-176.0,0.0,0.0,0.0
19:44:25.399000,-44.0,-81.0,-32.0,-888.0,293.0,-176.0,0.0,0.0,0.0
19:44:25.404000,-57.0,-62.0,28.0,-888.0,293.0,-176.0,0.0,0.0,0.0
19:44:25.408000,-65.0,-54.0,79.0,-810.0,376.0,-175.0,0.0,0.0,0.0
19:44:25.413000,-74.0,-44.0,68.0,-810.0,376.0,-175.0,0.0,0.0,0.0
19:44:25.418000,-79.0,-30.0,37.0,-855.0,387.0,-178.0,0.0,0.0,0.0
19:44:25.422000,-79.0,-11.0,3.0,-855.0,387.0,-178.0,0.0,0.0,0.0
19:44:25.427000,-63.0,8.0,-18.0,-947.0,341.0,-194.0,0.0,0.0,0.0
19:44:25.432000,-44.0,18.0,-42.0,-947.0,341.0,-194.0,0.0,0.0,0.0
19:44:25.437000,-29.0,22.0,-67.0,-899.0,268.0,-201.0,0.0,0.0,0.0
19:44:25.441000,-29.0,22.0,-67.0,-899.0,268.0,-201.0,0.0,0.0,0.0
19:44:25.445000,-3.0,14.0,-89.0,-815.0,241.0,-186.0,0.0,0.0,0.0
19:44:25.450000,21.0,3.0,-106.0,-815.0,241.0,-186.0,0.0,0.0,0.0
19:44:25.455000,44.0,-16.0,-119.0,-757.0,232.0,-162.0,0.0,0.0,0.0
19:44:25.460000,66.0,-46.0,-105.0,-757.0,232.0,-162.0,0.0,0.0,0.0
19:44:25.465000,94.0,-84.0,-71.0,-707.0,208.0,-143.0,0.0,0.0,0.0
19:44:25.469000,126.0,-126.0,-36.0,-707.0,208.0,-143.0,0.0,0.0,0.0
19:44:25.474000,145.0,-158.0,-27.0,-661.0,200.0,-140.0,0.0,0.0,0.0
19:44:25.479000,159.0,-191.0,-16.0,-661.0,200.0,-140.0,0.0,0.0,0.0
19:44:25.484000,168.0,-226.0,2.0,-675.0,250.0,-141.0,0.0,0.0,0.0
19:44:25.488000,159.0,-256.0,30.0,-675.0,250.0,-141.0,0.0,0.0,0.0
19:44:25.493000,146.0,-283.0,84.0,-716.0,295.0,-142.0,0.0,0.0,0.0
19:44:25.498000,130.0,-306.0,116.0,-716.0,295.0,-142.0,0.0,0.0,0.0
19:44:25.502000,107.0,-326.0,148.0,-759.0,295.0,-137.0,0.0,0.0,0.0
19:44:25.507000,91.0,-343.0,184.0,-759.0,295.0,-137.0,0.0,0.0,0.0
19:44:25.512000,77.0,-357.0,196.0,-759.0,295.0,-137.0,0.0,0.0,0.0
19:44:25.516000,56.0,-365.0,190.0,-781.0,268.0,-132.0,0.0,0.0,0.0
19:44:25.521000,37.0,-367.0,175.0,-781.0,268.0,-132.0,0.0,0.0,0.0
19:44:25.526000,21.0,-368.0,160.0,-759.0,264.0,-127.0,0.0,0.0,0.0
19:44:25.531000,9.0,-366.0,146.0,-759.0,264.0,-127.0,0.0,0.0,0.0
19:44:25.535000,0.0,-355.0,121.0,-737.0,269.0,-123.0,0.0,0.0,0.0
19:44:25.540000,0.0,-343.0,79.0,-737.0,269.0,-123.0,0.0,0.0,0.0
19:44:25.545000,-1.0,-326.0,44.0,-750.0,249.0,-126.0,0.0,0.0,0.0
19:44:25.549000,0.0,-309.0,15.0,-750.0,249.0,-126.0,0.0,0.0,0.0
19:44:25.554000,0.0,-309.0,15.0,-781.0,232.0,-127.0,0.0,0.0,0.0
19:44:25.559000,-4.0,-291.0,-6.0,-781.0,232.0,-127.0,0.0,0.0,0.0
19:44:25.563000,-7.0,-268.0,-8.0,-782.0,229.0,-127.0,0.0,0.0,0.0
19:44:25.568000,-10.0,-241.0,-3.0,-782.0,229.0,-127.0,0.0,0.0,0.0
19:44:25.573000,-15.0,-212.0,-2.0,-767.0,241.0,-132.0,0.0,0.0,0.0
19:44:25.578000,-18.0,-184.0,-2.0,-767.0,241.0,-132.0,0.0,0.0,0.0
19:44:25.582000,-25.0,-155.0,0.0,-783.0,278.0,-133.0,0.0,0.0,0.0
19:44:25.587000,-35.0,-126.0,13.0,-783.0,278.0,-133.0,0.0,0.0,0.0
19:44:25.592000,-42.0,-106.0,36.0,-806.0,291.0,-123.0,0.0,0.0,0.0
19:44:25.596000,-44.0,-91.0,65.0,-806.0,291.0,-123.0,0.0,0.0,0.0
19:44:25.601000,-44.0,-76.0,98.0,-782.0,256.0,-107.0,0.0,0.0,0.0
19:44:25.606000,-38.0,-60.0,134.0,-782.0,256.0,-107.0,0.0,0.0,0.0
19:44:25.610000,-33.0,-45.0,168.0,-738.0,227.0,-95.0,0.0,0.0,0.0
19:44:25.615000,-29.0,-32.0,204.0,-738.0,227.0,-95.0,0.0,0.0,0.0
19:44:25.620000,-26.0,-23.0,240.0,-738.0,227.0,-95.0,0.0,0.0,0.0
19:44:25.625000,-23.0,-11.0,268.0,-730.0,229.0,-86.0,0.0,0.0,0.0
19:44:25.629000,-20.0,-1.0,284.0,-736.0,233.0,-81.0,0.0,0.0,0.0
19:44:25.634000,-16.0,11.0,298.0,-736.0,233.0,-81.0,0.0,0.0,0.0
19:44:25.639000,-16.0,25.0,306.0,-736.0,233.0,-81.0,0.0,0.0,0.0
19:44:25.643000,-18.0,42.0,306.0,-733.0,230.0,-83.0,0.0,0.0,0.0
19:44:25.648000,-23.0,58.0,301.0,-733.0,230.0,-83.0,0.0,0.0,0.0
19:44:25.653000,-32.0,72.0,301.0,-739.0,238.0,-85.0,0.0,0.0,0.0
19:44:25.657000,-42.0,83.0,312.0,-739.0,238.0,-85.0,0.0,0.0,0.0
19:44:25.662000,-42.0,83.0,312.0,-735.0,231.0,-81.0,0.0,0.0,0.0
19:44:25.667000,-50.0,93.0,318.0,-735.0,231.0,-81.0,0.0,0.0,0.0
19:44:25.672000,-57.0,102.0,321.0,-719.0,201.0,-78.0,0.0,0.0,0.0
19:44:25.676000,-65.0,109.0,329.0,-719.0,201.0,-78.0,0.0,0.0,0.0
19:44:25.681000,-74.0,116.0,347.0,-711.0,173.0,-76.0,0.0,0.0,0.0
19:44:25.685000,-84.0,119.0,369.0,-711.0,173.0,-76.0,0.0,0.0,0.0
19:44:25.690000,-90.0,123.0,392.0,-709.0,139.0,-73.0,0.0,0.0,0.0
19:44:25.695000,-91.0,120.0,408.0,-709.0,139.0,-73.0,0.0,0.0,0.0
19:44:25.700000,-91.0,115.0,422.0,-694.0,97.0,-69.0,0.0,0.0,0.0
19:44:25.704000,-88.0,108.0,432.0,-694.0,97.0,-69.0,0.0,0.0,0.0
19:44:25.709000,-81.0,102.0,445.0,-664.0,55.0,-68.0,0.0,0.0,0.0
19:44:25.714000,-69.0,93.0,451.0,-664.0,55.0,-68.0,0.0,0.0,0.0
19:44:25.719000,-56.0,83.0,447.0,-644.0,26.0,-69.0,0.0,0.0,0.0
19:44:25.723000,-39.0,70.0,438.0,-644.0,26.0,-69.0,0.0,0.0,0.0
19:44:25.728000,-23.0,58.0,427.0,-644.0,26.0,-69.0,0.0,0.0,0.0
19:44:25.733000,-5.0,46.0,422.0,-629.0,8.0,-70.0,0.0,0.0,0.0
19:44:25.737000,11.0,36.0,424.0,-629.0,8.0,-70.0,0.0,0.0,0.0
19:44:25.742000,28.0,30.0,419.0,-603.0,-10.0,-76.0,0.0,0.0,0.0
19:44:25.747000,40.0,25.0,408.0,-603.0,-10.0,-76.0,0.0,0.0,0.0
19:44:25.751000,49.0,22.0,403.0,-592.0,-3.0,-81.0,0.0,0.0,0.0
19:44:25.756000,53.0,18.0,413.0,-592.0,-3.0,-81.0,0.0,0.0,0.0
19:44:25.761000,58.0,14.0,420.0,-591.0,10.0,-81.0,0.0,0.0,0.0
19:44:25.766000,61.0,12.0,419.0,-591.0,10.0,-81.0,0.0,0.0,0.0
19:44:25.770000,61.0,12.0,419.0,-584.0,8.0,-79.0,0.0,0.0,0.0
19:44:25.775000,64.0,9.0,413.0,-584.0,8.0,-79.0,0.0,0.0,0.0
19:44:25.780000,67.0,6.0,406.0,-578.0,4.0,-74.0,0.0,0.0,0.0
19:44:25.784000,70.0,1.0,402.0,-578.0,4.0,-74.0,0.0,0.0,0.0
19:44:25.789000,75.0,-2.0,400.0,-566.0,-3.0,-69.0,0.0,0.0,0.0
19:44:25.794000,80.0,-5.0,391.0,-566.0,-3.0,-69.0,0.0,0.0,0.0
19:44:25.798000,81.0,-8.0,379.0,-556.0,8.0,-68.0,0.0,0.0,0.0
19:44:25.803000,79.0,-11.0,370.0,-556.0,8.0,-68.0,0.0,0.0,0.0
19:44:25.808000,74.0,-13.0,366.0,-559.0,35.0,-64.0,0.0,0.0,0.0
19:44:25.813000,69.0,-14.0,367.0,-559.0,35.0,-64.0,0.0,0.0,0.0
19:44:25.817000,62.0,-14.0,368.0,-571.0,49.0,-63.0,0.0,0.0,0.0
19:44:25.822000,53.0,-13.0,368.0,-571.0,49.0,-63.0,0.0,0.0,0.0
19:44:25.827000,38.0,-11.0,366.0,-592.0,65.0,-66.0,0.0,0.0,0.0
19:44:25.831000,21.0,-9.0,368.0,-592.0,65.0,-66.0,0.0,0.0,0.0
19:44:25.836000,4.0,-9.0,375.0,-592.0,65.0,-66.0,0.0,0.0,0.0
19:44:25.841000,-10.0,-11.0,380.0,-601.0,80.0,-70.0,0.0,0.0,0.0
19:44:25.845000,-23.0,-14.0,379.0,-601.0,80.0,-70.0,0.0,0.0,0.0
19:44:25.850000,-34.0,-19.0,375.0,-586.0,85.0,-72.0,0.0,0.0,0.0
19:44:25.855000,-44.0,-25.0,371.0,-586.0,85.0,-72.0,0.0,0.0,0.0
19:44:25.860000,-51.0,-31.0,365.0,-568.0,81.0,-66.0,0.0,0.0,0.0
19:44:25.864000,-56.0,-38.0,361.0,-568.0,81.0,-66.0,0.0,0.0,0.0
19:44:25.869000,-60.0,-45.0,361.0,-553.0,64.0,-59.0,0.0,0.0,0.0
19:44:25.874000,-63.0,-51.0,364.0,-553.0,64.0,-59.0,0.0,0.0,0.0
19:44:25.878000,-65.0,-58.0,366.0,-561.0,51.0,-55.0,0.0,0.0,0.0
19:44:25.883000,-65.0,-58.0,366.0,-561.0,51.0,-55.0,0.0,0.0,0.0
19:44:25.888000,-67.0,-64.0,368.0,-594.0,43.0,-53.0,0.0,0.0,0.0
19:44:25.892000,-70.0,-70.0,364.0,-594.0,43.0,-53.0,0.0,0.0,0.0
19:44:25.897000,-74.0,-74.0,361.0,-622.0,28.0,-53.0,0.0,0.0,0.0
19:44:25.902000,-77.0,-70.0,362.0,-622.0,28.0,-53.0,0.0,0.0,0.0
19:44:25.907000,-81.0,-63.0,365.0,-638.0,6.0,-56.0,0.0,0.0,0.0
19:44:25.911000,-84.0,-56.0,364.0,-638.0,6.0,-56.0,0.0,0.0,0.0
19:44:25.916000,-86.0,-47.0,357.0,-684.0,3.0,-63.0,0.0,0.0,0.0
19:44:25.920000,-86.0,-42.0,346.0,-684.0,3.0,-63.0,0.0,0.0,0.0
19:44:25.925000,-84.0,-37.0,339.0,-746.0,8.0,-68.0,0.0,0.0,0.0
19:44:25.930000,-77.0,-36.0,341.0,-746.0,8.0,-68.0,0.0,0.0,0.0
19:44:25.935000,-66.0,-33.0,351.0,-771.0,-6.0,-75.0,0.0,0.0,0.0
19:44:25.939000,-51.0,-28.0,359.0,-771.0,-6.0,-75.0,0.0,0.0,0.0
19:44:25.944000,-40.0,-22.0,359.0,-771.0,-6.0,-75.0,0.0,0.0,0.0
19:44:25.949000,-33.0,-14.0,357.0,-778.0,-6.0,-81.0,0.0,0.0,0.0
19:44:25.953000,-27.0,-9.0,359.0,-779.0,8.0,-87.0,0.0,0.0,0.0
19:44:25.958000,-20.0,-2.0,358.0,-779.0,8.0,-87.0,0.0,0.0,0.0
19:44:25.963000,-15.0,4.0,344.0,-779.0,8.0,-87.0,0.0,0.0,0.0
19:44:25.968000,-12.0,11.0,324.0,-776.0,28.0,-97.0,0.0,0.0,0.0
19:44:25.972000,-11.0,16.0,306.0,-776.0,28.0,-97.0,0.0,0.0,0.0
19:44:25.977000,-11.0,22.0,294.0,-780.0,65.0,-112.0,0.0,0.0,0.0
19:44:25.982000,-12.0,28.0,284.0,-780.0,65.0,-112.0,0.0,0.0,0.0
19:44:25.986000,-16.0,32.0,277.0,-777.0,95.0,-126.0,0.0,0.0,0.0
19:44:25.991000,-16.0,32.0,277.0,-777.0,95.0,-126.0,0.0,0.0,0.0
19:44:25.996000,-23.0,35.0,270.0,-782.0,121.0,-138.0,0.0,0.0,0.0
19:44:26.001000,-34.0,37.0,268.0,-782.0,121.0,-138.0,0.0,0.0,0.0
19:44:26.005000,-46.0,39.0,267.0,-809.0,141.0,-147.0,0.0,0.0,0.0
19:44:26.010000,-61.0,39.0,266.0,-809.0,141.0,-147.0,0.0,0.0,0.0
19:44:26.015000,-79.0,41.0,266.0,-842.0,150.0,-159.0,0.0,0.0,0.0
19:44:26.019000,-100.0,42.0,269.0,-842.0,150.0,-159.0,0.0,0.0,0.0
19:44:26.024000,-123.0,46.0,278.0,-871.0,158.0,-170.0,0.0,0.0,0.0
19:44:26.029000,-149.0,51.0,289.0,-871.0,158.0,-170.0,0.0,0.0,0.0
19:44:26.033000,-176.0,52.0,300.0,-887.0,155.0,-177.0,0.0,0.0,0.0
19:44:26.038000,-202.0,53.0,314.0,-887.0,155.0,-177.0,0.0,0.0,0.0
19:44:26.043000,-224.0,57.0,331.0,-881.0,131.0,-182.0,0.0,0.0,0.0
19:44:26.048000,-242.0,61.0,343.0,-881.0,131.0,-182.0,0.0,0.0,0.0
19:44:26.052000,-256.0,64.0,345.0,-881.0,131.0,-182.0,0.0,0.0,0.0
19:44:26.057000,-269.0,65.0,343.0,-878.0,108.0,-185.0,0.0,0.0,0.0
19:44:26.062000,-277.0,64.0,342.0,-878.0,108.0,-185.0,0.0,0.0,0.0
19:44:26.066000,-275.0,60.0,340.0,-867.0,85.0,-181.0,0.0,0.0,0.0
19:44:26.071000,-265.0,53.0,334.0,-867.0,85.0,-181.0,0.0,0.0,0.0
19:44:26.076000,-247.0,46.0,318.0,-830.0,55.0,-172.0,0.0,0.0,0.0
19:44:26.080000,-223.0,38.0,296.0,-830.0,55.0,-172.0,0.0,0.0,0.0
19:44:26.085000,-197.0,32.0,280.0,-818.0,48.0,-164.0,0.0,0.0,0.0
19:44:26.090000,-170.0,27.0,276.0,-818.0,48.0,-164.0,0.0,0.0,0.0
19:44:26.095000,-142.0,23.0,283.0,-835.0,59.0,-153.0,0.0,0.0,0.0
19:44:26.099000,-142.0,23.0,283.0,-835.0,59.0,-153.0,0.0,0.0,0.0
19:44:26.104000,-112.0,23.0,293.0,-846.0,78.0,-142.0,0.0,0.0,0.0
19:44:26.109000,-83.0,21.0,300.0,-846.0,78.0,-142.0,0.0,0.0,0.0
19:44:26.113000,-55.0,21.0,301.0,-866.0,131.0,-137.0,0.0,0.0,0.0
19:44:26.118000,-33.0,24.0,298.0,-866.0,131.0,-137.0,0.0,0.0,0.0
19:44:26.123000,-18.0,24.0,303.0,-895.0,203.0,-135.0,0.0,0.0,0.0
19:44:26.127000,-9.0,32.0,312.0,-895.0,203.0,-135.0,0.0,0.0,0.0
19:44:26.132000,-7.0,39.0,319.0,-900.0,276.0,-134.0,0.0,0.0,0.0
19:44:26.137000,-9.0,44.0,329.0,-900.0,276.0,-134.0,0.0,0.0,0.0
19:44:26.142000,-11.0,50.0,322.0,-895.0,369.0,-136.0,0.0,0.0,0.0
19:44:26.146000,-14.0,46.0,289.0,-895.0,369.0,-136.0,0.0,0.0,0.0
19:44:26.151000,-17.0,33.0,262.0,-900.0,431.0,-138.0,0.0,0.0,0.0
19:44:26.155000,-18.0,18.0,254.0,-900.0,431.0,-138.0,0.0,0.0,0.0
19:44:26.160000,-11.0,7.0,256.0,-900.0,431.0,-138.0,0.0,0.0,0.0
19:44:26.165000,-10.0,-2.0,229.0,-915.0,437.0,-149.0,0.0,0.0,0.0
19:44:26.170000,-23.0,-20.0,185.0,-915.0,437.0,-149.0,0.0,0.0,0.0
19:44:26.174000,-41.0,-36.0,165.0,-976.0,469.0,-147.0,0.0,0.0,0.0
19:44:26.179000,-67.0,-52.0,153.0,-976.0,469.0,-147.0,0.0,0.0,0.0
19:44:26.184000,-91.0,-63.0,135.0,-1006.0,509.0,-128.0,0.0,0.0,0.0
19:44:26.189000,-100.0,-72.0,89.0,-1006.0,509.0,-128.0,0.0,0.0,0.0
19:44:26.193000,-100.0,-84.0,16.0,-1014.0,548.0,-131.0,0.0,0.0,0.0
19:44:26.198000,-107.0,-109.0,-53.0,-1014.0,548.0,-131.0,0.0,0.0,0.0
19:44:26.203000,-109.0,-114.0,-107.0,-1097.0,604.0,-140.0,0.0,0.0,0.0
19:44:26.207000,-109.0,-114.0,-107.0,-1097.0,604.0,-140.0,0.0,0.0,0.0
19:44:26.212000,-116.0,-134.0,-288.0,-1390.0,595.0,-136.0,0.0,0.0,0.0
19:44:26.217000,-173.0,-162.0,-464.0,-1390.0,595.0,-136.0,0.0,0.0,0.0
19:44:26.221000,-121.0,-123.0,0.0,-1222.0,467.0,-163.0,0.0,0.0,0.0
19:44:26.226000,-168.0,-117.0,308.0,-1222.0,467.0,-163.0,0.0,0.0,0.0
19:44:26.231000,-170.0,-94.0,149.0,-1002.0,587.0,-183.0,0.0,0.0,0.0
19:44:26.236000,-181.0,-81.0,-71.0,-1002.0,587.0,-183.0,0.0,0.0,0.0
19:44:26.240000,-184.0,-72.0,-92.0,-1281.0,606.0,-175.0,0.0,0.0,0.0
19:44:26.245000,-163.0,-63.0,30.0,-1281.0,606.0,-175.0,0.0,0.0,0.0
19:44:26.250000,-126.0,-46.0,57.0,-1390.0,354.0,-194.0,0.0,0.0,0.0
19:44:26.254000,-112.0,-18.0,35.0,-1390.0,354.0,-194.0,0.0,0.0,0.0
19:44:26.259000,-91.0,0.0,37.0,-1352.0,373.0,-215.0,0.0,0.0,0.0
19:44:26.264000,-90.0,10.0,57.0,-1352.0,373.0,-215.0,0.0,0.0,0.0
19:44:26.268000,-105.0,32.0,87.0,-1258.0,401.0,-208.0,0.0,0.0,0.0
19:44:26.273000,-112.0,44.0,81.0,-1258.0,401.0,-208.0,0.0,0.0,0.0
19:44:26.278000,-107.0,51.0,142.0,-1258.0,401.0,-208.0,0.0,0.0,0.0
19:44:26.283000,-110.0,54.0,231.0,-1208.0,325.0,-205.0,0.0,0.0,0.0
19:44:26.287000,-112.0,46.0,267.0,-1208.0,325.0,-205.0,0.0,0.0,0.0
19:44:26.292000,-98.0,35.0,228.0,-1190.0,270.0,-215.0,0.0,0.0,0.0
19:44:26.297000,-116.0,30.0,197.0,-1190.0,270.0,-215.0,0.0,0.0,0.0
19:44:26.301000,-132.0,14.0,209.0,-1174.0,212.0,-208.0,0.0,0.0,0.0
19:44:26.306000,-163.0,0.0,266.0,-1174.0,212.0,-208.0,0.0,0.0,0.0
19:44:26.311000,-192.0,-16.0,344.0,-1104.0,126.0,-180.0,0.0,0.0,0.0
19:44:26.315000,-224.0,-30.0,380.0,-1104.0,126.0,-180.0,0.0,0.0,0.0
19:44:26.320000,-224.0,-30.0,380.0,-1025.0,45.0,-155.0,0.0,0.0,0.0
19:44:26.325000,-254.0,-39.0,411.0,-1025.0,45.0,-155.0,0.0,0.0,0.0
19:44:26.330000,-292.0,-48.0,458.0,-970.0,-43.0,-133.0,0.0,0.0,0.0
19:44:26.334000,-314.0,-60.0,488.0,-970.0,-43.0,-133.0,0.0,0.0,0.0
19:44:26.339000,-324.0,-73.0,499.0,-923.0,-149.0,-117.0,0.0,0.0,0.0
19:44:26.344000,-328.0,-74.0,512.0,-923.0,-149.0,-117.0,0.0,0.0,0.0
19:44:26.348000,-321.0,-67.0,468.0,-960.0,-227.0,-124.0,0.0,0.0,0.0
19:44:26.353000,-301.0,-54.0,425.0,-960.0,-227.0,-124.0,0.0,0.0,0.0
19:44:26.358000,-303.0,-37.0,359.0,-1062.0,-241.0,-137.0,0.0,0.0,0.0
19:44:26.362000,-294.0,-16.0,300.0,-1062.0,-241.0,-137.0,0.0,0.0,0.0
19:44:26.367000,-276.0,1.0,280.0,-1126.0,-249.0,-152.0,0.0,0.0,0.0
19:44:26.372000,-251.0,14.0,220.0,-1126.0,-249.0,-152.0,0.0,0.0,0.0
19:44:26.377000,-228.0,28.0,156.0,-1123.0,-284.0,-161.0,0.0,0.0,0.0
19:44:26.381000,-198.0,37.0,161.0,-1123.0,-284.0,-161.0,0.0,0.0,0.0
19:44:26.386000,-164.0,49.0,187.0,-1123.0,-284.0,-161.0,0.0,0.0,0.0
19:44:26.390000,-131.0,61.0,177.0,-1096.0,-287.0,-176.0,0.0,0.0,0.0
19:44:26.395000,-99.0,76.0,146.0,-1096.0,-287.0,-176.0,0.0,0.0,0.0
19:44:26.400000,-72.0,91.0,121.0,-1136.0,-262.0,-206.0,0.0,0.0,0.0
19:44:26.405000,-45.0,100.0,101.0,-1136.0,-262.0,-206.0,0.0,0.0,0.0
19:44:26.409000,-21.0,103.0,102.0,-1215.0,-212.0,-237.0,0.0,0.0,0.0
19:44:26.414000,-3.0,97.0,156.0,-1215.0,-212.0,-237.0,0.0,0.0,0.0
19:44:26.419000,-2.0,95.0,206.0,-1216.0,-166.0,-247.0,0.0,0.0,0.0
19:44:26.424000,16.0,88.0,207.0,-1216.0,-166.0,-247.0,0.0,0.0,0.0
19:44:26.428000,16.0,88.0,207.0,-1184.0,-140.0,-247.0,0.0,0.0,0.0
19:44:26.432000,26.0,89.0,210.0,-1184.0,-140.0,-247.0,0.0,0.0,0.0
19:44:26.438000,43.0,76.0,217.0,-1142.0,-164.0,-248.0,0.0,0.0,0.0
19:44:26.442000,74.0,52.0,201.0,-1142.0,-164.0,-248.0,0.0,0.0,0.0
19:44:26.447000,93.0,32.0,184.0,-1077.0,-207.0,-232.0,0.0,0.0,0.0
19:44:26.452000,107.0,23.0,110.0,-1077.0,-207.0,-232.0,0.0,0.0,0.0
19:44:26.456000,144.0,21.0,16.0,-1056.0,-241.0,-212.0,0.0,0.0,0.0
19:44:26.461000,168.0,-13.0,37.0,-1056.0,-241.0,-212.0,0.0,0.0,0.0
19:44:26.466000,133.0,-39.0,215.0,-969.0,-228.0,-172.0,0.0,0.0,0.0
19:44:26.471000,100.0,-51.0,332.0,-969.0,-228.0,-172.0,0.0,0.0,0.0
19:44:26.475000,96.0,-58.0,275.0,-934.0,-106.0,-152.0,0.0,0.0,0.0
19:44:26.480000,159.0,-101.0,129.0,-934.0,-106.0,-152.0,0.0,0.0,0.0
19:44:26.485000,118.0,-114.0,157.0,-1046.0,-74.0,-136.0,0.0,0.0,0.0
19:44:26.489000,167.0,-143.0,134.0,-1046.0,-74.0,-136.0,0.0,0.0,0.0
19:44:26.494000,158.0,-161.0,89.0,-1103.0,-138.0,-98.0,0.0,0.0,0.0
19:44:26.499000,127.0,-158.0,118.0,-1103.0,-138.0,-98.0,0.0,0.0,0.0
19:44:26.503000,114.0,-164.0,163.0,-1103.0,-138.0,-98.0,0.0,0.0,0.0
19:44:26.508000,85.0,-150.0,223.0,-1125.0,-162.0,-72.0,0.0,0.0,0.0
19:44:26.513000,45.0,-135.0,266.0,-1125.0,-162.0,-72.0,0.0,0.0,0.0
19:44:26.518000,41.0,-115.0,266.0,-1093.0,-143.0,-49.0,0.0,0.0,0.0
19:44:26.522000,39.0,-112.0,210.0,-1093.0,-143.0,-49.0,0.0,0.0,0.0
19:44:26.527000,-23.0,-117.0,238.0,-1083.0,-88.0,-29.0,0.0,0.0,0.0
19:44:26.532000,-25.0,-99.0,293.0,-1083.0,-88.0,-29.0,0.0,0.0,0.0
19:44:26.536000,-25.0,-99.0,293.0,-1132.0,-121.0,-30.0,0.0,0.0,0.0
19:44:26.541000,-60.0,-86.0,202.0,-1132.0,-121.0,-30.0,0.0,0.0,0.0
19:44:26.546000,-74.0,-67.0,192.0,-1167.0,-145.0,-55.0,0.0,0.0,0.0
19:44:26.550000,-41.0,-56.0,230.0,-1167.0,-145.0,-55.0,0.0,0.0,0.0
19:44:26.555000,-127.0,-35.0,254.0,-1153.0,-133.0,-50.0,0.0,0.0,0.0
19:44:26.560000,-171.0,7.0,372.0,-1153.0,-133.0,-50.0,0.0,0.0,0.0
19:44:26.565000,-154.0,29.0,357.0,-1169.0,-226.0,-57.0,0.0,0.0,0.0
19:44:26.569000,-112.0,33.0,270.0,-1169.0,-226.0,-57.0,0.0,0.0,0.0
19:44:26.574000,-104.0,63.0,194.0,-1227.0,-265.0,-96.0,0.0,0.0,0.0
19:44:26.579000,-114.0,77.0,163.0,-1227.0,-265.0,-96.0,0.0,0.0,0.0
19:44:26.583000,-156.0,95.0,209.0,-1141.0,-191.0,-104.0,0.0,0.0,0.0
19:44:26.588000,-151.0,102.0,240.0,-1141.0,-191.0,-104.0,0.0,0.0,0.0
19:44:26.593000,-192.0,120.0,199.0,-1046.0,-212.0,-102.0,0.0,0.0,0.0
19:44:26.597000,-197.0,125.0,176.0,-1046.0,-212.0,-102.0,0.0,0.0,0.0
19:44:26.602000,-184.0,127.0,209.0,-1046.0,-212.0,-102.0,0.0,0.0,0.0
19:44:26.607000,-181.0,129.0,209.0,-1060.0,-320.0,-117.0,0.0,0.0,0.0
19:44:26.611000,-175.0,124.0,208.0,-1060.0,-320.0,-117.0,0.0,0.0,0.0
19:44:26.616000,-188.0,123.0,191.0,-1069.0,-365.0,-122.0,0.0,0.0,0.0
19:44:26.621000,-172.0,116.0,161.0,-1069.0,-365.0,-122.0,0.0,0.0,0.0
19:44:26.625000,-149.0,105.0,137.0,-1052.0,-365.0,-124.0,0.0,0.0,0.0
19:44:26.630000,-139.0,81.0,78.0,-1052.0,-365.0,-124.0,0.0,0.0,0.0
19:44:26.635000,-155.0,77.0,23.0,-1039.0,-351.0,-120.0,0.0,0.0,0.0
19:44:26.640000,-124.0,68.0,-21.0,-1039.0,-351.0,-120.0,0.0,0.0,0.0
19:44:26.644000,-124.0,68.0,-21.0,-1014.0,-331.0,-117.0,0.0,0.0,0.0
19:44:26.649000,-114.0,56.0,-54.0,-1014.0,-331.0,-117.0,0.0,0.0,0.0
19:44:26.654000,-107.0,49.0,-65.0,-981.0,-342.0,-126.0,0.0,0.0,0.0
19:44:26.658000,-108.0,42.0,-93.0,-981.0,-342.0,-126.0,0.0,0.0,0.0
19:44:26.663000,-101.0,32.0,-121.0,-991.0,-319.0,-123.0,0.0,0.0,0.0
19:44:26.668000,-100.0,30.0,-142.0,-991.0,-319.0,-123.0,0.0,0.0,0.0
19:44:26.673000,-113.0,19.0,-144.0,-998.0,-286.0,-121.0,0.0,0.0,0.0
19:44:26.677000,-110.0,7.0,-135.0,-998.0,-286.0,-121.0,0.0,0.0,0.0
19:44:26.682000,-109.0,9.0,-173.0,-1009.0,-273.0,-122.0,0.0,0.0,0.0
19:44:26.687000,-116.0,7.0,-214.0,-1009.0,-273.0,-122.0,0.0,0.0,0.0
19:44:26.691000,-112.0,-2.0,-212.0,-1020.0,-243.0,-121.0,0.0,0.0,0.0
19:44:26.696000,-121.0,-1.0,-198.0,-1020.0,-243.0,-121.0,0.0,0.0,0.0
19:44:26.701000,-131.0,-1.0,-186.0,-1005.0,-229.0,-114.0,0.0,0.0,0.0
19:44:26.705000,-136.0,1.0,-173.0,-1005.0,-229.0,-114.0,0.0,0.0,0.0
19:44:26.710000,-132.0,0.0,-168.0,-1005.0,-229.0,-114.0,0.0,0.0,0.0
19:44:26.715000,-139.0,0.0,-169.0,-1007.0,-229.0,-110.0,0.0,0.0,0.0
19:44:26.720000,-144.0,2.0,-178.0,-1007.0,-229.0,-110.0,0.0,0.0,0.0
19:44:26.724000,-146.0,4.0,-173.0,-1010.0,-241.0,-103.0,0.0,0.0,0.0
19:44:26.729000,-149.0,10.0,-168.0,-1010.0,-241.0,-103.0,0.0,0.0,0.0
19:44:26.734000,-158.0,12.0,-163.0,-1011.0,-245.0,-99.0,0.0,0.0,0.0
19:44:26.738000,-166.0,16.0,-158.0,-1011.0,-245.0,-99.0,0.0,0.0,0.0
19:44:26.743000,-179.0,20.0,-155.0,-1021.0,-221.0,-101.0,0.0,0.0,0.0
19:44:26.748000,-198.0,26.0,-152.0,-1021.0,-221.0,-101.0,0.0,0.0,0.0
19:44:26.752000,-211.0,30.0,-154.0,-1040.0,-193.0,-104.0,0.0,0.0,0.0
19:44:26.757000,-211.0,30.0,-154.0,-1040.0,-193.0,-104.0,0.0,0.0,0.0
19:44:26.762000,-215.0,32.0,-158.0,-1045.0,-190.0,-107.0,0.0,0.0,0.0
19:44:26.767000,-227.0,42.0,-163.0,-1045.0,-190.0,-107.0,0.0,0.0,0.0
19:44:26.771000,-232.0,46.0,-165.0,-1041.0,-210.0,-108.0,0.0,0.0,0.0
19:44:26.776000,-234.0,48.0,-162.0,-1041.0,-210.0,-108.0,0.0,0.0,0.0
19:44:26.781000,-239.0,47.0,-168.0,-1055.0,-224.0,-106.0,0.0,0.0,0.0
19:44:26.785000,-245.0,39.0,-169.0,-1055.0,-224.0,-106.0,0.0,0.0,0.0
19:44:26.790000,-241.0,33.0,-170.0,-1062.0,-224.0,-109.0,0.0,0.0,0.0
19:44:26.795000,-238.0,25.0,-189.0,-1062.0,-224.0,-109.0,0.0,0.0,0.0
19:44:26.799000,-236.0,13.0,-205.0,-1048.0,-243.0,-107.0,0.0,0.0,0.0
19:44:26.804000,-231.0,-3.0,-209.0,-1048.0,-243.0,-107.0,0.0,0.0,0.0
19:44:26.809000,-226.0,-21.0,-205.0,-1032.0,-283.0,-96.0,0.0,0.0,0.0
19:44:26.814000,-224.0,-40.0,-206.0,-1032.0,-283.0,-96.0,0.0,0.0,0.0
19:44:26.818000,-219.0,-58.0,-222.0,-1032.0,-283.0,-96.0,0.0,0.0,0.0
19:44:26.823000,-212.0,-73.0,-254.0,-1011.0,-316.0,-82.0,0.0,0.0,0.0
19:44:26.828000,-201.0,-86.0,-275.0,-1011.0,-316.0,-82.0,0.0,0.0,0.0
19:44:26.832000,-201.0,-95.0,-280.0,-978.0,-330.0,-74.0,0.0,0.0,0.0
19:44:26.837000,-209.0,-100.0,-288.0,-978.0,-330.0,-74.0,0.0,0.0,0.0
19:44:26.842000,-222.0,-107.0,-312.0,-966.0,-304.0,-66.0,0.0,0.0,0.0
19:44:26.846000,-245.0,-111.0,-364.0,-966.0,-304.0,-66.0,0.0,0.0,0.0
19:44:26.851000,-259.0,-114.0,-427.0,-1003.0,-292.0,-58.0,0.0,0.0,0.0
19:44:26.856000,-269.0,-126.0,-460.0,-1003.0,-292.0,-58.0,0.0,0.0,0.0
19:44:26.860000,-269.0,-126.0,-460.0,-1017.0,-331.0,-51.0,0.0,0.0,0.0
19:44:26.865000,-278.0,-142.0,-457.0,-1017.0,-331.0,-51.0,0.0,0.0,0.0
19:44:26.870000,-295.0,-155.0,-442.0,-1001.0,-323.0,-35.0,0.0,0.0,0.0
19:44:26.875000,-318.0,-166.0,-457.0,-1001.0,-323.0,-35.0,0.0,0.0,0.0
19:44:26.879000,-338.0,-173.0,-483.0,-993.0,-301.0,-20.0,0.0,0.0,0.0
19:44:26.884000,-350.0,-179.0,-493.0,-993.0,-301.0,-20.0,0.0,0.0,0.0
19:44:26.888000,-363.0,-184.0,-511.0,-981.0,-323.0,-10.0,0.0,0.0,0.0
19:44:26.893000,-379.0,-188.0,-543.0,-981.0,-323.0,-10.0,0.0,0.0,0.0
19:44:26.898000,-391.0,-196.0,-574.0,-984.0,-323.0,0.0,0.0,0.0,0.0
19:44:26.903000,-408.0,-204.0,-603.0,-984.0,-323.0,0.0,0.0,0.0,0.0
19:44:26.908000,-425.0,-210.0,-620.0,-995.0,-287.0,4.0,0.0,0.0,0.0
19:44:26.912000,-440.0,-217.0,-627.0,-995.0,-287.0,4.0,0.0,0.0,0.0
19:44:26.917000,-465.0,-221.0,-635.0,-1004.0,-244.0,9.0,0.0,0.0,0.0
19:44:26.922000,-490.0,-221.0,-646.0,-1004.0,-244.0,9.0,0.0,0.0,0.0
19:44:26.926000,-521.0,-220.0,-669.0,-1004.0,-244.0,9.0,0.0,0.0,0.0
19:44:26.931000,-554.0,-221.0,-685.0,-1021.0,-203.0,18.0,0.0,0.0,0.0
19:44:26.936000,-590.0,-224.0,-687.0,-1021.0,-203.0,18.0,0.0,0.0,0.0
19:44:26.940000,-627.0,-227.0,-682.0,-1035.0,-186.0,31.0,0.0,0.0,0.0
19:44:26.945000,-661.0,-230.0,-678.0,-1035.0,-186.0,31.0,0.0,0.0,0.0
19:44:26.950000,-690.0,-231.0,-673.0,-1021.0,-195.0,43.0,0.0,0.0,0.0
19:44:26.955000,-716.0,-235.0,-677.0,-1021.0,-195.0,43.0,0.0,0.0,0.0
19:44:26.959000,-744.0,-240.0,-687.0,-1010.0,-199.0,53.0,0.0,0.0,0.0
19:44:26.964000,-772.0,-242.0,-688.0,-1010.0,-199.0,53.0,0.0,0.0,0.0
19:44:26.969000,-801.0,-250.0,-695.0,-1031.0,-208.0,63.0,0.0,0.0,0.0
19:44:26.973000,-801.0,-250.0,-695.0,-1031.0,-208.0,63.0,0.0,0.0,0.0
19:44:26.978000,-820.0,-256.0,-700.0,-1028.0,-216.0,75.0,0.0,0.0,0.0
19:44:26.983000,-846.0,-260.0,-704.0,-1028.0,-216.0,75.0,0.0,0.0,0.0
19:44:26.987000,-872.0,-262.0,-707.0,-1014.0,-206.0,88.0,0.0,0.0,0.0
19:44:26.992000,-896.0,-265.0,-713.0,-1014.0,-206.0,88.0,0.0,0.0,0.0
19:44:26.997000,-920.0,-268.0,-717.0,-1016.0,-182.0,100.0,0.0,0.0,0.0
19:44:27.002000,-943.0,-273.0,-728.0,-1016.0,-182.0,100.0,0.0,0.0,0.0
19:44:27.006000,-980.0,-273.0,-748.0,-1012.0,-162.0,112.0,0.0,0.0,0.0
19:44:27.011000,-1008.0,-276.0,-748.0,-1012.0,-162.0,112.0,0.0,0.0,0.0
19:44:27.016000,-1030.0,-275.0,-755.0,-1001.0,-129.0,116.0,0.0,0.0,0.0
19:44:27.020000,-1057.0,-271.0,-777.0,-1001.0,-129.0,116.0,0.0,0.0,0.0
19:44:27.025000,-1103.0,-270.0,-789.0,-993.0,-68.0,112.0,0.0,0.0,0.0
19:44:27.030000,-1146.0,-267.0,-792.0,-993.0,-68.0,112.0,0.0,0.0,0.0
19:44:27.034000,-1190.0,-260.0,-795.0,-993.0,-20.0,112.0,0.0,0.0,0.0
19:44:27.039000,-1233.0,-259.0,-816.0,-1004.0,-20.0,113.0,0.0,0.0,0.0
19:44:27.044000,-1274.0,-261.0,-848.0,-1004.0,-20.0,113.0,0.0,0.0,0.0
19:44:27.049000,-1313.0,-261.0,-871.0,-1047.0,1.0,114.0,0.0,0.0,0.0
