hh:mm:ss.ms,gyroX[mdps],gyroY[mdps],gyroZ[mdps],accX[mg],accY[mg],accZ[mg],magX[mG],magY[mG],magZ[mG]
19:44:58.443000,21.0,-50.0,161.0,-1286.0,61.0,-297.0,0.0,0.0,0.0
19:44:58.447000,69.0,-95.0,-175.0,-1380.0,51.0,-298.0,0.0,0.0,0.0
19:44:58.452000,116.0,-133.0,-662.0,-1380.0,51.0,-298.0,0.0,0.0,0.0
19:44:58.457000,146.0,-108.0,-630.0,-1386.0,12.0,-291.0,0.0,0.0,0.0
19:44:58.461000,146.0,-108.0,-630.0,-1386.0,12.0,-291.0,0.0,0.0,0.0
19:44:58.466000,100.0,-135.0,-100.0,-1153.0,-61.0,-263.0,0.0,0.0,0.0
19:44:58.471000,-65.0,-100.0,217.0,-1153.0,-61.0,-263.0,0.0,0.0,0.0
19:44:58.476000,-120.0,-181.0,-121.0,-989.0,28.0,-233.0,0.0,0.0,0.0
19:44:58.480000,-153.0,-201.0,-660.0,-989.0,28.0,-233.0,0.0,0.0,0.0
19:44:58.485000,-133.0,-204.0,-450.0,-878.0,-229.0,-206.0,0.0,0.0,0.0
19:44:58.490000,-146.0,-189.0,-135.0,-878.0,-229.0,-206.0,0.0,0.0,0.0
19:44:58.494000,-114.0,-221.0,-33.0,-942.0,-738.0,-161.0,0.0,0.0,0.0
19:44:58.499000,-136.0,-203.0,-84.0,-942.0,-738.0,-161.0,0.0,0.0,0.0
19:44:58.504000,-178.0,-144.0,30.0,-784.0,-965.0,-102.0,0.0,0.0,0.0
19:44:58.508000,-159.0,-180.0,79.0,-784.0,-965.0,-102.0,0.0,0.0,0.0
19:44:58.513000,-233.0,-185.0,161.0,-490.0,-1195.0,-35.0,0.0,0.0,0.0
19:44:58.518000,-224.0,-168.0,172.0,-490.0,-1195.0,-35.0,0.0,0.0,0.0
19:44:58.523000,-133.0,-94.0,250.0,-490.0,-1195.0,-35.0,0.0,0.0,0.0
19:44:58.527000,-57.0,-99.0,25.0,-542.0,-1403.0,-7.0,0.0,0.0,0.0
19:44:58.532000,189.0,-166.0,-140.0,-542.0,-1403.0,-7.0,0.0,0.0,0.0
19:44:58.537000,86.0,-144.0,-191.0,-640.0,-1577.0,-8.0,0.0,0.0,0.0
19:44:58.541000,93.0,-112.0,-322.0,-640.0,-1577.0,-8.0,0.0,0.0,0.0
19:44:58.546000,104.0,-91.0,-435.0,-686.0,-1210.0,39.0,0.0,0.0,0.0
19:44:58.551000,212.0,6.0,-287.0,-686.0,-1210.0,39.0,0.0,0.0,0.0
19:44:58.555000,312.0,-49.0,-391.0,-642.0,-1015.0,45.0,0.0,0.0,0.0
19:44:58.560000,287.0,-42.0,-609.0,-642.0,-1015.0,45.0,0.0,0.0,0.0
19:44:58.565000,128.0,-53.0,-683.0,-763.0,-933.0,47.0,0.0,0.0,0.0
19:44:58.570000,128.0,-53.0,-683.0,-763.0,-933.0,47.0,0.0,0.0,0.0
19:44:58.574000,-63.0,30.0,-512.0,-683.0,-498.0,99.0,0.0,0.0,0.0
19:44:58.579000,-42.0,107.0,-462.0,-683.0,-498.0,99.0,0.0,0.0,0.0
19:44:58.584000,27.0,126.0,-544.0,-684.0,-575.0,119.0,0.0,0.0,0.0
19:44:58.588000,12.0,153.0,-583.0,-684.0,-575.0,119.0,0.0,0.0,0.0
19:44:58.593000,43.0,180.0,-422.0,-995.0,-748.0,131.0,0.0,0.0,0.0
19:44:58.598000,28.0,161.0,-274.0,-995.0,-748.0,131.0,0.0,0.0,0.0
19:44:58.602000,-170.0,190.0,-392.0,-948.0,-527.0,142.0,0.0,0.0,0.0
19:44:58.607000,-221.0,277.0,-455.0,-948.0,-527.0,142.0,0.0,0.0,0.0
19:44:58.611000,-175.0,264.0,-478.0,-735.0,-522.0,141.0,0.0,0.0,0.0
19:44:58.617000,-127.0,233.0,-512.0,-735.0,-522.0,141.0,0.0,0.0,0.0
19:44:58.621000,-98.0,226.0,-487.0,-678.0,-804.0,114.0,0.0,0.0,0.0
19:44:58.626000,-40.0,231.0,-313.0,-678.0,-804.0,114.0,0.0,0.0,0.0
19:44:58.631000,37.0,196.0,-309.0,-678.0,-866.0,114.0,0.0,0.0,0.0
19:44:58.635000,182.0,128.0,-191.0,-821.0,-872.0,75.0,0.0,0.0,0.0
19:44:58.640000,194.0,174.0,-109.0,-821.0,-872.0,75.0,0.0,0.0,0.0
19:44:58.645000,250.0,116.0,-443.0,-843.0,-755.0,39.0,0.0,0.0,0.0
19:44:58.649000,194.0,77.0,-810.0,-843.0,-755.0,39.0,0.0,0.0,0.0
19:44:58.654000,32.0,159.0,-630.0,-630.0,-583.0,56.0,0.0,0.0,0.0
19:44:58.659000,-23.0,201.0,-319.0,-630.0,-583.0,56.0,0.0,0.0,0.0
19:44:58.664000,-74.0,245.0,-248.0,-570.0,-559.0,77.0,0.0,0.0,0.0
19:44:58.668000,22.0,235.0,-125.0,-570.0,-559.0,77.0,0.0,0.0,0.0
19:44:58.673000,153.0,222.0,-162.0,-776.0,-727.0,18.0,0.0,0.0,0.0
19:44:58.678000,153.0,222.0,-162.0,-776.0,-727.0,18.0,0.0,0.0,0.0
19:44:58.682000,259.0,196.0,-483.0,-850.0,-704.0,-8.0,0.0,0.0,0.0
19:44:58.687000,311.0,179.0,-675.0,-850.0,-704.0,-8.0,0.0,0.0,0.0
19:44:58.692000,128.0,225.0,-519.0,-759.0,-615.0,4.0,0.0,0.0,0.0
19:44:58.696000,-21.0,245.0,-479.0,-759.0,-615.0,4.0,0.0,0.0,0.0
19:44:58.701000,45.0,213.0,-378.0,-709.0,-607.0,-19.0,0.0,0.0,0.0
19:44:58.706000,75.0,252.0,-323.0,-709.0,-607.0,-19.0,0.0,0.0,0.0
19:44:58.710000,224.0,259.0,-88.0,-729.0,-697.0,-60.0,0.0,0.0,0.0
19:44:58.715000,251.0,243.0,100.0,-729.0,-697.0,-60.0,0.0,0.0,0.0
19:44:58.720000,262.0,219.0,-240.0,-903.0,-605.0,-58.0,0.0,0.0,0.0
19:44:58.725000,263.0,163.0,-793.0,-903.0,-605.0,-58.0,0.0,0.0,0.0
19:44:58.729000,134.0,163.0,-1022.0,-695.0,-389.0,-56.0,0.0,0.0,0.0
19:44:58.734000,-11.0,211.0,-700.0,-695.0,-389.0,-56.0,0.0,0.0,0.0
19:44:58.739000,-84.0,226.0,-396.0,-500.0,-483.0,-93.0,0.0,0.0,0.0
19:44:58.743000,-58.0,166.0,-383.0,-500.0,-483.0,-93.0,0.0,0.0,0.0
19:44:58.748000,-91.0,187.0,-359.0,-500.0,-483.0,-93.0,0.0,0.0,0.0
19:44:58.753000,-137.0,160.0,-239.0,-833.0,-679.0,-138.0,0.0,0.0,0.0
19:44:58.757000,-183.0,201.0,-64.0,-833.0,-679.0,-138.0,0.0,0.0,0.0
19:44:58.762000,-154.0,188.0,152.0,-897.0,-647.0,-153.0,0.0,0.0,0.0
19:44:58.767000,-165.0,216.0,100.0,-897.0,-647.0,-153.0,0.0,0.0,0.0
19:44:58.772000,-140.0,200.0,-297.0,-795.0,-447.0,-146.0,0.0,0.0,0.0
19:44:58.776000,-140.0,200.0,-297.0,-795.0,-447.0,-146.0,0.0,0.0,0.0
19:44:58.781000,-79.0,142.0,-298.0,-755.0,-499.0,-157.0,0.0,0.0,0.0
19:44:58.786000,-141.0,158.0,-241.0,-755.0,-499.0,-157.0,0.0,0.0,0.0
19:44:58.790000,-141.0,158.0,-241.0,-684.0,-596.0,-184.0,0.0,0.0,0.0
19:44:58.795000,-102.0,149.0,-407.0,-684.0,-596.0,-184.0,0.0,0.0,0.0
19:44:58.800000,7.0,95.0,-340.0,-749.0,-592.0,-223.0,0.0,0.0,0.0
19:44:58.804000,-46.0,65.0,-268.0,-749.0,-592.0,-223.0,0.0,0.0,0.0
19:44:58.809000,-38.0,42.0,-324.0,-798.0,-620.0,-244.0,0.0,0.0,0.0
19:44:58.814000,-33.0,19.0,-266.0,-798.0,-620.0,-244.0,0.0,0.0,0.0
19:44:58.819000,-97.0,20.0,-170.0,-689.0,-637.0,-236.0,0.0,0.0,0.0
19:44:58.823000,-100.0,17.0,-121.0,-689.0,-637.0,-236.0,0.0,0.0,0.0
19:44:58.828000,-49.0,-7.0,-33.0,-655.0,-608.0,-244.0,0.0,0.0,0.0
19:44:58.833000,-23.0,-3.0,101.0,-655.0,-608.0,-244.0,0.0,0.0,0.0
19:44:58.837000,6.0,-26.0,-43.0,-818.0,-522.0,-251.0,0.0,0.0,0.0
19:44:58.842000,51.0,-95.0,-309.0,-818.0,-522.0,-251.0,0.0,0.0,0.0
19:44:58.847000,9.0,-85.0,-427.0,-746.0,-475.0,-213.0,0.0,0.0,0.0
19:44:58.851000,-8.0,-37.0,-511.0,-746.0,-475.0,-213.0,0.0,0.0,0.0
19:44:58.856000,66.0,-62.0,-291.0,-746.0,-475.0,-213.0,0.0,0.0,0.0
19:44:58.861000,71.0,-123.0,-170.0,-660.0,-657.0,-190.0,0.0,0.0,0.0
19:44:58.866000,9.0,-130.0,-429.0,-660.0,-657.0,-190.0,0.0,0.0,0.0
19:44:58.870000,-11.0,-103.0,-625.0,-727.0,-590.0,-181.0,0.0,0.0,0.0
19:44:58.875000,46.0,-95.0,-468.0,-727.0,-590.0,-181.0,0.0,0.0,0.0
19:44:58.880000,121.0,-141.0,-140.0,-732.0,-563.0,-190.0,0.0,0.0,0.0
19:44:58.884000,78.0,-140.0,-100.0,-732.0,-563.0,-190.0,0.0,0.0,0.0
19:44:58.889000,80.0,-156.0,-241.0,-807.0,-577.0,-194.0,0.0,0.0,0.0
19:44:58.894000,63.0,-167.0,-220.0,-807.0,-577.0,-194.0,0.0,0.0,0.0
19:44:58.898000,63.0,-167.0,-220.0,-799.0,-417.0,-160.0,0.0,0.0,0.0
19:44:58.903000,84.0,-167.0,-221.0,-799.0,-417.0,-160.0,0.0,0.0,0.0
19:44:58.908000,117.0,-200.0,-355.0,-773.0,-462.0,-134.0,0.0,0.0,0.0
19:44:58.913000,132.0,-234.0,-381.0,-773.0,-462.0,-134.0,0.0,0.0,0.0
19:44:58.917000,92.0,-231.0,-334.0,-785.0,-475.0,-109.0,0.0,0.0,0.0
19:44:58.922000,83.0,-213.0,-327.0,-785.0,-475.0,-109.0,0.0,0.0,0.0
19:44:58.927000,57.0,-189.0,-316.0,-867.0,-465.0,-96.0,0.0,0.0,0.0
19:44:58.931000,67.0,-189.0,-309.0,-867.0,-465.0,-96.0,0.0,0.0,0.0
19:44:58.936000,35.0,-183.0,-292.0,-965.0,-511.0,-76.0,0.0,0.0,0.0
19:44:58.941000,2.0,-163.0,-221.0,-965.0,-511.0,-76.0,0.0,0.0,0.0
19:44:58.945000,11.0,-158.0,-162.0,-927.0,-476.0,-55.0,0.0,0.0,0.0
19:44:58.950000,-3.0,-160.0,-226.0,-927.0,-476.0,-55.0,0.0,0.0,0.0
19:44:58.955000,-63.0,-144.0,-328.0,-853.0,-387.0,-39.0,0.0,0.0,0.0
19:44:58.960000,-44.0,-119.0,-325.0,-853.0,-387.0,-39.0,0.0,0.0,0.0
19:44:58.964000,-16.0,-136.0,-180.0,-853.0,-387.0,-39.0,0.0,0.0,0.0
19:44:58.969000,49.0,-149.0,-56.0,-817.0,-483.0,-37.0,0.0,0.0,0.0
19:44:58.974000,59.0,-166.0,-35.0,-817.0,-483.0,-37.0,0.0,0.0,0.0
19:44:58.978000,-4.0,-125.0,-121.0,-881.0,-492.0,-48.0,0.0,0.0,0.0
19:44:58.983000,44.0,-118.0,-263.0,-881.0,-492.0,-48.0,0.0,0.0,0.0
19:44:58.988000,44.0,-108.0,-171.0,-924.0,-405.0,-57.0,0.0,0.0,0.0
19:44:58.992000,100.0,-120.0,-121.0,-924.0,-405.0,-57.0,0.0,0.0,0.0
19:44:58.997000,159.0,-130.0,-296.0,-930.0,-447.0,-63.0,0.0,0.0,0.0
19:44:59.002000,170.0,-123.0,-471.0,-930.0,-447.0,-63.0,0.0,0.0,0.0
19:44:59.007000,170.0,-123.0,-471.0,-864.0,-429.0,-46.0,0.0,0.0,0.0
19:44:59.011000,204.0,-133.0,-435.0,-864.0,-429.0,-46.0,0.0,0.0,0.0
19:44:59.016000,174.0,-126.0,-361.0,-779.0,-387.0,-26.0,0.0,0.0,0.0
19:44:59.021000,104.0,-135.0,-442.0,-779.0,-387.0,-26.0,0.0,0.0,0.0
19:44:59.025000,56.0,-105.0,-556.0,-792.0,-399.0,-35.0,0.0,0.0,0.0
19:44:59.030000,32.0,-107.0,-554.0,-792.0,-399.0,-35.0,0.0,0.0,0.0
19:44:59.035000,28.0,-89.0,-479.0,-844.0,-443.0,-56.0,0.0,0.0,0.0
19:44:59.039000,-2.0,-91.0,-394.0,-844.0,-443.0,-56.0,0.0,0.0,0.0
19:44:59.044000,-49.0,-68.0,-236.0,-945.0,-445.0,-53.0,0.0,0.0,0.0
19:44:59.049000,-78.0,-35.0,-280.0,-945.0,-445.0,-53.0,0.0,0.0,0.0
19:44:59.054000,-72.0,-7.0,-327.0,-1008.0,-386.0,-50.0,0.0,0.0,0.0
19:44:59.058000,-79.0,6.0,-304.0,-1008.0,-386.0,-50.0,0.0,0.0,0.0
19:44:59.063000,1.0,14.0,-200.0,-923.0,-371.0,-63.0,0.0,0.0,0.0
19:44:59.068000,56.0,-9.0,-172.0,-923.0,-371.0,-63.0,0.0,0.0,0.0
19:44:59.072000,74.0,-13.0,-289.0,-923.0,-371.0,-63.0,0.0,0.0,0.0
19:44:59.076000,46.0,-14.0,-350.0,-829.0,-403.0,-59.0,0.0,0.0,0.0
19:44:59.082000,36.0,-24.0,-205.0,-829.0,-403.0,-59.0,0.0,0.0,0.0
19:44:59.086000,45.0,-40.0,-206.0,-807.0,-404.0,-46.0,0.0,0.0,0.0
19:44:59.091000,-23.0,-44.0,-396.0,-807.0,-404.0,-46.0,0.0,0.0,0.0
19:44:59.096000,-37.0,-37.0,-486.0,-852.0,-259.0,-39.0,0.0,0.0,0.0
19:44:59.101000,-39.0,-32.0,-406.0,-852.0,-259.0,-39.0,0.0,0.0,0.0
19:44:59.105000,-29.0,-28.0,-422.0,-894.0,-230.0,-51.0,0.0,0.0,0.0
19:44:59.110000,-30.0,-9.0,-499.0,-894.0,-230.0,-51.0,0.0,0.0,0.0
19:44:59.115000,-30.0,-9.0,-499.0,-926.0,-352.0,-71.0,0.0,0.0,0.0
19:44:59.119000,-35.0,-16.0,-509.0,-926.0,-352.0,-71.0,0.0,0.0,0.0
19:44:59.124000,-28.0,-7.0,-504.0,-978.0,-343.0,-74.0,0.0,0.0,0.0
19:44:59.129000,-75.0,11.0,-485.0,-978.0,-343.0,-74.0,0.0,0.0,0.0
19:44:59.133000,-101.0,25.0,-461.0,-953.0,-293.0,-73.0,0.0,0.0,0.0
19:44:59.138000,-110.0,55.0,-418.0,-953.0,-293.0,-73.0,0.0,0.0,0.0
19:44:59.143000,-128.0,66.0,-391.0,-973.0,-313.0,-66.0,0.0,0.0,0.0
19:44:59.148000,-127.0,94.0,-427.0,-973.0,-313.0,-66.0,0.0,0.0,0.0
19:44:59.152000,-62.0,109.0,-508.0,-1063.0,-306.0,-65.0,0.0,0.0,0.0
19:44:59.157000,-17.0,106.0,-561.0,-1063.0,-306.0,-65.0,0.0,0.0,0.0
19:44:59.162000,-51.0,140.0,-508.0,-1108.0,-368.0,-77.0,0.0,0.0,0.0
19:44:59.166000,-40.0,149.0,-489.0,-1108.0,-368.0,-77.0,0.0,0.0,0.0
19:44:59.171000,-57.0,169.0,-515.0,-1134.0,-483.0,-97.0,0.0,0.0,0.0
19:44:59.176000,-71.0,191.0,-507.0,-1134.0,-483.0,-97.0,0.0,0.0,0.0
19:44:59.180000,-38.0,201.0,-497.0,-1134.0,-483.0,-97.0,0.0,0.0,0.0
19:44:59.185000,28.0,175.0,-508.0,-1068.0,-430.0,-123.0,0.0,0.0,0.0
19:44:59.190000,27.0,148.0,-436.0,-1068.0,-430.0,-123.0,0.0,0.0,0.0
19:44:59.195000,-9.0,160.0,-289.0,-903.0,-419.0,-125.0,0.0,0.0,0.0
19:44:59.199000,31.0,145.0,-299.0,-903.0,-419.0,-125.0,0.0,0.0,0.0
19:44:59.204000,81.0,146.0,-493.0,-917.0,-379.0,-130.0,0.0,0.0,0.0
19:44:59.209000,108.0,119.0,-648.0,-917.0,-379.0,-130.0,0.0,0.0,0.0
19:44:59.213000,117.0,112.0,-681.0,-983.0,-255.0,-126.0,0.0,0.0,0.0
19:44:59.218000,115.0,107.0,-575.0,-983.0,-255.0,-126.0,0.0,0.0,0.0
19:44:59.223000,125.0,115.0,-506.0,-910.0,-355.0,-104.0,0.0,0.0,0.0
19:44:59.227000,125.0,115.0,-506.0,-910.0,-355.0,-104.0,0.0,0.0,0.0
19:44:59.232000,116.0,116.0,-510.0,-920.0,-429.0,-104.0,0.0,0.0,0.0
19:44:59.237000,88.0,121.0,-543.0,-920.0,-429.0,-104.0,0.0,0.0,0.0
19:44:59.242000,67.0,138.0,-594.0,-990.0,-337.0,-102.0,0.0,0.0,0.0
19:44:59.246000,65.0,143.0,-618.0,-990.0,-337.0,-102.0,0.0,0.0,0.0
19:44:59.251000,28.0,144.0,-616.0,-998.0,-341.0,-95.0,0.0,0.0,0.0
19:44:59.256000,-18.0,174.0,-559.0,-998.0,-341.0,-95.0,0.0,0.0,0.0
19:44:59.260000,-36.0,199.0,-529.0,-976.0,-286.0,-90.0,0.0,0.0,0.0
19:44:59.265000,-28.0,200.0,-529.0,-976.0,-286.0,-90.0,0.0,0.0,0.0
19:44:59.270000,-12.0,198.0,-594.0,-972.0,-221.0,-83.0,0.0,0.0,0.0
19:44:59.274000,-28.0,226.0,-687.0,-972.0,-221.0,-83.0,0.0,0.0,0.0
19:44:59.279000,-4.0,233.0,-705.0,-991.0,-296.0,-82.0,0.0,0.0,0.0
19:44:59.284000,-11.0,233.0,-697.0,-991.0,-296.0,-82.0,0.0,0.0,0.0
19:44:59.289000,-40.0,233.0,-692.0,-991.0,-296.0,-82.0,0.0,0.0,0.0
19:44:59.293000,-72.0,238.0,-686.0,-967.0,-256.0,-82.0,0.0,0.0,0.0
19:44:59.298000,-81.0,242.0,-655.0,-967.0,-256.0,-82.0,0.0,0.0,0.0
19:44:59.303000,-82.0,242.0,-602.0,-955.0,-227.0,-89.0,0.0,0.0,0.0
19:44:59.307000,-81.0,243.0,-574.0,-955.0,-227.0,-89.0,0.0,0.0,0.0
19:44:59.312000,-68.0,245.0,-625.0,-1014.0,-258.0,-114.0,0.0,0.0,0.0
19:44:59.317000,-68.0,245.0,-674.0,-1014.0,-258.0,-114.0,0.0,0.0,0.0
19:44:59.321000,-61.0,240.0,-644.0,-1031.0,-237.0,-125.0,0.0,0.0,0.0
19:44:59.326000,-42.0,238.0,-619.0,-1031.0,-237.0,-125.0,0.0,0.0,0.0
19:44:59.331000,-21.0,235.0,-597.0,-983.0,-243.0,-132.0,0.0,0.0,0.0
19:44:59.336000,-21.0,235.0,-597.0,-983.0,-243.0,-132.0,0.0,0.0,0.0
19:44:59.340000,-13.0,219.0,-588.0,-984.0,-251.0,-141.0,0.0,0.0,0.0
19:44:59.345000,0.0,208.0,-584.0,-984.0,-251.0,-141.0,0.0,0.0,0.0
19:44:59.350000,37.0,200.0,-603.0,-994.0,-234.0,-159.0,0.0,0.0,0.0
19:44:59.354000,63.0,184.0,-660.0,-994.0,-234.0,-159.0,0.0,0.0,0.0
19:44:59.359000,75.0,171.0,-681.0,-932.0,-229.0,-180.0,0.0,0.0,0.0
19:44:59.364000,88.0,163.0,-667.0,-932.0,-229.0,-180.0,0.0,0.0,0.0
19:44:59.368000,107.0,156.0,-648.0,-891.0,-196.0,-190.0,0.0,0.0,0.0
19:44:59.373000,131.0,149.0,-646.0,-891.0,-196.0,-190.0,0.0,0.0,0.0
19:44:59.378000,158.0,135.0,-679.0,-930.0,-159.0,-220.0,0.0,0.0,0.0
19:44:59.383000,186.0,121.0,-712.0,-930.0,-159.0,-220.0,0.0,0.0,0.0
19:44:59.387000,211.0,99.0,-701.0,-937.0,-187.0,-242.0,0.0,0.0,0.0
19:44:59.392000,235.0,69.0,-656.0,-937.0,-187.0,-242.0,0.0,0.0,0.0
19:44:59.397000,264.0,37.0,-630.0,-937.0,-187.0,-242.0,0.0,0.0,0.0
19:44:59.401000,287.0,7.0,-653.0,-874.0,-171.0,-247.0,0.0,0.0,0.0
19:44:59.406000,302.0,-16.0,-690.0,-874.0,-171.0,-247.0,0.0,0.0,0.0
19:44:59.411000,312.0,-35.0,-668.0,-841.0,-86.0,-263.0,0.0,0.0,0.0
19:44:59.415000,311.0,-53.0,-614.0,-841.0,-86.0,-263.0,0.0,0.0,0.0
19:44:59.420000,309.0,-74.0,-567.0,-858.0,-38.0,-242.0,0.0,0.0,0.0
19:44:59.425000,315.0,-112.0,-557.0,-858.0,-38.0,-242.0,0.0,0.0,0.0
19:44:59.430000,310.0,-109.0,-604.0,-881.0,49.0,-130.0,0.0,0.0,0.0
19:44:59.434000,293.0,-79.0,-647.0,-881.0,49.0,-130.0,0.0,0.0,0.0
19:44:59.439000,265.0,-95.0,-651.0,-999.0,169.0,-111.0,0.0,0.0,0.0
19:44:59.444000,265.0,-95.0,-651.0,-999.0,169.0,-111.0,0.0,0.0,0.0
19:44:59.448000,245.0,-114.0,-609.0,-1129.0,112.0,-196.0,0.0,0.0,0.0
19:44:59.453000,231.0,-93.0,-566.0,-1129.0,112.0,-196.0,0.0,0.0,0.0
19:44:59.458000,212.0,-70.0,-513.0,-1150.0,26.0,-190.0,0.0,0.0,0.0
19:44:59.462000,195.0,-49.0,-477.0,-1150.0,26.0,-190.0,0.0,0.0,0.0
19:44:59.467000,180.0,-33.0,-467.0,-1170.0,14.0,-178.0,0.0,0.0,0.0
19:44:59.472000,179.0,-18.0,-477.0,-1170.0,14.0,-178.0,0.0,0.0,0.0
19:44:59.477000,172.0,3.0,-485.0,-1153.0,-6.0,-204.0,0.0,0.0,0.0
19:44:59.481000,165.0,13.0,-480.0,-1153.0,-6.0,-204.0,0.0,0.0,0.0
19:44:59.486000,155.0,24.0,-460.0,-1036.0,8.0,-194.0,0.0,0.0,0.0
19:44:59.491000,155.0,20.0,-441.0,-1036.0,8.0,-194.0,0.0,0.0,0.0
19:44:59.495000,152.0,9.0,-459.0,-925.0,53.0,-176.0,0.0,0.0,0.0
19:44:59.500000,161.0,4.0,-499.0,-925.0,53.0,-176.0,0.0,0.0,0.0
19:44:59.505000,164.0,-4.0,-526.0,-925.0,118.0,-132.0,0.0,0.0,0.0
19:44:59.509000,171.0,-18.0,-534.0,-863.0,118.0,-132.0,0.0,0.0,0.0
19:44:59.514000,181.0,-16.0,-534.0,-863.0,118.0,-132.0,0.0,0.0,0.0
19:44:59.519000,200.0,1.0,-557.0,-934.0,144.0,-127.0,0.0,0.0,0.0
19:44:59.524000,205.0,18.0,-629.0,-934.0,144.0,-127.0,0.0,0.0,0.0
19:44:59.528000,166.0,28.0,-700.0,-1145.0,139.0,-176.0,0.0,0.0,0.0
19:44:59.533000,119.0,13.0,-711.0,-1145.0,139.0,-176.0,0.0,0.0,0.0
19:44:59.538000,80.0,-1.0,-656.0,-1279.0,162.0,-148.0,0.0,0.0,0.0
19:44:59.542000,21.0,11.0,-582.0,-1279.0,162.0,-148.0,0.0,0.0,0.0
19:44:59.546000,21.0,11.0,-582.0,-1270.0,182.0,-105.0,0.0,0.0,0.0
19:44:59.552000,-6.0,28.0,-544.0,-1270.0,182.0,-105.0,0.0,0.0,0.0
19:44:59.556000,-16.0,37.0,-522.0,-1243.0,125.0,-99.0,0.0,0.0,0.0
19:44:59.561000,0.0,34.0,-520.0,-1243.0,125.0,-99.0,0.0,0.0,0.0
19:44:59.566000,7.0,38.0,-532.0,-1236.0,28.0,-135.0,0.0,0.0,0.0
19:44:59.571000,16.0,39.0,-539.0,-1236.0,28.0,-135.0,0.0,0.0,0.0
19:44:59.575000,23.0,49.0,-519.0,-1184.0,42.0,-188.0,0.0,0.0,0.0
19:44:59.580000,8.0,56.0,-485.0,-1184.0,42.0,-188.0,0.0,0.0,0.0
19:44:59.585000,-9.0,55.0,-461.0,-1110.0,142.0,-194.0,0.0,0.0,0.0
19:44:59.589000,-23.0,58.0,-462.0,-1110.0,142.0,-194.0,0.0,0.0,0.0
19:44:59.594000,-28.0,70.0,-464.0,-1041.0,148.0,-181.0,0.0,0.0,0.0
19:44:59.599000,-14.0,70.0,-465.0,-1041.0,148.0,-181.0,0.0,0.0,0.0
19:44:59.603000,18.0,72.0,-462.0,-1023.0,94.0,-191.0,0.0,0.0,0.0
19:44:59.608000,40.0,74.0,-465.0,-1023.0,94.0,-191.0,0.0,0.0,0.0
19:44:59.613000,58.0,65.0,-466.0,-1016.0,97.0,-192.0,0.0,0.0,0.0
19:44:59.618000,71.0,57.0,-465.0,-1016.0,97.0,-192.0,0.0,0.0,0.0
19:44:59.622000,73.0,52.0,-464.0,-1016.0,97.0,-192.0,0.0,0.0,0.0
19:44:59.627000,85.0,44.0,-459.0,-983.0,124.0,-176.0,0.0,0.0,0.0
19:44:59.632000,107.0,32.0,-450.0,-983.0,124.0,-176.0,0.0,0.0,0.0
19:44:59.636000,121.0,19.0,-440.0,-955.0,132.0,-167.0,0.0,0.0,0.0
19:44:59.641000,131.0,13.0,-415.0,-955.0,132.0,-167.0,0.0,0.0,0.0
19:44:59.646000,129.0,12.0,-382.0,-939.0,144.0,-177.0,0.0,0.0,0.0
19:44:59.650000,122.0,9.0,-360.0,-939.0,144.0,-177.0,0.0,0.0,0.0
19:44:59.655000,128.0,3.0,-345.0,-960.0,198.0,-181.0,0.0,0.0,0.0
19:44:59.659000,128.0,3.0,-345.0,-960.0,198.0,-181.0,0.0,0.0,0.0
19:44:59.665000,142.0,-4.0,-333.0,-995.0,243.0,-182.0,0.0,0.0,0.0
19:44:59.669000,146.0,-4.0,-326.0,-995.0,243.0,-182.0,0.0,0.0,0.0
19:44:59.674000,139.0,1.0,-303.0,-1018.0,248.0,-195.0,0.0,0.0,0.0
19:44:59.679000,137.0,5.0,-301.0,-1018.0,248.0,-195.0,0.0,0.0,0.0
19:44:59.683000,130.0,4.0,-326.0,-1076.0,295.0,-194.0,0.0,0.0,0.0
19:44:59.688000,122.0,-1.0,-364.0,-1076.0,295.0,-194.0,0.0,0.0,0.0
19:44:59.693000,105.0,4.0,-359.0,-1114.0,346.0,-187.0,0.0,0.0,0.0
19:44:59.697000,84.0,17.0,-308.0,-1114.0,346.0,-187.0,0.0,0.0,0.0
19:44:59.702000,70.0,26.0,-234.0,-1073.0,355.0,-190.0,0.0,0.0,0.0
19:44:59.707000,55.0,35.0,-154.0,-1073.0,355.0,-190.0,0.0,0.0,0.0
19:44:59.712000,60.0,31.0,-168.0,-1075.0,369.0,-206.0,0.0,0.0,0.0
19:44:59.716000,63.0,38.0,-310.0,-1075.0,369.0,-206.0,0.0,0.0,0.0
19:44:59.721000,58.0,39.0,-348.0,-1030.0,365.0,-210.0,0.0,0.0,0.0
19:44:59.726000,53.0,39.0,-284.0,-1030.0,365.0,-210.0,0.0,0.0,0.0
19:44:59.730000,67.0,29.0,-198.0,-933.0,364.0,-189.0,0.0,0.0,0.0
19:44:59.735000,69.0,9.0,-177.0,-933.0,364.0,-189.0,0.0,0.0,0.0
19:44:59.740000,63.0,-8.0,-160.0,-933.0,364.0,-189.0,0.0,0.0,0.0
19:44:59.744000,79.0,-28.0,-141.0,-940.0,368.0,-170.0,0.0,0.0,0.0
19:44:59.749000,94.0,-53.0,-111.0,-940.0,368.0,-170.0,0.0,0.0,0.0
19:44:59.754000,115.0,-79.0,-83.0,-968.0,334.0,-162.0,0.0,0.0,0.0
19:44:59.759000,120.0,-105.0,-102.0,-968.0,334.0,-162.0,0.0,0.0,0.0
19:44:59.763000,122.0,-128.0,-108.0,-940.0,327.0,-148.0,0.0,0.0,0.0
19:44:59.768000,121.0,-157.0,-84.0,-940.0,327.0,-148.0,0.0,0.0,0.0
19:44:59.773000,121.0,-157.0,-84.0,-878.0,360.0,-129.0,0.0,0.0,0.0
19:44:59.777000,113.0,-182.0,-49.0,-878.0,360.0,-129.0,0.0,0.0,0.0
19:44:59.782000,119.0,-204.0,-14.0,-829.0,371.0,-119.0,0.0,0.0,0.0
19:44:59.787000,113.0,-214.0,-22.0,-829.0,371.0,-119.0,0.0,0.0,0.0
19:44:59.791000,109.0,-235.0,-29.0,-843.0,360.0,-107.0,0.0,0.0,0.0
19:44:59.796000,109.0,-249.0,11.0,-843.0,360.0,-107.0,0.0,0.0,0.0
19:44:59.801000,114.0,-268.0,42.0,-881.0,326.0,-98.0,0.0,0.0,0.0
19:44:59.806000,123.0,-286.0,52.0,-881.0,326.0,-98.0,0.0,0.0,0.0
19:44:59.810000,122.0,-301.0,56.0,-874.0,302.0,-96.0,0.0,0.0,0.0
19:44:59.815000,109.0,-308.0,109.0,-874.0,302.0,-96.0,0.0,0.0,0.0
19:44:59.820000,91.0,-308.0,183.0,-856.0,317.0,-92.0,0.0,0.0,0.0
19:44:59.824000,60.0,-296.0,239.0,-856.0,317.0,-92.0,0.0,0.0,0.0
19:44:59.829000,25.0,-278.0,256.0,-884.0,365.0,-91.0,0.0,0.0,0.0
19:44:59.834000,-11.0,-263.0,290.0,-884.0,365.0,-91.0,0.0,0.0,0.0
19:44:59.838000,-58.0,-245.0,347.0,-884.0,365.0,-91.0,0.0,0.0,0.0
19:44:59.843000,-98.0,-225.0,415.0,-923.0,371.0,-84.0,0.0,0.0,0.0
19:44:59.848000,-136.0,-200.0,457.0,-948.0,333.0,-72.0,0.0,0.0,0.0
19:44:59.853000,-175.0,-172.0,515.0,-948.0,333.0,-72.0,0.0,0.0,0.0
19:44:59.857000,-219.0,-140.0,592.0,-948.0,333.0,-72.0,0.0,0.0,0.0
19:44:59.862000,-261.0,-109.0,683.0,-956.0,298.0,-54.0,0.0,0.0,0.0
19:44:59.867000,-297.0,-70.0,756.0,-956.0,298.0,-54.0,0.0,0.0,0.0
19:44:59.871000,-319.0,-25.0,802.0,-931.0,247.0,-38.0,0.0,0.0,0.0
19:44:59.876000,-326.0,23.0,846.0,-931.0,247.0,-38.0,0.0,0.0,0.0
19:44:59.881000,-326.0,23.0,846.0,-886.0,180.0,-50.0,0.0,0.0,0.0
19:44:59.885000,-324.0,70.0,891.0,-886.0,180.0,-50.0,0.0,0.0,0.0
19:44:59.890000,-298.0,109.0,900.0,-822.0,91.0,-83.0,0.0,0.0,0.0
19:44:59.895000,-262.0,141.0,877.0,-822.0,91.0,-83.0,0.0,0.0,0.0
19:44:59.900000,-217.0,170.0,854.0,-712.0,-8.0,-137.0,0.0,0.0,0.0
19:44:59.904000,-157.0,192.0,820.0,-712.0,-8.0,-137.0,0.0,0.0,0.0
19:44:59.909000,-93.0,203.0,753.0,-566.0,-83.0,-208.0,0.0,0.0,0.0
19:44:59.914000,-32.0,208.0,668.0,-566.0,-83.0,-208.0,0.0,0.0,0.0
19:44:59.918000,25.0,203.0,581.0,-461.0,-62.0,-271.0,0.0,0.0,0.0
19:44:59.923000,70.0,193.0,501.0,-461.0,-62.0,-271.0,0.0,0.0,0.0
19:44:59.928000,98.0,175.0,430.0,-415.0,32.0,-305.0,0.0,0.0,0.0
19:44:59.932000,114.0,156.0,382.0,-415.0,32.0,-305.0,0.0,0.0,0.0
19:44:59.937000,114.0,131.0,364.0,-406.0,106.0,-308.0,0.0,0.0,0.0
19:44:59.942000,100.0,104.0,381.0,-406.0,106.0,-308.0,0.0,0.0,0.0
19:44:59.947000,79.0,74.0,420.0,-406.0,106.0,-308.0,0.0,0.0,0.0
19:44:59.951000,56.0,44.0,459.0,-404.0,120.0,-283.0,0.0,0.0,0.0
19:44:59.956000,37.0,13.0,482.0,-404.0,120.0,-283.0,0.0,0.0,0.0
19:44:59.961000,27.0,-16.0,483.0,-407.0,90.0,-242.0,0.0,0.0,0.0
19:44:59.965000,25.0,-44.0,465.0,-407.0,90.0,-242.0,0.0,0.0,0.0
19:44:59.970000,31.0,-67.0,432.0,-440.0,37.0,-195.0,0.0,0.0,0.0
19:44:59.975000,42.0,-89.0,397.0,-440.0,37.0,-195.0,0.0,0.0,0.0
19:44:59.979000,56.0,-107.0,361.0,-512.0,-19.0,-142.0,0.0,0.0,0.0
19:44:59.984000,69.0,-118.0,324.0,-512.0,-19.0,-142.0,0.0,0.0,0.0
19:44:59.989000,77.0,-118.0,291.0,-600.0,-49.0,-86.0,0.0,0.0,0.0
19:44:59.994000,77.0,-123.0,291.0,-600.0,-49.0,-86.0,0.0,0.0,0.0
19:44:59.998000,81.0,-123.0,264.0,-678.0,-46.0,-32.0,0.0,0.0,0.0
19:45:00.003000,81.0,-114.0,245.0,-678.0,-46.0,-32.0,0.0,0.0,0.0
19:45:00.008000,77.0,-98.0,238.0,-719.0,-33.0,12.0,0.0,0.0,0.0
19:45:00.012000,70.0,-77.0,240.0,-719.0,-33.0,12.0,0.0,0.0,0.0
19:45:00.017000,63.0,-51.0,245.0,-737.0,-15.0,35.0,0.0,0.0,0.0
19:45:00.022000,56.0,-21.0,247.0,-737.0,-15.0,35.0,0.0,0.0,0.0
19:45:00.026000,52.0,11.0,254.0,-760.0,1.0,39.0,0.0,0.0,0.0
19:45:00.031000,50.0,44.0,266.0,-760.0,1.0,39.0,0.0,0.0,0.0
19:45:00.036000,52.0,74.0,277.0,-763.0,0.0,35.0,0.0,0.0,0.0
19:45:00.041000,60.0,101.0,289.0,-763.0,0.0,35.0,0.0,0.0,0.0
19:45:00.045000,70.0,128.0,301.0,-722.0,-11.0,22.0,0.0,0.0,0.0
19:45:00.050000,81.0,150.0,312.0,-722.0,-11.0,22.0,0.0,0.0,0.0
19:45:00.055000,92.0,168.0,329.0,-722.0,-11.0,22.0,0.0,0.0,0.0
19:45:00.059000,102.0,182.0,345.0,-642.0,-17.0,6.0,0.0,0.0,0.0
19:45:00.064000,112.0,191.0,348.0,-642.0,-17.0,6.0,0.0,0.0,0.0
19:45:00.069000,119.0,197.0,336.0,-557.0,-3.0,-10.0,0.0,0.0,0.0
19:45:00.073000,124.0,195.0,319.0,-557.0,-3.0,-10.0,0.0,0.0,0.0
19:45:00.078000,130.0,187.0,303.0,-493.0,25.0,-30.0,0.0,0.0,0.0
19:45:00.083000,134.0,174.0,289.0,-493.0,25.0,-30.0,0.0,0.0,0.0
19:45:00.088000,140.0,156.0,268.0,-441.0,36.0,-52.0,0.0,0.0,0.0
19:45:00.092000,142.0,137.0,238.0,-441.0,36.0,-52.0,0.0,0.0,0.0
19:45:00.097000,138.0,116.0,205.0,-421.0,46.0,-73.0,0.0,0.0,0.0
19:45:00.102000,138.0,116.0,205.0,-421.0,46.0,-73.0,0.0,0.0,0.0
19:45:00.106000,127.0,98.0,179.0,-437.0,68.0,-91.0,0.0,0.0,0.0
19:45:00.111000,108.0,79.0,165.0,-437.0,68.0,-91.0,0.0,0.0,0.0
19:45:00.116000,81.0,65.0,156.0,-467.0,88.0,-99.0,0.0,0.0,0.0
19:45:00.120000,47.0,53.0,156.0,-467.0,88.0,-99.0,0.0,0.0,0.0
19:45:00.125000,11.0,42.0,169.0,-518.0,96.0,-99.0,0.0,0.0,0.0
19:45:00.130000,-23.0,31.0,193.0,-518.0,96.0,-99.0,0.0,0.0,0.0
19:45:00.135000,-53.0,21.0,224.0,-578.0,63.0,-100.0,0.0,0.0,0.0
19:45:00.139000,-80.0,10.0,254.0,-578.0,63.0,-100.0,0.0,0.0,0.0
19:45:00.144000,-101.0,1.0,283.0,-616.0,11.0,-99.0,0.0,0.0,0.0
19:45:00.149000,-119.0,-5.0,303.0,-616.0,11.0,-99.0,0.0,0.0,0.0
19:45:00.153000,-136.0,-11.0,312.0,-635.0,-12.0,-91.0,0.0,0.0,0.0
19:45:00.158000,-154.0,-16.0,317.0,-635.0,-12.0,-91.0,0.0,0.0,0.0
19:45:00.163000,-171.0,-21.0,319.0,-638.0,-22.0,-80.0,0.0,0.0,0.0
19:45:00.167000,-185.0,-30.0,313.0,-638.0,-22.0,-80.0,0.0,0.0,0.0
19:45:00.172000,-193.0,-41.0,298.0,-638.0,-22.0,-80.0,0.0,0.0,0.0
19:45:00.177000,-192.0,-52.0,277.0,-624.0,-55.0,-73.0,0.0,0.0,0.0
19:45:00.182000,-183.0,-62.0,253.0,-624.0,-55.0,-73.0,0.0,0.0,0.0
19:45:00.186000,-168.0,-67.0,226.0,-621.0,-107.0,-79.0,0.0,0.0,0.0
19:45:00.191000,-151.0,-72.0,198.0,-621.0,-107.0,-79.0,0.0,0.0,0.0
19:45:00.196000,-132.0,-75.0,168.0,-655.0,-144.0,-88.0,0.0,0.0,0.0
19:45:00.200000,-114.0,-77.0,144.0,-655.0,-144.0,-88.0,0.0,0.0,0.0
19:45:00.205000,-98.0,-76.0,128.0,-703.0,-150.0,-89.0,0.0,0.0,0.0
19:45:00.210000,-98.0,-76.0,128.0,-703.0,-150.0,-89.0,0.0,0.0,0.0
19:45:00.214000,-85.0,-73.0,116.0,-726.0,-147.0,-86.0,0.0,0.0,0.0
19:45:00.219000,-72.0,-69.0,104.0,-726.0,-147.0,-86.0,0.0,0.0,0.0
19:45:00.224000,-60.0,-65.0,94.0,-727.0,-137.0,-84.0,0.0,0.0,0.0
19:45:00.229000,-49.0,-63.0,87.0,-727.0,-137.0,-84.0,0.0,0.0,0.0
19:45:00.233000,-41.0,-56.0,75.0,-718.0,-120.0,-84.0,0.0,0.0,0.0
19:45:00.238000,-32.0,-49.0,58.0,-718.0,-120.0,-84.0,0.0,0.0,0.0
19:45:00.243000,-23.0,-41.0,36.0,-715.0,-108.0,-93.0,0.0,0.0,0.0
19:45:00.247000,-9.0,-32.0,15.0,-715.0,-108.0,-93.0,0.0,0.0,0.0
19:45:00.252000,5.0,-21.0,-1.0,-733.0,-106.0,-112.0,0.0,0.0,0.0
19:45:00.257000,20.0,-11.0,-11.0,-733.0,-106.0,-112.0,0.0,0.0,0.0
19:45:00.261000,35.0,-6.0,-14.0,-762.0,-106.0,-126.0,0.0,0.0,0.0
19:45:00.266000,49.0,-4.0,-9.0,-762.0,-106.0,-126.0,0.0,0.0,0.0
19:45:00.271000,60.0,0.0,-1.0,-762.0,-106.0,-126.0,0.0,0.0,0.0
19:45:00.276000,65.0,2.0,7.0,-770.0,-84.0,-135.0,0.0,0.0,0.0
19:45:00.280000,65.0,4.0,15.0,-770.0,-84.0,-135.0,0.0,0.0,0.0
19:45:00.285000,62.0,5.0,27.0,-775.0,-29.0,-143.0,0.0,0.0,0.0
19:45:00.290000,56.0,2.0,44.0,-775.0,-29.0,-143.0,0.0,0.0,0.0
19:45:00.294000,49.0,-4.0,63.0,-792.0,14.0,-145.0,0.0,0.0,0.0
19:45:00.299000,45.0,-12.0,81.0,-792.0,14.0,-145.0,0.0,0.0,0.0
19:45:00.304000,44.0,-21.0,94.0,-799.0,17.0,-143.0,0.0,0.0,0.0
19:45:00.308000,42.0,-25.0,100.0,-799.0,17.0,-143.0,0.0,0.0,0.0
19:45:00.313000,35.0,-30.0,103.0,-810.0,16.0,-139.0,0.0,0.0,0.0
19:45:00.318000,35.0,-30.0,103.0,-810.0,16.0,-139.0,0.0,0.0,0.0
19:45:00.322000,24.0,-32.0,109.0,-845.0,37.0,-136.0,0.0,0.0,0.0
19:45:00.327000,6.0,-34.0,116.0,-845.0,37.0,-136.0,0.0,0.0,0.0
19:45:00.332000,-16.0,-36.0,122.0,-888.0,56.0,-131.0,0.0,0.0,0.0
19:45:00.337000,-41.0,-37.0,130.0,-888.0,56.0,-131.0,0.0,0.0,0.0
19:45:00.341000,-65.0,-39.0,137.0,-919.0,48.0,-128.0,0.0,0.0,0.0
19:45:00.346000,-88.0,-40.0,138.0,-919.0,48.0,-128.0,0.0,0.0,0.0
19:45:00.351000,-111.0,-39.0,132.0,-937.0,28.0,-132.0,0.0,0.0,0.0
19:45:00.355000,-133.0,-37.0,124.0,-937.0,28.0,-132.0,0.0,0.0,0.0
19:45:00.360000,-153.0,-26.0,114.0,-953.0,23.0,-151.0,0.0,0.0,0.0
19:45:00.365000,-177.0,-11.0,98.0,-953.0,23.0,-151.0,0.0,0.0,0.0
19:45:00.369000,-207.0,3.0,81.0,-991.0,53.0,-173.0,0.0,0.0,0.0
19:45:00.374000,-241.0,13.0,74.0,-991.0,53.0,-173.0,0.0,0.0,0.0
19:45:00.379000,-274.0,17.0,79.0,-991.0,83.0,-180.0,0.0,0.0,0.0
19:45:00.384000,-298.0,18.0,94.0,-1015.0,83.0,-180.0,0.0,0.0,0.0
19:45:00.388000,-313.0,18.0,109.0,-1015.0,83.0,-180.0,0.0,0.0,0.0
19:45:00.393000,-322.0,14.0,126.0,-972.0,63.0,-180.0,0.0,0.0,0.0
19:45:00.398000,-326.0,10.0,147.0,-972.0,63.0,-180.0,0.0,0.0,0.0
19:45:00.402000,-326.0,8.0,168.0,-912.0,30.0,-181.0,0.0,0.0,0.0
19:45:00.407000,-324.0,4.0,184.0,-912.0,30.0,-181.0,0.0,0.0,0.0
19:45:00.412000,-319.0,0.0,189.0,-896.0,25.0,-187.0,0.0,0.0,0.0
19:45:00.416000,-310.0,-4.0,182.0,-896.0,25.0,-187.0,0.0,0.0,0.0
19:45:00.421000,-310.0,-4.0,182.0,-934.0,46.0,-193.0,0.0,0.0,0.0
19:45:00.426000,-275.0,-1.0,166.0,-934.0,46.0,-193.0,0.0,0.0,0.0
19:45:00.431000,-275.0,-1.0,166.0,-969.0,79.0,-204.0,0.0,0.0,0.0
19:45:00.435000,-254.0,5.0,150.0,-969.0,79.0,-204.0,0.0,0.0,0.0
19:45:00.440000,-236.0,15.0,136.0,-1002.0,125.0,-216.0,0.0,0.0,0.0
19:45:00.445000,-217.0,28.0,136.0,-1002.0,125.0,-216.0,0.0,0.0,0.0
19:45:00.449000,-200.0,40.0,137.0,-1055.0,170.0,-222.0,0.0,0.0,0.0
19:45:00.454000,-189.0,44.0,133.0,-1055.0,170.0,-222.0,0.0,0.0,0.0
19:45:00.459000,-177.0,42.0,144.0,-1095.0,205.0,-224.0,0.0,0.0,0.0
19:45:00.463000,-171.0,44.0,148.0,-1095.0,205.0,-224.0,0.0,0.0,0.0
19:45:00.468000,-165.0,39.0,149.0,-1115.0,253.0,-218.0,0.0,0.0,0.0
19:45:00.473000,-158.0,32.0,149.0,-1115.0,253.0,-218.0,0.0,0.0,0.0
19:45:00.478000,-149.0,23.0,149.0,-1097.0,288.0,-213.0,0.0,0.0,0.0
19:45:00.482000,-135.0,20.0,144.0,-1097.0,288.0,-213.0,0.0,0.0,0.0
19:45:00.487000,-117.0,21.0,115.0,-1080.0,313.0,-216.0,0.0,0.0,0.0
19:45:00.492000,-91.0,16.0,75.0,-1080.0,313.0,-216.0,0.0,0.0,0.0
19:45:00.496000,-65.0,10.0,42.0,-1080.0,313.0,-216.0,0.0,0.0,0.0
19:45:00.501000,-21.0,12.0,0.0,-1118.0,348.0,-220.0,0.0,0.0,0.0
19:45:00.506000,14.0,0.0,-42.0,-1118.0,348.0,-220.0,0.0,0.0,0.0
19:45:00.510000,39.0,-4.0,-20.0,-1172.0,359.0,-205.0,0.0,0.0,0.0
19:45:00.515000,74.0,-3.0,-49.0,-1172.0,359.0,-205.0,0.0,0.0,0.0
19:45:00.520000,53.0,-14.0,-76.0,-1281.0,383.0,-182.0,0.0,0.0,0.0
19:45:00.525000,43.0,-18.0,-107.0,-1281.0,383.0,-182.0,0.0,0.0,0.0
19:45:00.529000,47.0,17.0,-13.0,-1317.0,469.0,-175.0,0.0,0.0,0.0
19:45:00.534000,5.0,27.0,109.0,-1317.0,469.0,-175.0,0.0,0.0,0.0
19:45:00.539000,5.0,27.0,109.0,-1211.0,630.0,-182.0,0.0,0.0,0.0
19:45:00.543000,10.0,37.0,-16.0,-1211.0,630.0,-182.0,0.0,0.0,0.0
19:45:00.548000,13.0,46.0,-98.0,-1229.0,699.0,-204.0,0.0,0.0,0.0
19:45:00.553000,2.0,49.0,-84.0,-1229.0,699.0,-204.0,0.0,0.0,0.0
19:45:00.557000,0.0,49.0,-58.0,-1333.0,600.0,-226.0,0.0,0.0,0.0
19:45:00.562000,-8.0,53.0,-2.0,-1333.0,600.0,-226.0,0.0,0.0,0.0
19:45:00.567000,-21.0,53.0,68.0,-1318.0,500.0,-230.0,0.0,0.0,0.0
19:45:00.572000,-17.0,55.0,112.0,-1318.0,500.0,-230.0,0.0,0.0,0.0
19:45:00.576000,-20.0,63.0,116.0,-1233.0,469.0,-228.0,0.0,0.0,0.0
19:45:00.581000,-37.0,79.0,95.0,-1233.0,469.0,-228.0,0.0,0.0,0.0
19:45:00.586000,-29.0,97.0,84.0,-1175.0,435.0,-237.0,0.0,0.0,0.0
19:45:00.590000,-18.0,107.0,59.0,-1175.0,435.0,-237.0,0.0,0.0,0.0
19:45:00.595000,-30.0,129.0,54.0,-1145.0,373.0,-248.0,0.0,0.0,0.0
19:45:00.600000,-35.0,144.0,77.0,-1145.0,373.0,-248.0,0.0,0.0,0.0
19:45:00.604000,-16.0,154.0,79.0,-1145.0,373.0,-248.0,0.0,0.0,0.0
19:45:00.609000,-7.0,168.0,54.0,-1122.0,303.0,-260.0,0.0,0.0,0.0
19:45:00.614000,10.0,177.0,17.0,-1122.0,303.0,-260.0,0.0,0.0,0.0
19:45:00.619000,19.0,177.0,11.0,-1109.0,247.0,-270.0,0.0,0.0,0.0
19:45:00.623000,21.0,184.0,14.0,-1109.0,247.0,-270.0,0.0,0.0,0.0
19:45:00.628000,9.0,188.0,3.0,-1098.0,213.0,-274.0,0.0,0.0,0.0
19:45:00.633000,2.0,182.0,4.0,-1098.0,213.0,-274.0,0.0,0.0,0.0
19:45:00.637000,-4.0,166.0,28.0,-1072.0,163.0,-267.0,0.0,0.0,0.0
19:45:00.642000,-13.0,149.0,58.0,-1072.0,163.0,-267.0,0.0,0.0,0.0
19:45:00.647000,-13.0,149.0,58.0,-1010.0,100.0,-246.0,0.0,0.0,0.0
19:45:00.651000,-32.0,131.0,93.0,-1010.0,100.0,-246.0,0.0,0.0,0.0
19:45:00.656000,-56.0,107.0,135.0,-906.0,36.0,-222.0,0.0,0.0,0.0
19:45:00.661000,-67.0,90.0,170.0,-906.0,36.0,-222.0,0.0,0.0,0.0
19:45:00.666000,-83.0,65.0,188.0,-824.0,-18.0,-198.0,0.0,0.0,0.0
19:45:00.670000,-106.0,41.0,231.0,-824.0,-18.0,-198.0,0.0,0.0,0.0
19:45:00.675000,-119.0,16.0,247.0,-804.0,-62.0,-183.0,0.0,0.0,0.0
19:45:00.680000,-130.0,-4.0,226.0,-804.0,-62.0,-183.0,0.0,0.0,0.0
19:45:00.684000,-142.0,-26.0,184.0,-839.0,-93.0,-180.0,0.0,0.0,0.0
19:45:00.689000,-149.0,-46.0,133.0,-839.0,-93.0,-180.0,0.0,0.0,0.0
19:45:00.694000,-163.0,-61.0,99.0,-882.0,-140.0,-176.0,0.0,0.0,0.0
19:45:00.698000,-163.0,-75.0,74.0,-882.0,-140.0,-176.0,0.0,0.0,0.0
19:45:00.703000,-164.0,-85.0,28.0,-903.0,-167.0,-176.0,0.0,0.0,0.0
19:45:00.708000,-164.0,-98.0,-34.0,-903.0,-167.0,-176.0,0.0,0.0,0.0
19:45:00.713000,-158.0,-112.0,-95.0,-903.0,-167.0,-176.0,0.0,0.0,0.0
19:45:00.717000,-150.0,-123.0,-140.0,-924.0,-145.0,-178.0,0.0,0.0,0.0
19:45:00.722000,-140.0,-133.0,-160.0,-924.0,-145.0,-178.0,0.0,0.0,0.0
19:45:00.727000,-134.0,-140.0,-165.0,-960.0,-121.0,-192.0,0.0,0.0,0.0
19:45:00.731000,-128.0,-144.0,-158.0,-960.0,-121.0,-192.0,0.0,0.0,0.0
19:45:00.736000,-126.0,-146.0,-161.0,-1054.0,-93.0,-207.0,0.0,0.0,0.0
19:45:00.741000,-122.0,-145.0,-185.0,-1054.0,-93.0,-207.0,0.0,0.0,0.0
19:45:00.745000,-123.0,-140.0,-191.0,-1170.0,-46.0,-221.0,0.0,0.0,0.0
19:45:00.750000,-128.0,-132.0,-162.0,-1170.0,-46.0,-221.0,0.0,0.0,0.0
19:45:00.755000,-128.0,-132.0,-162.0,-1221.0,-26.0,-233.0,0.0,0.0,0.0
19:45:00.760000,-128.0,-128.0,-121.0,-1221.0,-26.0,-233.0,0.0,0.0,0.0
19:45:00.764000,-130.0,-123.0,-95.0,-1218.0,-27.0,-232.0,0.0,0.0,0.0
19:45:00.769000,-133.0,-121.0,-98.0,-1218.0,-27.0,-232.0,0.0,0.0,0.0
19:45:00.774000,-137.0,-124.0,-95.0,-1206.0,-23.0,-227.0,0.0,0.0,0.0
19:45:00.778000,-142.0,-136.0,-67.0,-1206.0,-23.0,-227.0,0.0,0.0,0.0
19:45:00.783000,-148.0,-137.0,-39.0,-1171.0,-42.0,-218.0,0.0,0.0,0.0
19:45:00.788000,-152.0,-137.0,-42.0,-1171.0,-42.0,-218.0,0.0,0.0,0.0
19:45:00.792000,-163.0,-137.0,-53.0,-1160.0,-37.0,-211.0,0.0,0.0,0.0
19:45:00.797000,-188.0,-138.0,-63.0,-1160.0,-37.0,-211.0,0.0,0.0,0.0
19:45:00.802000,-211.0,-130.0,-51.0,-1187.0,-15.0,-200.0,0.0,0.0,0.0
19:45:00.807000,-242.0,-112.0,-49.0,-1187.0,-15.0,-200.0,0.0,0.0,0.0
19:45:00.811000,-254.0,-116.0,-90.0,-1227.0,-41.0,-186.0,0.0,0.0,0.0
19:45:00.816000,-259.0,-134.0,-102.0,-1227.0,-41.0,-186.0,0.0,0.0,0.0
19:45:00.821000,-267.0,-145.0,-86.0,-1227.0,-41.0,-186.0,0.0,0.0,0.0
19:45:00.825000,-289.0,-154.0,-41.0,-1156.0,-28.0,-162.0,0.0,0.0,0.0
19:45:00.830000,-305.0,-161.0,-32.0,-1067.0,24.0,-139.0,0.0,0.0,0.0
19:45:00.835000,-326.0,-175.0,-95.0,-1067.0,24.0,-139.0,0.0,0.0,0.0
19:45:00.839000,-341.0,-194.0,-108.0,-1067.0,24.0,-139.0,0.0,0.0,0.0
19:45:00.844000,-360.0,-212.0,-60.0,-1121.0,-24.0,-122.0,0.0,0.0,0.0
19:45:00.849000,-384.0,-219.0,-28.0,-1121.0,-24.0,-122.0,0.0,0.0,0.0
19:45:00.854000,-408.0,-225.0,15.0,-1154.0,-86.0,-116.0,0.0,0.0,0.0
19:45:00.858000,-451.0,-236.0,37.0,-1154.0,-86.0,-116.0,0.0,0.0,0.0
19:45:00.863000,-462.0,-268.0,30.0,-1164.0,-78.0,-113.0,0.0,0.0,0.0
19:45:00.868000,-462.0,-268.0,30.0,-1164.0,-78.0,-113.0,0.0,0.0,0.0
19:45:00.872000,-486.0,-315.0,74.0,-1176.0,62.0,-84.0,0.0,0.0,0.0
19:45:00.877000,-551.0,-360.0,98.0,-1176.0,62.0,-84.0,0.0,0.0,0.0
19:45:00.882000,-609.0,-370.0,102.0,-1094.0,170.0,-67.0,0.0,0.0,0.0
19:45:00.886000,-697.0,-396.0,147.0,-1094.0,170.0,-67.0,0.0,0.0,0.0
19:45:00.891000,-775.0,-412.0,148.0,-1022.0,100.0,-71.0,0.0,0.0,0.0
19:45:00.896000,-857.0,-433.0,118.0,-1022.0,100.0,-71.0,0.0,0.0,0.0
19:45:00.901000,-935.0,-452.0,105.0,-1047.0,80.0,-54.0,0.0,0.0,0.0
19:45:00.905000,-1016.0,-473.0,107.0,-1047.0,80.0,-54.0,0.0,0.0,0.0
19:45:00.910000,-1089.0,-491.0,93.0,-1047.0,90.0,-26.0,0.0,0.0,0.0
19:45:00.915000,-1183.0,-513.0,0.0,-1047.0,90.0,-26.0,0.0,0.0,0.0
19:45:00.919000,-1262.0,-536.0,-85.0,-1017.0,63.0,3.0,0.0,0.0,0.0
19:45:00.924000,-1353.0,-562.0,-100.0,-1017.0,63.0,3.0,0.0,0.0,0.0
19:45:00.929000,-1423.0,-589.0,-138.0,-1017.0,63.0,3.0,0.0,0.0,0.0
19:45:00.933000,-1500.0,-613.0,-198.0,-1036.0,5.0,29.0,0.0,0.0,0.0
19:45:00.938000,-1564.0,-651.0,-259.0,-1036.0,5.0,29.0,0.0,0.0,0.0
19:45:00.943000,-1600.0,-701.0,-312.0,-1069.0,-83.0,59.0,0.0,0.0,0.0
19:45:00.948000,-1627.0,-744.0,-384.0,-1069.0,-83.0,59.0,0.0,0.0,0.0
19:45:00.952000,-1630.0,-795.0,-438.0,-1011.0,-154.0,86.0,0.0,0.0,0.0
19:45:00.957000,-1666.0,-828.0,-422.0,-1011.0,-154.0,86.0,0.0,0.0,0.0
19:45:00.962000,-1695.0,-848.0,-406.0,-931.0,-221.0,101.0,0.0,0.0,0.0
19:45:00.966000,-1697.0,-870.0,-438.0,-931.0,-221.0,101.0,0.0,0.0,0.0
19:45:00.971000,-1702.0,-890.0,-557.0,-952.0,-235.0,105.0,0.0,0.0,0.0
19:45:00.976000,-1702.0,-890.0,-557.0,-952.0,-235.0,105.0,0.0,0.0,0.0
19:45:00.980000,-1694.0,-912.0,-632.0,-1004.0,-150.0,105.0,0.0,0.0,0.0
19:45:00.985000,-1687.0,-945.0,-655.0,-1004.0,-150.0,105.0,0.0,0.0,0.0
19:45:00.990000,-1759.0,-956.0,-655.0,-1052.0,-100.0,124.0,0.0,0.0,0.0
19:45:00.995000,-1705.0,-973.0,-691.0,-1052.0,-100.0,124.0,0.0,0.0,0.0
19:45:00.999000,-1750.0,-994.0,-744.0,-1079.0,-108.0,153.0,0.0,0.0,0.0
19:45:01.004000,-1778.0,-1004.0,-739.0,-1079.0,-108.0,153.0,0.0,0.0,0.0
19:45:01.009000,-1747.0,-1028.0,-777.0,-1044.0,-65.0,175.0,0.0,0.0,0.0
19:45:01.013000,-1775.0,-1033.0,-809.0,-1044.0,-65.0,175.0,0.0,0.0,0.0
19:45:01.018000,-1779.0,-1060.0,-855.0,-1032.0,0.0,210.0,0.0,0.0,0.0
19:45:01.023000,-1841.0,-1058.0,-871.0,-1032.0,0.0,210.0,0.0,0.0,0.0
19:45:01.027000,-1857.0,-1062.0,-787.0,-1033.0,-12.0,236.0,0.0,0.0,0.0
19:45:01.032000,-1840.0,-1054.0,-753.0,-1033.0,-12.0,236.0,0.0,0.0,0.0
19:45:01.037000,-1840.0,-1045.0,-826.0,-1033.0,-12.0,236.0,0.0,0.0,0.0
19:45:01.042000,-1840.0,-1039.0,-837.0,-1073.0,-30.0,243.0,0.0,0.0,0.0
19:45:01.046000,-1848.0,-1027.0,-814.0,-1073.0,-30.0,243.0,0.0,0.0,0.0
19:45:01.051000,-1877.0,-1017.0,-835.0,-1114.0,15.0,259.0,0.0,0.0,0.0
19:45:01.056000,-1890.0,-1008.0,-836.0,-1114.0,15.0,259.0,0.0,0.0,0.0
19:45:01.060000,-1888.0,-1000.0,-853.0,-1088.0,45.0,275.0,0.0,0.0,0.0
19:45:01.065000,-1897.0,-987.0,-866.0,-1088.0,45.0,275.0,0.0,0.0,0.0
19:45:01.070000,-1893.0,-975.0,-838.0,-1044.0,20.0,284.0,0.0,0.0,0.0
19:45:01.074000,-1876.0,-960.0,-805.0,-1044.0,20.0,284.0,0.0,0.0,0.0
19:45:01.079000,-1880.0,-942.0,-802.0,-1023.0,17.0,287.0,0.0,0.0,0.0
19:45:01.084000,-1880.0,-942.0,-802.0,-1023.0,17.0,287.0,0.0,0.0,0.0
19:45:01.089000,-1899.0,-925.0,-815.0,-1027.0,76.0,310.0,0.0,0.0,0.0
19:45:01.093000,-1904.0,-919.0,-836.0,-1027.0,76.0,310.0,0.0,0.0,0.0
19:45:01.098000,-1903.0,-914.0,-832.0,-971.0,140.0,337.0,0.0,0.0,0.0
19:45:01.103000,-1905.0,-914.0,-798.0,-971.0,140.0,337.0,0.0,0.0,0.0
19:45:01.107000,-1918.0,-923.0,-777.0,-921.0,189.0,363.0,0.0,0.0,0.0
19:45:01.112000,-1934.0,-939.0,-765.0,-921.0,189.0,363.0,0.0,0.0,0.0
19:45:01.117000,-1948.0,-962.0,-767.0,-891.0,246.0,405.0,0.0,0.0,0.0
19:45:01.121000,-1967.0,-988.0,-785.0,-891.0,246.0,405.0,0.0,0.0,0.0
19:45:01.126000,-1990.0,-1017.0,-818.0,-816.0,340.0,463.0,0.0,0.0,0.0
19:45:01.131000,-2006.0,-1040.0,-832.0,-816.0,340.0,463.0,0.0,0.0,0.0
19:45:01.136000,-2017.0,-1052.0,-821.0,-777.0,405.0,508.0,0.0,0.0,0.0
19:45:01.140000,-2034.0,-1066.0,-818.0,-777.0,405.0,508.0,0.0,0.0,0.0
19:45:01.145000,-2048.0,-1078.0,-824.0,-777.0,450.0,508.0,0.0,0.0,0.0
19:45:01.150000,-2072.0,-1080.0,-846.0,-834.0,450.0,548.0,0.0,0.0,0.0
19:45:01.154000,-2106.0,-1077.0,-869.0,-834.0,450.0,548.0,0.0,0.0,0.0
19:45:01.159000,-2147.0,-1061.0,-881.0,-948.0,519.0,596.0,0.0,0.0,0.0
19:45:01.164000,-2188.0,-1031.0,-858.0,-1059.0,516.0,633.0,0.0,0.0,0.0
19:45:01.168000,-2219.0,-1009.0,-809.0,-1059.0,516.0,633.0,0.0,0.0,0.0
19:45:01.173000,-2231.0,-986.0,-759.0,-1059.0,516.0,633.0,0.0,0.0,0.0
19:45:01.178000,-2223.0,-949.0,-693.0,-1123.0,387.0,640.0,0.0,0.0,0.0
19:45:01.183000,-2197.0,-905.0,-614.0,-1123.0,387.0,640.0,0.0,0.0,0.0
19:45:01.187000,-2176.0,-867.0,-529.0,-1129.0,235.0,603.0,0.0,0.0,0.0
19:45:01.192000,-2176.0,-867.0,-529.0,-1129.0,235.0,603.0,0.0,0.0,0.0
19:45:01.197000,-2158.0,-832.0,-471.0,-1106.0,199.0,566.0,0.0,0.0,0.0
19:45:01.201000,-2136.0,-796.0,-448.0,-1106.0,199.0,566.0,0.0,0.0,0.0
19:45:01.206000,-2107.0,-769.0,-420.0,-1078.0,239.0,557.0,0.0,0.0,0.0
19:45:01.211000,-2069.0,-744.0,-404.0,-1078.0,239.0,557.0,0.0,0.0,0.0
19:45:01.215000,-2037.0,-721.0,-414.0,-1004.0,273.0,563.0,0.0,0.0,0.0
19:45:01.220000,-2006.0,-701.0,-434.0,-1004.0,273.0,563.0,0.0,0.0,0.0
19:45:01.225000,-1972.0,-685.0,-450.0,-906.0,307.0,573.0,0.0,0.0,0.0
19:45:01.230000,-1940.0,-664.0,-463.0,-906.0,307.0,573.0,0.0,0.0,0.0
19:45:01.234000,-1911.0,-639.0,-478.0,-880.0,342.0,577.0,0.0,0.0,0.0
19:45:01.239000,-1880.0,-619.0,-494.0,-880.0,342.0,577.0,0.0,0.0,0.0
19:45:01.244000,-1858.0,-600.0,-503.0,-919.0,371.0,564.0,0.0,0.0,0.0
19:45:01.248000,-1829.0,-580.0,-506.0,-919.0,371.0,564.0,0.0,0.0,0.0
19:45:01.253000,-1815.0,-561.0,-513.0,-959.0,377.0,549.0,0.0,0.0,0.0
19:45:01.258000,-1814.0,-534.0,-506.0,-959.0,377.0,549.0,0.0,0.0,0.0
19:45:01.262000,-1806.0,-485.0,-476.0,-959.0,377.0,549.0,0.0,0.0,0.0
19:45:01.267000,-1809.0,-430.0,-453.0,-944.0,376.0,535.0,0.0,0.0,0.0
19:45:01.272000,-1762.0,-398.0,-459.0,-896.0,429.0,502.0,0.0,0.0,0.0
19:45:01.277000,-1717.0,-370.0,-484.0,-896.0,429.0,502.0,0.0,0.0,0.0
19:45:01.281000,-1687.0,-327.0,-498.0,-896.0,429.0,502.0,0.0,0.0,0.0
19:45:01.286000,-1661.0,-306.0,-505.0,-865.0,484.0,476.0,0.0,0.0,0.0
19:45:01.291000,-1661.0,-291.0,-535.0,-865.0,484.0,476.0,0.0,0.0,0.0
19:45:01.295000,-1616.0,-256.0,-543.0,-861.0,505.0,467.0,0.0,0.0,0.0
19:45:01.300000,-1570.0,-231.0,-483.0,-861.0,505.0,467.0,0.0,0.0,0.0
19:45:01.305000,-1570.0,-231.0,-483.0,-883.0,504.0,445.0,0.0,0.0,0.0
19:45:01.309000,-1557.0,-204.0,-419.0,-883.0,504.0,445.0,0.0,0.0,0.0
19:45:01.314000,-1516.0,-181.0,-426.0,-951.0,476.0,407.0,0.0,0.0,0.0
19:45:01.319000,-1479.0,-154.0,-459.0,-951.0,476.0,407.0,0.0,0.0,0.0
19:45:01.324000,-1439.0,-124.0,-463.0,-973.0,469.0,370.0,0.0,0.0,0.0
19:45:01.328000,-1401.0,-97.0,-451.0,-973.0,469.0,370.0,0.0,0.0,0.0
19:45:01.333000,-1354.0,-70.0,-444.0,-918.0,489.0,330.0,0.0,0.0,0.0
19:45:01.338000,-1316.0,-46.0,-460.0,-918.0,489.0,330.0,0.0,0.0,0.0
19:45:01.342000,-1273.0,-28.0,-474.0,-900.0,513.0,297.0,0.0,0.0,0.0
19:45:01.347000,-1232.0,-16.0,-476.0,-900.0,513.0,297.0,0.0,0.0,0.0
19:45:01.352000,-1190.0,-6.0,-464.0,-875.0,510.0,271.0,0.0,0.0,0.0
19:45:01.356000,-1149.0,0.0,-450.0,-875.0,510.0,271.0,0.0,0.0,0.0
19:45:01.361000,-1115.0,3.0,-436.0,-819.0,506.0,251.0,0.0,0.0,0.0
19:45:01.366000,-1080.0,7.0,-427.0,-819.0,506.0,251.0,0.0,0.0,0.0
19:45:01.371000,-1047.0,9.0,-439.0,-819.0,506.0,251.0,0.0,0.0,0.0
19:45:01.375000,-1030.0,10.0,-441.0,-776.0,542.0,234.0,0.0,0.0,0.0
19:45:01.380000,-1015.0,17.0,-408.0,-776.0,542.0,234.0,0.0,0.0,0.0
19:45:01.385000,-1006.0,17.0,-362.0,-746.0,578.0,220.0,0.0,0.0,0.0
19:45:01.389000,-994.0,17.0,-333.0,-746.0,578.0,220.0,0.0,0.0,0.0
19:45:01.394000,-978.0,14.0,-309.0,-725.0,583.0,210.0,0.0,0.0,0.0
19:45:01.399000,-963.0,15.0,-284.0,-725.0,583.0,210.0,0.0,0.0,0.0
19:45:01.403000,-938.0,11.0,-277.0,-715.0,571.0,194.0,0.0,0.0,0.0
19:45:01.408000,-918.0,8.0,-277.0,-715.0,571.0,194.0,0.0,0.0,0.0
19:45:01.413000,-918.0,8.0,-277.0,-697.0,553.0,178.0,0.0,0.0,0.0
19:45:01.418000,-888.0,2.0,-270.0,-697.0,553.0,178.0,0.0,0.0,0.0
19:45:01.422000,-858.0,-2.0,-259.0,-668.0,544.0,169.0,0.0,0.0,0.0
19:45:01.427000,-833.0,-6.0,-252.0,-668.0,544.0,169.0,0.0,0.0,0.0
19:45:01.432000,-807.0,-7.0,-254.0,-649.0,549.0,158.0,0.0,0.0,0.0
19:45:01.436000,-779.0,-5.0,-262.0,-649.0,549.0,158.0,0.0,0.0,0.0
19:45:01.441000,-750.0,-1.0,-279.0,-652.0,556.0,136.0,0.0,0.0,0.0
19:45:01.446000,-723.0,5.0,-300.0,-652.0,556.0,136.0,0.0,0.0,0.0
19:45:01.460000,-648.0,21.0,-369.0,-681.0,585.0,91.0,0.0,0.0,0.0
19:45:01.465000,-628.0,26.0,-392.0,-681.0,585.0,91.0,0.0,0.0,0.0
19:45:01.469000,-610.0,27.0,-406.0,-666.0,610.0,85.0,0.0,0.0,0.0
19:45:01.474000,-591.0,24.0,-408.0,-666.0,610.0,85.0,0.0,0.0,0.0
19:45:01.479000,-569.0,19.0,-406.0,-666.0,610.0,85.0,0.0,0.0,0.0
19:45:01.483000,-544.0,14.0,-404.0,-633.0,612.0,85.0,0.0,0.0,0.0
19:45:01.488000,-517.0,12.0,-413.0,-633.0,612.0,85.0,0.0,0.0,0.0
19:45:01.493000,-492.0,9.0,-419.0,-616.0,613.0,76.0,0.0,0.0,0.0
19:45:01.497000,-466.0,4.0,-415.0,-616.0,613.0,76.0,0.0,0.0,0.0
19:45:01.502000,-443.0,0.0,-407.0,-628.0,626.0,66.0,0.0,0.0,0.0
19:45:01.507000,-423.0,0.0,-400.0,-628.0,626.0,66.0,0.0,0.0,0.0
19:45:01.512000,-413.0,2.0,-389.0,-638.0,642.0,57.0,0.0,0.0,0.0
19:45:01.516000,-410.0,7.0,-371.0,-638.0,642.0,57.0,0.0,0.0,0.0
19:45:01.521000,-410.0,7.0,-371.0,-638.0,677.0,50.0,0.0,0.0,0.0
19:45:01.526000,-413.0,11.0,-348.0,-638.0,677.0,50.0,0.0,0.0,0.0
19:45:01.530000,-427.0,17.0,-323.0,-641.0,736.0,51.0,0.0,0.0,0.0
