hh:mm:ss.ms,gyroX[mdps],gyroY[mdps],gyroZ[mdps],accX[mg],accY[mg],accZ[mg],magX[mG],magY[mG],magZ[mG]
19:36:16.895000,116.0,67.0,274.0,-1164.0,611.0,-241.0,0.0,0.0,0.0
19:36:16.900000,51.0,55.0,326.0,-1272.0,501.0,-242.0,0.0,0.0,0.0
19:36:16.904000,11.0,56.0,533.0,-1272.0,501.0,-242.0,0.0,0.0,0.0
19:36:16.909000,43.0,98.0,735.0,-1113.0,549.0,-228.0,0.0,0.0,0.0
19:36:16.914000,83.0,136.0,625.0,-1113.0,549.0,-228.0,0.0,0.0,0.0
19:36:16.919000,92.0,137.0,406.0,-1143.0,582.0,-250.0,0.0,0.0,0.0
19:36:16.923000,65.0,95.0,371.0,-1143.0,582.0,-250.0,0.0,0.0,0.0
19:36:16.928000,-27.0,93.0,630.0,-1193.0,406.0,-245.0,0.0,0.0,0.0
19:36:16.933000,-9.0,135.0,772.0,-1193.0,406.0,-245.0,0.0,0.0,0.0
19:36:16.937000,-156.0,118.0,658.0,-948.0,205.0,-227.0,0.0,0.0,0.0
19:36:16.942000,-156.0,118.0,658.0,-948.0,205.0,-227.0,0.0,0.0,0.0
19:36:16.947000,-162.0,151.0,634.0,-913.0,-75.0,-229.0,0.0,0.0,0.0
19:36:16.951000,-104.0,76.0,842.0,-913.0,-75.0,-229.0,0.0,0.0,0.0
19:36:16.956000,-72.0,86.0,1004.0,-886.0,-480.0,-209.0,0.0,0.0,0.0
19:36:16.961000,-126.0,92.0,1002.0,-886.0,-480.0,-209.0,0.0,0.0,0.0
19:36:16.966000,-153.0,119.0,988.0,-730.0,-695.0,-178.0,0.0,0.0,0.0
19:36:16.970000,-127.0,126.0,1104.0,-730.0,-695.0,-178.0,0.0,0.0,0.0
19:36:16.975000,-167.0,88.0,1098.0,-639.0,-780.0,-120.0,0.0,0.0,0.0
19:36:16.980000,-131.0,28.0,875.0,-639.0,-780.0,-120.0,0.0,0.0,0.0
19:36:16.984000,-145.0,59.0,856.0,-506.0,-897.0,-99.0,0.0,0.0,0.0
19:36:16.989000,-86.0,86.0,946.0,-506.0,-897.0,-99.0,0.0,0.0,0.0
19:36:16.994000,-16.0,27.0,749.0,-558.0,-837.0,-104.0,0.0,0.0,0.0
19:36:16.998000,76.0,-30.0,408.0,-558.0,-837.0,-104.0,0.0,0.0,0.0
19:36:17.003000,188.0,-50.0,348.0,-558.0,-837.0,-104.0,0.0,0.0,0.0
19:36:17.007000,212.0,-81.0,233.0,-685.0,-707.0,-104.0,0.0,0.0,0.0
19:36:17.013000,232.0,-114.0,-114.0,-685.0,-707.0,-104.0,0.0,0.0,0.0
19:36:17.017000,177.0,-127.0,-347.0,-751.0,-657.0,-122.0,0.0,0.0,0.0
19:36:17.022000,178.0,-127.0,-252.0,-751.0,-657.0,-122.0,0.0,0.0,0.0
19:36:17.027000,225.0,-156.0,-170.0,-851.0,-519.0,-150.0,0.0,0.0,0.0
19:36:17.031000,193.0,-178.0,-177.0,-851.0,-519.0,-150.0,0.0,0.0,0.0
19:36:17.036000,140.0,-196.0,-332.0,-869.0,-471.0,-166.0,0.0,0.0,0.0
19:36:17.041000,165.0,-231.0,-431.0,-869.0,-471.0,-166.0,0.0,0.0,0.0
19:36:17.045000,144.0,-237.0,-203.0,-895.0,-431.0,-147.0,0.0,0.0,0.0
19:36:17.050000,144.0,-237.0,-203.0,-895.0,-431.0,-147.0,0.0,0.0,0.0
19:36:17.055000,-4.0,-210.0,49.0,-882.0,-455.0,-136.0,0.0,0.0,0.0
19:36:17.060000,-82.0,-239.0,161.0,-882.0,-455.0,-136.0,0.0,0.0,0.0
19:36:17.064000,-97.0,-288.0,88.0,-856.0,-439.0,-124.0,0.0,0.0,0.0
19:36:17.069000,-36.0,-294.0,96.0,-856.0,-439.0,-124.0,0.0,0.0,0.0
19:36:17.074000,-53.0,-258.0,241.0,-818.0,-434.0,-116.0,0.0,0.0,0.0
19:36:17.078000,-195.0,-197.0,359.0,-818.0,-434.0,-116.0,0.0,0.0,0.0
19:36:17.083000,-310.0,-110.0,261.0,-887.0,-536.0,-122.0,0.0,0.0,0.0
19:36:17.088000,-372.0,-128.0,362.0,-887.0,-536.0,-122.0,0.0,0.0,0.0
19:36:17.092000,-354.0,-148.0,634.0,-853.0,-460.0,-111.0,0.0,0.0,0.0
19:36:17.097000,-245.0,-188.0,735.0,-853.0,-460.0,-111.0,0.0,0.0,0.0
19:36:17.102000,-302.0,-232.0,483.0,-853.0,-353.0,-45.0,0.0,0.0,0.0
19:36:17.107000,-413.0,-175.0,97.0,-853.0,-353.0,-45.0,0.0,0.0,0.0
19:36:17.111000,-364.0,-105.0,-40.0,-853.0,-411.0,-24.0,0.0,0.0,0.0
19:36:17.116000,-197.0,-89.0,110.0,-847.0,-411.0,-24.0,0.0,0.0,0.0
19:36:17.121000,-58.0,-137.0,216.0,-847.0,-411.0,-24.0,0.0,0.0,0.0
19:36:17.125000,28.0,-228.0,-39.0,-826.0,-581.0,-14.0,0.0,0.0,0.0
19:36:17.130000,-23.0,-185.0,-207.0,-826.0,-581.0,-14.0,0.0,0.0,0.0
19:36:17.135000,18.0,-123.0,-228.0,-863.0,-627.0,-11.0,0.0,0.0,0.0
19:36:17.139000,32.0,-126.0,-259.0,-863.0,-627.0,-11.0,0.0,0.0,0.0
19:36:17.144000,166.0,-103.0,-289.0,-767.0,-557.0,-35.0,0.0,0.0,0.0
19:36:17.149000,261.0,-108.0,-335.0,-767.0,-557.0,-35.0,0.0,0.0,0.0
19:36:17.154000,247.0,-88.0,-322.0,-828.0,-535.0,-28.0,0.0,0.0,0.0
19:36:17.158000,217.0,-111.0,-207.0,-828.0,-535.0,-28.0,0.0,0.0,0.0
19:36:17.163000,217.0,-111.0,-207.0,-982.0,-583.0,-33.0,0.0,0.0,0.0
19:36:17.168000,289.0,-164.0,-138.0,-982.0,-583.0,-33.0,0.0,0.0,0.0
19:36:17.172000,314.0,-204.0,-233.0,-1039.0,-576.0,-37.0,0.0,0.0,0.0
19:36:17.177000,267.0,-176.0,-462.0,-1039.0,-576.0,-37.0,0.0,0.0,0.0
19:36:17.182000,219.0,-129.0,-697.0,-960.0,-474.0,-47.0,0.0,0.0,0.0
19:36:17.186000,291.0,-128.0,-728.0,-960.0,-474.0,-47.0,0.0,0.0,0.0
19:36:17.191000,319.0,-182.0,-661.0,-821.0,-422.0,-32.0,0.0,0.0,0.0
19:36:17.196000,299.0,-132.0,-583.0,-821.0,-422.0,-32.0,0.0,0.0,0.0
19:36:17.201000,285.0,-106.0,-523.0,-875.0,-432.0,-27.0,0.0,0.0,0.0
19:36:17.205000,317.0,-100.0,-372.0,-875.0,-432.0,-27.0,0.0,0.0,0.0
19:36:17.210000,278.0,-154.0,-287.0,-1056.0,-446.0,-11.0,0.0,0.0,0.0
19:36:17.215000,128.0,-189.0,-260.0,-1056.0,-446.0,-11.0,0.0,0.0,0.0
19:36:17.219000,65.0,-137.0,-371.0,-1069.0,-357.0,1.0,0.0,0.0,0.0
19:36:17.224000,-26.0,-113.0,-445.0,-1069.0,-357.0,1.0,0.0,0.0,0.0
19:36:17.229000,-144.0,-68.0,-534.0,-1069.0,-357.0,1.0,0.0,0.0,0.0
19:36:17.233000,-198.0,-9.0,-575.0,-1007.0,-205.0,-8.0,0.0,0.0,0.0
19:36:17.238000,-175.0,28.0,-471.0,-978.0,-278.0,-1.0,0.0,0.0,0.0
19:36:17.243000,-125.0,18.0,-338.0,-978.0,-278.0,-1.0,0.0,0.0,0.0
19:36:17.248000,-95.0,-8.0,-312.0,-978.0,-278.0,-1.0,0.0,0.0,0.0
19:36:17.252000,-23.0,-35.0,-287.0,-1000.0,-461.0,-3.0,0.0,0.0,0.0
19:36:17.257000,0.0,-42.0,-289.0,-1000.0,-461.0,-3.0,0.0,0.0,0.0
19:36:17.262000,-36.0,-55.0,-347.0,-1034.0,-494.0,-12.0,0.0,0.0,0.0
19:36:17.266000,-23.0,-78.0,-388.0,-1034.0,-494.0,-12.0,0.0,0.0,0.0
19:36:17.271000,-23.0,-78.0,-388.0,-925.0,-373.0,-23.0,0.0,0.0,0.0
19:36:17.276000,54.0,-100.0,-436.0,-925.0,-373.0,-23.0,0.0,0.0,0.0
19:36:17.280000,69.0,-121.0,-541.0,-821.0,-325.0,-15.0,0.0,0.0,0.0
19:36:17.285000,29.0,-98.0,-536.0,-821.0,-325.0,-15.0,0.0,0.0,0.0
19:36:17.290000,15.0,-60.0,-445.0,-888.0,-413.0,-19.0,0.0,0.0,0.0
19:36:17.295000,2.0,-77.0,-382.0,-888.0,-413.0,-19.0,0.0,0.0,0.0
19:36:17.299000,75.0,-63.0,-346.0,-1003.0,-471.0,-53.0,0.0,0.0,0.0
19:36:17.304000,98.0,-77.0,-397.0,-1003.0,-471.0,-53.0,0.0,0.0,0.0
19:36:17.309000,145.0,-52.0,-504.0,-1038.0,-412.0,-84.0,0.0,0.0,0.0
19:36:17.313000,161.0,-74.0,-555.0,-1038.0,-412.0,-84.0,0.0,0.0,0.0
19:36:17.318000,162.0,-83.0,-513.0,-940.0,-324.0,-82.0,0.0,0.0,0.0
19:36:17.323000,158.0,-64.0,-444.0,-940.0,-324.0,-82.0,0.0,0.0,0.0
19:36:17.327000,193.0,-54.0,-363.0,-843.0,-295.0,-73.0,0.0,0.0,0.0
19:36:17.332000,163.0,-50.0,-379.0,-843.0,-295.0,-73.0,0.0,0.0,0.0
19:36:17.337000,139.0,-58.0,-509.0,-843.0,-295.0,-73.0,0.0,0.0,0.0
19:36:17.342000,198.0,-21.0,-628.0,-852.0,-273.0,-74.0,0.0,0.0,0.0
19:36:17.346000,252.0,-17.0,-764.0,-852.0,-273.0,-74.0,0.0,0.0,0.0
19:36:17.351000,250.0,-9.0,-845.0,-918.0,-249.0,-76.0,0.0,0.0,0.0
19:36:17.356000,201.0,-2.0,-739.0,-918.0,-249.0,-76.0,0.0,0.0,0.0
19:36:17.360000,84.0,-6.0,-585.0,-980.0,-299.0,-66.0,0.0,0.0,0.0
19:36:17.365000,8.0,4.0,-573.0,-980.0,-299.0,-66.0,0.0,0.0,0.0
19:36:17.370000,42.0,2.0,-590.0,-1006.0,-316.0,-73.0,0.0,0.0,0.0
19:36:17.374000,73.0,2.0,-502.0,-1006.0,-316.0,-73.0,0.0,0.0,0.0
19:36:17.379000,73.0,2.0,-502.0,-977.0,-352.0,-105.0,0.0,0.0,0.0
19:36:17.384000,76.0,13.0,-367.0,-977.0,-352.0,-105.0,0.0,0.0,0.0
19:36:17.389000,79.0,-3.0,-289.0,-946.0,-366.0,-100.0,0.0,0.0,0.0
19:36:17.393000,78.0,-23.0,-350.0,-946.0,-366.0,-100.0,0.0,0.0,0.0
19:36:17.398000,36.0,-16.0,-417.0,-948.0,-218.0,-67.0,0.0,0.0,0.0
19:36:17.403000,9.0,3.0,-432.0,-948.0,-218.0,-67.0,0.0,0.0,0.0
19:36:17.407000,29.0,2.0,-489.0,-926.0,-130.0,-49.0,0.0,0.0,0.0
19:36:17.412000,85.0,-10.0,-654.0,-926.0,-130.0,-49.0,0.0,0.0,0.0
19:36:17.417000,123.0,-25.0,-787.0,-853.0,-202.0,-67.0,0.0,0.0,0.0
19:36:17.421000,162.0,-13.0,-761.0,-853.0,-202.0,-67.0,0.0,0.0,0.0
19:36:17.426000,147.0,0.0,-625.0,-831.0,-203.0,-92.0,0.0,0.0,0.0
19:36:17.431000,27.0,10.0,-513.0,-831.0,-203.0,-92.0,0.0,0.0,0.0
19:36:17.436000,-72.0,19.0,-466.0,-996.0,-118.0,-102.0,0.0,0.0,0.0
19:36:17.440000,-114.0,30.0,-455.0,-996.0,-118.0,-102.0,0.0,0.0,0.0
19:36:17.445000,-109.0,35.0,-459.0,-996.0,-118.0,-102.0,0.0,0.0,0.0
19:36:17.450000,-64.0,24.0,-420.0,-1132.0,-185.0,-112.0,0.0,0.0,0.0
19:36:17.454000,-23.0,-2.0,-339.0,-1132.0,-185.0,-112.0,0.0,0.0,0.0
19:36:17.459000,-18.0,-14.0,-318.0,-1061.0,-258.0,-79.0,0.0,0.0,0.0
19:36:17.464000,-19.0,-12.0,-317.0,-1061.0,-258.0,-79.0,0.0,0.0,0.0
19:36:17.468000,-24.0,-37.0,-258.0,-905.0,-197.0,-20.0,0.0,0.0,0.0
19:36:17.473000,32.0,-56.0,-238.0,-905.0,-197.0,-20.0,0.0,0.0,0.0
19:36:17.477000,32.0,-56.0,-238.0,-745.0,-188.0,-37.0,0.0,0.0,0.0
19:36:17.483000,169.0,-37.0,-364.0,-745.0,-188.0,-37.0,0.0,0.0,0.0
19:36:17.487000,169.0,-37.0,-364.0,-779.0,-150.0,-73.0,0.0,0.0,0.0
19:36:17.492000,187.0,-60.0,-436.0,-779.0,-150.0,-73.0,0.0,0.0,0.0
19:36:17.497000,184.0,-56.0,-383.0,-920.0,-48.0,-88.0,0.0,0.0,0.0
19:36:17.501000,119.0,-41.0,-310.0,-920.0,-48.0,-88.0,0.0,0.0,0.0
19:36:17.506000,19.0,-60.0,-390.0,-1043.0,16.0,-75.0,0.0,0.0,0.0
19:36:17.511000,-88.0,-51.0,-488.0,-1043.0,16.0,-75.0,0.0,0.0,0.0
19:36:17.515000,-132.0,-40.0,-453.0,-1086.0,-57.0,-63.0,0.0,0.0,0.0
19:36:17.520000,-108.0,-30.0,-314.0,-1086.0,-57.0,-63.0,0.0,0.0,0.0
19:36:17.525000,-74.0,-56.0,-216.0,-1032.0,-215.0,-79.0,0.0,0.0,0.0
19:36:17.529000,-33.0,-71.0,-183.0,-1032.0,-215.0,-79.0,0.0,0.0,0.0
19:36:17.534000,-35.0,-62.0,-195.0,-1014.0,-277.0,-73.0,0.0,0.0,0.0
19:36:17.539000,-65.0,-59.0,-191.0,-1014.0,-277.0,-73.0,0.0,0.0,0.0
19:36:17.544000,-88.0,-53.0,-156.0,-1048.0,-184.0,-58.0,0.0,0.0,0.0
19:36:17.548000,-136.0,-49.0,-151.0,-1048.0,-184.0,-58.0,0.0,0.0,0.0
19:36:17.553000,-172.0,-47.0,-275.0,-1048.0,-184.0,-58.0,0.0,0.0,0.0
19:36:17.558000,-58.0,-98.0,-443.0,-1045.0,-16.0,-25.0,0.0,0.0,0.0
19:36:17.562000,-27.0,-45.0,-426.0,-1045.0,-16.0,-25.0,0.0,0.0,0.0
19:36:17.567000,43.0,-47.0,-247.0,-829.0,-234.0,-69.0,0.0,0.0,0.0
19:36:17.572000,-12.0,-10.0,-214.0,-829.0,-234.0,-69.0,0.0,0.0,0.0
19:36:17.576000,-16.0,-33.0,-290.0,-885.0,-240.0,-143.0,0.0,0.0,0.0
19:36:17.581000,-4.0,-42.0,-412.0,-885.0,-240.0,-143.0,0.0,0.0,0.0
19:36:17.586000,-49.0,-55.0,-471.0,-1141.0,60.0,-143.0,0.0,0.0,0.0
19:36:17.591000,-53.0,-67.0,-417.0,-1141.0,60.0,-143.0,0.0,0.0,0.0
19:36:17.595000,-100.0,-84.0,-295.0,-1068.0,-47.0,-74.0,0.0,0.0,0.0
19:36:17.600000,-100.0,-84.0,-295.0,-1068.0,-47.0,-74.0,0.0,0.0,0.0
19:36:17.605000,-74.0,-116.0,-311.0,-828.0,-169.0,11.0,0.0,0.0,0.0
19:36:17.609000,-12.0,-123.0,-471.0,-828.0,-169.0,11.0,0.0,0.0,0.0
19:36:17.614000,58.0,-114.0,-597.0,-690.0,-122.0,-32.0,0.0,0.0,0.0
19:36:17.619000,113.0,-98.0,-619.0,-690.0,-122.0,-32.0,0.0,0.0,0.0
19:36:17.623000,132.0,-138.0,-533.0,-889.0,-35.0,-78.0,0.0,0.0,0.0
19:36:17.628000,61.0,-168.0,-402.0,-889.0,-35.0,-78.0,0.0,0.0,0.0
19:36:17.633000,-7.0,-139.0,-359.0,-1190.0,89.0,-75.0,0.0,0.0,0.0
19:36:17.638000,-110.0,-130.0,-475.0,-1190.0,89.0,-75.0,0.0,0.0,0.0
19:36:17.642000,-87.0,-163.0,-518.0,-1168.0,54.0,-87.0,0.0,0.0,0.0
19:36:17.647000,-29.0,-175.0,-350.0,-1168.0,54.0,-87.0,0.0,0.0,0.0
19:36:17.652000,-30.0,-170.0,-167.0,-949.0,-50.0,-55.0,0.0,0.0,0.0
19:36:17.656000,-46.0,-185.0,-53.0,-949.0,-50.0,-55.0,0.0,0.0,0.0
19:36:17.661000,-52.0,-213.0,-18.0,-949.0,-50.0,-55.0,0.0,0.0,0.0
19:36:17.666000,-79.0,-208.0,-54.0,-826.0,22.0,-14.0,0.0,0.0,0.0
19:36:17.670000,-61.0,-226.0,-154.0,-826.0,22.0,-14.0,0.0,0.0,0.0
19:36:17.675000,-38.0,-231.0,-247.0,-799.0,94.0,1.0,0.0,0.0,0.0
19:36:17.680000,-39.0,-220.0,-281.0,-799.0,94.0,1.0,0.0,0.0,0.0
19:36:17.685000,-84.0,-189.0,-252.0,-824.0,53.0,-32.0,0.0,0.0,0.0
19:36:17.689000,-212.0,-172.0,-224.0,-824.0,53.0,-32.0,0.0,0.0,0.0
19:36:17.694000,-330.0,-177.0,-205.0,-1022.0,186.0,-34.0,0.0,0.0,0.0
19:36:17.699000,-433.0,-176.0,-222.0,-1022.0,186.0,-34.0,0.0,0.0,0.0
19:36:17.703000,-445.0,-200.0,-231.0,-1183.0,263.0,-17.0,0.0,0.0,0.0
19:36:17.708000,-445.0,-200.0,-231.0,-1183.0,263.0,-17.0,0.0,0.0,0.0
19:36:17.713000,-453.0,-193.0,-175.0,-1078.0,46.0,-40.0,0.0,0.0,0.0
19:36:17.717000,-484.0,-191.0,-86.0,-1078.0,46.0,-40.0,0.0,0.0,0.0
19:36:17.722000,-490.0,-193.0,-74.0,-966.0,-29.0,-39.0,0.0,0.0,0.0
19:36:17.727000,-486.0,-203.0,-87.0,-966.0,-29.0,-39.0,0.0,0.0,0.0
19:36:17.732000,-462.0,-217.0,-79.0,-945.0,-7.0,-21.0,0.0,0.0,0.0
19:36:17.736000,-441.0,-219.0,-115.0,-945.0,-7.0,-21.0,0.0,0.0,0.0
19:36:17.741000,-425.0,-228.0,-157.0,-919.0,-23.0,-15.0,0.0,0.0,0.0
19:36:17.746000,-397.0,-238.0,-177.0,-919.0,-23.0,-15.0,0.0,0.0,0.0
19:36:17.750000,-389.0,-242.0,-214.0,-892.0,-2.0,-16.0,0.0,0.0,0.0
19:36:17.755000,-440.0,-224.0,-261.0,-892.0,-2.0,-16.0,0.0,0.0,0.0
19:36:17.760000,-413.0,-241.0,-296.0,-877.0,54.0,-19.0,0.0,0.0,0.0
19:36:17.764000,-388.0,-261.0,-313.0,-877.0,54.0,-19.0,0.0,0.0,0.0
19:36:17.769000,-387.0,-273.0,-270.0,-874.0,52.0,-23.0,0.0,0.0,0.0
19:36:17.774000,-403.0,-278.0,-249.0,-874.0,52.0,-23.0,0.0,0.0,0.0
19:36:17.779000,-404.0,-293.0,-234.0,-874.0,52.0,-23.0,0.0,0.0,0.0
19:36:17.783000,-424.0,-306.0,-224.0,-903.0,19.0,-21.0,0.0,0.0,0.0
19:36:17.788000,-452.0,-319.0,-212.0,-903.0,19.0,-21.0,0.0,0.0,0.0
19:36:17.793000,-471.0,-342.0,-198.0,-932.0,62.0,-8.0,0.0,0.0,0.0
19:36:17.797000,-469.0,-371.0,-178.0,-932.0,62.0,-8.0,0.0,0.0,0.0
19:36:17.802000,-481.0,-404.0,-152.0,-894.0,90.0,5.0,0.0,0.0,0.0
19:36:17.807000,-499.0,-429.0,-136.0,-894.0,90.0,5.0,0.0,0.0,0.0
19:36:17.811000,-532.0,-464.0,-125.0,-859.0,116.0,15.0,0.0,0.0,0.0
19:36:17.816000,-532.0,-464.0,-125.0,-859.0,116.0,15.0,0.0,0.0,0.0
19:36:17.821000,-554.0,-500.0,-128.0,-879.0,164.0,22.0,0.0,0.0,0.0
19:36:17.826000,-578.0,-546.0,-137.0,-879.0,164.0,22.0,0.0,0.0,0.0
19:36:17.830000,-611.0,-582.0,-133.0,-882.0,201.0,32.0,0.0,0.0,0.0
19:36:17.835000,-676.0,-622.0,-92.0,-882.0,201.0,32.0,0.0,0.0,0.0
19:36:17.840000,-741.0,-653.0,-59.0,-877.0,231.0,44.0,0.0,0.0,0.0
19:36:17.844000,-819.0,-694.0,-50.0,-877.0,231.0,44.0,0.0,0.0,0.0
19:36:17.849000,-886.0,-730.0,-72.0,-903.0,285.0,62.0,0.0,0.0,0.0
19:36:17.854000,-974.0,-784.0,-105.0,-903.0,285.0,62.0,0.0,0.0,0.0
19:36:17.858000,-1051.0,-830.0,-126.0,-880.0,313.0,93.0,0.0,0.0,0.0
19:36:17.863000,-1130.0,-882.0,-137.0,-880.0,313.0,93.0,0.0,0.0,0.0
19:36:17.868000,-1189.0,-931.0,-137.0,-822.0,283.0,127.0,0.0,0.0,0.0
19:36:17.873000,-1253.0,-989.0,-119.0,-822.0,283.0,127.0,0.0,0.0,0.0
19:36:17.877000,-1313.0,-1048.0,-109.0,-822.0,264.0,156.0,0.0,0.0,0.0
19:36:17.882000,-1376.0,-1118.0,-121.0,-821.0,264.0,156.0,0.0,0.0,0.0
19:36:17.887000,-1462.0,-1201.0,-145.0,-833.0,308.0,192.0,0.0,0.0,0.0
19:36:17.891000,-1564.0,-1282.0,-178.0,-833.0,308.0,192.0,0.0,0.0,0.0
19:36:17.896000,-1654.0,-1364.0,-232.0,-833.0,308.0,192.0,0.0,0.0,0.0
19:36:17.901000,-1736.0,-1442.0,-289.0,-800.0,389.0,237.0,0.0,0.0,0.0
19:36:17.905000,-1815.0,-1521.0,-315.0,-800.0,389.0,237.0,0.0,0.0,0.0
19:36:17.910000,-1878.0,-1605.0,-296.0,-778.0,397.0,264.0,0.0,0.0,0.0
19:36:17.915000,-1958.0,-1687.0,-298.0,-778.0,397.0,264.0,0.0,0.0,0.0
19:36:17.920000,-2039.0,-1755.0,-321.0,-787.0,369.0,284.0,0.0,0.0,0.0
19:36:17.924000,-2132.0,-1822.0,-315.0,-787.0,369.0,284.0,0.0,0.0,0.0
19:36:17.929000,-2132.0,-1822.0,-315.0,-782.0,414.0,318.0,0.0,0.0,0.0
19:36:17.934000,-2219.0,-1890.0,-296.0,-782.0,414.0,318.0,0.0,0.0,0.0
19:36:17.938000,-2291.0,-1950.0,-278.0,-754.0,433.0,369.0,0.0,0.0,0.0
19:36:17.942000,-2373.0,-2023.0,-258.0,-754.0,433.0,369.0,0.0,0.0,0.0
19:36:17.948000,-2457.0,-2083.0,-217.0,-701.0,392.0,422.0,0.0,0.0,0.0
19:36:17.952000,-2522.0,-2139.0,-166.0,-701.0,392.0,422.0,0.0,0.0,0.0
19:36:17.957000,-2566.0,-2188.0,-113.0,-663.0,346.0,464.0,0.0,0.0,0.0
19:36:17.962000,-2598.0,-2245.0,-86.0,-663.0,346.0,464.0,0.0,0.0,0.0
19:36:17.967000,-2636.0,-2303.0,-81.0,-670.0,299.0,518.0,0.0,0.0,0.0
19:36:17.971000,-2669.0,-2358.0,-79.0,-670.0,299.0,518.0,0.0,0.0,0.0
19:36:17.976000,-2692.0,-2401.0,-80.0,-667.0,262.0,575.0,0.0,0.0,0.0
19:36:17.981000,-2703.0,-2445.0,-91.0,-667.0,262.0,575.0,0.0,0.0,0.0
19:36:17.985000,-2716.0,-2489.0,-109.0,-643.0,250.0,629.0,0.0,0.0,0.0
19:36:17.990000,-2720.0,-2531.0,-123.0,-643.0,250.0,629.0,0.0,0.0,0.0
19:36:17.995000,-2725.0,-2568.0,-129.0,-621.0,267.0,681.0,0.0,0.0,0.0
19:36:17.999000,-2732.0,-2597.0,-141.0,-621.0,267.0,681.0,0.0,0.0,0.0
19:36:18.004000,-2738.0,-2616.0,-168.0,-621.0,267.0,681.0,0.0,0.0,0.0
19:36:18.009000,-2744.0,-2632.0,-196.0,-626.0,311.0,708.0,0.0,0.0,0.0
19:36:18.014000,-2748.0,-2636.0,-227.0,-626.0,311.0,708.0,0.0,0.0,0.0
19:36:18.018000,-2755.0,-2641.0,-247.0,-656.0,369.0,727.0,0.0,0.0,0.0
19:36:18.023000,-2768.0,-2642.0,-260.0,-656.0,369.0,727.0,0.0,0.0,0.0
19:36:18.028000,-2788.0,-2638.0,-290.0,-668.0,426.0,759.0,0.0,0.0,0.0
19:36:18.032000,-2809.0,-2634.0,-331.0,-668.0,426.0,759.0,0.0,0.0,0.0
19:36:18.037000,-2809.0,-2634.0,-331.0,-665.0,489.0,790.0,0.0,0.0,0.0
19:36:18.042000,-2816.0,-2630.0,-355.0,-665.0,489.0,790.0,0.0,0.0,0.0
19:36:18.046000,-2807.0,-2630.0,-342.0,-647.0,491.0,807.0,0.0,0.0,0.0
19:36:18.051000,-2786.0,-2623.0,-302.0,-647.0,491.0,807.0,0.0,0.0,0.0
19:36:18.056000,-2759.0,-2615.0,-256.0,-634.0,435.0,813.0,0.0,0.0,0.0
19:36:18.061000,-2728.0,-2599.0,-226.0,-634.0,435.0,813.0,0.0,0.0,0.0
19:36:18.065000,-2694.0,-2583.0,-224.0,-658.0,438.0,810.0,0.0,0.0,0.0
19:36:18.070000,-2648.0,-2567.0,-245.0,-658.0,438.0,810.0,0.0,0.0,0.0
19:36:18.075000,-2592.0,-2552.0,-263.0,-679.0,476.0,810.0,0.0,0.0,0.0
19:36:18.079000,-2528.0,-2524.0,-255.0,-679.0,476.0,810.0,0.0,0.0,0.0
19:36:18.084000,-2459.0,-2479.0,-231.0,-677.0,469.0,815.0,0.0,0.0,0.0
19:36:18.089000,-2377.0,-2424.0,-208.0,-677.0,469.0,815.0,0.0,0.0,0.0
19:36:18.093000,-2284.0,-2359.0,-207.0,-697.0,430.0,811.0,0.0,0.0,0.0
19:36:18.098000,-2186.0,-2284.0,-232.0,-697.0,430.0,811.0,0.0,0.0,0.0
19:36:18.103000,-2086.0,-2202.0,-253.0,-697.0,430.0,811.0,0.0,0.0,0.0
19:36:18.108000,-1988.0,-2119.0,-261.0,-743.0,409.0,798.0,0.0,0.0,0.0
19:36:18.112000,-1892.0,-2037.0,-267.0,-743.0,409.0,798.0,0.0,0.0,0.0
19:36:18.117000,-1798.0,-1957.0,-273.0,-787.0,412.0,777.0,0.0,0.0,0.0
19:36:18.122000,-1711.0,-1879.0,-275.0,-787.0,412.0,777.0,0.0,0.0,0.0
19:36:18.126000,-1628.0,-1806.0,-263.0,-816.0,440.0,746.0,0.0,0.0,0.0
19:36:18.131000,-1556.0,-1738.0,-233.0,-816.0,440.0,746.0,0.0,0.0,0.0
19:36:18.136000,-1492.0,-1673.0,-191.0,-814.0,471.0,713.0,0.0,0.0,0.0
19:36:18.140000,-1437.0,-1610.0,-142.0,-814.0,471.0,713.0,0.0,0.0,0.0
19:36:18.145000,-1437.0,-1610.0,-142.0,-781.0,490.0,689.0,0.0,0.0,0.0
19:36:18.150000,-1393.0,-1548.0,-81.0,-781.0,490.0,689.0,0.0,0.0,0.0
19:36:18.155000,-1360.0,-1484.0,-6.0,-731.0,494.0,672.0,0.0,0.0,0.0
19:36:18.159000,-1330.0,-1423.0,58.0,-731.0,494.0,672.0,0.0,0.0,0.0
19:36:18.164000,-1303.0,-1361.0,106.0,-689.0,498.0,648.0,0.0,0.0,0.0
19:36:18.169000,-1281.0,-1300.0,156.0,-689.0,498.0,648.0,0.0,0.0,0.0
19:36:18.173000,-1264.0,-1236.0,219.0,-676.0,499.0,620.0,0.0,0.0,0.0
19:36:18.178000,-1250.0,-1163.0,280.0,-676.0,499.0,620.0,0.0,0.0,0.0
19:36:18.183000,-1234.0,-1083.0,308.0,-715.0,479.0,587.0,0.0,0.0,0.0
19:36:18.187000,-1209.0,-1004.0,310.0,-715.0,479.0,587.0,0.0,0.0,0.0
19:36:18.192000,-1169.0,-926.0,303.0,-772.0,430.0,544.0,0.0,0.0,0.0
19:36:18.197000,-1118.0,-850.0,295.0,-772.0,430.0,544.0,0.0,0.0,0.0
19:36:18.202000,-1061.0,-776.0,279.0,-779.0,352.0,496.0,0.0,0.0,0.0
19:36:18.206000,-996.0,-700.0,245.0,-779.0,352.0,496.0,0.0,0.0,0.0
19:36:18.211000,-921.0,-625.0,187.0,-779.0,352.0,496.0,0.0,0.0,0.0
19:36:18.216000,-842.0,-555.0,137.0,-744.0,305.0,446.0,0.0,0.0,0.0
19:36:18.220000,-760.0,-499.0,105.0,-744.0,305.0,446.0,0.0,0.0,0.0
19:36:18.225000,-725.0,-451.0,105.0,-707.0,293.0,410.0,0.0,0.0,0.0
19:36:18.230000,-668.0,-422.0,95.0,-707.0,293.0,410.0,0.0,0.0,0.0
19:36:18.234000,-604.0,-393.0,79.0,-696.0,282.0,402.0,0.0,0.0,0.0
19:36:18.239000,-564.0,-380.0,93.0,-696.0,282.0,402.0,0.0,0.0,0.0
19:36:18.244000,-519.0,-368.0,113.0,-625.0,292.0,422.0,0.0,0.0,0.0
19:36:18.249000,-481.0,-362.0,121.0,-625.0,292.0,422.0,0.0,0.0,0.0
19:36:18.253000,-481.0,-362.0,121.0,-510.0,359.0,453.0,0.0,0.0,0.0
19:36:18.258000,-436.0,-345.0,87.0,-510.0,359.0,453.0,0.0,0.0,0.0
19:36:18.263000,-414.0,-320.0,26.0,-459.0,476.0,464.0,0.0,0.0,0.0
19:36:18.267000,-424.0,-301.0,-6.0,-459.0,476.0,464.0,0.0,0.0,0.0
19:36:18.272000,-439.0,-285.0,-32.0,-447.0,591.0,471.0,0.0,0.0,0.0
19:36:18.277000,-466.0,-263.0,-66.0,-447.0,591.0,471.0,0.0,0.0,0.0
19:36:18.281000,-474.0,-250.0,-88.0,-438.0,652.0,477.0,0.0,0.0,0.0
19:36:18.286000,-508.0,-235.0,-95.0,-438.0,652.0,477.0,0.0,0.0,0.0
19:36:18.291000,-493.0,-224.0,-86.0,-416.0,622.0,472.0,0.0,0.0,0.0
19:36:18.296000,-485.0,-215.0,-75.0,-416.0,622.0,472.0,0.0,0.0,0.0
19:36:18.300000,-459.0,-199.0,-102.0,-375.0,555.0,462.0,0.0,0.0,0.0
19:36:18.305000,-424.0,-190.0,-105.0,-375.0,555.0,462.0,0.0,0.0,0.0
19:36:18.310000,-399.0,-182.0,-74.0,-328.0,528.0,464.0,0.0,0.0,0.0
19:36:18.314000,-388.0,-179.0,-63.0,-328.0,528.0,464.0,0.0,0.0,0.0
19:36:18.319000,-334.0,-176.0,-43.0,-328.0,528.0,464.0,0.0,0.0,0.0
19:36:18.324000,-301.0,-170.0,-14.0,-313.0,522.0,463.0,0.0,0.0,0.0
19:36:18.328000,-271.0,-170.0,0.0,-313.0,522.0,463.0,0.0,0.0,0.0
19:36:18.333000,-233.0,-170.0,5.0,-345.0,527.0,460.0,0.0,0.0,0.0
19:36:18.338000,-209.0,-168.0,30.0,-345.0,527.0,460.0,0.0,0.0,0.0
19:36:18.343000,-190.0,-166.0,38.0,-366.0,520.0,473.0,0.0,0.0,0.0
19:36:18.347000,-171.0,-168.0,28.0,-366.0,520.0,473.0,0.0,0.0,0.0
19:36:18.352000,-147.0,-177.0,17.0,-358.0,528.0,493.0,0.0,0.0,0.0
19:36:18.357000,-120.0,-184.0,16.0,-358.0,528.0,493.0,0.0,0.0,0.0
19:36:18.361000,-99.0,-193.0,21.0,-339.0,565.0,519.0,0.0,0.0,0.0
19:36:18.366000,-99.0,-193.0,21.0,-339.0,565.0,519.0,0.0,0.0,0.0
19:36:18.371000,-79.0,-202.0,26.0,-314.0,589.0,547.0,0.0,0.0,0.0
19:36:18.375000,-59.0,-210.0,21.0,-314.0,589.0,547.0,0.0,0.0,0.0
19:36:18.380000,-20.0,-219.0,-3.0,-309.0,668.0,584.0,0.0,0.0,0.0
19:36:18.385000,-30.0,-233.0,-30.0,-309.0,668.0,584.0,0.0,0.0,0.0
19:36:18.390000,-5.0,-239.0,-76.0,-313.0,719.0,618.0,0.0,0.0,0.0
19:36:18.394000,-2.0,-236.0,-105.0,-313.0,719.0,618.0,0.0,0.0,0.0
19:36:18.398000,-11.0,-223.0,-118.0,-326.0,658.0,633.0,0.0,0.0,0.0
19:36:18.404000,23.0,-217.0,-108.0,-326.0,658.0,633.0,0.0,0.0,0.0
19:36:18.408000,70.0,-199.0,-151.0,-398.0,638.0,618.0,0.0,0.0,0.0
19:36:18.413000,93.0,-186.0,-205.0,-398.0,638.0,618.0,0.0,0.0,0.0
19:36:18.418000,126.0,-179.0,-205.0,-451.0,705.0,597.0,0.0,0.0,0.0
19:36:18.422000,127.0,-184.0,-177.0,-451.0,705.0,597.0,0.0,0.0,0.0
19:36:18.427000,142.0,-179.0,-173.0,-451.0,705.0,597.0,0.0,0.0,0.0
19:36:18.432000,172.0,-178.0,-170.0,-433.0,723.0,586.0,0.0,0.0,0.0
19:36:18.437000,213.0,-182.0,-154.0,-433.0,723.0,586.0,0.0,0.0,0.0
19:36:18.441000,257.0,-191.0,-108.0,-405.0,662.0,579.0,0.0,0.0,0.0
19:36:18.446000,349.0,-148.0,-76.0,-405.0,662.0,579.0,0.0,0.0,0.0
19:36:18.451000,427.0,-156.0,-133.0,-393.0,628.0,554.0,0.0,0.0,0.0
19:36:18.455000,520.0,-182.0,-170.0,-393.0,628.0,554.0,0.0,0.0,0.0
19:36:18.460000,553.0,-195.0,-88.0,-392.0,579.0,557.0,0.0,0.0,0.0
19:36:18.465000,636.0,-195.0,-11.0,-392.0,579.0,557.0,0.0,0.0,0.0
19:36:18.469000,686.0,-201.0,9.0,-350.0,487.0,594.0,0.0,0.0,0.0
19:36:18.474000,686.0,-201.0,9.0,-350.0,487.0,594.0,0.0,0.0,0.0
19:36:18.479000,707.0,-210.0,29.0,-331.0,571.0,617.0,0.0,0.0,0.0
19:36:18.484000,689.0,-217.0,44.0,-331.0,571.0,617.0,0.0,0.0,0.0
19:36:18.488000,646.0,-220.0,29.0,-385.0,787.0,636.0,0.0,0.0,0.0
19:36:18.493000,630.0,-226.0,-14.0,-385.0,787.0,636.0,0.0,0.0,0.0
19:36:18.498000,599.0,-204.0,-56.0,-456.0,848.0,614.0,0.0,0.0,0.0
19:36:18.502000,580.0,-198.0,-77.0,-456.0,848.0,614.0,0.0,0.0,0.0
19:36:18.507000,617.0,-181.0,-91.0,-521.0,734.0,549.0,0.0,0.0,0.0
19:36:18.512000,658.0,-170.0,-133.0,-521.0,734.0,549.0,0.0,0.0,0.0
19:36:18.516000,725.0,-149.0,-190.0,-576.0,606.0,479.0,0.0,0.0,0.0
19:36:18.521000,822.0,-128.0,-231.0,-576.0,606.0,479.0,0.0,0.0,0.0
19:36:18.526000,919.0,-114.0,-249.0,-587.0,496.0,451.0,0.0,0.0,0.0
19:36:18.531000,1034.0,-93.0,-261.0,-587.0,496.0,451.0,0.0,0.0,0.0
19:36:18.535000,1154.0,-72.0,-262.0,-587.0,496.0,451.0,0.0,0.0,0.0
19:36:18.540000,1273.0,-43.0,-254.0,-547.0,408.0,463.0,0.0,0.0,0.0
19:36:18.545000,1372.0,-12.0,-238.0,-547.0,408.0,463.0,0.0,0.0,0.0
19:36:18.549000,1453.0,32.0,-225.0,-542.0,444.0,482.0,0.0,0.0,0.0
19:36:18.554000,1512.0,86.0,-226.0,-542.0,444.0,482.0,0.0,0.0,0.0
19:36:18.559000,1578.0,147.0,-233.0,-604.0,545.0,497.0,0.0,0.0,0.0
19:36:18.563000,1656.0,218.0,-242.0,-604.0,545.0,497.0,0.0,0.0,0.0
19:36:18.568000,1733.0,308.0,-235.0,-681.0,586.0,493.0,0.0,0.0,0.0
19:36:18.573000,1815.0,417.0,-233.0,-681.0,586.0,493.0,0.0,0.0,0.0
19:36:18.578000,1913.0,531.0,-245.0,-754.0,531.0,460.0,0.0,0.0,0.0
19:36:18.582000,1913.0,531.0,-245.0,-754.0,531.0,460.0,0.0,0.0,0.0
19:36:18.587000,2020.0,639.0,-273.0,-816.0,415.0,429.0,0.0,0.0,0.0
19:36:18.592000,2150.0,731.0,-277.0,-816.0,415.0,429.0,0.0,0.0,0.0
19:36:18.596000,2293.0,790.0,-231.0,-796.0,248.0,447.0,0.0,0.0,0.0
19:36:18.601000,2454.0,853.0,-193.0,-796.0,248.0,447.0,0.0,0.0,0.0
19:36:18.606000,2622.0,907.0,-166.0,-728.0,133.0,483.0,0.0,0.0,0.0
19:36:18.610000,2786.0,946.0,-158.0,-728.0,133.0,483.0,0.0,0.0,0.0
19:36:18.615000,2933.0,979.0,-164.0,-695.0,179.0,544.0,0.0,0.0,0.0
19:36:18.620000,3040.0,1005.0,-123.0,-695.0,179.0,544.0,0.0,0.0,0.0
19:36:18.625000,3120.0,1040.0,-39.0,-686.0,219.0,666.0,0.0,0.0,0.0
19:36:18.629000,3183.0,1092.0,4.0,-686.0,219.0,666.0,0.0,0.0,0.0
19:36:18.634000,3240.0,1154.0,45.0,-710.0,245.0,800.0,0.0,0.0,0.0
19:36:18.639000,3258.0,1232.0,88.0,-710.0,245.0,800.0,0.0,0.0,0.0
19:36:18.643000,3231.0,1311.0,121.0,-710.0,371.0,904.0,0.0,0.0,0.0
19:36:18.648000,3187.0,1393.0,124.0,-740.0,371.0,904.0,0.0,0.0,0.0
19:36:18.653000,3152.0,1486.0,109.0,-740.0,371.0,904.0,0.0,0.0,0.0
19:36:18.657000,3147.0,1589.0,95.0,-805.0,468.0,941.0,0.0,0.0,0.0
19:36:18.662000,3161.0,1678.0,51.0,-805.0,468.0,941.0,0.0,0.0,0.0
19:36:18.667000,3192.0,1762.0,14.0,-863.0,413.0,925.0,0.0,0.0,0.0
19:36:18.672000,3252.0,1845.0,36.0,-863.0,413.0,925.0,0.0,0.0,0.0
19:36:18.676000,3321.0,1911.0,106.0,-863.0,252.0,918.0,0.0,0.0,0.0
19:36:18.681000,3398.0,1974.0,165.0,-863.0,252.0,918.0,0.0,0.0,0.0
19:36:18.686000,3462.0,2032.0,208.0,-851.0,138.0,953.0,0.0,0.0,0.0
19:36:18.690000,3502.0,2097.0,273.0,-851.0,138.0,953.0,0.0,0.0,0.0
19:36:18.695000,3502.0,2097.0,273.0,-770.0,164.0,1032.0,0.0,0.0,0.0
19:36:18.700000,3530.0,2141.0,378.0,-770.0,164.0,1032.0,0.0,0.0,0.0
19:36:18.704000,3549.0,2172.0,457.0,-665.0,233.0,1111.0,0.0,0.0,0.0
19:36:18.709000,3535.0,2220.0,452.0,-665.0,233.0,1111.0,0.0,0.0,0.0
19:36:18.714000,3469.0,2258.0,513.0,-604.0,348.0,1163.0,0.0,0.0,0.0
19:36:18.719000,3378.0,2285.0,604.0,-604.0,348.0,1163.0,0.0,0.0,0.0
19:36:18.723000,3262.0,2306.0,661.0,-634.0,482.0,1178.0,0.0,0.0,0.0
19:36:18.728000,3130.0,2330.0,704.0,-634.0,482.0,1178.0,0.0,0.0,0.0
19:36:18.733000,3010.0,2350.0,770.0,-676.0,444.0,1130.0,0.0,0.0,0.0
19:36:18.737000,2900.0,2359.0,788.0,-676.0,444.0,1130.0,0.0,0.0,0.0
19:36:18.742000,2790.0,2356.0,728.0,-671.0,302.0,1063.0,0.0,0.0,0.0
19:36:18.747000,2681.0,2343.0,675.0,-671.0,302.0,1063.0,0.0,0.0,0.0
19:36:18.751000,2611.0,2338.0,650.0,-641.0,148.0,998.0,0.0,0.0,0.0
19:36:18.756000,2564.0,2329.0,630.0,-641.0,148.0,998.0,0.0,0.0,0.0
19:36:18.761000,2562.0,2304.0,599.0,-641.0,148.0,998.0,0.0,0.0,0.0
19:36:18.766000,2592.0,2265.0,545.0,-580.0,-47.0,903.0,0.0,0.0,0.0
19:36:18.770000,2611.0,2202.0,528.0,-580.0,-47.0,903.0,0.0,0.0,0.0
19:36:18.775000,2626.0,2143.0,564.0,-551.0,-203.0,854.0,0.0,0.0,0.0
19:36:18.780000,2634.0,2079.0,592.0,-551.0,-203.0,854.0,0.0,0.0,0.0
19:36:18.784000,2636.0,2018.0,604.0,-504.0,-253.0,870.0,0.0,0.0,0.0
19:36:18.789000,2595.0,1957.0,625.0,-504.0,-253.0,870.0,0.0,0.0,0.0
19:36:18.794000,2530.0,1899.0,647.0,-448.0,-180.0,890.0,0.0,0.0,0.0
19:36:18.798000,2441.0,1849.0,637.0,-448.0,-180.0,890.0,0.0,0.0,0.0
19:36:18.803000,2441.0,1849.0,637.0,-458.0,-6.0,892.0,0.0,0.0,0.0
19:36:18.808000,2342.0,1796.0,602.0,-458.0,-6.0,892.0,0.0,0.0,0.0
19:36:18.813000,2228.0,1747.0,557.0,-535.0,159.0,868.0,0.0,0.0,0.0
19:36:18.817000,2111.0,1715.0,526.0,-535.0,159.0,868.0,0.0,0.0,0.0
19:36:18.822000,1996.0,1680.0,499.0,-626.0,194.0,816.0,0.0,0.0,0.0
19:36:18.827000,1899.0,1641.0,484.0,-626.0,194.0,816.0,0.0,0.0,0.0
19:36:18.831000,1820.0,1605.0,466.0,-685.0,100.0,741.0,0.0,0.0,0.0
19:36:18.836000,1754.0,1571.0,438.0,-685.0,100.0,741.0,0.0,0.0,0.0
19:36:18.841000,1689.0,1544.0,413.0,-712.0,8.0,658.0,0.0,0.0,0.0
19:36:18.845000,1619.0,1519.0,387.0,-712.0,8.0,658.0,0.0,0.0,0.0
19:36:18.850000,1549.0,1491.0,365.0,-729.0,-24.0,581.0,0.0,0.0,0.0
19:36:18.855000,1488.0,1458.0,326.0,-729.0,-24.0,581.0,0.0,0.0,0.0
19:36:18.860000,1443.0,1418.0,301.0,-716.0,-95.0,499.0,0.0,0.0,0.0
19:36:18.864000,1393.0,1379.0,322.0,-716.0,-95.0,499.0,0.0,0.0,0.0
19:36:18.868000,1330.0,1341.0,362.0,-701.0,-193.0,424.0,0.0,0.0,0.0
19:36:18.874000,1264.0,1295.0,373.0,-701.0,-193.0,424.0,0.0,0.0,0.0
19:36:18.878000,1199.0,1248.0,350.0,-701.0,-193.0,424.0,0.0,0.0,0.0
19:36:18.883000,1130.0,1196.0,347.0,-715.0,-181.0,374.0,0.0,0.0,0.0
19:36:18.888000,1050.0,1144.0,358.0,-715.0,-181.0,374.0,0.0,0.0,0.0
19:36:18.892000,970.0,1096.0,355.0,-699.0,-145.0,338.0,0.0,0.0,0.0
19:36:18.897000,900.0,1045.0,329.0,-699.0,-145.0,338.0,0.0,0.0,0.0
19:36:18.902000,836.0,998.0,284.0,-677.0,-166.0,303.0,0.0,0.0,0.0
19:36:18.907000,770.0,948.0,268.0,-677.0,-166.0,303.0,0.0,0.0,0.0
19:36:18.911000,770.0,948.0,268.0,-682.0,-204.0,270.0,0.0,0.0,0.0
19:36:18.916000,711.0,899.0,268.0,-682.0,-204.0,270.0,0.0,0.0,0.0
19:36:18.921000,671.0,853.0,266.0,-717.0,-252.0,237.0,0.0,0.0,0.0
19:36:18.925000,638.0,816.0,235.0,-717.0,-252.0,237.0,0.0,0.0,0.0
19:36:18.930000,604.0,784.0,191.0,-771.0,-334.0,195.0,0.0,0.0,0.0
19:36:18.935000,566.0,771.0,186.0,-771.0,-334.0,195.0,0.0,0.0,0.0
19:36:18.939000,539.0,734.0,185.0,-795.0,-400.0,168.0,0.0,0.0,0.0
19:36:18.944000,527.0,701.0,174.0,-795.0,-400.0,168.0,0.0,0.0,0.0
19:36:18.949000,521.0,669.0,159.0,-818.0,-416.0,140.0,0.0,0.0,0.0
19:36:18.954000,510.0,651.0,130.0,-818.0,-416.0,140.0,0.0,0.0,0.0
19:36:18.958000,494.0,626.0,78.0,-847.0,-409.0,104.0,0.0,0.0,0.0
19:36:18.963000,469.0,598.0,25.0,-847.0,-409.0,104.0,0.0,0.0,0.0
19:36:18.968000,417.0,574.0,-25.0,-858.0,-376.0,80.0,0.0,0.0,0.0
19:36:18.972000,362.0,549.0,-73.0,-858.0,-376.0,80.0,0.0,0.0,0.0
19:36:18.977000,319.0,518.0,-93.0,-858.0,-376.0,80.0,0.0,0.0,0.0
19:36:18.982000,287.0,498.0,-117.0,-848.0,-378.0,51.0,0.0,0.0,0.0
19:36:18.986000,263.0,478.0,-170.0,-832.0,-443.0,11.0,0.0,0.0,0.0
19:36:18.991000,268.0,461.0,-211.0,-832.0,-443.0,11.0,0.0,0.0,0.0
19:36:18.996000,274.0,445.0,-224.0,-832.0,-443.0,11.0,0.0,0.0,0.0
19:36:19.001000,292.0,424.0,-219.0,-823.0,-546.0,-35.0,0.0,0.0,0.0
19:36:19.005000,317.0,403.0,-207.0,-823.0,-546.0,-35.0,0.0,0.0,0.0
19:36:19.010000,343.0,373.0,-203.0,-823.0,-625.0,-73.0,0.0,0.0,0.0
19:36:19.015000,371.0,345.0,-216.0,-823.0,-625.0,-73.0,0.0,0.0,0.0
19:36:19.019000,371.0,345.0,-216.0,-824.0,-642.0,-93.0,0.0,0.0,0.0
19:36:19.024000,401.0,315.0,-240.0,-824.0,-642.0,-93.0,0.0,0.0,0.0
19:36:19.029000,426.0,284.0,-250.0,-802.0,-614.0,-104.0,0.0,0.0,0.0
19:36:19.033000,443.0,248.0,-261.0,-802.0,-614.0,-104.0,0.0,0.0,0.0
19:36:19.038000,450.0,205.0,-273.0,-783.0,-565.0,-99.0,0.0,0.0,0.0
19:36:19.043000,448.0,157.0,-257.0,-783.0,-565.0,-99.0,0.0,0.0,0.0
19:36:19.048000,445.0,112.0,-239.0,-773.0,-557.0,-81.0,0.0,0.0,0.0
19:36:19.052000,464.0,74.0,-247.0,-773.0,-557.0,-81.0,0.0,0.0,0.0
19:36:19.057000,490.0,37.0,-267.0,-758.0,-560.0,-72.0,0.0,0.0,0.0
19:36:19.062000,508.0,-3.0,-254.0,-758.0,-560.0,-72.0,0.0,0.0,0.0
19:36:19.066000,508.0,-25.0,-209.0,-770.0,-571.0,-60.0,0.0,0.0,0.0
19:36:19.071000,518.0,-47.0,-178.0,-770.0,-571.0,-60.0,0.0,0.0,0.0
19:36:19.076000,539.0,-60.0,-171.0,-835.0,-616.0,-42.0,0.0,0.0,0.0
19:36:19.080000,546.0,-63.0,-171.0,-835.0,-616.0,-42.0,0.0,0.0,0.0
19:36:19.085000,560.0,-74.0,-166.0,-835.0,-616.0,-42.0,0.0,0.0,0.0
19:36:19.090000,574.0,-72.0,-165.0,-900.0,-629.0,-30.0,0.0,0.0,0.0
19:36:19.095000,575.0,-70.0,-176.0,-900.0,-629.0,-30.0,0.0,0.0,0.0
19:36:19.099000,564.0,-74.0,-193.0,-920.0,-580.0,-18.0,0.0,0.0,0.0
19:36:19.104000,553.0,-77.0,-218.0,-920.0,-580.0,-18.0,0.0,0.0,0.0
19:36:19.109000,539.0,-84.0,-245.0,-921.0,-512.0,-22.0,0.0,0.0,0.0
19:36:19.113000,505.0,-90.0,-291.0,-921.0,-512.0,-22.0,0.0,0.0,0.0
19:36:19.118000,463.0,-111.0,-354.0,-917.0,-449.0,-25.0,0.0,0.0,0.0
19:36:19.123000,446.0,-130.0,-382.0,-917.0,-449.0,-25.0,0.0,0.0,0.0
19:36:19.127000,420.0,-152.0,-384.0,-876.0,-419.0,-18.0,0.0,0.0,0.0
19:36:19.132000,420.0,-152.0,-384.0,-876.0,-419.0,-18.0,0.0,0.0,0.0
19:36:19.137000,392.0,-169.0,-381.0,-812.0,-451.0,-22.0,0.0,0.0,0.0
19:36:19.141000,410.0,-192.0,-401.0,-812.0,-451.0,-22.0,0.0,0.0,0.0
19:36:19.146000,408.0,-221.0,-425.0,-774.0,-450.0,-32.0,0.0,0.0,0.0
19:36:19.151000,404.0,-244.0,-417.0,-774.0,-450.0,-32.0,0.0,0.0,0.0
19:36:19.156000,401.0,-272.0,-389.0,-769.0,-445.0,-35.0,0.0,0.0,0.0
19:36:19.160000,404.0,-296.0,-352.0,-769.0,-445.0,-35.0,0.0,0.0,0.0
19:36:19.165000,412.0,-322.0,-324.0,-807.0,-448.0,-32.0,0.0,0.0,0.0
19:36:19.170000,409.0,-343.0,-310.0,-807.0,-448.0,-32.0,0.0,0.0,0.0
19:36:19.174000,392.0,-352.0,-311.0,-883.0,-382.0,-33.0,0.0,0.0,0.0
19:36:19.178000,361.0,-361.0,-315.0,-883.0,-382.0,-33.0,0.0,0.0,0.0
19:36:19.184000,342.0,-361.0,-324.0,-948.0,-292.0,-34.0,0.0,0.0,0.0
19:36:19.188000,307.0,-357.0,-342.0,-948.0,-292.0,-34.0,0.0,0.0,0.0
19:36:19.193000,261.0,-343.0,-352.0,-948.0,-292.0,-34.0,0.0,0.0,0.0
19:36:19.198000,217.0,-326.0,-359.0,-995.0,-216.0,-34.0,0.0,0.0,0.0
19:36:19.203000,171.0,-306.0,-371.0,-995.0,-216.0,-34.0,0.0,0.0,0.0
19:36:19.207000,127.0,-287.0,-372.0,-1055.0,-148.0,-25.0,0.0,0.0,0.0
19:36:19.212000,83.0,-266.0,-348.0,-1055.0,-148.0,-25.0,0.0,0.0,0.0
19:36:19.217000,38.0,-242.0,-302.0,-1114.0,-127.0,-11.0,0.0,0.0,0.0
19:36:19.221000,-3.0,-220.0,-244.0,-1114.0,-127.0,-11.0,0.0,0.0,0.0
19:36:19.226000,-31.0,-203.0,-198.0,-1164.0,-175.0,-6.0,0.0,0.0,0.0
19:36:19.231000,-51.0,-189.0,-161.0,-1164.0,-175.0,-6.0,0.0,0.0,0.0
19:36:19.235000,-73.0,-177.0,-149.0,-1211.0,-228.0,-14.0,0.0,0.0,0.0
19:36:19.240000,-73.0,-177.0,-149.0,-1211.0,-228.0,-14.0,0.0,0.0,0.0
19:36:19.245000,-88.0,-167.0,-164.0,-1212.0,-257.0,-26.0,0.0,0.0,0.0
19:36:19.250000,-98.0,-160.0,-176.0,-1212.0,-257.0,-26.0,0.0,0.0,0.0
19:36:19.254000,-102.0,-163.0,-154.0,-1152.0,-288.0,-38.0,0.0,0.0,0.0
19:36:19.259000,-115.0,-167.0,-137.0,-1152.0,-288.0,-38.0,0.0,0.0,0.0
19:36:19.264000,-125.0,-174.0,-158.0,-1085.0,-314.0,-53.0,0.0,0.0,0.0
19:36:19.268000,-127.0,-186.0,-188.0,-1085.0,-314.0,-53.0,0.0,0.0,0.0
19:36:19.273000,-126.0,-204.0,-200.0,-1046.0,-319.0,-78.0,0.0,0.0,0.0
19:36:19.278000,-130.0,-228.0,-190.0,-1046.0,-319.0,-78.0,0.0,0.0,0.0
19:36:19.282000,-144.0,-247.0,-191.0,-1045.0,-288.0,-103.0,0.0,0.0,0.0
19:36:19.287000,-168.0,-266.0,-189.0,-1045.0,-288.0,-103.0,0.0,0.0,0.0
19:36:19.292000,-189.0,-290.0,-169.0,-1072.0,-244.0,-118.0,0.0,0.0,0.0
19:36:19.297000,-210.0,-312.0,-173.0,-1072.0,-244.0,-118.0,0.0,0.0,0.0
19:36:19.301000,-227.0,-333.0,-195.0,-1072.0,-244.0,-118.0,0.0,0.0,0.0
19:36:19.306000,-233.0,-352.0,-186.0,-1077.0,-240.0,-126.0,0.0,0.0,0.0
19:36:19.311000,-218.0,-368.0,-151.0,-1077.0,-240.0,-126.0,0.0,0.0,0.0
19:36:19.315000,-194.0,-382.0,-131.0,-1060.0,-296.0,-138.0,0.0,0.0,0.0
19:36:19.320000,-175.0,-390.0,-121.0,-1060.0,-296.0,-138.0,0.0,0.0,0.0
19:36:19.325000,-154.0,-396.0,-105.0,-1086.0,-349.0,-155.0,0.0,0.0,0.0
19:36:19.329000,-127.0,-406.0,-101.0,-1086.0,-349.0,-155.0,0.0,0.0,0.0
19:36:19.334000,-101.0,-415.0,-112.0,-1130.0,-357.0,-169.0,0.0,0.0,0.0
19:36:19.339000,-82.0,-431.0,-115.0,-1130.0,-357.0,-169.0,0.0,0.0,0.0
19:36:19.344000,-107.0,-442.0,-105.0,-1127.0,-307.0,-177.0,0.0,0.0,0.0
19:36:19.348000,-107.0,-442.0,-105.0,-1127.0,-307.0,-177.0,0.0,0.0,0.0
19:36:19.353000,-129.0,-458.0,-122.0,-1096.0,-203.0,-177.0,0.0,0.0,0.0
19:36:19.358000,-158.0,-479.0,-134.0,-1096.0,-203.0,-177.0,0.0,0.0,0.0
19:36:19.362000,-195.0,-508.0,-121.0,-1040.0,-142.0,-164.0,0.0,0.0,0.0
19:36:19.367000,-226.0,-541.0,-107.0,-1040.0,-142.0,-164.0,0.0,0.0,0.0
19:36:19.372000,-247.0,-578.0,-95.0,-962.0,-153.0,-140.0,0.0,0.0,0.0
19:36:19.376000,-256.0,-613.0,-92.0,-962.0,-153.0,-140.0,0.0,0.0,0.0
19:36:19.381000,-259.0,-644.0,-98.0,-879.0,-184.0,-112.0,0.0,0.0,0.0
19:36:19.386000,-255.0,-669.0,-104.0,-879.0,-184.0,-112.0,0.0,0.0,0.0
19:36:19.391000,-247.0,-690.0,-107.0,-821.0,-189.0,-77.0,0.0,0.0,0.0
19:36:19.395000,-247.0,-704.0,-109.0,-821.0,-189.0,-77.0,0.0,0.0,0.0
19:36:19.400000,-250.0,-717.0,-127.0,-839.0,-149.0,-38.0,0.0,0.0,0.0
19:36:19.405000,-257.0,-728.0,-147.0,-839.0,-149.0,-38.0,0.0,0.0,0.0
19:36:19.409000,-260.0,-739.0,-157.0,-839.0,-103.0,-6.0,0.0,0.0,0.0
19:36:19.413000,-261.0,-746.0,-168.0,-905.0,-103.0,-6.0,0.0,0.0,0.0
19:36:19.419000,-268.0,-749.0,-198.0,-905.0,-103.0,-6.0,0.0,0.0,0.0
19:36:19.423000,-261.0,-753.0,-254.0,-957.0,-12.0,23.0,0.0,0.0,0.0
19:36:19.428000,-249.0,-762.0,-287.0,-957.0,-12.0,23.0,0.0,0.0,0.0
19:36:19.433000,-231.0,-769.0,-295.0,-993.0,52.0,64.0,0.0,0.0,0.0
19:36:19.438000,-215.0,-761.0,-322.0,-993.0,52.0,64.0,0.0,0.0,0.0
19:36:19.442000,-228.0,-750.0,-347.0,-1007.0,45.0,112.0,0.0,0.0,0.0
19:36:19.447000,-268.0,-722.0,-347.0,-1007.0,45.0,112.0,0.0,0.0,0.0
19:36:19.452000,-314.0,-697.0,-309.0,-953.0,-50.0,163.0,0.0,0.0,0.0
19:36:19.456000,-338.0,-683.0,-272.0,-953.0,-50.0,163.0,0.0,0.0,0.0
19:36:19.461000,-338.0,-683.0,-272.0,-898.0,-185.0,176.0,0.0,0.0,0.0
19:36:19.466000,-359.0,-666.0,-287.0,-898.0,-185.0,176.0,0.0,0.0,0.0
19:36:19.470000,-400.0,-655.0,-326.0,-894.0,-77.0,164.0,0.0,0.0,0.0
19:36:19.475000,-441.0,-646.0,-364.0,-894.0,-77.0,164.0,0.0,0.0,0.0
19:36:19.480000,-466.0,-637.0,-398.0,-889.0,79.0,164.0,0.0,0.0,0.0
19:36:19.485000,-464.0,-622.0,-406.0,-889.0,79.0,164.0,0.0,0.0,0.0
19:36:19.489000,-436.0,-602.0,-359.0,-905.0,-76.0,126.0,0.0,0.0,0.0
19:36:19.494000,-382.0,-583.0,-329.0,-905.0,-76.0,126.0,0.0,0.0,0.0
19:36:19.499000,-305.0,-574.0,-334.0,-960.0,-278.0,54.0,0.0,0.0,0.0
19:36:19.503000,-238.0,-564.0,-319.0,-960.0,-278.0,54.0,0.0,0.0,0.0
19:36:19.508000,-181.0,-561.0,-275.0,-981.0,-270.0,-4.0,0.0,0.0,0.0
19:36:19.513000,-139.0,-560.0,-263.0,-981.0,-270.0,-4.0,0.0,0.0,0.0
19:36:19.517000,-121.0,-564.0,-255.0,-927.0,-98.0,-23.0,0.0,0.0,0.0
19:36:19.522000,-128.0,-569.0,-180.0,-927.0,-98.0,-23.0,0.0,0.0,0.0
19:36:19.527000,-162.0,-571.0,-46.0,-927.0,-98.0,-23.0,0.0,0.0,0.0
19:36:19.532000,-210.0,-564.0,11.0,-914.0,11.0,2.0,0.0,0.0,0.0
19:36:19.536000,-251.0,-546.0,-43.0,-914.0,11.0,2.0,0.0,0.0,0.0
19:36:19.541000,-275.0,-521.0,-108.0,-998.0,-44.0,36.0,0.0,0.0,0.0
19:36:19.546000,-288.0,-501.0,-142.0,-998.0,-44.0,36.0,0.0,0.0,0.0
19:36:19.550000,-287.0,-482.0,-199.0,-1028.0,-105.0,67.0,0.0,0.0,0.0
19:36:19.555000,-272.0,-471.0,-301.0,-1028.0,-105.0,67.0,0.0,0.0,0.0
19:36:19.560000,-251.0,-468.0,-420.0,-942.0,-82.0,108.0,0.0,0.0,0.0
19:36:19.564000,-226.0,-465.0,-492.0,-942.0,-82.0,108.0,0.0,0.0,0.0
19:36:19.569000,-226.0,-465.0,-492.0,-790.0,-60.0,154.0,0.0,0.0,0.0
19:36:19.574000,-207.0,-455.0,-527.0,-790.0,-60.0,154.0,0.0,0.0,0.0
19:36:19.579000,-194.0,-425.0,-540.0,-668.0,-161.0,187.0,0.0,0.0,0.0
19:36:19.583000,-171.0,-399.0,-534.0,-668.0,-161.0,187.0,0.0,0.0,0.0
19:36:19.588000,-110.0,-385.0,-562.0,-682.0,-198.0,208.0,0.0,0.0,0.0
19:36:19.593000,-52.0,-362.0,-569.0,-682.0,-198.0,208.0,0.0,0.0,0.0
19:36:19.597000,-36.0,-319.0,-542.0,-754.0,-143.0,224.0,0.0,0.0,0.0
19:36:19.602000,-28.0,-268.0,-497.0,-754.0,-143.0,224.0,0.0,0.0,0.0
19:36:19.607000,-25.0,-214.0,-442.0,-832.0,-108.0,231.0,0.0,0.0,0.0
19:36:19.611000,-19.0,-163.0,-401.0,-832.0,-108.0,231.0,0.0,0.0,0.0
19:36:19.616000,-25.0,-113.0,-361.0,-923.0,-95.0,226.0,0.0,0.0,0.0
19:36:19.621000,-28.0,-72.0,-331.0,-923.0,-95.0,226.0,0.0,0.0,0.0
19:36:19.626000,-22.0,-48.0,-297.0,-943.0,-112.0,210.0,0.0,0.0,0.0
19:36:19.630000,-9.0,-28.0,-259.0,-943.0,-112.0,210.0,0.0,0.0,0.0
19:36:19.635000,4.0,-8.0,-217.0,-943.0,-112.0,210.0,0.0,0.0,0.0
19:36:19.640000,7.0,9.0,-186.0,-864.0,-116.0,197.0,0.0,0.0,0.0
19:36:19.644000,6.0,23.0,-183.0,-864.0,-116.0,197.0,0.0,0.0,0.0
19:36:19.648000,4.0,29.0,-214.0,-805.0,-51.0,203.0,0.0,0.0,0.0
19:36:19.654000,-34.0,69.0,-222.0,-805.0,-51.0,203.0,0.0,0.0,0.0
19:36:19.658000,-65.0,91.0,-157.0,-790.0,-4.0,231.0,0.0,0.0,0.0
19:36:19.663000,-79.0,105.0,-76.0,-790.0,-4.0,231.0,0.0,0.0,0.0
19:36:19.668000,-105.0,126.0,-3.0,-783.0,-41.0,267.0,0.0,0.0,0.0
19:36:19.673000,-149.0,159.0,25.0,-783.0,-41.0,267.0,0.0,0.0,0.0
19:36:19.677000,-149.0,159.0,25.0,-809.0,-4.0,297.0,0.0,0.0,0.0
19:36:19.682000,-164.0,179.0,0.0,-809.0,-4.0,297.0,0.0,0.0,0.0
19:36:19.687000,-186.0,189.0,-49.0,-824.0,38.0,325.0,0.0,0.0,0.0
19:36:19.691000,-202.0,200.0,-76.0,-824.0,38.0,325.0,0.0,0.0,0.0
19:36:19.696000,-191.0,196.0,-84.0,-784.0,-11.0,351.0,0.0,0.0,0.0
19:36:19.701000,-207.0,200.0,-74.0,-784.0,-11.0,351.0,0.0,0.0,0.0
19:36:19.705000,-247.0,205.0,-38.0,-802.0,-62.0,364.0,0.0,0.0,0.0
19:36:19.710000,-269.0,200.0,0.0,-802.0,-62.0,364.0,0.0,0.0,0.0
19:36:19.715000,-270.0,184.0,5.0,-879.0,-97.0,367.0,0.0,0.0,0.0
19:36:19.720000,-277.0,179.0,-7.0,-879.0,-97.0,367.0,0.0,0.0,0.0
19:36:19.724000,-275.0,170.0,-14.0,-898.0,-126.0,371.0,0.0,0.0,0.0
19:36:19.729000,-262.0,168.0,-21.0,-898.0,-126.0,371.0,0.0,0.0,0.0
19:36:19.734000,-249.0,161.0,-58.0,-890.0,-144.0,384.0,0.0,0.0,0.0
19:36:19.738000,-217.0,172.0,-128.0,-890.0,-144.0,384.0,0.0,0.0,0.0
19:36:19.743000,-167.0,186.0,-208.0,-890.0,-144.0,384.0,0.0,0.0,0.0
19:36:19.748000,-134.0,202.0,-235.0,-928.0,-171.0,391.0,0.0,0.0,0.0
19:36:19.752000,-111.0,201.0,-213.0,-928.0,-171.0,391.0,0.0,0.0,0.0
19:36:19.757000,-67.0,193.0,-193.0,-972.0,-220.0,398.0,0.0,0.0,0.0
19:36:19.762000,-31.0,192.0,-186.0,-972.0,-220.0,398.0,0.0,0.0,0.0
19:36:19.767000,2.0,194.0,-196.0,-947.0,-244.0,398.0,0.0,0.0,0.0
19:36:19.771000,11.0,204.0,-202.0,-947.0,-244.0,398.0,0.0,0.0,0.0
19:36:19.776000,4.0,208.0,-198.0,-917.0,-160.0,388.0,0.0,0.0,0.0
19:36:19.781000,-16.0,207.0,-183.0,-917.0,-160.0,388.0,0.0,0.0,0.0
19:36:19.785000,-16.0,207.0,-183.0,-945.0,-24.0,393.0,0.0,0.0,0.0
19:36:19.790000,-63.0,217.0,-166.0,-945.0,-24.0,393.0,0.0,0.0,0.0
19:36:19.795000,-112.0,233.0,-196.0,-983.0,20.0,402.0,0.0,0.0,0.0
19:36:19.799000,-151.0,245.0,-262.0,-983.0,20.0,402.0,0.0,0.0,0.0
19:36:19.804000,-168.0,252.0,-307.0,-965.0,-9.0,402.0,0.0,0.0,0.0
19:36:19.809000,-187.0,264.0,-297.0,-965.0,-9.0,402.0,0.0,0.0,0.0
19:36:19.814000,-203.0,279.0,-287.0,-907.0,-68.0,396.0,0.0,0.0,0.0
19:36:19.818000,-191.0,296.0,-348.0,-907.0,-68.0,396.0,0.0,0.0,0.0
19:36:19.823000,-158.0,316.0,-424.0,-921.0,-115.0,380.0,0.0,0.0,0.0
19:36:19.828000,-132.0,328.0,-413.0,-921.0,-115.0,380.0,0.0,0.0,0.0
19:36:19.832000,-104.0,331.0,-339.0,-987.0,-163.0,366.0,0.0,0.0,0.0
19:36:19.837000,-75.0,329.0,-304.0,-987.0,-163.0,366.0,0.0,0.0,0.0
19:36:19.842000,-52.0,347.0,-324.0,-1021.0,-172.0,354.0,0.0,0.0,0.0
19:36:19.846000,-20.0,364.0,-346.0,-1021.0,-172.0,354.0,0.0,0.0,0.0
19:36:19.851000,6.0,365.0,-310.0,-1021.0,-172.0,354.0,0.0,0.0,0.0
19:36:19.856000,9.0,369.0,-277.0,-1023.0,-120.0,336.0,0.0,0.0,0.0
19:36:19.861000,-1.0,375.0,-228.0,-1023.0,-120.0,336.0,0.0,0.0,0.0
19:36:19.865000,-23.0,375.0,-204.0,-1018.0,-77.0,327.0,0.0,0.0,0.0
19:36:19.870000,-37.0,383.0,-179.0,-1018.0,-77.0,327.0,0.0,0.0,0.0
19:36:19.875000,-77.0,382.0,-133.0,-1007.0,-53.0,320.0,0.0,0.0,0.0
19:36:19.879000,-79.0,384.0,-126.0,-1007.0,-53.0,320.0,0.0,0.0,0.0
19:36:19.883000,-79.0,384.0,-126.0,-973.0,-45.0,310.0,0.0,0.0,0.0
19:36:19.889000,-102.0,378.0,-84.0,-973.0,-45.0,310.0,0.0,0.0,0.0
19:36:19.893000,-104.0,380.0,-74.0,-929.0,-72.0,317.0,0.0,0.0,0.0
19:36:19.898000,-104.0,380.0,-74.0,-929.0,-72.0,317.0,0.0,0.0,0.0
19:36:19.903000,-30.0,385.0,-61.0,-837.0,-219.0,338.0,0.0,0.0,0.0
19:36:19.908000,-42.0,323.0,95.0,-837.0,-219.0,338.0,0.0,0.0,0.0
19:36:19.912000,10.0,287.0,-182.0,-948.0,-102.0,354.0,0.0,0.0,0.0
19:36:19.917000,19.0,240.0,-484.0,-948.0,-102.0,354.0,0.0,0.0,0.0
19:36:19.922000,65.0,350.0,-493.0,-1049.0,-41.0,309.0,0.0,0.0,0.0
19:36:19.926000,166.0,332.0,-387.0,-1049.0,-41.0,309.0,0.0,0.0,0.0
19:36:19.931000,213.0,317.0,-240.0,-869.0,-233.0,270.0,0.0,0.0,0.0
19:36:19.936000,301.0,299.0,-200.0,-869.0,-233.0,270.0,0.0,0.0,0.0
19:36:19.940000,359.0,277.0,-224.0,-889.0,-177.0,287.0,0.0,0.0,0.0
19:36:19.945000,421.0,270.0,-219.0,-889.0,-177.0,287.0,0.0,0.0,0.0
19:36:19.950000,473.0,272.0,-212.0,-1067.0,-66.0,285.0,0.0,0.0,0.0
19:36:19.955000,519.0,279.0,-158.0,-1067.0,-66.0,285.0,0.0,0.0,0.0
19:36:19.959000,546.0,294.0,-74.0,-1067.0,-66.0,285.0,0.0,0.0,0.0
19:36:19.964000,549.0,310.0,1.0,-1102.0,12.0,282.0,0.0,0.0,0.0
19:36:19.969000,547.0,312.0,73.0,-1102.0,12.0,282.0,0.0,0.0,0.0
19:36:19.973000,554.0,330.0,149.0,-1093.0,54.0,291.0,0.0,0.0,0.0
