hh:mm:ss.ms,gyroX[mdps],gyroY[mdps],gyroZ[mdps],accX[mg],accY[mg],accZ[mg],magX[mG],magY[mG],magZ[mG]
19:45:33.850000,311.0,-68.0,157.0,-1538.0,130.0,-356.0,0.0,0.0,0.0
19:45:33.855000,230.0,-71.0,219.0,-1568.0,163.0,-357.0,0.0,0.0,0.0
19:45:33.860000,158.0,-49.0,611.0,-1568.0,163.0,-357.0,0.0,0.0,0.0
19:45:33.864000,107.0,-34.0,770.0,-1531.0,108.0,-358.0,0.0,0.0,0.0
19:45:33.869000,3.0,-22.0,585.0,-1531.0,108.0,-358.0,0.0,0.0,0.0
19:45:33.874000,-51.0,-21.0,492.0,-1553.0,43.0,-322.0,0.0,0.0,0.0
19:45:33.878000,-98.0,-59.0,333.0,-1553.0,43.0,-322.0,0.0,0.0,0.0
19:45:33.883000,-98.0,-59.0,333.0,-1507.0,85.0,-278.0,0.0,0.0,0.0
19:45:33.888000,-57.0,-86.0,194.0,-1507.0,85.0,-278.0,0.0,0.0,0.0
19:45:33.893000,105.0,-123.0,63.0,-1421.0,-66.0,-279.0,0.0,0.0,0.0
19:45:33.897000,107.0,-140.0,-354.0,-1421.0,-66.0,-279.0,0.0,0.0,0.0
19:45:33.902000,12.0,-80.0,-499.0,-1348.0,-220.0,-270.0,0.0,0.0,0.0
19:45:33.907000,-89.0,-112.0,-201.0,-1348.0,-220.0,-270.0,0.0,0.0,0.0
19:45:33.911000,-188.0,-77.0,-122.0,-1276.0,-55.0,-191.0,0.0,0.0,0.0
19:45:33.916000,-281.0,-91.0,-340.0,-1276.0,-55.0,-191.0,0.0,0.0,0.0
19:45:33.921000,-254.0,-104.0,-469.0,-1233.0,-212.0,-146.0,0.0,0.0,0.0
19:45:33.925000,-272.0,-146.0,-522.0,-1233.0,-212.0,-146.0,0.0,0.0,0.0
19:45:33.930000,-346.0,-184.0,-387.0,-1077.0,-511.0,-126.0,0.0,0.0,0.0
19:45:33.935000,-374.0,-211.0,-156.0,-1077.0,-511.0,-126.0,0.0,0.0,0.0
19:45:33.940000,-530.0,-222.0,-11.0,-848.0,-398.0,-61.0,0.0,0.0,0.0
19:45:33.944000,-614.0,-180.0,-84.0,-848.0,-398.0,-61.0,0.0,0.0,0.0
19:45:33.949000,-636.0,-120.0,-18.0,-705.0,-669.0,-39.0,0.0,0.0,0.0
19:45:33.954000,-345.0,-250.0,-20.0,-705.0,-669.0,-39.0,0.0,0.0,0.0
19:45:33.958000,-384.0,-225.0,96.0,-705.0,-669.0,-39.0,0.0,0.0,0.0
19:45:33.963000,-539.0,-193.0,313.0,-504.0,-1180.0,-31.0,0.0,0.0,0.0
19:45:33.968000,-519.0,-221.0,133.0,-504.0,-1180.0,-31.0,0.0,0.0,0.0
19:45:33.972000,-365.0,-194.0,-200.0,-264.0,-1088.0,34.0,0.0,0.0,0.0
19:45:33.977000,-256.0,-213.0,-385.0,-264.0,-1088.0,34.0,0.0,0.0,0.0
19:45:33.982000,-172.0,-147.0,-267.0,-242.0,-1281.0,42.0,0.0,0.0,0.0
19:45:33.986000,52.0,-184.0,44.0,-242.0,-1281.0,42.0,0.0,0.0,0.0
19:45:33.991000,52.0,-184.0,44.0,-383.0,-1361.0,53.0,0.0,0.0,0.0
19:45:33.996000,-131.0,-181.0,-301.0,-383.0,-1361.0,53.0,0.0,0.0,0.0
19:45:34.001000,-305.0,-105.0,-700.0,-356.0,-759.0,84.0,0.0,0.0,0.0
19:45:34.005000,-194.0,-100.0,-994.0,-356.0,-759.0,84.0,0.0,0.0,0.0
19:45:34.010000,-88.0,-58.0,-1051.0,-423.0,-788.0,43.0,0.0,0.0,0.0
19:45:34.015000,122.0,-107.0,-1111.0,-423.0,-788.0,43.0,0.0,0.0,0.0
19:45:34.019000,21.0,19.0,-1165.0,-736.0,-929.0,-23.0,0.0,0.0,0.0
19:45:34.024000,115.0,-16.0,-1001.0,-736.0,-929.0,-23.0,0.0,0.0,0.0
19:45:34.029000,102.0,-67.0,-712.0,-751.0,-660.0,-22.0,0.0,0.0,0.0
19:45:34.033000,-191.0,0.0,-935.0,-751.0,-660.0,-22.0,0.0,0.0,0.0
19:45:34.038000,-176.0,35.0,-965.0,-562.0,-570.0,-5.0,0.0,0.0,0.0
19:45:34.043000,-197.0,22.0,-583.0,-562.0,-570.0,-5.0,0.0,0.0,0.0
19:45:34.048000,-153.0,12.0,-452.0,-593.0,-580.0,-59.0,0.0,0.0,0.0
19:45:34.052000,-242.0,108.0,-509.0,-593.0,-580.0,-59.0,0.0,0.0,0.0
19:45:34.057000,-298.0,85.0,-520.0,-593.0,-580.0,-59.0,0.0,0.0,0.0
19:45:34.062000,-238.0,13.0,-441.0,-705.0,-521.0,-69.0,0.0,0.0,0.0
19:45:34.066000,-117.0,-37.0,-324.0,-705.0,-521.0,-69.0,0.0,0.0,0.0
19:45:34.071000,-13.0,-65.0,-257.0,-634.0,-597.0,-63.0,0.0,0.0,0.0
19:45:34.076000,30.0,-85.0,-137.0,-634.0,-597.0,-63.0,0.0,0.0,0.0
19:45:34.080000,-32.0,-49.0,-120.0,-594.0,-730.0,-76.0,0.0,0.0,0.0
19:45:34.085000,-105.0,0.0,-35.0,-594.0,-730.0,-76.0,0.0,0.0,0.0
19:45:34.090000,-192.0,55.0,25.0,-597.0,-668.0,-71.0,0.0,0.0,0.0
19:45:34.095000,-241.0,22.0,-150.0,-597.0,-668.0,-71.0,0.0,0.0,0.0
19:45:34.099000,-241.0,22.0,-150.0,-558.0,-653.0,-72.0,0.0,0.0,0.0
19:45:34.104000,-252.0,-4.0,-326.0,-558.0,-653.0,-72.0,0.0,0.0,0.0
19:45:34.109000,-204.0,0.0,-513.0,-590.0,-584.0,-88.0,0.0,0.0,0.0
19:45:34.113000,-179.0,-12.0,-533.0,-590.0,-584.0,-88.0,0.0,0.0,0.0
19:45:34.118000,-156.0,-22.0,-541.0,-610.0,-650.0,-101.0,0.0,0.0,0.0
19:45:34.123000,-180.0,-53.0,-592.0,-610.0,-650.0,-101.0,0.0,0.0,0.0
19:45:34.127000,-218.0,-72.0,-494.0,-644.0,-747.0,-94.0,0.0,0.0,0.0
19:45:34.132000,-270.0,-40.0,-407.0,-644.0,-747.0,-94.0,0.0,0.0,0.0
19:45:34.137000,-323.0,-38.0,-441.0,-753.0,-660.0,-91.0,0.0,0.0,0.0
19:45:34.142000,-301.0,-37.0,-560.0,-753.0,-660.0,-91.0,0.0,0.0,0.0
19:45:34.146000,-170.0,-82.0,-604.0,-767.0,-636.0,-109.0,0.0,0.0,0.0
19:45:34.151000,-123.0,-118.0,-660.0,-767.0,-636.0,-109.0,0.0,0.0,0.0
19:45:34.156000,-110.0,-133.0,-658.0,-769.0,-677.0,-116.0,0.0,0.0,0.0
19:45:34.160000,-202.0,-141.0,-697.0,-769.0,-677.0,-116.0,0.0,0.0,0.0
19:45:34.165000,-242.0,-118.0,-613.0,-769.0,-677.0,-116.0,0.0,0.0,0.0
19:45:34.170000,-202.0,-158.0,-629.0,-753.0,-677.0,-95.0,0.0,0.0,0.0
19:45:34.174000,-247.0,-153.0,-694.0,-753.0,-677.0,-95.0,0.0,0.0,0.0
19:45:34.179000,-262.0,-97.0,-597.0,-661.0,-647.0,-75.0,0.0,0.0,0.0
19:45:34.184000,-265.0,-85.0,-520.0,-661.0,-647.0,-75.0,0.0,0.0,0.0
19:45:34.189000,-208.0,-67.0,-583.0,-733.0,-643.0,-86.0,0.0,0.0,0.0
19:45:34.193000,-72.0,-65.0,-730.0,-733.0,-643.0,-86.0,0.0,0.0,0.0
19:45:34.198000,-4.0,-78.0,-611.0,-877.0,-673.0,-114.0,0.0,0.0,0.0
19:45:34.203000,-45.0,-58.0,-445.0,-877.0,-673.0,-114.0,0.0,0.0,0.0
19:45:34.207000,-45.0,-58.0,-445.0,-949.0,-705.0,-128.0,0.0,0.0,0.0
19:45:34.212000,-41.0,-42.0,-401.0,-949.0,-705.0,-128.0,0.0,0.0,0.0
19:45:34.217000,-32.0,-29.0,-466.0,-872.0,-576.0,-119.0,0.0,0.0,0.0
19:45:34.221000,12.0,-5.0,-541.0,-872.0,-576.0,-119.0,0.0,0.0,0.0
19:45:34.226000,86.0,-21.0,-590.0,-781.0,-590.0,-104.0,0.0,0.0,0.0
19:45:34.231000,112.0,-28.0,-652.0,-781.0,-590.0,-104.0,0.0,0.0,0.0
19:45:34.236000,31.0,16.0,-661.0,-804.0,-643.0,-107.0,0.0,0.0,0.0
19:45:34.240000,20.0,37.0,-572.0,-804.0,-643.0,-107.0,0.0,0.0,0.0
19:45:34.245000,-68.0,42.0,-522.0,-914.0,-546.0,-112.0,0.0,0.0,0.0
19:45:34.250000,-139.0,75.0,-492.0,-914.0,-546.0,-112.0,0.0,0.0,0.0
19:45:34.254000,-160.0,77.0,-434.0,-910.0,-495.0,-114.0,0.0,0.0,0.0
19:45:34.259000,-113.0,51.0,-424.0,-910.0,-495.0,-114.0,0.0,0.0,0.0
19:45:34.264000,-92.0,58.0,-483.0,-808.0,-501.0,-114.0,0.0,0.0,0.0
19:45:34.268000,-21.0,65.0,-605.0,-808.0,-501.0,-114.0,0.0,0.0,0.0
19:45:34.273000,-14.0,72.0,-673.0,-808.0,-501.0,-114.0,0.0,0.0,0.0
19:45:34.278000,-23.0,76.0,-616.0,-829.0,-577.0,-100.0,0.0,0.0,0.0
19:45:34.283000,6.0,83.0,-534.0,-829.0,-577.0,-100.0,0.0,0.0,0.0
19:45:34.287000,4.0,110.0,-483.0,-885.0,-635.0,-99.0,0.0,0.0,0.0
19:45:34.292000,-11.0,131.0,-471.0,-885.0,-635.0,-99.0,0.0,0.0,0.0
19:45:34.297000,32.0,139.0,-527.0,-909.0,-568.0,-112.0,0.0,0.0,0.0
19:45:34.301000,82.0,133.0,-574.0,-909.0,-568.0,-112.0,0.0,0.0,0.0
19:45:34.306000,63.0,130.0,-581.0,-890.0,-505.0,-106.0,0.0,0.0,0.0
19:45:34.311000,42.0,139.0,-599.0,-890.0,-505.0,-106.0,0.0,0.0,0.0
19:45:34.315000,47.0,147.0,-664.0,-882.0,-517.0,-100.0,0.0,0.0,0.0
19:45:34.320000,47.0,147.0,-664.0,-882.0,-517.0,-100.0,0.0,0.0,0.0
19:45:34.325000,39.0,179.0,-690.0,-899.0,-564.0,-121.0,0.0,0.0,0.0
19:45:34.330000,57.0,215.0,-638.0,-899.0,-564.0,-121.0,0.0,0.0,0.0
19:45:34.334000,83.0,198.0,-613.0,-906.0,-600.0,-126.0,0.0,0.0,0.0
19:45:34.339000,56.0,189.0,-506.0,-906.0,-600.0,-126.0,0.0,0.0,0.0
19:45:34.344000,23.0,214.0,-368.0,-868.0,-473.0,-111.0,0.0,0.0,0.0
19:45:34.348000,48.0,252.0,-344.0,-868.0,-473.0,-111.0,0.0,0.0,0.0
19:45:34.353000,86.0,249.0,-399.0,-880.0,-386.0,-102.0,0.0,0.0,0.0
19:45:34.358000,103.0,244.0,-526.0,-880.0,-386.0,-102.0,0.0,0.0,0.0
19:45:34.362000,127.0,252.0,-634.0,-922.0,-442.0,-98.0,0.0,0.0,0.0
19:45:34.367000,116.0,273.0,-685.0,-922.0,-442.0,-98.0,0.0,0.0,0.0
19:45:34.372000,114.0,273.0,-732.0,-899.0,-475.0,-105.0,0.0,0.0,0.0
19:45:34.377000,89.0,291.0,-668.0,-899.0,-475.0,-105.0,0.0,0.0,0.0
19:45:34.381000,114.0,290.0,-532.0,-899.0,-475.0,-105.0,0.0,0.0,0.0
19:45:34.386000,124.0,296.0,-483.0,-836.0,-425.0,-110.0,0.0,0.0,0.0
19:45:34.391000,133.0,294.0,-567.0,-836.0,-425.0,-110.0,0.0,0.0,0.0
19:45:34.395000,129.0,294.0,-638.0,-838.0,-312.0,-106.0,0.0,0.0,0.0
19:45:34.400000,135.0,289.0,-592.0,-838.0,-312.0,-106.0,0.0,0.0,0.0
19:45:34.405000,118.0,295.0,-546.0,-898.0,-310.0,-101.0,0.0,0.0,0.0
19:45:34.409000,105.0,312.0,-560.0,-898.0,-310.0,-101.0,0.0,0.0,0.0
19:45:34.414000,102.0,314.0,-579.0,-919.0,-301.0,-108.0,0.0,0.0,0.0
19:45:34.419000,105.0,293.0,-574.0,-919.0,-301.0,-108.0,0.0,0.0,0.0
19:45:34.424000,114.0,270.0,-570.0,-925.0,-259.0,-110.0,0.0,0.0,0.0
19:45:34.428000,114.0,270.0,-570.0,-925.0,-259.0,-110.0,0.0,0.0,0.0
19:45:34.433000,106.0,268.0,-511.0,-898.0,-323.0,-116.0,0.0,0.0,0.0
19:45:34.438000,121.0,242.0,-403.0,-898.0,-323.0,-116.0,0.0,0.0,0.0
19:45:34.442000,137.0,217.0,-406.0,-856.0,-329.0,-126.0,0.0,0.0,0.0
19:45:34.447000,107.0,207.0,-434.0,-856.0,-329.0,-126.0,0.0,0.0,0.0
19:45:34.452000,84.0,190.0,-351.0,-814.0,-311.0,-119.0,0.0,0.0,0.0
19:45:34.456000,52.0,180.0,-207.0,-814.0,-311.0,-119.0,0.0,0.0,0.0
19:45:34.461000,22.0,183.0,-196.0,-826.0,-290.0,-123.0,0.0,0.0,0.0
19:45:34.466000,35.0,187.0,-308.0,-826.0,-290.0,-123.0,0.0,0.0,0.0
19:45:34.471000,45.0,179.0,-330.0,-851.0,-260.0,-137.0,0.0,0.0,0.0
19:45:34.475000,27.0,163.0,-256.0,-851.0,-260.0,-137.0,0.0,0.0,0.0
19:45:34.480000,9.0,145.0,-254.0,-850.0,-223.0,-136.0,0.0,0.0,0.0
19:45:34.485000,1.0,142.0,-351.0,-850.0,-223.0,-136.0,0.0,0.0,0.0
19:45:34.489000,-10.0,153.0,-414.0,-850.0,-223.0,-136.0,0.0,0.0,0.0
19:45:34.494000,-17.0,161.0,-414.0,-875.0,-192.0,-146.0,0.0,0.0,0.0
19:45:34.499000,-14.0,175.0,-380.0,-875.0,-192.0,-146.0,0.0,0.0,0.0
19:45:34.503000,36.0,169.0,-354.0,-911.0,-270.0,-162.0,0.0,0.0,0.0
19:45:34.508000,60.0,158.0,-346.0,-911.0,-270.0,-162.0,0.0,0.0,0.0
19:45:34.513000,54.0,140.0,-374.0,-941.0,-301.0,-157.0,0.0,0.0,0.0
19:45:34.518000,22.0,133.0,-397.0,-941.0,-301.0,-157.0,0.0,0.0,0.0
19:45:34.522000,16.0,118.0,-427.0,-911.0,-243.0,-146.0,0.0,0.0,0.0
19:45:34.527000,-14.0,88.0,-454.0,-911.0,-243.0,-146.0,0.0,0.0,0.0
19:45:34.532000,-26.0,89.0,-438.0,-886.0,-256.0,-154.0,0.0,0.0,0.0
19:45:34.536000,-26.0,89.0,-438.0,-886.0,-256.0,-154.0,0.0,0.0,0.0
19:45:34.541000,-16.0,57.0,-451.0,-930.0,-257.0,-172.0,0.0,0.0,0.0
19:45:34.546000,-25.0,37.0,-483.0,-930.0,-257.0,-172.0,0.0,0.0,0.0
19:45:34.550000,7.0,14.0,-530.0,-957.0,-193.0,-196.0,0.0,0.0,0.0
19:45:34.555000,23.0,-25.0,-605.0,-957.0,-193.0,-196.0,0.0,0.0,0.0
19:45:34.560000,-22.0,-9.0,-616.0,-935.0,-170.0,-209.0,0.0,0.0,0.0
19:45:34.565000,-10.0,-32.0,-677.0,-935.0,-170.0,-209.0,0.0,0.0,0.0
19:45:34.569000,-76.0,-22.0,-654.0,-931.0,-285.0,-206.0,0.0,0.0,0.0
19:45:34.574000,-58.0,-29.0,-513.0,-931.0,-285.0,-206.0,0.0,0.0,0.0
19:45:34.579000,-58.0,-28.0,-490.0,-975.0,-267.0,-211.0,0.0,0.0,0.0
19:45:34.583000,-49.0,-35.0,-579.0,-975.0,-267.0,-211.0,0.0,0.0,0.0
19:45:34.588000,-67.0,-44.0,-569.0,-984.0,-169.0,-204.0,0.0,0.0,0.0
19:45:34.593000,-65.0,-51.0,-501.0,-984.0,-169.0,-204.0,0.0,0.0,0.0
19:45:34.597000,-35.0,-60.0,-485.0,-984.0,-260.0,-204.0,0.0,0.0,0.0
19:45:34.602000,6.0,-79.0,-501.0,-934.0,-260.0,-204.0,0.0,0.0,0.0
19:45:34.607000,37.0,-109.0,-476.0,-934.0,-260.0,-204.0,0.0,0.0,0.0
19:45:34.612000,54.0,-130.0,-431.0,-889.0,-282.0,-215.0,0.0,0.0,0.0
19:45:34.616000,61.0,-139.0,-403.0,-889.0,-282.0,-215.0,0.0,0.0,0.0
19:45:34.621000,79.0,-146.0,-406.0,-874.0,-201.0,-218.0,0.0,0.0,0.0
19:45:34.626000,96.0,-144.0,-415.0,-874.0,-201.0,-218.0,0.0,0.0,0.0
19:45:34.630000,112.0,-139.0,-422.0,-904.0,-152.0,-221.0,0.0,0.0,0.0
19:45:34.635000,120.0,-135.0,-417.0,-904.0,-152.0,-221.0,0.0,0.0,0.0
19:45:34.640000,119.0,-133.0,-401.0,-937.0,-137.0,-216.0,0.0,0.0,0.0
19:45:34.644000,119.0,-133.0,-401.0,-937.0,-137.0,-216.0,0.0,0.0,0.0
19:45:34.649000,119.0,-118.0,-375.0,-938.0,-115.0,-207.0,0.0,0.0,0.0
19:45:34.654000,114.0,-99.0,-329.0,-938.0,-115.0,-207.0,0.0,0.0,0.0
19:45:34.659000,95.0,-86.0,-270.0,-961.0,-102.0,-197.0,0.0,0.0,0.0
19:45:34.663000,89.0,-72.0,-240.0,-961.0,-102.0,-197.0,0.0,0.0,0.0
19:45:34.668000,77.0,-52.0,-222.0,-1014.0,-112.0,-188.0,0.0,0.0,0.0
19:45:34.673000,51.0,-30.0,-196.0,-1014.0,-112.0,-188.0,0.0,0.0,0.0
19:45:34.677000,28.0,-15.0,-238.0,-1038.0,-107.0,-180.0,0.0,0.0,0.0
19:45:34.682000,4.0,-8.0,-263.0,-1038.0,-107.0,-180.0,0.0,0.0,0.0
19:45:34.687000,-14.0,3.0,-203.0,-997.0,-86.0,-175.0,0.0,0.0,0.0
19:45:34.691000,-41.0,18.0,-124.0,-997.0,-86.0,-175.0,0.0,0.0,0.0
19:45:34.696000,-60.0,37.0,-107.0,-1004.0,-82.0,-177.0,0.0,0.0,0.0
19:45:34.701000,-56.0,49.0,-135.0,-1004.0,-82.0,-177.0,0.0,0.0,0.0
19:45:34.706000,-42.0,59.0,-168.0,-1083.0,-114.0,-177.0,0.0,0.0,0.0
19:45:34.710000,-33.0,65.0,-233.0,-1083.0,-114.0,-177.0,0.0,0.0,0.0
19:45:34.715000,-23.0,70.0,-313.0,-1083.0,-114.0,-177.0,0.0,0.0,0.0
19:45:34.720000,-14.0,79.0,-378.0,-1127.0,-165.0,-174.0,0.0,0.0,0.0
19:45:34.724000,-2.0,85.0,-415.0,-1127.0,-165.0,-174.0,0.0,0.0,0.0
19:45:34.729000,13.0,81.0,-417.0,-1091.0,-193.0,-167.0,0.0,0.0,0.0
19:45:34.734000,37.0,78.0,-386.0,-1091.0,-193.0,-167.0,0.0,0.0,0.0
19:45:34.738000,66.0,77.0,-346.0,-1019.0,-229.0,-168.0,0.0,0.0,0.0
19:45:34.743000,90.0,79.0,-343.0,-1019.0,-229.0,-168.0,0.0,0.0,0.0
19:45:34.748000,98.0,75.0,-384.0,-1015.0,-237.0,-172.0,0.0,0.0,0.0
19:45:34.753000,87.0,79.0,-449.0,-1015.0,-237.0,-172.0,0.0,0.0,0.0
19:45:34.757000,87.0,79.0,-449.0,-1040.0,-217.0,-176.0,0.0,0.0,0.0
19:45:34.762000,95.0,82.0,-520.0,-1040.0,-217.0,-176.0,0.0,0.0,0.0
19:45:34.767000,113.0,79.0,-521.0,-993.0,-239.0,-192.0,0.0,0.0,0.0
19:45:34.771000,133.0,67.0,-490.0,-993.0,-239.0,-192.0,0.0,0.0,0.0
19:45:34.776000,157.0,57.0,-466.0,-949.0,-234.0,-209.0,0.0,0.0,0.0
19:45:34.781000,179.0,51.0,-443.0,-949.0,-234.0,-209.0,0.0,0.0,0.0
19:45:34.785000,202.0,47.0,-458.0,-975.0,-186.0,-231.0,0.0,0.0,0.0
19:45:34.790000,219.0,40.0,-489.0,-975.0,-186.0,-231.0,0.0,0.0,0.0
19:45:34.795000,228.0,31.0,-485.0,-972.0,-161.0,-242.0,0.0,0.0,0.0
19:45:34.800000,235.0,16.0,-464.0,-972.0,-161.0,-242.0,0.0,0.0,0.0
19:45:34.804000,245.0,-3.0,-473.0,-918.0,-127.0,-249.0,0.0,0.0,0.0
19:45:34.809000,246.0,-18.0,-491.0,-918.0,-127.0,-249.0,0.0,0.0,0.0
19:45:34.814000,240.0,-37.0,-485.0,-843.0,-75.0,-244.0,0.0,0.0,0.0
19:45:34.818000,232.0,-60.0,-469.0,-843.0,-75.0,-244.0,0.0,0.0,0.0
19:45:34.823000,226.0,-81.0,-475.0,-843.0,-75.0,-244.0,0.0,0.0,0.0
19:45:34.828000,217.0,-93.0,-487.0,-824.0,-10.0,-250.0,0.0,0.0,0.0
19:45:34.832000,205.0,-115.0,-476.0,-824.0,-10.0,-250.0,0.0,0.0,0.0
19:45:34.837000,192.0,-143.0,-452.0,-809.0,84.0,-200.0,0.0,0.0,0.0
19:45:34.842000,169.0,-150.0,-442.0,-809.0,84.0,-200.0,0.0,0.0,0.0
19:45:34.847000,144.0,-149.0,-445.0,-843.0,153.0,-130.0,0.0,0.0,0.0
19:45:34.851000,133.0,-156.0,-455.0,-843.0,153.0,-130.0,0.0,0.0,0.0
19:45:34.856000,116.0,-147.0,-470.0,-955.0,184.0,-76.0,0.0,0.0,0.0
19:45:34.861000,84.0,-115.0,-484.0,-955.0,184.0,-76.0,0.0,0.0,0.0
19:45:34.865000,84.0,-115.0,-484.0,-1131.0,200.0,-73.0,0.0,0.0,0.0
19:45:34.870000,36.0,-85.0,-481.0,-1131.0,200.0,-73.0,0.0,0.0,0.0
19:45:34.875000,-16.0,-75.0,-476.0,-1317.0,219.0,-83.0,0.0,0.0,0.0
19:45:34.879000,-82.0,-59.0,-469.0,-1317.0,219.0,-83.0,0.0,0.0,0.0
19:45:34.884000,-148.0,-42.0,-446.0,-1371.0,213.0,-25.0,0.0,0.0,0.0
19:45:34.889000,-196.0,-16.0,-410.0,-1371.0,213.0,-25.0,0.0,0.0,0.0
19:45:34.894000,-231.0,18.0,-385.0,-1361.0,137.0,-7.0,0.0,0.0,0.0
19:45:34.898000,-245.0,67.0,-393.0,-1361.0,137.0,-7.0,0.0,0.0,0.0
19:45:34.903000,-269.0,128.0,-429.0,-1382.0,64.0,-34.0,0.0,0.0,0.0
19:45:34.908000,-290.0,182.0,-455.0,-1382.0,64.0,-34.0,0.0,0.0,0.0
19:45:34.912000,-307.0,240.0,-464.0,-1431.0,-1.0,-100.0,0.0,0.0,0.0
19:45:34.917000,-324.0,296.0,-470.0,-1431.0,-1.0,-100.0,0.0,0.0,0.0
19:45:34.922000,-336.0,340.0,-480.0,-1406.0,-83.0,-165.0,0.0,0.0,0.0
19:45:34.926000,-336.0,364.0,-490.0,-1406.0,-83.0,-165.0,0.0,0.0,0.0
19:45:34.931000,-336.0,385.0,-494.0,-1406.0,-83.0,-165.0,0.0,0.0,0.0
19:45:34.936000,-327.0,403.0,-506.0,-1258.0,-118.0,-188.0,0.0,0.0,0.0
19:45:34.941000,-296.0,412.0,-526.0,-1258.0,-118.0,-188.0,0.0,0.0,0.0
19:45:34.945000,-252.0,411.0,-567.0,-1080.0,-120.0,-208.0,0.0,0.0,0.0
19:45:34.950000,-209.0,401.0,-623.0,-1080.0,-120.0,-208.0,0.0,0.0,0.0
19:45:34.955000,-152.0,376.0,-678.0,-977.0,-115.0,-245.0,0.0,0.0,0.0
19:45:34.959000,-77.0,341.0,-705.0,-977.0,-115.0,-245.0,0.0,0.0,0.0
19:45:34.964000,-3.0,310.0,-718.0,-900.0,-154.0,-255.0,0.0,0.0,0.0
19:45:34.969000,58.0,280.0,-720.0,-900.0,-154.0,-255.0,0.0,0.0,0.0
19:45:34.973000,58.0,280.0,-720.0,-859.0,-168.0,-258.0,0.0,0.0,0.0
19:45:34.978000,110.0,250.0,-689.0,-859.0,-168.0,-258.0,0.0,0.0,0.0
19:45:34.983000,154.0,219.0,-647.0,-906.0,-63.0,-278.0,0.0,0.0,0.0
19:45:34.988000,196.0,187.0,-621.0,-906.0,-63.0,-278.0,0.0,0.0,0.0
19:45:34.992000,224.0,157.0,-621.0,-966.0,44.0,-292.0,0.0,0.0,0.0
19:45:34.996000,238.0,134.0,-609.0,-966.0,44.0,-292.0,0.0,0.0,0.0
19:45:35.002000,242.0,114.0,-544.0,-970.0,111.0,-297.0,0.0,0.0,0.0
19:45:35.006000,249.0,90.0,-475.0,-970.0,111.0,-297.0,0.0,0.0,0.0
19:45:35.011000,254.0,66.0,-451.0,-971.0,212.0,-303.0,0.0,0.0,0.0
19:45:35.016000,237.0,51.0,-450.0,-971.0,212.0,-303.0,0.0,0.0,0.0
19:45:35.020000,207.0,37.0,-425.0,-993.0,316.0,-300.0,0.0,0.0,0.0
19:45:35.025000,179.0,25.0,-368.0,-993.0,316.0,-300.0,0.0,0.0,0.0
19:45:35.030000,143.0,19.0,-315.0,-1040.0,330.0,-293.0,0.0,0.0,0.0
19:45:35.035000,103.0,18.0,-267.0,-1040.0,330.0,-293.0,0.0,0.0,0.0
19:45:35.039000,70.0,16.0,-218.0,-1040.0,330.0,-293.0,0.0,0.0,0.0
19:45:35.044000,31.0,14.0,-177.0,-1063.0,299.0,-285.0,0.0,0.0,0.0
19:45:35.049000,-3.0,21.0,-148.0,-973.0,294.0,-272.0,0.0,0.0,0.0
19:45:35.053000,-27.0,29.0,-168.0,-973.0,294.0,-272.0,0.0,0.0,0.0
19:45:35.058000,-25.0,30.0,-285.0,-973.0,294.0,-272.0,0.0,0.0,0.0
19:45:35.063000,-23.0,52.0,-449.0,-932.0,314.0,-266.0,0.0,0.0,0.0
19:45:35.067000,-43.0,86.0,-437.0,-932.0,314.0,-266.0,0.0,0.0,0.0
19:45:35.072000,-57.0,105.0,-417.0,-951.0,247.0,-272.0,0.0,0.0,0.0
19:45:35.077000,-62.0,117.0,-469.0,-951.0,247.0,-272.0,0.0,0.0,0.0
19:45:35.082000,-79.0,117.0,-469.0,-1033.0,188.0,-280.0,0.0,0.0,0.0
19:45:35.086000,-79.0,128.0,-508.0,-1033.0,188.0,-280.0,0.0,0.0,0.0
19:45:35.091000,-103.0,144.0,-502.0,-1077.0,225.0,-280.0,0.0,0.0,0.0
19:45:35.096000,-126.0,145.0,-480.0,-1077.0,225.0,-280.0,0.0,0.0,0.0
19:45:35.100000,-154.0,138.0,-444.0,-936.0,297.0,-268.0,0.0,0.0,0.0
19:45:35.105000,-182.0,119.0,-434.0,-936.0,297.0,-268.0,0.0,0.0,0.0
19:45:35.109000,-205.0,93.0,-422.0,-818.0,377.0,-254.0,0.0,0.0,0.0
19:45:35.114000,-221.0,61.0,-366.0,-818.0,377.0,-254.0,0.0,0.0,0.0
19:45:35.119000,-233.0,25.0,-287.0,-767.0,376.0,-248.0,0.0,0.0,0.0
19:45:35.124000,-246.0,-12.0,-231.0,-767.0,376.0,-248.0,0.0,0.0,0.0
19:45:35.129000,-254.0,-48.0,-171.0,-764.0,369.0,-254.0,0.0,0.0,0.0
19:45:35.133000,-252.0,-93.0,-131.0,-764.0,369.0,-254.0,0.0,0.0,0.0
19:45:35.138000,-263.0,-136.0,-98.0,-778.0,416.0,-256.0,0.0,0.0,0.0
19:45:35.143000,-270.0,-182.0,-51.0,-778.0,416.0,-256.0,0.0,0.0,0.0
19:45:35.147000,-265.0,-226.0,0.0,-778.0,416.0,-256.0,0.0,0.0,0.0
19:45:35.152000,-268.0,-258.0,58.0,-782.0,443.0,-251.0,0.0,0.0,0.0
19:45:35.157000,-261.0,-289.0,99.0,-782.0,443.0,-251.0,0.0,0.0,0.0
19:45:35.161000,-252.0,-306.0,147.0,-816.0,420.0,-251.0,0.0,0.0,0.0
19:45:35.166000,-236.0,-321.0,178.0,-816.0,420.0,-251.0,0.0,0.0,0.0
19:45:35.171000,-229.0,-331.0,244.0,-870.0,368.0,-244.0,0.0,0.0,0.0
19:45:35.176000,-223.0,-332.0,327.0,-870.0,368.0,-244.0,0.0,0.0,0.0
19:45:35.180000,-214.0,-321.0,375.0,-899.0,304.0,-225.0,0.0,0.0,0.0
19:45:35.185000,-211.0,-307.0,409.0,-899.0,304.0,-225.0,0.0,0.0,0.0
19:45:35.190000,-208.0,-287.0,449.0,-898.0,238.0,-197.0,0.0,0.0,0.0
19:45:35.194000,-208.0,-287.0,449.0,-898.0,238.0,-197.0,0.0,0.0,0.0
19:45:35.199000,-205.0,-263.0,463.0,-882.0,198.0,-167.0,0.0,0.0,0.0
19:45:35.204000,-205.0,-238.0,474.0,-882.0,198.0,-167.0,0.0,0.0,0.0
19:45:35.208000,-201.0,-217.0,497.0,-838.0,144.0,-140.0,0.0,0.0,0.0
19:45:35.213000,-193.0,-201.0,511.0,-838.0,144.0,-140.0,0.0,0.0,0.0
19:45:35.218000,-180.0,-182.0,518.0,-782.0,88.0,-123.0,0.0,0.0,0.0
19:45:35.223000,-172.0,-163.0,520.0,-782.0,88.0,-123.0,0.0,0.0,0.0
19:45:35.227000,-163.0,-142.0,515.0,-733.0,86.0,-114.0,0.0,0.0,0.0
19:45:35.232000,-155.0,-124.0,499.0,-733.0,86.0,-114.0,0.0,0.0,0.0
19:45:35.237000,-148.0,-105.0,471.0,-699.0,121.0,-113.0,0.0,0.0,0.0
19:45:35.241000,-141.0,-89.0,436.0,-699.0,121.0,-113.0,0.0,0.0,0.0
19:45:35.246000,-133.0,-78.0,399.0,-688.0,151.0,-115.0,0.0,0.0,0.0
19:45:35.251000,-124.0,-72.0,361.0,-688.0,151.0,-115.0,0.0,0.0,0.0
19:45:35.255000,-112.0,-70.0,325.0,-688.0,151.0,-115.0,0.0,0.0,0.0
19:45:35.260000,-94.0,-77.0,298.0,-676.0,155.0,-113.0,0.0,0.0,0.0
19:45:35.265000,-72.0,-91.0,286.0,-676.0,155.0,-113.0,0.0,0.0,0.0
19:45:35.270000,-46.0,-108.0,287.0,-627.0,126.0,-107.0,0.0,0.0,0.0
19:45:35.274000,-17.0,-129.0,299.0,-627.0,126.0,-107.0,0.0,0.0,0.0
19:45:35.279000,11.0,-152.0,315.0,-566.0,91.0,-103.0,0.0,0.0,0.0
19:45:35.284000,42.0,-175.0,329.0,-566.0,91.0,-103.0,0.0,0.0,0.0
19:45:35.288000,68.0,-196.0,345.0,-553.0,82.0,-103.0,0.0,0.0,0.0
19:45:35.293000,95.0,-210.0,364.0,-553.0,82.0,-103.0,0.0,0.0,0.0
19:45:35.298000,119.0,-219.0,382.0,-587.0,77.0,-108.0,0.0,0.0,0.0
19:45:35.302000,119.0,-219.0,382.0,-587.0,77.0,-108.0,0.0,0.0,0.0
19:45:35.307000,138.0,-224.0,398.0,-639.0,72.0,-120.0,0.0,0.0,0.0
19:45:35.312000,155.0,-221.0,413.0,-639.0,72.0,-120.0,0.0,0.0,0.0
19:45:35.317000,167.0,-211.0,422.0,-700.0,83.0,-130.0,0.0,0.0,0.0
19:45:35.321000,173.0,-199.0,435.0,-700.0,83.0,-130.0,0.0,0.0,0.0
19:45:35.326000,174.0,-184.0,454.0,-741.0,86.0,-134.0,0.0,0.0,0.0
19:45:35.331000,171.0,-167.0,478.0,-741.0,86.0,-134.0,0.0,0.0,0.0
19:45:35.335000,162.0,-147.0,501.0,-744.0,78.0,-130.0,0.0,0.0,0.0
19:45:35.340000,150.0,-128.0,527.0,-744.0,78.0,-130.0,0.0,0.0,0.0
19:45:35.345000,135.0,-109.0,546.0,-727.0,74.0,-120.0,0.0,0.0,0.0
19:45:35.349000,121.0,-95.0,555.0,-727.0,74.0,-120.0,0.0,0.0,0.0
19:45:35.354000,106.0,-78.0,564.0,-691.0,60.0,-109.0,0.0,0.0,0.0
19:45:35.359000,92.0,-67.0,576.0,-691.0,60.0,-109.0,0.0,0.0,0.0
19:45:35.364000,80.0,-58.0,578.0,-691.0,60.0,-109.0,0.0,0.0,0.0
19:45:35.368000,70.0,-48.0,568.0,-639.0,32.0,-103.0,0.0,0.0,0.0
19:45:35.373000,60.0,-38.0,551.0,-639.0,32.0,-103.0,0.0,0.0,0.0
19:45:35.378000,50.0,-23.0,532.0,-588.0,9.0,-104.0,0.0,0.0,0.0
19:45:35.382000,44.0,-11.0,507.0,-588.0,9.0,-104.0,0.0,0.0,0.0
19:45:35.387000,35.0,2.0,482.0,-554.0,-5.0,-113.0,0.0,0.0,0.0
19:45:35.392000,28.0,14.0,466.0,-554.0,-5.0,-113.0,0.0,0.0,0.0
19:45:35.396000,22.0,24.0,452.0,-536.0,-23.0,-121.0,0.0,0.0,0.0
19:45:35.401000,22.0,24.0,452.0,-536.0,-23.0,-121.0,0.0,0.0,0.0
19:45:35.406000,15.0,38.0,420.0,-518.0,-41.0,-123.0,0.0,0.0,0.0
19:45:35.411000,15.0,38.0,420.0,-518.0,-41.0,-123.0,0.0,0.0,0.0
19:45:35.415000,13.0,45.0,400.0,-500.0,-54.0,-124.0,0.0,0.0,0.0
19:45:35.420000,14.0,52.0,377.0,-500.0,-54.0,-124.0,0.0,0.0,0.0
19:45:35.425000,16.0,58.0,352.0,-487.0,-73.0,-125.0,0.0,0.0,0.0
19:45:35.429000,21.0,61.0,326.0,-487.0,-73.0,-125.0,0.0,0.0,0.0
19:45:35.434000,27.0,64.0,298.0,-479.0,-88.0,-129.0,0.0,0.0,0.0
19:45:35.439000,32.0,64.0,264.0,-479.0,-88.0,-129.0,0.0,0.0,0.0
19:45:35.443000,36.0,63.0,234.0,-483.0,-87.0,-136.0,0.0,0.0,0.0
19:45:35.448000,41.0,58.0,210.0,-483.0,-87.0,-136.0,0.0,0.0,0.0
19:45:35.453000,44.0,51.0,191.0,-490.0,-87.0,-139.0,0.0,0.0,0.0
19:45:35.458000,46.0,42.0,175.0,-490.0,-87.0,-139.0,0.0,0.0,0.0
19:45:35.462000,47.0,31.0,161.0,-490.0,-85.0,-139.0,0.0,0.0,0.0
19:45:35.467000,44.0,21.0,150.0,-490.0,-85.0,-139.0,0.0,0.0,0.0
19:45:35.472000,37.0,9.0,144.0,-506.0,-62.0,-136.0,0.0,0.0,0.0
19:45:35.476000,24.0,-3.0,147.0,-506.0,-62.0,-136.0,0.0,0.0,0.0
19:45:35.481000,11.0,-15.0,161.0,-506.0,-62.0,-136.0,0.0,0.0,0.0
19:45:35.486000,0.0,-28.0,175.0,-541.0,-50.0,-131.0,0.0,0.0,0.0
19:45:35.490000,-13.0,-43.0,187.0,-541.0,-50.0,-131.0,0.0,0.0,0.0
19:45:35.495000,-23.0,-56.0,200.0,-564.0,-63.0,-125.0,0.0,0.0,0.0
19:45:35.500000,-30.0,-70.0,208.0,-564.0,-63.0,-125.0,0.0,0.0,0.0
19:45:35.505000,-35.0,-81.0,210.0,-561.0,-84.0,-116.0,0.0,0.0,0.0
19:45:35.509000,-35.0,-95.0,202.0,-561.0,-84.0,-116.0,0.0,0.0,0.0
19:45:35.514000,-31.0,-107.0,183.0,-544.0,-101.0,-104.0,0.0,0.0,0.0
19:45:35.519000,-23.0,-114.0,161.0,-544.0,-101.0,-104.0,0.0,0.0,0.0
19:45:35.523000,-23.0,-114.0,161.0,-540.0,-115.0,-98.0,0.0,0.0,0.0
19:45:35.528000,-14.0,-119.0,142.0,-540.0,-115.0,-98.0,0.0,0.0,0.0
19:45:35.533000,-4.0,-123.0,125.0,-572.0,-128.0,-97.0,0.0,0.0,0.0
19:45:35.537000,6.0,-128.0,104.0,-572.0,-128.0,-97.0,0.0,0.0,0.0
19:45:35.542000,19.0,-133.0,83.0,-605.0,-135.0,-98.0,0.0,0.0,0.0
19:45:35.547000,35.0,-137.0,66.0,-605.0,-135.0,-98.0,0.0,0.0,0.0
19:45:35.552000,52.0,-141.0,46.0,-610.0,-131.0,-101.0,0.0,0.0,0.0
19:45:35.556000,68.0,-145.0,25.0,-610.0,-131.0,-101.0,0.0,0.0,0.0
19:45:35.561000,82.0,-149.0,9.0,-610.0,-110.0,-102.0,0.0,0.0,0.0
19:45:35.566000,97.0,-149.0,-1.0,-610.0,-110.0,-102.0,0.0,0.0,0.0
19:45:35.570000,112.0,-147.0,-4.0,-611.0,-89.0,-108.0,0.0,0.0,0.0
19:45:35.575000,126.0,-142.0,-11.0,-611.0,-89.0,-108.0,0.0,0.0,0.0
19:45:35.580000,138.0,-139.0,-18.0,-645.0,-54.0,-117.0,0.0,0.0,0.0
19:45:35.584000,151.0,-140.0,-13.0,-645.0,-54.0,-117.0,0.0,0.0,0.0
19:45:35.589000,165.0,-146.0,8.0,-645.0,-54.0,-117.0,0.0,0.0,0.0
19:45:35.593000,182.0,-157.0,39.0,-702.0,-25.0,-116.0,0.0,0.0,0.0
19:45:35.598000,203.0,-165.0,81.0,-702.0,-25.0,-116.0,0.0,0.0,0.0
19:45:35.603000,221.0,-167.0,129.0,-719.0,-32.0,-106.0,0.0,0.0,0.0
19:45:35.608000,235.0,-162.0,173.0,-719.0,-32.0,-106.0,0.0,0.0,0.0
19:45:35.613000,242.0,-149.0,215.0,-717.0,-47.0,-99.0,0.0,0.0,0.0
19:45:35.617000,240.0,-135.0,252.0,-717.0,-47.0,-99.0,0.0,0.0,0.0
19:45:35.622000,231.0,-119.0,275.0,-745.0,-38.0,-98.0,0.0,0.0,0.0
19:45:35.627000,217.0,-105.0,287.0,-745.0,-38.0,-98.0,0.0,0.0,0.0
19:45:35.631000,217.0,-105.0,287.0,-795.0,0.0,-94.0,0.0,0.0,0.0
19:45:35.635000,202.0,-88.0,289.0,-795.0,0.0,-94.0,0.0,0.0,0.0
19:45:35.641000,189.0,-72.0,291.0,-800.0,12.0,-92.0,0.0,0.0,0.0
19:45:35.645000,182.0,-56.0,293.0,-800.0,12.0,-92.0,0.0,0.0,0.0
19:45:35.650000,176.0,-42.0,289.0,-765.0,-1.0,-97.0,0.0,0.0,0.0
19:45:35.655000,166.0,-30.0,282.0,-765.0,-1.0,-97.0,0.0,0.0,0.0
19:45:35.660000,152.0,-21.0,278.0,-752.0,16.0,-100.0,0.0,0.0,0.0
19:45:35.664000,137.0,-14.0,281.0,-752.0,16.0,-100.0,0.0,0.0,0.0
19:45:35.669000,124.0,-4.0,288.0,-748.0,18.0,-107.0,0.0,0.0,0.0
19:45:35.674000,115.0,6.0,291.0,-748.0,18.0,-107.0,0.0,0.0,0.0
19:45:35.678000,105.0,16.0,290.0,-758.0,-11.0,-125.0,0.0,0.0,0.0
19:45:35.683000,97.0,28.0,289.0,-758.0,-11.0,-125.0,0.0,0.0,0.0
19:45:35.688000,86.0,44.0,286.0,-808.0,-24.0,-150.0,0.0,0.0,0.0
19:45:35.692000,74.0,60.0,277.0,-808.0,-24.0,-150.0,0.0,0.0,0.0
19:45:35.697000,60.0,76.0,264.0,-808.0,-24.0,-150.0,0.0,0.0,0.0
19:45:35.702000,46.0,88.0,251.0,-889.0,-25.0,-177.0,0.0,0.0,0.0
19:45:35.707000,35.0,98.0,245.0,-889.0,-25.0,-177.0,0.0,0.0,0.0
19:45:35.711000,26.0,105.0,249.0,-965.0,-42.0,-200.0,0.0,0.0,0.0
19:45:35.716000,18.0,108.0,246.0,-965.0,-42.0,-200.0,0.0,0.0,0.0
19:45:35.721000,8.0,108.0,238.0,-992.0,-64.0,-211.0,0.0,0.0,0.0
19:45:35.725000,0.0,107.0,236.0,-992.0,-64.0,-211.0,0.0,0.0,0.0
19:45:35.730000,-9.0,100.0,239.0,-956.0,-69.0,-216.0,0.0,0.0,0.0
19:45:35.735000,-16.0,89.0,242.0,-956.0,-69.0,-216.0,0.0,0.0,0.0
19:45:35.739000,-16.0,89.0,242.0,-912.0,-68.0,-221.0,0.0,0.0,0.0
19:45:35.744000,-22.0,75.0,242.0,-912.0,-68.0,-221.0,0.0,0.0,0.0
19:45:35.749000,-25.0,63.0,240.0,-914.0,-63.0,-226.0,0.0,0.0,0.0
19:45:35.754000,-28.0,51.0,235.0,-914.0,-63.0,-226.0,0.0,0.0,0.0
19:45:35.758000,-29.0,40.0,229.0,-952.0,-49.0,-234.0,0.0,0.0,0.0
19:45:35.763000,-35.0,27.0,219.0,-952.0,-49.0,-234.0,0.0,0.0,0.0
19:45:35.768000,-45.0,12.0,224.0,-990.0,-34.0,-237.0,0.0,0.0,0.0
19:45:35.772000,-59.0,0.0,244.0,-990.0,-34.0,-237.0,0.0,0.0,0.0
19:45:35.777000,-75.0,-9.0,270.0,-976.0,-28.0,-231.0,0.0,0.0,0.0
19:45:35.782000,-92.0,-17.0,287.0,-976.0,-28.0,-231.0,0.0,0.0,0.0
19:45:35.786000,-108.0,-23.0,293.0,-935.0,-20.0,-223.0,0.0,0.0,0.0
19:45:35.791000,-121.0,-28.0,291.0,-935.0,-20.0,-223.0,0.0,0.0,0.0
19:45:35.796000,-133.0,-35.0,283.0,-922.0,-5.0,-216.0,0.0,0.0,0.0
19:45:35.801000,-140.0,-41.0,287.0,-922.0,-5.0,-216.0,0.0,0.0,0.0
19:45:35.805000,-143.0,-45.0,302.0,-922.0,-5.0,-216.0,0.0,0.0,0.0
19:45:35.810000,-144.0,-49.0,301.0,-923.0,1.0,-212.0,0.0,0.0,0.0
19:45:35.815000,-149.0,-53.0,284.0,-923.0,1.0,-212.0,0.0,0.0,0.0
19:45:35.819000,-159.0,-60.0,277.0,-942.0,41.0,-210.0,0.0,0.0,0.0
19:45:35.824000,-169.0,-64.0,280.0,-942.0,41.0,-210.0,0.0,0.0,0.0
19:45:35.829000,-168.0,-72.0,299.0,-1000.0,75.0,-204.0,0.0,0.0,0.0
19:45:35.833000,-163.0,-77.0,315.0,-1000.0,75.0,-204.0,0.0,0.0,0.0
19:45:35.838000,-157.0,-81.0,296.0,-1034.0,72.0,-203.0,0.0,0.0,0.0
19:45:35.843000,-161.0,-89.0,269.0,-1034.0,72.0,-203.0,0.0,0.0,0.0
19:45:35.848000,-161.0,-89.0,269.0,-1026.0,126.0,-203.0,0.0,0.0,0.0
19:45:35.852000,-159.0,-95.0,280.0,-1026.0,126.0,-203.0,0.0,0.0,0.0
19:45:35.857000,-141.0,-95.0,286.0,-1027.0,127.0,-204.0,0.0,0.0,0.0
19:45:35.862000,-120.0,-99.0,264.0,-1027.0,127.0,-204.0,0.0,0.0,0.0
19:45:35.866000,-98.0,-117.0,239.0,-1067.0,75.0,-195.0,0.0,0.0,0.0
19:45:35.870000,-102.0,-117.0,259.0,-1067.0,75.0,-195.0,0.0,0.0,0.0
19:45:35.876000,-72.0,-112.0,284.0,-1126.0,70.0,-192.0,0.0,0.0,0.0
19:45:35.880000,-36.0,-113.0,347.0,-1126.0,70.0,-192.0,0.0,0.0,0.0
19:45:35.885000,-3.0,-100.0,385.0,-1144.0,101.0,-211.0,0.0,0.0,0.0
19:45:35.890000,45.0,-76.0,338.0,-1144.0,101.0,-211.0,0.0,0.0,0.0
19:45:35.895000,104.0,-44.0,287.0,-1121.0,171.0,-223.0,0.0,0.0,0.0
19:45:35.899000,151.0,-51.0,221.0,-1121.0,171.0,-223.0,0.0,0.0,0.0
19:45:35.904000,193.0,-72.0,165.0,-1180.0,257.0,-218.0,0.0,0.0,0.0
19:45:35.909000,224.0,-79.0,93.0,-1180.0,257.0,-218.0,0.0,0.0,0.0
19:45:35.913000,238.0,-77.0,62.0,-1180.0,257.0,-218.0,0.0,0.0,0.0
19:45:35.918000,229.0,-68.0,56.0,-1276.0,319.0,-204.0,0.0,0.0,0.0
19:45:35.923000,210.0,-60.0,58.0,-1276.0,319.0,-204.0,0.0,0.0,0.0
19:45:35.927000,184.0,-52.0,63.0,-1287.0,405.0,-193.0,0.0,0.0,0.0
19:45:35.932000,157.0,-52.0,53.0,-1287.0,405.0,-193.0,0.0,0.0,0.0
19:45:35.937000,140.0,-47.0,23.0,-1282.0,532.0,-200.0,0.0,0.0,0.0
19:45:35.942000,118.0,-48.0,46.0,-1282.0,532.0,-200.0,0.0,0.0,0.0
19:45:35.946000,104.0,-48.0,140.0,-1279.0,572.0,-218.0,0.0,0.0,0.0
19:45:35.951000,110.0,-53.0,200.0,-1279.0,572.0,-218.0,0.0,0.0,0.0
19:45:35.956000,102.0,-45.0,218.0,-1275.0,557.0,-229.0,0.0,0.0,0.0
19:45:35.960000,102.0,-45.0,218.0,-1275.0,557.0,-229.0,0.0,0.0,0.0
19:45:35.965000,93.0,-37.0,245.0,-1281.0,504.0,-244.0,0.0,0.0,0.0
19:45:35.970000,85.0,-32.0,319.0,-1281.0,504.0,-244.0,0.0,0.0,0.0
19:45:35.974000,64.0,-22.0,386.0,-1321.0,462.0,-258.0,0.0,0.0,0.0
19:45:35.979000,51.0,-21.0,403.0,-1321.0,462.0,-258.0,0.0,0.0,0.0
19:45:35.984000,37.0,-23.0,408.0,-1362.0,446.0,-264.0,0.0,0.0,0.0
19:45:35.989000,-6.0,-20.0,420.0,-1362.0,446.0,-264.0,0.0,0.0,0.0
19:45:35.993000,-5.0,-33.0,421.0,-1331.0,409.0,-262.0,0.0,0.0,0.0
19:45:35.998000,-28.0,-28.0,377.0,-1331.0,409.0,-262.0,0.0,0.0,0.0
19:45:36.003000,-49.0,-34.0,331.0,-1286.0,358.0,-249.0,0.0,0.0,0.0
19:45:36.007000,-65.0,-42.0,317.0,-1286.0,358.0,-249.0,0.0,0.0,0.0
19:45:36.012000,-86.0,-39.0,294.0,-1263.0,261.0,-236.0,0.0,0.0,0.0
19:45:36.017000,-96.0,-39.0,266.0,-1263.0,261.0,-236.0,0.0,0.0,0.0
19:45:36.021000,-113.0,-38.0,235.0,-1263.0,261.0,-236.0,0.0,0.0,0.0
19:45:36.026000,-131.0,-30.0,193.0,-1256.0,181.0,-229.0,0.0,0.0,0.0
19:45:36.031000,-154.0,-21.0,131.0,-1256.0,181.0,-229.0,0.0,0.0,0.0
19:45:36.036000,-174.0,-25.0,148.0,-1256.0,137.0,-213.0,0.0,0.0,0.0
19:45:36.040000,-182.0,-30.0,221.0,-1256.0,137.0,-213.0,0.0,0.0,0.0
19:45:36.045000,-178.0,-37.0,242.0,-1175.0,45.0,-190.0,0.0,0.0,0.0
19:45:36.050000,-182.0,-30.0,200.0,-1175.0,45.0,-190.0,0.0,0.0,0.0
19:45:36.054000,-183.0,-32.0,147.0,-1104.0,-57.0,-165.0,0.0,0.0,0.0
19:45:36.059000,-180.0,-75.0,114.0,-1104.0,-57.0,-165.0,0.0,0.0,0.0
19:45:36.064000,-186.0,-94.0,161.0,-1050.0,-165.0,-134.0,0.0,0.0,0.0
19:45:36.068000,-186.0,-94.0,161.0,-1050.0,-165.0,-134.0,0.0,0.0,0.0
19:45:36.073000,-204.0,-95.0,195.0,-904.0,-241.0,-111.0,0.0,0.0,0.0
19:45:36.078000,-235.0,-97.0,252.0,-904.0,-241.0,-111.0,0.0,0.0,0.0
19:45:36.083000,-258.0,-100.0,357.0,-819.0,-260.0,-104.0,0.0,0.0,0.0
19:45:36.087000,-298.0,-107.0,464.0,-819.0,-260.0,-104.0,0.0,0.0,0.0
19:45:36.092000,-338.0,-97.0,500.0,-854.0,-275.0,-104.0,0.0,0.0,0.0
19:45:36.097000,-345.0,-110.0,449.0,-854.0,-275.0,-104.0,0.0,0.0,0.0
19:45:36.101000,-336.0,-127.0,382.0,-891.0,-314.0,-102.0,0.0,0.0,0.0
19:45:36.105000,-331.0,-129.0,263.0,-891.0,-314.0,-102.0,0.0,0.0,0.0
19:45:36.111000,-286.0,-131.0,157.0,-906.0,-358.0,-114.0,0.0,0.0,0.0
19:45:36.115000,-272.0,-137.0,83.0,-906.0,-358.0,-114.0,0.0,0.0,0.0
19:45:36.120000,-248.0,-143.0,10.0,-918.0,-337.0,-135.0,0.0,0.0,0.0
19:45:36.125000,-214.0,-147.0,-25.0,-918.0,-337.0,-135.0,0.0,0.0,0.0
19:45:36.130000,-198.0,-162.0,-60.0,-955.0,-284.0,-146.0,0.0,0.0,0.0
19:45:36.134000,-174.0,-161.0,-51.0,-955.0,-284.0,-146.0,0.0,0.0,0.0
19:45:36.139000,-153.0,-163.0,-28.0,-955.0,-284.0,-146.0,0.0,0.0,0.0
19:45:36.144000,-184.0,-144.0,-19.0,-1031.0,-259.0,-154.0,0.0,0.0,0.0
19:45:36.148000,-168.0,-135.0,-46.0,-1031.0,-259.0,-154.0,0.0,0.0,0.0
19:45:36.153000,-125.0,-138.0,-105.0,-1134.0,-243.0,-170.0,0.0,0.0,0.0
19:45:36.158000,-117.0,-135.0,-113.0,-1134.0,-243.0,-170.0,0.0,0.0,0.0
19:45:36.162000,-130.0,-135.0,-86.0,-1182.0,-209.0,-177.0,0.0,0.0,0.0
19:45:36.167000,-90.0,-139.0,-87.0,-1182.0,-209.0,-177.0,0.0,0.0,0.0
19:45:36.172000,-119.0,-123.0,-138.0,-1201.0,-163.0,-176.0,0.0,0.0,0.0
19:45:36.177000,-119.0,-123.0,-138.0,-1201.0,-163.0,-176.0,0.0,0.0,0.0
19:45:36.181000,-106.0,-107.0,-119.0,-1228.0,-145.0,-188.0,0.0,0.0,0.0
19:45:36.186000,-95.0,-98.0,-112.0,-1228.0,-145.0,-188.0,0.0,0.0,0.0
19:45:36.191000,-119.0,-94.0,-66.0,-1261.0,-140.0,-180.0,0.0,0.0,0.0
19:45:36.195000,-126.0,-79.0,-35.0,-1261.0,-140.0,-180.0,0.0,0.0,0.0
19:45:36.200000,-123.0,-73.0,-25.0,-1257.0,-158.0,-176.0,0.0,0.0,0.0
19:45:36.205000,-124.0,-78.0,-9.0,-1257.0,-158.0,-176.0,0.0,0.0,0.0
19:45:36.209000,-156.0,-71.0,-2.0,-1203.0,-144.0,-181.0,0.0,0.0,0.0
19:45:36.214000,-123.0,-75.0,16.0,-1203.0,-144.0,-181.0,0.0,0.0,0.0
19:45:36.219000,-177.0,-60.0,36.0,-1209.0,-180.0,-178.0,0.0,0.0,0.0
19:45:36.224000,-210.0,-37.0,26.0,-1209.0,-180.0,-178.0,0.0,0.0,0.0
19:45:36.228000,-170.0,-42.0,9.0,-1184.0,-259.0,-199.0,0.0,0.0,0.0
19:45:36.233000,-156.0,-52.0,-2.0,-1184.0,-259.0,-199.0,0.0,0.0,0.0
19:45:36.238000,-206.0,-48.0,-16.0,-1184.0,-259.0,-199.0,0.0,0.0,0.0
19:45:36.242000,-161.0,-63.0,-3.0,-1104.0,-267.0,-194.0,0.0,0.0,0.0
19:45:36.247000,-176.0,-74.0,-30.0,-1104.0,-267.0,-194.0,0.0,0.0,0.0
19:45:36.252000,-183.0,-77.0,-81.0,-1091.0,-248.0,-170.0,0.0,0.0,0.0
19:45:36.256000,-175.0,-84.0,-134.0,-1091.0,-248.0,-170.0,0.0,0.0,0.0
19:45:36.261000,-186.0,-84.0,-170.0,-1102.0,-259.0,-178.0,0.0,0.0,0.0
19:45:36.266000,-175.0,-84.0,-123.0,-1102.0,-259.0,-178.0,0.0,0.0,0.0
19:45:36.271000,-154.0,-106.0,-113.0,-1072.0,-283.0,-180.0,0.0,0.0,0.0
19:45:36.275000,-203.0,-101.0,-153.0,-1072.0,-283.0,-180.0,0.0,0.0,0.0
19:45:36.280000,-189.0,-104.0,-144.0,-1028.0,-255.0,-152.0,0.0,0.0,0.0
19:45:36.285000,-189.0,-104.0,-144.0,-1028.0,-255.0,-152.0,0.0,0.0,0.0
19:45:36.289000,-182.0,-109.0,-155.0,-1046.0,-245.0,-125.0,0.0,0.0,0.0
19:45:36.294000,-182.0,-121.0,-163.0,-1046.0,-245.0,-125.0,0.0,0.0,0.0
19:45:36.299000,-189.0,-134.0,-177.0,-1081.0,-264.0,-116.0,0.0,0.0,0.0
19:45:36.303000,-190.0,-137.0,-131.0,-1081.0,-264.0,-116.0,0.0,0.0,0.0
19:45:36.308000,-178.0,-144.0,-99.0,-1055.0,-300.0,-112.0,0.0,0.0,0.0
19:45:36.313000,-170.0,-156.0,-106.0,-1055.0,-300.0,-112.0,0.0,0.0,0.0
19:45:36.318000,-191.0,-165.0,-101.0,-1040.0,-272.0,-112.0,0.0,0.0,0.0
19:45:36.322000,-214.0,-159.0,-107.0,-1040.0,-272.0,-112.0,0.0,0.0,0.0
19:45:36.326000,-189.0,-175.0,-130.0,-1045.0,-204.0,-98.0,0.0,0.0,0.0
19:45:36.332000,-207.0,-177.0,-139.0,-1045.0,-204.0,-98.0,0.0,0.0,0.0
19:45:36.336000,-222.0,-176.0,-137.0,-1063.0,-203.0,-100.0,0.0,0.0,0.0
19:45:36.340000,-249.0,-172.0,-144.0,-1063.0,-203.0,-100.0,0.0,0.0,0.0
19:45:36.346000,-270.0,-175.0,-182.0,-1082.0,-194.0,-108.0,0.0,0.0,0.0
19:45:36.350000,-300.0,-172.0,-210.0,-1082.0,-194.0,-108.0,0.0,0.0,0.0
19:45:36.355000,-343.0,-168.0,-192.0,-1082.0,-194.0,-108.0,0.0,0.0,0.0
19:45:36.360000,-359.0,-171.0,-166.0,-1079.0,-155.0,-97.0,0.0,0.0,0.0
19:45:36.365000,-401.0,-163.0,-168.0,-1079.0,-155.0,-97.0,0.0,0.0,0.0
19:45:36.369000,-426.0,-163.0,-178.0,-1098.0,-150.0,-90.0,0.0,0.0,0.0
19:45:36.374000,-449.0,-159.0,-196.0,-1098.0,-150.0,-90.0,0.0,0.0,0.0
19:45:36.379000,-480.0,-155.0,-205.0,-1088.0,-148.0,-81.0,0.0,0.0,0.0
19:45:36.383000,-512.0,-147.0,-202.0,-1088.0,-148.0,-81.0,0.0,0.0,0.0
19:45:36.388000,-546.0,-140.0,-200.0,-1078.0,-159.0,-69.0,0.0,0.0,0.0
19:45:36.393000,-582.0,-133.0,-198.0,-1078.0,-159.0,-69.0,0.0,0.0,0.0
19:45:36.397000,-582.0,-133.0,-198.0,-1093.0,-154.0,-56.0,0.0,0.0,0.0
19:45:36.402000,-618.0,-130.0,-201.0,-1093.0,-154.0,-56.0,0.0,0.0,0.0
19:45:36.407000,-626.0,-128.0,-182.0,-1083.0,-154.0,-59.0,0.0,0.0,0.0
19:45:36.412000,-642.0,-129.0,-189.0,-1083.0,-154.0,-59.0,0.0,0.0,0.0
19:45:36.416000,-670.0,-130.0,-237.0,-1055.0,-160.0,-60.0,0.0,0.0,0.0
19:45:36.421000,-669.0,-139.0,-250.0,-1055.0,-160.0,-60.0,0.0,0.0,0.0
19:45:36.426000,-693.0,-137.0,-242.0,-1005.0,-172.0,-58.0,0.0,0.0,0.0
19:45:36.430000,-700.0,-144.0,-246.0,-1005.0,-172.0,-58.0,0.0,0.0,0.0
19:45:36.435000,-713.0,-154.0,-267.0,-984.0,-207.0,-76.0,0.0,0.0,0.0
19:45:36.440000,-729.0,-166.0,-276.0,-984.0,-207.0,-76.0,0.0,0.0,0.0
19:45:36.444000,-743.0,-182.0,-247.0,-964.0,-208.0,-102.0,0.0,0.0,0.0
19:45:36.449000,-758.0,-196.0,-228.0,-964.0,-208.0,-102.0,0.0,0.0,0.0
19:45:36.454000,-767.0,-219.0,-247.0,-933.0,-168.0,-125.0,0.0,0.0,0.0
19:45:36.459000,-784.0,-241.0,-282.0,-933.0,-168.0,-125.0,0.0,0.0,0.0
19:45:36.463000,-803.0,-285.0,-283.0,-933.0,-168.0,-125.0,0.0,0.0,0.0
19:45:36.468000,-816.0,-319.0,-254.0,-879.0,-137.0,-131.0,0.0,0.0,0.0
19:45:36.473000,-887.0,-361.0,-239.0,-879.0,-137.0,-131.0,0.0,0.0,0.0
19:45:36.477000,-856.0,-424.0,-242.0,-805.0,-140.0,-85.0,0.0,0.0,0.0
19:45:36.482000,-879.0,-477.0,-266.0,-805.0,-140.0,-85.0,0.0,0.0,0.0
19:45:36.487000,-854.0,-539.0,-312.0,-691.0,-136.0,-35.0,0.0,0.0,0.0
19:45:36.491000,-840.0,-578.0,-331.0,-691.0,-136.0,-35.0,0.0,0.0,0.0
19:45:36.496000,-883.0,-629.0,-346.0,-549.0,-111.0,2.0,0.0,0.0,0.0
19:45:36.501000,-1000.0,-658.0,-352.0,-549.0,-111.0,2.0,0.0,0.0,0.0
19:45:36.506000,-1000.0,-658.0,-352.0,-655.0,38.0,200.0,0.0,0.0,0.0
19:45:36.510000,-976.0,-715.0,-404.0,-655.0,38.0,200.0,0.0,0.0,0.0
19:45:36.514000,-1050.0,-677.0,-597.0,-954.0,230.0,344.0,0.0,0.0,0.0
19:45:36.520000,-1050.0,-655.0,-840.0,-954.0,230.0,344.0,0.0,0.0,0.0
19:45:36.524000,-1149.0,-636.0,-982.0,-1337.0,207.0,254.0,0.0,0.0,0.0
19:45:36.529000,-1253.0,-675.0,-919.0,-1337.0,207.0,254.0,0.0,0.0,0.0
19:45:36.534000,-1351.0,-743.0,-734.0,-1596.0,30.0,192.0,0.0,0.0,0.0
19:45:36.538000,-1502.0,-743.0,-588.0,-1596.0,30.0,192.0,0.0,0.0,0.0
19:45:36.543000,-1629.0,-729.0,-523.0,-1406.0,25.0,202.0,0.0,0.0,0.0
19:45:36.548000,-1746.0,-695.0,-467.0,-1406.0,25.0,202.0,0.0,0.0,0.0
19:45:36.553000,-1835.0,-681.0,-452.0,-1112.0,141.0,226.0,0.0,0.0,0.0
19:45:36.557000,-1942.0,-661.0,-495.0,-1112.0,141.0,226.0,0.0,0.0,0.0
19:45:36.562000,-2009.0,-664.0,-548.0,-1036.0,160.0,249.0,0.0,0.0,0.0
19:45:36.567000,-2087.0,-662.0,-585.0,-1036.0,160.0,249.0,0.0,0.0,0.0
19:45:36.571000,-2150.0,-656.0,-579.0,-1023.0,101.0,274.0,0.0,0.0,0.0
19:45:36.575000,-2176.0,-667.0,-590.0,-1023.0,101.0,274.0,0.0,0.0,0.0
19:45:36.581000,-2193.0,-695.0,-656.0,-1023.0,101.0,274.0,0.0,0.0,0.0
19:45:36.585000,-2209.0,-718.0,-729.0,-1044.0,26.0,307.0,0.0,0.0,0.0
19:45:36.590000,-2214.0,-743.0,-762.0,-1044.0,26.0,307.0,0.0,0.0,0.0
19:45:36.595000,-2212.0,-782.0,-772.0,-1038.0,-50.0,326.0,0.0,0.0,0.0
19:45:36.600000,-2204.0,-833.0,-810.0,-1038.0,-50.0,326.0,0.0,0.0,0.0
19:45:36.604000,-2219.0,-861.0,-846.0,-980.0,-80.0,353.0,0.0,0.0,0.0
19:45:36.609000,-2239.0,-878.0,-884.0,-980.0,-80.0,353.0,0.0,0.0,0.0
19:45:36.614000,-2239.0,-878.0,-884.0,-976.0,0.0,366.0,0.0,0.0,0.0
19:45:36.618000,-2258.0,-889.0,-905.0,-976.0,0.0,366.0,0.0,0.0,0.0
19:45:36.623000,-2282.0,-891.0,-911.0,-1038.0,53.0,339.0,0.0,0.0,0.0
19:45:36.628000,-2305.0,-900.0,-931.0,-1038.0,53.0,339.0,0.0,0.0,0.0
19:45:36.632000,-2341.0,-912.0,-973.0,-1110.0,76.0,324.0,0.0,0.0,0.0
19:45:36.637000,-2384.0,-923.0,-991.0,-1110.0,76.0,324.0,0.0,0.0,0.0
19:45:36.642000,-2422.0,-938.0,-985.0,-1088.0,104.0,345.0,0.0,0.0,0.0
19:45:36.647000,-2463.0,-963.0,-987.0,-1088.0,104.0,345.0,0.0,0.0,0.0
19:45:36.651000,-2490.0,-969.0,-1001.0,-1008.0,125.0,349.0,0.0,0.0,0.0
19:45:36.656000,-2511.0,-974.0,-1033.0,-1008.0,125.0,349.0,0.0,0.0,0.0
19:45:36.661000,-2536.0,-980.0,-1078.0,-972.0,170.0,354.0,0.0,0.0,0.0
19:45:36.665000,-2556.0,-989.0,-1117.0,-972.0,170.0,354.0,0.0,0.0,0.0
19:45:36.670000,-2578.0,-993.0,-1157.0,-974.0,223.0,385.0,0.0,0.0,0.0
19:45:36.675000,-2604.0,-989.0,-1194.0,-974.0,223.0,385.0,0.0,0.0,0.0
19:45:36.679000,-2627.0,-995.0,-1215.0,-977.0,271.0,400.0,0.0,0.0,0.0
19:45:36.684000,-2648.0,-1010.0,-1235.0,-977.0,271.0,400.0,0.0,0.0,0.0
19:45:36.689000,-2665.0,-1028.0,-1258.0,-977.0,271.0,400.0,0.0,0.0,0.0
19:45:36.694000,-2684.0,-1045.0,-1271.0,-959.0,306.0,401.0,0.0,0.0,0.0
19:45:36.698000,-2693.0,-1067.0,-1309.0,-959.0,306.0,401.0,0.0,0.0,0.0
19:45:36.703000,-2722.0,-1089.0,-1349.0,-884.0,353.0,439.0,0.0,0.0,0.0
19:45:36.708000,-2765.0,-1100.0,-1375.0,-884.0,353.0,439.0,0.0,0.0,0.0
19:45:36.712000,-2807.0,-1106.0,-1391.0,-842.0,462.0,484.0,0.0,0.0,0.0
19:45:36.717000,-2849.0,-1126.0,-1372.0,-842.0,462.0,484.0,0.0,0.0,0.0
19:45:36.722000,-2849.0,-1126.0,-1372.0,-858.0,545.0,500.0,0.0,0.0,0.0
19:45:36.726000,-2888.0,-1143.0,-1330.0,-858.0,545.0,500.0,0.0,0.0,0.0
19:45:36.731000,-2902.0,-1163.0,-1309.0,-865.0,539.0,513.0,0.0,0.0,0.0
19:45:36.736000,-2914.0,-1178.0,-1327.0,-865.0,539.0,513.0,0.0,0.0,0.0
19:45:36.741000,-2934.0,-1197.0,-1351.0,-874.0,551.0,531.0,0.0,0.0,0.0
19:45:36.745000,-2951.0,-1222.0,-1344.0,-874.0,551.0,531.0,0.0,0.0,0.0
19:45:36.750000,-2967.0,-1229.0,-1320.0,-872.0,595.0,534.0,0.0,0.0,0.0
19:45:36.755000,-2975.0,-1234.0,-1295.0,-872.0,595.0,534.0,0.0,0.0,0.0
19:45:36.759000,-2973.0,-1246.0,-1253.0,-863.0,590.0,517.0,0.0,0.0,0.0
19:45:36.764000,-2962.0,-1262.0,-1202.0,-863.0,590.0,517.0,0.0,0.0,0.0
19:45:36.769000,-2948.0,-1271.0,-1173.0,-869.0,550.0,499.0,0.0,0.0,0.0
19:45:36.773000,-2933.0,-1285.0,-1163.0,-869.0,550.0,499.0,0.0,0.0,0.0
19:45:36.778000,-2909.0,-1301.0,-1150.0,-843.0,527.0,470.0,0.0,0.0,0.0
19:45:36.783000,-2874.0,-1317.0,-1115.0,-843.0,527.0,470.0,0.0,0.0,0.0
19:45:36.788000,-2850.0,-1325.0,-1070.0,-779.0,500.0,446.0,0.0,0.0,0.0
19:45:36.792000,-2810.0,-1331.0,-1037.0,-779.0,500.0,446.0,0.0,0.0,0.0
19:45:36.797000,-2765.0,-1328.0,-1025.0,-779.0,500.0,446.0,0.0,0.0,0.0
19:45:36.802000,-2723.0,-1318.0,-1033.0,-740.0,469.0,420.0,0.0,0.0,0.0
19:45:36.806000,-2677.0,-1303.0,-1041.0,-740.0,469.0,420.0,0.0,0.0,0.0
19:45:36.810000,-2638.0,-1283.0,-1027.0,-735.0,478.0,383.0,0.0,0.0,0.0
19:45:36.816000,-2601.0,-1263.0,-993.0,-735.0,478.0,383.0,0.0,0.0,0.0
19:45:36.820000,-2561.0,-1239.0,-957.0,-720.0,488.0,349.0,0.0,0.0,0.0
19:45:36.825000,-2514.0,-1211.0,-935.0,-720.0,488.0,349.0,0.0,0.0,0.0
19:45:36.830000,-2471.0,-1179.0,-935.0,-706.0,482.0,310.0,0.0,0.0,0.0
19:45:36.835000,-2471.0,-1179.0,-935.0,-706.0,482.0,310.0,0.0,0.0,0.0
19:45:36.839000,-2447.0,-1143.0,-948.0,-712.0,488.0,266.0,0.0,0.0,0.0
19:45:36.844000,-2408.0,-1108.0,-955.0,-712.0,488.0,266.0,0.0,0.0,0.0
19:45:36.849000,-2356.0,-1071.0,-959.0,-687.0,517.0,217.0,0.0,0.0,0.0
19:45:36.853000,-2305.0,-1041.0,-986.0,-687.0,517.0,217.0,0.0,0.0,0.0
19:45:36.858000,-2263.0,-1016.0,-1018.0,-662.0,557.0,168.0,0.0,0.0,0.0
19:45:36.863000,-2226.0,-987.0,-1023.0,-662.0,557.0,168.0,0.0,0.0,0.0
19:45:36.867000,-2179.0,-961.0,-998.0,-668.0,564.0,130.0,0.0,0.0,0.0
19:45:36.872000,-2123.0,-940.0,-966.0,-668.0,564.0,130.0,0.0,0.0,0.0
19:45:36.877000,-2062.0,-925.0,-968.0,-652.0,578.0,97.0,0.0,0.0,0.0
19:45:36.882000,-2011.0,-916.0,-984.0,-652.0,578.0,97.0,0.0,0.0,0.0
19:45:36.886000,-1964.0,-905.0,-967.0,-594.0,570.0,69.0,0.0,0.0,0.0
19:45:36.891000,-1901.0,-891.0,-929.0,-594.0,570.0,69.0,0.0,0.0,0.0
19:45:36.896000,-1847.0,-874.0,-896.0,-550.0,576.0,43.0,0.0,0.0,0.0
19:45:36.900000,-1806.0,-859.0,-861.0,-550.0,576.0,43.0,0.0,0.0,0.0
19:45:36.905000,-1774.0,-851.0,-804.0,-550.0,576.0,43.0,0.0,0.0,0.0
19:45:36.910000,-1737.0,-840.0,-744.0,-563.0,644.0,32.0,0.0,0.0,0.0
19:45:36.914000,-1712.0,-828.0,-697.0,-563.0,644.0,32.0,0.0,0.0,0.0
19:45:36.919000,-1696.0,-811.0,-646.0,-580.0,701.0,35.0,0.0,0.0,0.0
19:45:36.924000,-1678.0,-793.0,-591.0,-580.0,701.0,35.0,0.0,0.0,0.0
19:45:36.929000,-1652.0,-772.0,-525.0,-559.0,716.0,27.0,0.0,0.0,0.0
