hh:mm:ss.ms,gyroX[mdps],gyroY[mdps],gyroZ[mdps],accX[mg],accY[mg],accZ[mg],magX[mG],magY[mG],magZ[mG]
19:41:22.415000,-1388.0,-891.0,-1122.0,-1288.0,163.0,-754.0,408.0,-640.0,334.0
19:41:22.419000,-1322.0,-900.0,-1121.0,-1231.0,261.0,-779.0,408.0,-640.0,334.0
19:41:22.425000,-1322.0,-866.0,-1168.0,-1209.0,256.0,-747.0,433.0,-643.0,327.0
19:41:22.429000,-1325.0,-872.0,-1187.0,-1199.0,268.0,-758.0,433.0,-643.0,327.0
19:41:22.434000,-1260.0,-856.0,-1290.0,-1233.0,195.0,-762.0,438.0,-648.0,315.0
19:41:22.439000,-1207.0,-848.0,-1374.0,-1230.0,4.0,-738.0,438.0,-648.0,315.0
19:41:22.446000,-1158.0,-852.0,-1225.0,-1193.0,-21.0,-722.0,451.0,-648.0,316.0
19:41:22.448000,-1109.0,-838.0,-1197.0,-1193.0,-21.0,-722.0,451.0,-648.0,316.0
19:41:22.452000,-1079.0,-814.0,-1262.0,-1250.0,-64.0,-700.0,451.0,-648.0,316.0
19:41:22.458000,-1026.0,-816.0,-1236.0,-1103.0,-86.0,-697.0,456.0,-643.0,291.0
19:41:22.462000,-967.0,-833.0,-1308.0,-900.0,-160.0,-614.0,456.0,-643.0,291.0
19:41:22.467000,-934.0,-770.0,-1320.0,-830.0,-351.0,-608.0,465.0,-640.0,285.0
19:41:22.472000,-868.0,-784.0,-1219.0,-800.0,-457.0,-596.0,465.0,-640.0,285.0
19:41:22.476000,-734.0,-769.0,-1081.0,-870.0,-719.0,-518.0,465.0,-640.0,285.0
19:41:22.481000,-585.0,-681.0,-923.0,-849.0,-887.0,-573.0,480.0,-625.0,274.0
19:41:22.486000,-499.0,-683.0,-624.0,-698.0,-993.0,-530.0,480.0,-625.0,274.0
19:41:22.490000,-544.0,-685.0,-462.0,-590.0,-1154.0,-444.0,475.0,-631.0,270.0
19:41:22.495000,-544.0,-685.0,-462.0,-493.0,-991.0,-408.0,475.0,-631.0,270.0
19:41:22.499000,-567.0,-704.0,-493.0,-463.0,-975.0,-361.0,475.0,-631.0,270.0
19:41:22.505000,-483.0,-722.0,-631.0,-343.0,-1104.0,-426.0,484.0,-637.0,265.0
19:41:22.509000,-394.0,-711.0,-553.0,-94.0,-1113.0,-370.0,484.0,-637.0,265.0
19:41:22.514000,-489.0,-708.0,-305.0,-283.0,-1065.0,-323.0,481.0,-630.0,256.0
19:41:22.519000,-557.0,-675.0,-561.0,-603.0,-656.0,-439.0,481.0,-630.0,256.0
19:41:22.523000,-539.0,-608.0,-1136.0,-518.0,-672.0,-460.0,481.0,-630.0,256.0
19:41:22.528000,-478.0,-568.0,-1195.0,-355.0,-908.0,-507.0,492.0,-630.0,243.0
19:41:22.533000,-487.0,-441.0,-1173.0,-495.0,-719.0,-496.0,492.0,-630.0,243.0
19:41:22.537000,-532.0,-438.0,-1267.0,-638.0,-808.0,-498.0,495.0,-616.0,238.0
19:41:22.542000,-529.0,-482.0,-1154.0,-640.0,-788.0,-573.0,495.0,-616.0,238.0
19:41:22.546000,-573.0,-481.0,-1108.0,-822.0,-624.0,-618.0,495.0,-616.0,238.0
19:41:22.552000,-497.0,-425.0,-1193.0,-939.0,-600.0,-670.0,504.0,-627.0,241.0
19:41:22.556000,-550.0,-410.0,-1154.0,-939.0,-511.0,-561.0,504.0,-627.0,241.0
19:41:22.561000,-704.0,-450.0,-1185.0,-870.0,-511.0,-561.0,508.0,-615.0,243.0
19:41:22.566000,-770.0,-417.0,-1268.0,-758.0,-467.0,-528.0,508.0,-615.0,243.0
19:41:22.570000,-781.0,-373.0,-1278.0,-556.0,-654.0,-625.0,508.0,-615.0,243.0
19:41:22.575000,-717.0,-411.0,-1198.0,-556.0,-654.0,-625.0,513.0,-615.0,232.0
19:41:22.580000,-660.0,-450.0,-1135.0,-475.0,-726.0,-608.0,513.0,-615.0,232.0
19:41:22.584000,-622.0,-487.0,-1149.0,-498.0,-645.0,-595.0,522.0,-604.0,229.0
19:41:22.589000,-581.0,-467.0,-1127.0,-610.0,-587.0,-617.0,522.0,-604.0,229.0
19:41:22.593000,-581.0,-467.0,-1127.0,-695.0,-617.0,-646.0,522.0,-604.0,229.0
19:41:22.599000,-511.0,-506.0,-1050.0,-669.0,-626.0,-614.0,529.0,-592.0,219.0
19:41:22.603000,-483.0,-506.0,-1015.0,-647.0,-724.0,-630.0,529.0,-592.0,219.0
19:41:22.607000,-483.0,-499.0,-1015.0,-679.0,-815.0,-651.0,543.0,-592.0,213.0
19:41:22.613000,-453.0,-538.0,-928.0,-623.0,-691.0,-621.0,543.0,-592.0,213.0
19:41:22.617000,-456.0,-598.0,-830.0,-567.0,-625.0,-635.0,546.0,-586.0,207.0
19:41:22.622000,-465.0,-612.0,-770.0,-664.0,-608.0,-678.0,546.0,-586.0,207.0
19:41:22.626000,-381.0,-633.0,-833.0,-801.0,-706.0,-689.0,546.0,-586.0,207.0
19:41:22.631000,-318.0,-655.0,-858.0,-779.0,-724.0,-663.0,528.0,-591.0,199.0
19:41:22.636000,-297.0,-681.0,-828.0,-671.0,-664.0,-637.0,528.0,-591.0,199.0
19:41:22.641000,-289.0,-707.0,-703.0,-627.0,-602.0,-632.0,547.0,-579.0,199.0
19:41:22.646000,-314.0,-718.0,-591.0,-702.0,-427.0,-621.0,547.0,-579.0,199.0
19:41:22.650000,-333.0,-726.0,-735.0,-771.0,-256.0,-606.0,547.0,-579.0,199.0
19:41:22.655000,-286.0,-757.0,-962.0,-662.0,-273.0,-584.0,552.0,-583.0,187.0
19:41:22.660000,-311.0,-765.0,-1004.0,-515.0,-372.0,-573.0,552.0,-583.0,187.0
19:41:22.664000,-352.0,-758.0,-1040.0,-515.0,-372.0,-573.0,550.0,-580.0,192.0
19:41:22.669000,-336.0,-765.0,-966.0,-517.0,-434.0,-569.0,550.0,-580.0,192.0
19:41:22.673000,-356.0,-764.0,-732.0,-632.0,-595.0,-570.0,550.0,-580.0,192.0
19:41:22.678000,-377.0,-779.0,-693.0,-840.0,-632.0,-560.0,550.0,-570.0,189.0
19:41:22.683000,-360.0,-776.0,-802.0,-1003.0,-499.0,-567.0,550.0,-570.0,189.0
19:41:22.688000,-357.0,-753.0,-901.0,-960.0,-467.0,-568.0,553.0,-565.0,186.0
19:41:22.693000,-277.0,-747.0,-900.0,-825.0,-513.0,-561.0,553.0,-565.0,186.0
19:41:22.697000,-208.0,-739.0,-833.0,-724.0,-582.0,-552.0,553.0,-565.0,186.0
19:41:22.702000,-173.0,-735.0,-791.0,-717.0,-579.0,-516.0,541.0,-556.0,168.0
19:41:22.707000,-107.0,-739.0,-742.0,-773.0,-505.0,-494.0,541.0,-556.0,168.0
19:41:22.711000,-77.0,-726.0,-791.0,-843.0,-461.0,-492.0,562.0,-553.0,163.0
19:41:22.716000,-77.0,-726.0,-791.0,-911.0,-433.0,-481.0,562.0,-553.0,163.0
19:41:22.720000,-16.0,-741.0,-900.0,-865.0,-455.0,-471.0,562.0,-553.0,163.0
19:41:22.725000,39.0,-761.0,-799.0,-775.0,-458.0,-467.0,562.0,-552.0,171.0
19:41:22.730000,44.0,-752.0,-672.0,-808.0,-376.0,-461.0,562.0,-552.0,171.0
19:41:22.734000,39.0,-742.0,-603.0,-900.0,-322.0,-453.0,567.0,-541.0,163.0
19:41:22.740000,49.0,-744.0,-548.0,-965.0,-273.0,-439.0,567.0,-541.0,163.0
19:41:22.744000,25.0,-733.0,-536.0,-982.0,-214.0,-427.0,567.0,-541.0,163.0
19:41:22.749000,13.0,-732.0,-543.0,-945.0,-142.0,-418.0,567.0,-544.0,172.0
19:41:22.754000,-7.0,-727.0,-609.0,-875.0,-119.0,-402.0,567.0,-544.0,172.0
19:41:22.758000,-49.0,-714.0,-607.0,-824.0,-172.0,-390.0,567.0,-532.0,148.0
19:41:22.763000,-72.0,-707.0,-514.0,-850.0,-238.0,-382.0,567.0,-532.0,148.0
19:41:22.767000,-108.0,-697.0,-415.0,-950.0,-244.0,-375.0,567.0,-532.0,148.0
19:41:22.772000,-119.0,-706.0,-387.0,-1000.0,-218.0,-377.0,565.0,-535.0,147.0
19:41:22.777000,-147.0,-695.0,-384.0,-1000.0,-218.0,-377.0,565.0,-535.0,147.0
19:41:22.781000,-175.0,-681.0,-338.0,-938.0,-191.0,-365.0,580.0,-534.0,136.0
19:41:22.787000,-186.0,-679.0,-361.0,-938.0,-191.0,-365.0,580.0,-534.0,136.0
19:41:22.791000,-217.0,-667.0,-347.0,-937.0,-194.0,-353.0,580.0,-534.0,136.0
19:41:22.796000,-240.0,-654.0,-294.0,-949.0,-232.0,-345.0,571.0,-526.0,130.0
19:41:22.801000,-247.0,-644.0,-280.0,-974.0,-227.0,-342.0,571.0,-526.0,130.0
19:41:22.805000,-239.0,-625.0,-270.0,-985.0,-243.0,-338.0,580.0,-522.0,129.0
19:41:22.810000,-233.0,-615.0,-294.0,-1001.0,-255.0,-331.0,580.0,-522.0,129.0
19:41:22.814000,-233.0,-615.0,-294.0,-1006.0,-250.0,-329.0,580.0,-522.0,129.0
19:41:22.819000,-232.0,-574.0,-294.0,-964.0,-266.0,-331.0,562.0,-525.0,129.0
19:41:22.824000,-232.0,-574.0,-294.0,-968.0,-270.0,-328.0,562.0,-525.0,129.0
19:41:22.829000,-251.0,-545.0,-262.0,-1030.0,-237.0,-326.0,561.0,-525.0,123.0
19:41:22.834000,-248.0,-534.0,-270.0,-1064.0,-221.0,-319.0,561.0,-525.0,123.0
19:41:22.838000,-259.0,-512.0,-270.0,-1060.0,-236.0,-320.0,582.0,-525.0,118.0
19:41:22.843000,-271.0,-482.0,-287.0,-1044.0,-250.0,-312.0,582.0,-525.0,118.0
19:41:22.847000,-289.0,-464.0,-301.0,-1021.0,-265.0,-304.0,582.0,-525.0,118.0
19:41:22.852000,-306.0,-449.0,-283.0,-1008.0,-278.0,-309.0,582.0,-523.0,106.0
19:41:22.857000,-317.0,-438.0,-268.0,-1017.0,-290.0,-310.0,582.0,-523.0,106.0
19:41:22.861000,-308.0,-433.0,-227.0,-1041.0,-264.0,-308.0,574.0,-522.0,114.0
19:41:22.866000,-333.0,-422.0,-237.0,-1038.0,-224.0,-300.0,574.0,-522.0,114.0
19:41:22.871000,-343.0,-421.0,-253.0,-1017.0,-220.0,-296.0,574.0,-522.0,114.0
19:41:22.876000,-329.0,-417.0,-295.0,-1012.0,-234.0,-294.0,573.0,-511.0,102.0
19:41:22.881000,-321.0,-409.0,-346.0,-1008.0,-268.0,-284.0,573.0,-511.0,102.0
19:41:22.885000,-299.0,-413.0,-373.0,-1008.0,-268.0,-284.0,576.0,-510.0,102.0
19:41:22.890000,-282.0,-406.0,-363.0,-1009.0,-306.0,-283.0,576.0,-510.0,102.0
19:41:22.894000,-282.0,-414.0,-307.0,-1008.0,-308.0,-272.0,576.0,-510.0,102.0
19:41:22.899000,-277.0,-419.0,-262.0,-1006.0,-281.0,-257.0,571.0,-516.0,106.0
19:41:22.904000,-281.0,-420.0,-235.0,-1016.0,-246.0,-247.0,571.0,-516.0,106.0
19:41:22.909000,-275.0,-422.0,-252.0,-1016.0,-246.0,-247.0,559.0,-504.0,94.0
19:41:22.913000,-273.0,-429.0,-304.0,-1024.0,-196.0,-242.0,559.0,-504.0,94.0
19:41:22.918000,-273.0,-429.0,-304.0,-1018.0,-167.0,-232.0,559.0,-504.0,94.0
19:41:22.923000,-307.0,-443.0,-288.0,-985.0,-182.0,-220.0,583.0,-498.0,91.0
19:41:22.928000,-319.0,-443.0,-203.0,-971.0,-197.0,-214.0,583.0,-498.0,91.0
19:41:22.932000,-319.0,-443.0,-203.0,-1017.0,-155.0,-207.0,579.0,-507.0,90.0
19:41:22.937000,-343.0,-450.0,-227.0,-1049.0,-105.0,-192.0,579.0,-507.0,90.0
19:41:22.941000,-368.0,-457.0,-262.0,-1017.0,-122.0,-184.0,579.0,-507.0,90.0
19:41:22.946000,-404.0,-454.0,-215.0,-1017.0,-138.0,-179.0,571.0,-495.0,85.0
19:41:22.951000,-428.0,-450.0,-208.0,-1061.0,-104.0,-174.0,571.0,-495.0,85.0
19:41:22.956000,-448.0,-445.0,-237.0,-1065.0,-62.0,-164.0,559.0,-498.0,97.0
19:41:22.960000,-489.0,-441.0,-268.0,-1041.0,-39.0,-145.0,559.0,-498.0,97.0
19:41:22.965000,-543.0,-431.0,-272.0,-1031.0,-26.0,-129.0,559.0,-498.0,97.0
19:41:22.970000,-592.0,-429.0,-268.0,-1022.0,-19.0,-117.0,579.0,-501.0,78.0
19:41:22.975000,-653.0,-415.0,-224.0,-1023.0,-17.0,-112.0,579.0,-501.0,78.0
19:41:22.979000,-712.0,-401.0,-182.0,-1066.0,25.0,-100.0,577.0,-496.0,69.0
19:41:22.984000,-773.0,-394.0,-207.0,-1080.0,52.0,-84.0,577.0,-496.0,69.0
19:41:22.988000,-828.0,-389.0,-256.0,-1023.0,30.0,-74.0,577.0,-496.0,69.0
19:41:22.993000,-870.0,-392.0,-274.0,-960.0,-13.0,-72.0,574.0,-487.0,81.0
19:41:22.998000,-905.0,-396.0,-237.0,-961.0,-13.0,-72.0,574.0,-487.0,81.0
19:41:23.003000,-952.0,-399.0,-158.0,-945.0,-54.0,-70.0,571.0,-478.0,67.0
19:41:23.007000,-982.0,-408.0,-102.0,-974.0,-54.0,-64.0,571.0,-478.0,67.0
19:41:23.012000,-1022.0,-410.0,-151.0,-1035.0,0.0,-59.0,571.0,-478.0,67.0
19:41:23.017000,-1055.0,-426.0,-137.0,-1045.0,30.0,-51.0,571.0,-483.0,63.0
19:41:23.022000,-1099.0,-437.0,-68.0,-998.0,13.0,-38.0,571.0,-483.0,63.0
19:41:23.026000,-1163.0,-435.0,-65.0,-987.0,26.0,-26.0,576.0,-472.0,58.0
19:41:23.031000,-1216.0,-438.0,-46.0,-985.0,34.0,-18.0,576.0,-472.0,58.0
19:41:23.038000,-1264.0,-441.0,2.0,-978.0,28.0,-5.0,574.0,-478.0,55.0
19:41:23.040000,-1313.0,-446.0,19.0,-978.0,28.0,-5.0,574.0,-478.0,55.0
19:41:23.044000,-1313.0,-446.0,19.0,-1000.0,59.0,6.0,574.0,-478.0,55.0
19:41:23.050000,-1372.0,-452.0,11.0,-986.0,42.0,24.0,571.0,-469.0,55.0
19:41:23.054000,-1432.0,-469.0,49.0,-965.0,21.0,33.0,571.0,-469.0,55.0
19:41:23.059000,-1481.0,-489.0,53.0,-954.0,25.0,33.0,576.0,-463.0,43.0
19:41:23.064000,-1516.0,-506.0,35.0,-939.0,12.0,38.0,576.0,-463.0,43.0
19:41:23.068000,-1562.0,-522.0,51.0,-954.0,0.0,51.0,576.0,-463.0,43.0
19:41:23.073000,-1635.0,-531.0,80.0,-986.0,36.0,63.0,570.0,-463.0,34.0
19:41:23.078000,-1694.0,-560.0,50.0,-977.0,91.0,81.0,570.0,-463.0,34.0
19:41:23.082000,-1763.0,-596.0,-7.0,-917.0,73.0,97.0,576.0,-454.0,33.0
19:41:23.087000,-1835.0,-630.0,-2.0,-869.0,1.0,108.0,576.0,-454.0,33.0
19:41:23.091000,-1901.0,-670.0,41.0,-894.0,-12.0,121.0,576.0,-454.0,33.0
19:41:23.097000,-1968.0,-714.0,9.0,-925.0,24.0,136.0,576.0,-451.0,28.0
19:41:23.101000,-2021.0,-772.0,-11.0,-902.0,18.0,155.0,576.0,-451.0,28.0
19:41:23.106000,-2093.0,-824.0,11.0,-902.0,18.0,155.0,579.0,-439.0,19.0
19:41:23.111000,-2195.0,-875.0,-20.0,-880.0,35.0,184.0,579.0,-439.0,19.0
19:41:23.115000,-2279.0,-937.0,-65.0,-878.0,77.0,219.0,579.0,-439.0,19.0
19:41:23.120000,-2354.0,-998.0,-72.0,-871.0,66.0,243.0,562.0,-439.0,4.0
19:41:23.125000,-2424.0,-1063.0,-70.0,-864.0,29.0,273.0,562.0,-439.0,4.0
19:41:23.129000,-2495.0,-1128.0,-141.0,-877.0,37.0,306.0,571.0,-421.0,13.0
19:41:23.134000,-2564.0,-1195.0,-184.0,-859.0,63.0,341.0,571.0,-421.0,13.0
19:41:23.138000,-2564.0,-1195.0,-184.0,-816.0,55.0,376.0,571.0,-421.0,13.0
19:41:23.143000,-2653.0,-1239.0,-193.0,-844.0,87.0,413.0,559.0,-412.0,-3.0
19:41:23.148000,-2808.0,-1346.0,-303.0,-898.0,122.0,459.0,559.0,-412.0,-3.0
19:41:23.153000,-2808.0,-1346.0,-303.0,-905.0,96.0,502.0,559.0,-400.0,-19.0
19:41:23.158000,-2900.0,-1390.0,-289.0,-912.0,73.0,536.0,559.0,-400.0,-19.0
19:41:23.162000,-2971.0,-1431.0,-334.0,-930.0,72.0,565.0,559.0,-400.0,-19.0
19:41:23.167000,-3026.0,-1470.0,-406.0,-902.0,27.0,596.0,559.0,-390.0,-21.0
19:41:23.172000,-3098.0,-1502.0,-375.0,-894.0,13.0,627.0,559.0,-390.0,-21.0
19:41:23.177000,-3176.0,-1530.0,-378.0,-934.0,84.0,658.0,541.0,-372.0,-18.0
19:41:23.181000,-3249.0,-1555.0,-473.0,-923.0,77.0,691.0,541.0,-372.0,-18.0
19:41:23.185000,-3306.0,-1582.0,-488.0,-904.0,17.0,717.0,541.0,-372.0,-18.0
19:41:23.191000,-3373.0,-1596.0,-514.0,-921.0,23.0,747.0,540.0,-364.0,-33.0
19:41:23.195000,-3419.0,-1631.0,-599.0,-909.0,20.0,771.0,540.0,-364.0,-33.0
19:41:23.200000,-3447.0,-1659.0,-624.0,-909.0,20.0,771.0,520.0,-321.0,-39.0
19:41:23.205000,-3493.0,-1672.0,-651.0,-917.0,25.0,803.0,520.0,-321.0,-39.0
19:41:23.209000,-3529.0,-1690.0,-693.0,-930.0,16.0,825.0,520.0,-321.0,-39.0
19:41:23.214000,-3553.0,-1707.0,-674.0,-955.0,6.0,840.0,519.0,-301.0,-40.0
19:41:23.219000,-3593.0,-1714.0,-703.0,-955.0,6.0,840.0,519.0,-301.0,-40.0
19:41:23.224000,-3612.0,-1723.0,-751.0,-969.0,31.0,856.0,510.0,-292.0,-45.0
19:41:23.228000,-3617.0,-1729.0,-767.0,-949.0,20.0,867.0,510.0,-292.0,-45.0
19:41:23.232000,-3628.0,-1734.0,-793.0,-941.0,6.0,874.0,510.0,-292.0,-45.0
19:41:23.238000,-3626.0,-1749.0,-854.0,-935.0,27.0,885.0,493.0,-265.0,-37.0
19:41:23.242000,-3624.0,-1759.0,-913.0,-937.0,38.0,896.0,493.0,-265.0,-37.0
19:41:23.247000,-3606.0,-1759.0,-910.0,-924.0,28.0,893.0,495.0,-255.0,-39.0
19:41:23.252000,-3597.0,-1760.0,-938.0,-918.0,28.0,888.0,495.0,-255.0,-39.0
19:41:23.256000,-3597.0,-1760.0,-938.0,-941.0,44.0,894.0,495.0,-255.0,-39.0
19:41:23.261000,-3556.0,-1782.0,-989.0,-928.0,60.0,889.0,484.0,-231.0,-30.0
19:41:23.266000,-3539.0,-1768.0,-987.0,-896.0,29.0,882.0,484.0,-231.0,-30.0
19:41:23.271000,-3518.0,-1766.0,-891.0,-906.0,26.0,884.0,468.0,-216.0,-39.0
19:41:23.275000,-3490.0,-1765.0,-819.0,-958.0,96.0,877.0,468.0,-216.0,-39.0
19:41:23.279000,-3482.0,-1748.0,-820.0,-973.0,142.0,879.0,468.0,-216.0,-39.0
19:41:23.285000,-3473.0,-1743.0,-798.0,-946.0,139.0,885.0,445.0,-171.0,-21.0
19:41:23.289000,-3454.0,-1742.0,-735.0,-933.0,148.0,873.0,445.0,-171.0,-21.0
19:41:23.294000,-3430.0,-1731.0,-712.0,-923.0,176.0,864.0,432.0,-148.0,-16.0
19:41:23.298000,-3401.0,-1724.0,-731.0,-903.0,207.0,854.0,432.0,-148.0,-16.0
19:41:23.303000,-3362.0,-1715.0,-744.0,-868.0,203.0,839.0,432.0,-148.0,-16.0
19:41:23.308000,-3331.0,-1703.0,-689.0,-851.0,198.0,823.0,411.0,-144.0,3.0
19:41:23.313000,-3297.0,-1687.0,-646.0,-896.0,252.0,807.0,411.0,-144.0,3.0
19:41:23.318000,-3268.0,-1667.0,-643.0,-896.0,252.0,807.0,423.0,-115.0,-1.0
19:41:23.322000,-3228.0,-1658.0,-679.0,-952.0,350.0,799.0,423.0,-115.0,-1.0
19:41:23.326000,-3189.0,-1649.0,-716.0,-957.0,363.0,789.0,423.0,-115.0,-1.0
19:41:23.332000,-3145.0,-1645.0,-718.0,-908.0,359.0,776.0,417.0,-112.0,18.0
19:41:23.336000,-3094.0,-1632.0,-727.0,-858.0,328.0,758.0,417.0,-112.0,18.0
19:41:23.341000,-3039.0,-1622.0,-739.0,-832.0,301.0,740.0,403.0,-99.0,24.0
19:41:23.346000,-2984.0,-1607.0,-727.0,-821.0,285.0,723.0,403.0,-99.0,24.0
19:41:23.350000,-2932.0,-1579.0,-700.0,-824.0,281.0,697.0,403.0,-99.0,24.0
19:41:23.355000,-2882.0,-1551.0,-704.0,-843.0,328.0,672.0,390.0,-70.0,49.0
19:41:23.360000,-2845.0,-1533.0,-718.0,-852.0,405.0,666.0,390.0,-70.0,49.0
19:41:23.365000,-2812.0,-1518.0,-728.0,-835.0,453.0,664.0,388.0,-63.0,63.0
19:41:23.369000,-2812.0,-1518.0,-728.0,-813.0,484.0,647.0,388.0,-63.0,63.0
19:41:23.373000,-2773.0,-1498.0,-743.0,-799.0,494.0,634.0,388.0,-63.0,63.0
19:41:23.378000,-2730.0,-1487.0,-763.0,-779.0,486.0,622.0,375.0,-51.0,76.0
19:41:23.383000,-2676.0,-1474.0,-782.0,-759.0,471.0,599.0,375.0,-51.0,76.0
19:41:23.388000,-2608.0,-1460.0,-803.0,-750.0,452.0,576.0,370.0,-46.0,91.0
19:41:23.393000,-2534.0,-1444.0,-810.0,-739.0,447.0,562.0,370.0,-46.0,91.0
19:41:23.397000,-2472.0,-1435.0,-793.0,-710.0,453.0,546.0,370.0,-46.0,91.0
19:41:23.402000,-2403.0,-1417.0,-761.0,-696.0,475.0,522.0,354.0,-40.0,108.0
19:41:23.407000,-2335.0,-1388.0,-735.0,-714.0,509.0,510.0,354.0,-40.0,108.0
19:41:23.412000,-2279.0,-1357.0,-696.0,-718.0,520.0,499.0,351.0,-31.0,108.0
19:41:23.416000,-2233.0,-1318.0,-625.0,-717.0,528.0,485.0,351.0,-31.0,108.0
19:41:23.420000,-2188.0,-1281.0,-568.0,-734.0,549.0,477.0,351.0,-31.0,108.0
19:41:23.426000,-2146.0,-1249.0,-546.0,-738.0,553.0,466.0,343.0,-21.0,141.0
19:41:23.430000,-2105.0,-1217.0,-510.0,-722.0,541.0,447.0,343.0,-21.0,141.0
19:41:23.435000,-2066.0,-1176.0,-450.0,-722.0,541.0,447.0,313.0,-12.0,160.0
19:41:23.440000,-2023.0,-1134.0,-389.0,-710.0,528.0,424.0,313.0,-12.0,160.0
19:41:23.445000,-1974.0,-1096.0,-348.0,-712.0,518.0,402.0,331.0,-12.0,159.0
19:41:23.449000,-1925.0,-1059.0,-330.0,-721.0,517.0,382.0,331.0,-12.0,159.0
19:41:23.453000,-1878.0,-1020.0,-331.0,-729.0,531.0,361.0,331.0,-12.0,159.0
19:41:23.459000,-1831.0,-982.0,-348.0,-740.0,560.0,340.0,327.0,-4.0,171.0
19:41:23.463000,-1789.0,-942.0,-374.0,-737.0,579.0,325.0,327.0,-4.0,171.0
19:41:23.468000,-1747.0,-906.0,-385.0,-715.0,560.0,313.0,328.0,-1.0,184.0
19:41:23.473000,-1698.0,-867.0,-361.0,-685.0,512.0,296.0,328.0,-1.0,184.0
19:41:23.477000,-1698.0,-867.0,-361.0,-673.0,466.0,277.0,328.0,-1.0,184.0
19:41:23.482000,-1644.0,-828.0,-347.0,-683.0,458.0,263.0,318.0,0.0,202.0
19:41:23.487000,-1589.0,-797.0,-385.0,-679.0,490.0,250.0,318.0,0.0,202.0
19:41:23.492000,-1531.0,-770.0,-445.0,-648.0,538.0,239.0,313.0,-1.0,201.0
19:41:23.496000,-1487.0,-745.0,-495.0,-604.0,589.0,229.0,313.0,-1.0,201.0
19:41:23.500000,-1453.0,-721.0,-529.0,-566.0,618.0,221.0,313.0,-1.0,201.0
19:41:23.506000,-1420.0,-701.0,-551.0,-546.0,624.0,218.0,313.0,-1.0,211.0
19:41:23.510000,-1386.0,-687.0,-573.0,-540.0,624.0,212.0,313.0,-1.0,211.0
19:41:23.515000,-1351.0,-672.0,-600.0,-538.0,630.0,201.0,303.0,6.0,228.0
19:41:23.520000,-1319.0,-656.0,-625.0,-528.0,650.0,191.0,303.0,6.0,228.0
19:41:23.524000,-1293.0,-645.0,-642.0,-507.0,666.0,187.0,303.0,6.0,228.0
19:41:23.529000,-1269.0,-639.0,-643.0,-483.0,667.0,185.0,285.0,-4.0,237.0
19:41:23.534000,-1244.0,-634.0,-643.0,-462.0,662.0,179.0,285.0,-4.0,237.0
19:41:23.539000,-1216.0,-625.0,-645.0,-462.0,662.0,179.0,292.0,6.0,243.0
19:41:23.543000,-1188.0,-611.0,-655.0,-443.0,663.0,167.0,292.0,6.0,243.0
19:41:23.547000,-1166.0,-593.0,-673.0,-434.0,674.0,158.0,292.0,6.0,243.0
19:41:23.553000,-1144.0,-576.0,-686.0,-425.0,696.0,150.0,304.0,3.0,253.0
19:41:23.557000,-1124.0,-564.0,-693.0,-419.0,716.0,143.0,304.0,3.0,253.0
19:41:23.562000,-1109.0,-553.0,-700.0,-416.0,722.0,138.0,279.0,7.0,265.0
19:41:23.567000,-1087.0,-537.0,-707.0,-413.0,721.0,125.0,279.0,7.0,265.0
19:41:23.571000,-1061.0,-526.0,-712.0,-412.0,715.0,110.0,279.0,7.0,265.0
19:41:23.576000,-1031.0,-515.0,-711.0,-413.0,709.0,102.0,285.0,9.0,270.0
19:41:23.581000,-1000.0,-506.0,-710.0,-409.0,700.0,97.0,285.0,9.0,270.0
19:41:23.585000,-967.0,-498.0,-706.0,-398.0,691.0,95.0,279.0,4.0,274.0
19:41:23.590000,-967.0,-498.0,-706.0,-382.0,684.0,95.0,279.0,4.0,274.0
19:41:23.594000,-933.0,-498.0,-690.0,-364.0,675.0,96.0,279.0,4.0,274.0
19:41:23.600000,-901.0,-499.0,-666.0,-355.0,675.0,97.0,273.0,3.0,292.0
19:41:23.604000,-872.0,-493.0,-640.0,-363.0,693.0,97.0,273.0,3.0,292.0
19:41:23.609000,-846.0,-485.0,-620.0,-386.0,720.0,97.0,276.0,13.0,289.0
19:41:23.614000,-820.0,-473.0,-611.0,-413.0,737.0,98.0,276.0,13.0,289.0
19:41:23.618000,-799.0,-456.0,-605.0,-436.0,737.0,102.0,276.0,13.0,289.0
19:41:23.623000,-782.0,-434.0,-596.0,-457.0,720.0,105.0,267.0,-3.0,303.0
19:41:23.628000,-767.0,-408.0,-590.0,-471.0,694.0,101.0,267.0,-3.0,303.0
19:41:23.632000,-751.0,-380.0,-578.0,-479.0,665.0,92.0,264.0,1.0,307.0
19:41:23.637000,-730.0,-350.0,-559.0,-496.0,654.0,83.0,264.0,1.0,307.0
19:41:23.641000,-703.0,-320.0,-558.0,-519.0,670.0,81.0,264.0,1.0,307.0
19:41:23.647000,-678.0,-296.0,-581.0,-523.0,685.0,82.0,255.0,0.0,309.0
19:41:23.651000,-653.0,-278.0,-597.0,-523.0,685.0,82.0,255.0,0.0,309.0
19:41:23.655000,-630.0,-273.0,-595.0,-434.0,656.0,94.0,246.0,3.0,313.0
19:41:23.661000,-604.0,-269.0,-595.0,-434.0,656.0,94.0,246.0,3.0,313.0
19:41:23.665000,-572.0,-265.0,-592.0,-372.0,641.0,93.0,246.0,3.0,313.0
19:41:23.670000,-540.0,-260.0,-592.0,-323.0,639.0,91.0,252.0,6.0,315.0
19:41:23.675000,-508.0,-255.0,-604.0,-296.0,662.0,86.0,252.0,6.0,315.0
19:41:23.679000,-479.0,-247.0,-624.0,-292.0,704.0,78.0,244.0,0.0,319.0
19:41:23.684000,-455.0,-241.0,-651.0,-308.0,751.0,74.0,244.0,0.0,319.0
19:41:23.688000,-455.0,-241.0,-651.0,-331.0,783.0,73.0,244.0,0.0,319.0
19:41:23.694000,-404.0,-238.0,-665.0,-333.0,770.0,72.0,250.0,4.0,330.0
19:41:23.698000,-404.0,-238.0,-665.0,-303.0,728.0,76.0,250.0,4.0,330.0
19:41:23.703000,-375.0,-241.0,-655.0,-262.0,694.0,78.0,226.0,0.0,331.0
19:41:23.708000,-338.0,-242.0,-658.0,-219.0,676.0,79.0,226.0,0.0,331.0
19:41:23.712000,-303.0,-247.0,-632.0,-178.0,670.0,85.0,226.0,0.0,331.0
19:41:23.717000,-271.0,-254.0,-560.0,-161.0,695.0,93.0,232.0,-4.0,333.0
19:41:23.722000,-252.0,-263.0,-492.0,-170.0,755.0,104.0,232.0,-4.0,333.0
19:41:23.726000,-247.0,-272.0,-461.0,-188.0,820.0,111.0,232.0,-9.0,331.0
19:41:23.731000,-252.0,-277.0,-439.0,-204.0,866.0,114.0,232.0,-9.0,331.0
19:41:23.735000,-268.0,-286.0,-400.0,-212.0,891.0,119.0,232.0,-9.0,331.0
19:41:23.741000,-296.0,-296.0,-342.0,-213.0,910.0,121.0,222.0,-1.0,340.0
19:41:23.745000,-324.0,-307.0,-303.0,-217.0,927.0,120.0,222.0,-1.0,340.0
19:41:23.750000,-354.0,-312.0,-295.0,-213.0,918.0,115.0,214.0,-6.0,337.0
19:41:23.755000,-368.0,-315.0,-275.0,-195.0,867.0,110.0,214.0,-6.0,337.0
19:41:23.759000,-359.0,-320.0,-240.0,-195.0,807.0,110.0,214.0,-6.0,337.0
19:41:23.764000,-344.0,-326.0,-229.0,-180.0,807.0,107.0,222.0,-10.0,345.0
19:41:23.769000,-322.0,-335.0,-239.0,-176.0,765.0,110.0,222.0,-10.0,345.0
19:41:23.773000,-282.0,-348.0,-246.0,-158.0,735.0,114.0,214.0,-10.0,340.0
19:41:23.778000,-233.0,-363.0,-260.0,-131.0,713.0,115.0,214.0,-10.0,340.0
19:41:23.782000,-186.0,-369.0,-264.0,-114.0,699.0,118.0,214.0,-10.0,340.0
19:41:23.788000,-130.0,-373.0,-247.0,-105.0,684.0,117.0,216.0,-4.0,348.0
19:41:23.792000,-77.0,-369.0,-230.0,-112.0,677.0,114.0,216.0,-4.0,348.0
19:41:23.797000,-28.0,-361.0,-235.0,-139.0,704.0,110.0,205.0,-7.0,346.0
19:41:23.802000,12.0,-350.0,-240.0,-168.0,746.0,109.0,205.0,-7.0,346.0
19:41:23.806000,12.0,-350.0,-240.0,-178.0,775.0,110.0,205.0,-7.0,346.0
19:41:23.811000,46.0,-340.0,-224.0,-172.0,790.0,111.0,201.0,-12.0,346.0
19:41:23.816000,70.0,-324.0,-193.0,-159.0,783.0,110.0,201.0,-12.0,346.0
19:41:23.820000,95.0,-311.0,-158.0,-144.0,766.0,108.0,213.0,-19.0,349.0
19:41:23.825000,120.0,-297.0,-130.0,-133.0,759.0,106.0,213.0,-19.0,349.0
19:41:23.829000,154.0,-285.0,-118.0,-121.0,768.0,107.0,213.0,-19.0,349.0
19:41:23.835000,191.0,-280.0,-104.0,-108.0,796.0,118.0,217.0,-12.0,348.0
19:41:23.839000,213.0,-276.0,-81.0,-100.0,823.0,130.0,217.0,-12.0,348.0
19:41:23.844000,231.0,-277.0,-48.0,-98.0,833.0,136.0,210.0,-1.0,346.0
19:41:23.849000,247.0,-280.0,-8.0,-104.0,839.0,141.0,210.0,-1.0,346.0
19:41:23.853000,266.0,-283.0,17.0,-112.0,849.0,143.0,210.0,-1.0,346.0
19:41:23.858000,287.0,-282.0,32.0,-117.0,855.0,140.0,211.0,-10.0,346.0
19:41:23.863000,306.0,-280.0,43.0,-124.0,858.0,132.0,211.0,-10.0,346.0
19:41:23.867000,326.0,-273.0,54.0,-124.0,858.0,132.0,225.0,-3.0,345.0
19:41:23.872000,345.0,-266.0,68.0,-137.0,851.0,123.0,225.0,-3.0,345.0
19:41:23.876000,368.0,-257.0,82.0,-146.0,829.0,113.0,225.0,-3.0,345.0
19:41:23.882000,392.0,-249.0,94.0,-145.0,802.0,101.0,220.0,-3.0,346.0
19:41:23.886000,415.0,-240.0,102.0,-144.0,782.0,91.0,220.0,-3.0,346.0
19:41:23.891000,444.0,-230.0,105.0,-142.0,774.0,79.0,219.0,-6.0,334.0
19:41:23.896000,472.0,-219.0,104.0,-145.0,767.0,62.0,219.0,-6.0,334.0
19:41:23.900000,499.0,-208.0,98.0,-161.0,765.0,44.0,219.0,-6.0,334.0
19:41:23.905000,522.0,-207.0,92.0,-179.0,779.0,37.0,216.0,1.0,331.0
19:41:23.910000,546.0,-211.0,91.0,-188.0,792.0,45.0,216.0,1.0,331.0
19:41:23.914000,570.0,-221.0,95.0,-179.0,782.0,54.0,219.0,0.0,330.0
19:41:23.919000,570.0,-221.0,95.0,-157.0,756.0,55.0,219.0,0.0,330.0
19:41:23.923000,602.0,-229.0,95.0,-144.0,746.0,50.0,219.0,0.0,330.0
19:41:23.929000,635.0,-234.0,79.0,-158.0,768.0,45.0,219.0,0.0,328.0
19:41:23.933000,664.0,-235.0,51.0,-192.0,806.0,45.0,219.0,0.0,328.0
19:41:23.938000,681.0,-232.0,34.0,-224.0,825.0,43.0,219.0,3.0,330.0
19:41:23.943000,688.0,-223.0,37.0,-252.0,819.0,37.0,219.0,3.0,330.0
19:41:23.947000,696.0,-210.0,45.0,-284.0,807.0,29.0,219.0,3.0,330.0
19:41:23.952000,707.0,-195.0,33.0,-314.0,800.0,25.0,228.0,0.0,316.0
19:41:23.957000,725.0,-179.0,7.0,-326.0,785.0,27.0,228.0,0.0,316.0
19:41:23.961000,746.0,-167.0,-8.0,-316.0,749.0,28.0,219.0,0.0,309.0
19:41:23.966000,776.0,-154.0,-8.0,-295.0,709.0,30.0,219.0,0.0,309.0
19:41:23.970000,813.0,-143.0,-7.0,-281.0,693.0,35.0,219.0,0.0,309.0
19:41:23.976000,857.0,-135.0,-17.0,-277.0,702.0,41.0,229.0,3.0,306.0
19:41:23.980000,903.0,-131.0,-36.0,-277.0,702.0,41.0,229.0,3.0,306.0
19:41:23.985000,949.0,-131.0,-51.0,-275.0,715.0,50.0,211.0,9.0,297.0
19:41:23.990000,998.0,-135.0,-56.0,-247.0,690.0,79.0,211.0,9.0,297.0
19:41:23.994000,1054.0,-136.0,-57.0,-247.0,690.0,79.0,211.0,9.0,297.0
19:41:23.999000,1114.0,-129.0,-74.0,-222.0,671.0,90.0,225.0,7.0,300.0
19:41:24.004000,1178.0,-116.0,-112.0,-210.0,684.0,99.0,225.0,7.0,300.0
19:41:24.008000,1247.0,-100.0,-156.0,-224.0,735.0,109.0,214.0,13.0,279.0
19:41:24.013000,1330.0,-86.0,-180.0,-256.0,788.0,126.0,214.0,13.0,279.0
19:41:24.017000,1330.0,-86.0,-180.0,-277.0,798.0,143.0,214.0,13.0,279.0
19:41:24.023000,1536.0,-63.0,-207.0,-271.0,772.0,161.0,219.0,18.0,265.0
19:41:24.027000,1536.0,-63.0,-207.0,-248.0,724.0,189.0,219.0,18.0,265.0
19:41:24.032000,1642.0,-59.0,-195.0,-246.0,626.0,227.0,226.0,7.0,264.0
19:41:24.036000,1736.0,-53.0,-145.0,-267.0,554.0,265.0,226.0,7.0,264.0
19:41:24.041000,1844.0,-47.0,-90.0,-287.0,597.0,298.0,226.0,7.0,264.0
19:41:24.046000,1964.0,-42.0,-94.0,-285.0,698.0,328.0,213.0,19.0,267.0
19:41:24.051000,2081.0,-41.0,-148.0,-268.0,777.0,360.0,213.0,19.0,267.0
19:41:24.055000,2174.0,-40.0,-204.0,-257.0,815.0,400.0,214.0,12.0,232.0
19:41:24.060000,2244.0,-44.0,-218.0,-243.0,823.0,437.0,214.0,12.0,232.0
19:41:24.064000,2311.0,-51.0,-198.0,-227.0,806.0,463.0,214.0,12.0,232.0
19:41:24.070000,2382.0,-60.0,-161.0,-216.0,773.0,487.0,220.0,12.0,205.0
19:41:24.074000,2458.0,-67.0,-127.0,-212.0,740.0,513.0,220.0,12.0,205.0
19:41:24.079000,2533.0,-72.0,-101.0,-212.0,740.0,513.0,216.0,15.0,186.0
19:41:24.084000,2608.0,-73.0,-77.0,-199.0,700.0,573.0,216.0,15.0,186.0
19:41:24.088000,2688.0,-71.0,-42.0,-199.0,700.0,573.0,216.0,15.0,186.0
19:41:24.093000,2781.0,-65.0,-10.0,-184.0,651.0,594.0,202.0,12.0,163.0
19:41:24.098000,2872.0,-54.0,-6.0,-189.0,606.0,615.0,202.0,12.0,163.0
19:41:24.102000,2965.0,-42.0,4.0,-216.0,577.0,641.0,208.0,4.0,148.0
19:41:24.107000,3059.0,-29.0,39.0,-245.0,549.0,670.0,208.0,4.0,148.0
19:41:24.111000,3148.0,-14.0,78.0,-265.0,505.0,698.0,208.0,4.0,148.0
19:41:24.117000,3231.0,11.0,112.0,-271.0,455.0,727.0,214.0,-1.0,129.0
19:41:24.121000,3316.0,42.0,137.0,-264.0,412.0,754.0,214.0,-1.0,129.0
19:41:24.126000,3383.0,78.0,144.0,-264.0,393.0,783.0,207.0,3.0,102.0
19:41:24.131000,3438.0,117.0,130.0,-284.0,419.0,809.0,207.0,3.0,102.0
19:41:24.135000,3438.0,117.0,130.0,-332.0,477.0,827.0,207.0,3.0,102.0
19:41:24.140000,3470.0,161.0,102.0,-396.0,541.0,841.0,219.0,-13.0,63.0
19:41:24.145000,3487.0,203.0,56.0,-443.0,568.0,844.0,219.0,-13.0,63.0
19:41:24.149000,3487.0,252.0,7.0,-455.0,537.0,839.0,219.0,-28.0,49.0
19:41:24.154000,3482.0,304.0,-24.0,-455.0,476.0,840.0,219.0,-28.0,49.0
19:41:24.158000,3481.0,343.0,-46.0,-456.0,434.0,840.0,219.0,-28.0,49.0
19:41:24.164000,3477.0,382.0,-90.0,-451.0,437.0,847.0,220.0,-37.0,27.0
19:41:24.168000,3469.0,403.0,-137.0,-424.0,432.0,857.0,220.0,-37.0,27.0
19:41:24.173000,3455.0,423.0,-144.0,-385.0,401.0,866.0,214.0,-60.0,6.0
19:41:24.178000,3438.0,433.0,-131.0,-367.0,374.0,881.0,214.0,-60.0,6.0
19:41:24.182000,3424.0,438.0,-137.0,-366.0,359.0,889.0,214.0,-60.0,6.0
19:41:24.187000,3415.0,448.0,-161.0,-364.0,374.0,906.0,220.0,-57.0,-1.0
19:41:24.192000,3415.0,465.0,-198.0,-378.0,368.0,918.0,220.0,-57.0,-1.0
19:41:24.196000,3395.0,488.0,-223.0,-378.0,368.0,918.0,220.0,-79.0,-33.0
19:41:24.201000,3381.0,529.0,-218.0,-410.0,339.0,915.0,220.0,-79.0,-33.0
19:41:24.205000,3364.0,568.0,-197.0,-462.0,322.0,929.0,220.0,-79.0,-33.0
19:41:24.211000,3347.0,618.0,-191.0,-535.0,294.0,950.0,220.0,-120.0,-70.0
19:41:24.215000,3341.0,688.0,-176.0,-584.0,258.0,940.0,220.0,-120.0,-70.0
19:41:24.220000,3329.0,756.0,-138.0,-619.0,212.0,929.0,225.0,-129.0,-87.0
19:41:24.225000,3341.0,800.0,-143.0,-681.0,150.0,946.0,225.0,-129.0,-87.0
19:41:24.229000,3395.0,894.0,-284.0,-775.0,78.0,954.0,225.0,-129.0,-87.0
19:41:24.234000,3462.0,943.0,-511.0,-1247.0,-273.0,1027.0,222.0,-145.0,-99.0
19:41:24.239000,3416.0,932.0,-193.0,-928.0,-273.0,1132.0,222.0,-145.0,-99.0
19:41:24.243000,3412.0,1020.0,-1.0,-141.0,86.0,1092.0,237.0,-171.0,-121.0
19:41:24.248000,3412.0,1020.0,-1.0,-251.0,150.0,1062.0,237.0,-171.0,-121.0
19:41:24.252000,3388.0,1062.0,-109.0,-453.0,184.0,1070.0,237.0,-171.0,-121.0
19:41:24.258000,3387.0,1104.0,-281.0,-514.0,99.0,1071.0,234.0,-189.0,-135.0
19:41:24.262000,3369.0,1113.0,-350.0,-500.0,-83.0,1099.0,234.0,-189.0,-135.0
19:41:24.267000,3368.0,1143.0,-311.0,-471.0,-151.0,1103.0,249.0,-210.0,-145.0
19:41:24.272000,3366.0,1172.0,-284.0,-512.0,-110.0,1115.0,249.0,-210.0,-145.0
19:41:24.276000,3323.0,1204.0,-242.0,-531.0,-73.0,1124.0,249.0,-210.0,-145.0
19:41:24.281000,3283.0,1232.0,-184.0,-491.0,-54.0,1117.0,265.0,-252.0,-160.0
19:41:24.286000,3238.0,1262.0,-132.0,-473.0,-70.0,1100.0,265.0,-252.0,-160.0
19:41:24.290000,3203.0,1278.0,-113.0,-525.0,-131.0,1092.0,261.0,-265.0,-168.0
19:41:24.295000,3177.0,1285.0,-102.0,-560.0,-215.0,1089.0,261.0,-265.0,-168.0
19:41:24.299000,3161.0,1288.0,-97.0,-513.0,-274.0,1081.0,261.0,-265.0,-168.0
19:41:24.305000,3164.0,1290.0,-126.0,-384.0,-306.0,1082.0,276.0,-291.0,-180.0
19:41:24.309000,3146.0,1297.0,-126.0,-300.0,-336.0,1111.0,276.0,-291.0,-180.0
19:41:24.314000,3119.0,1301.0,-77.0,-300.0,-336.0,1111.0,285.0,-312.0,-172.0
19:41:24.319000,3074.0,1299.0,-79.0,-305.0,-327.0,1138.0,285.0,-312.0,-172.0
19:41:24.323000,3024.0,1293.0,-117.0,-326.0,-253.0,1129.0,285.0,-312.0,-172.0
19:41:24.328000,2975.0,1295.0,-176.0,-349.0,-135.0,1111.0,289.0,-342.0,-172.0
19:41:24.333000,2923.0,1302.0,-215.0,-349.0,-49.0,1102.0,289.0,-342.0,-172.0
19:41:24.337000,2862.0,1294.0,-240.0,-349.0,-57.0,1105.0,295.0,-357.0,-190.0
19:41:24.342000,2799.0,1283.0,-254.0,-348.0,-153.0,1121.0,295.0,-357.0,-190.0
19:41:24.346000,2799.0,1283.0,-254.0,-341.0,-269.0,1132.0,295.0,-357.0,-190.0
19:41:24.352000,2703.0,1271.0,-176.0,-301.0,-343.0,1137.0,319.0,-402.0,-184.0
19:41:24.356000,2703.0,1271.0,-176.0,-280.0,-349.0,1153.0,319.0,-402.0,-184.0
19:41:24.361000,2634.0,1278.0,-139.0,-361.0,-329.0,1152.0,324.0,-409.0,-181.0
19:41:24.366000,2563.0,1295.0,-170.0,-482.0,-355.0,1134.0,324.0,-409.0,-181.0
19:41:24.370000,2498.0,1324.0,-186.0,-563.0,-382.0,1119.0,324.0,-409.0,-181.0
19:41:24.375000,2454.0,1350.0,-130.0,-613.0,-405.0,1111.0,340.0,-429.0,-183.0
19:41:24.380000,2412.0,1346.0,-46.0,-630.0,-480.0,1114.0,340.0,-429.0,-183.0
19:41:24.384000,2377.0,1341.0,15.0,-617.0,-542.0,1107.0,348.0,-450.0,-183.0
19:41:24.389000,2378.0,1333.0,0.0,-589.0,-569.0,1098.0,348.0,-450.0,-183.0
19:41:24.393000,2382.0,1325.0,-77.0,-532.0,-590.0,1100.0,348.0,-450.0,-183.0
19:41:24.399000,2386.0,1320.0,-153.0,-456.0,-601.0,1094.0,355.0,-453.0,-184.0
19:41:24.403000,2374.0,1323.0,-157.0,-422.0,-556.0,1078.0,355.0,-453.0,-184.0
19:41:24.408000,2333.0,1330.0,-139.0,-422.0,-556.0,1078.0,369.0,-483.0,-175.0
19:41:24.413000,2272.0,1330.0,-158.0,-521.0,-330.0,1044.0,369.0,-483.0,-175.0
19:41:24.417000,2186.0,1327.0,-191.0,-521.0,-330.0,1044.0,369.0,-483.0,-175.0
19:41:24.422000,2100.0,1331.0,-200.0,-567.0,-266.0,1017.0,372.0,-495.0,-169.0
19:41:24.427000,2015.0,1334.0,-211.0,-594.0,-242.0,983.0,372.0,-495.0,-169.0
19:41:24.431000,1911.0,1336.0,-202.0,-613.0,-277.0,957.0,393.0,-519.0,-156.0
19:41:24.436000,1828.0,1338.0,-162.0,-618.0,-406.0,923.0,393.0,-519.0,-156.0
19:41:24.440000,1768.0,1333.0,-160.0,-623.0,-406.0,884.0,393.0,-519.0,-156.0
19:41:24.446000,1726.0,1337.0,-197.0,-634.0,-434.0,853.0,391.0,-535.0,-151.0
19:41:24.450000,1680.0,1339.0,-238.0,-651.0,-442.0,824.0,391.0,-535.0,-151.0
19:41:24.455000,1631.0,1337.0,-249.0,-661.0,-450.0,811.0,417.0,-534.0,-145.0
19:41:24.460000,1595.0,1338.0,-233.0,-642.0,-477.0,784.0,417.0,-534.0,-145.0
19:41:24.464000,1595.0,1338.0,-233.0,-622.0,-513.0,741.0,417.0,-534.0,-145.0
19:41:24.469000,1549.0,1348.0,-227.0,-648.0,-494.0,712.0,430.0,-546.0,-135.0
19:41:24.474000,1502.0,1355.0,-254.0,-687.0,-442.0,690.0,430.0,-546.0,-135.0
19:41:24.478000,1453.0,1362.0,-273.0,-705.0,-418.0,671.0,423.0,-552.0,-129.0
19:41:24.483000,1390.0,1362.0,-256.0,-707.0,-425.0,644.0,423.0,-552.0,-129.0
19:41:24.487000,1320.0,1362.0,-228.0,-701.0,-461.0,598.0,423.0,-552.0,-129.0
19:41:24.493000,1243.0,1360.0,-218.0,-696.0,-485.0,556.0,424.0,-565.0,-111.0
19:41:24.497000,1168.0,1358.0,-222.0,-688.0,-467.0,529.0,424.0,-565.0,-111.0
19:41:24.502000,1103.0,1347.0,-252.0,-669.0,-443.0,510.0,460.0,-573.0,-100.0
19:41:24.507000,1029.0,1333.0,-282.0,-638.0,-435.0,497.0,460.0,-573.0,-100.0
19:41:24.511000,958.0,1310.0,-290.0,-615.0,-439.0,478.0,460.0,-573.0,-100.0
19:41:24.516000,886.0,1283.0,-292.0,-601.0,-453.0,453.0,465.0,-582.0,-93.0
19:41:24.520000,826.0,1251.0,-312.0,-593.0,-481.0,421.0,465.0,-582.0,-93.0
19:41:24.525000,777.0,1218.0,-342.0,-593.0,-481.0,421.0,468.0,-582.0,-82.0
19:41:24.530000,739.0,1187.0,-361.0,-592.0,-534.0,384.0,468.0,-582.0,-82.0
19:41:24.535000,710.0,1158.0,-356.0,-603.0,-607.0,343.0,478.0,-580.0,-82.0
19:41:24.540000,681.0,1140.0,-356.0,-627.0,-669.0,302.0,478.0,-580.0,-82.0
19:41:24.544000,654.0,1115.0,-368.0,-661.0,-698.0,273.0,478.0,-580.0,-82.0
19:41:24.548000,625.0,1089.0,-390.0,-691.0,-691.0,254.0,480.0,-579.0,-79.0
19:41:24.554000,582.0,1063.0,-406.0,-708.0,-652.0,231.0,480.0,-579.0,-79.0
19:41:24.558000,525.0,1030.0,-424.0,-728.0,-601.0,209.0,493.0,-577.0,-60.0
19:41:24.563000,457.0,991.0,-445.0,-747.0,-559.0,194.0,493.0,-577.0,-60.0
19:41:24.567000,457.0,991.0,-445.0,-742.0,-530.0,173.0,493.0,-577.0,-60.0
19:41:24.572000,413.0,940.0,-469.0,-722.0,-536.0,157.0,504.0,-585.0,-69.0
19:41:24.577000,351.0,889.0,-496.0,-697.0,-577.0,147.0,504.0,-585.0,-69.0
19:41:24.582000,299.0,832.0,-514.0,-670.0,-622.0,129.0,519.0,-583.0,-43.0
19:41:24.587000,268.0,777.0,-529.0,-660.0,-660.0,111.0,519.0,-583.0,-43.0
19:41:24.591000,250.0,727.0,-560.0,-666.0,-678.0,96.0,519.0,-583.0,-43.0
19:41:24.596000,235.0,686.0,-595.0,-678.0,-692.0,91.0,517.0,-595.0,-54.0
19:41:24.601000,227.0,634.0,-604.0,-692.0,-716.0,86.0,517.0,-595.0,-54.0
19:41:24.605000,221.0,588.0,-588.0,-714.0,-726.0,78.0,516.0,-579.0,-39.0
19:41:24.610000,210.0,545.0,-580.0,-738.0,-736.0,70.0,516.0,-579.0,-39.0
19:41:24.614000,200.0,508.0,-576.0,-754.0,-742.0,53.0,516.0,-579.0,-39.0
19:41:24.619000,194.0,475.0,-578.0,-769.0,-719.0,41.0,510.0,-574.0,-19.0
19:41:24.624000,190.0,442.0,-596.0,-787.0,-665.0,33.0,510.0,-574.0,-19.0
19:41:24.629000,185.0,415.0,-616.0,-787.0,-665.0,33.0,537.0,-579.0,-31.0
19:41:24.634000,168.0,387.0,-632.0,-799.0,-596.0,33.0,537.0,-579.0,-31.0
19:41:24.638000,153.0,361.0,-636.0,-810.0,-596.0,33.0,537.0,-579.0,-31.0
19:41:24.643000,146.0,329.0,-609.0,-825.0,-607.0,30.0,540.0,-571.0,-31.0
19:41:24.648000,148.0,296.0,-562.0,-843.0,-651.0,29.0,540.0,-571.0,-31.0
19:41:24.652000,159.0,266.0,-526.0,-900.0,-692.0,24.0,549.0,-568.0,-21.0
19:41:24.657000,169.0,234.0,-505.0,-900.0,-692.0,24.0,549.0,-568.0,-21.0
19:41:24.661000,175.0,203.0,-477.0,-904.0,-693.0,27.0,549.0,-568.0,-21.0
19:41:24.666000,177.0,176.0,-454.0,-895.0,-683.0,32.0,555.0,-571.0,-21.0
19:41:24.671000,169.0,159.0,-437.0,-885.0,-664.0,31.0,555.0,-571.0,-21.0
19:41:24.676000,167.0,138.0,-443.0,-879.0,-628.0,31.0,547.0,-564.0,-22.0
19:41:24.681000,158.0,121.0,-476.0,-885.0,-586.0,35.0,547.0,-564.0,-22.0
19:41:24.685000,158.0,121.0,-476.0,-889.0,-559.0,39.0,547.0,-564.0,-22.0
19:41:24.690000,142.0,107.0,-504.0,-889.0,-553.0,39.0,562.0,-562.0,-31.0
19:41:24.695000,130.0,91.0,-517.0,-899.0,-545.0,32.0,562.0,-562.0,-31.0
19:41:24.699000,122.0,76.0,-534.0,-917.0,-527.0,27.0,561.0,-565.0,-19.0
19:41:24.704000,113.0,58.0,-547.0,-925.0,-511.0,27.0,561.0,-565.0,-19.0
19:41:24.708000,102.0,37.0,-539.0,-914.0,-502.0,24.0,561.0,-565.0,-19.0
19:41:24.713000,87.0,14.0,-505.0,-896.0,-505.0,21.0,547.0,-555.0,-12.0
19:41:24.718000,70.0,-12.0,-448.0,-879.0,-509.0,20.0,547.0,-555.0,-12.0
19:41:24.723000,52.0,-36.0,-386.0,-868.0,-513.0,20.0,556.0,-553.0,-15.0
19:41:24.728000,27.0,-54.0,-333.0,-865.0,-498.0,19.0,556.0,-553.0,-15.0
19:41:24.732000,10.0,-72.0,-292.0,-862.0,-470.0,15.0,556.0,-553.0,-15.0
19:41:24.737000,-5.0,-87.0,-258.0,-862.0,-462.0,7.0,558.0,-558.0,-16.0
19:41:24.742000,-28.0,-95.0,-223.0,-878.0,-462.0,0.0,558.0,-558.0,-16.0
19:41:24.746000,-48.0,-102.0,-200.0,-900.0,-458.0,-7.0,555.0,-549.0,-22.0
19:41:24.751000,-60.0,-104.0,-191.0,-900.0,-458.0,-7.0,555.0,-549.0,-22.0
19:41:24.755000,-73.0,-105.0,-186.0,-913.0,-466.0,-13.0,555.0,-549.0,-22.0
19:41:24.760000,-82.0,-105.0,-165.0,-913.0,-500.0,-15.0,552.0,-555.0,-22.0
19:41:24.765000,-79.0,-107.0,-139.0,-912.0,-537.0,-19.0,552.0,-555.0,-22.0
19:41:24.770000,-65.0,-110.0,-121.0,-915.0,-561.0,-27.0,567.0,-547.0,-21.0
19:41:24.775000,-51.0,-115.0,-115.0,-917.0,-566.0,-30.0,567.0,-547.0,-21.0
19:41:24.779000,-51.0,-115.0,-115.0,-917.0,-565.0,-28.0,567.0,-547.0,-21.0
19:41:24.783000,-40.0,-122.0,-109.0,-914.0,-562.0,-30.0,565.0,-537.0,-16.0
19:41:24.789000,-7.0,-144.0,-106.0,-917.0,-543.0,-30.0,565.0,-537.0,-16.0
19:41:24.793000,-7.0,-144.0,-106.0,-924.0,-525.0,-24.0,559.0,-540.0,-21.0
19:41:24.798000,5.0,-158.0,-100.0,-924.0,-526.0,-16.0,559.0,-540.0,-21.0
19:41:24.802000,14.0,-176.0,-67.0,-925.0,-524.0,-6.0,559.0,-540.0,-21.0
19:41:24.807000,21.0,-200.0,-30.0,-928.0,-510.0,2.0,556.0,-550.0,-24.0
19:41:24.812000,28.0,-222.0,-9.0,-917.0,-490.0,10.0,556.0,-550.0,-24.0
19:41:24.817000,36.0,-247.0,3.0,-889.0,-474.0,22.0,559.0,-550.0,-24.0
19:41:24.822000,38.0,-274.0,23.0,-852.0,-468.0,36.0,559.0,-550.0,-24.0
19:41:24.826000,35.0,-302.0,53.0,-820.0,-464.0,51.0,559.0,-550.0,-24.0
19:41:24.831000,33.0,-329.0,86.0,-801.0,-466.0,66.0,564.0,-540.0,-19.0
19:41:24.835000,31.0,-354.0,101.0,-793.0,-473.0,80.0,564.0,-540.0,-19.0
19:41:24.840000,32.0,-380.0,108.0,-792.0,-487.0,91.0,567.0,-547.0,-33.0
19:41:24.845000,39.0,-403.0,116.0,-800.0,-504.0,100.0,567.0,-547.0,-33.0
19:41:24.850000,48.0,-424.0,126.0,-800.0,-504.0,100.0,568.0,-543.0,-24.0
19:41:24.854000,59.0,-438.0,135.0,-813.0,-515.0,108.0,568.0,-543.0,-24.0
19:41:24.859000,65.0,-449.0,141.0,-827.0,-520.0,122.0,568.0,-543.0,-24.0
19:41:24.864000,70.0,-455.0,129.0,-841.0,-509.0,136.0,555.0,-550.0,-40.0
19:41:24.869000,72.0,-457.0,105.0,-850.0,-489.0,144.0,555.0,-550.0,-40.0
19:41:24.873000,69.0,-456.0,76.0,-851.0,-474.0,150.0,552.0,-558.0,-34.0
19:41:24.878000,63.0,-453.0,42.0,-851.0,-454.0,154.0,552.0,-558.0,-34.0
19:41:24.882000,49.0,-447.0,16.0,-851.0,-427.0,153.0,552.0,-558.0,-34.0
19:41:24.887000,28.0,-438.0,4.0,-857.0,-404.0,150.0,540.0,-550.0,-12.0
19:41:24.892000,0.0,-434.0,5.0,-869.0,-385.0,149.0,540.0,-550.0,-12.0
19:41:24.897000,-22.0,-437.0,23.0,-878.0,-375.0,147.0,547.0,-556.0,-46.0
19:41:24.901000,-22.0,-437.0,23.0,-882.0,-376.0,142.0,547.0,-556.0,-46.0
19:41:24.906000,-46.0,-438.0,39.0,-880.0,-394.0,134.0,547.0,-556.0,-46.0
19:41:24.911000,-68.0,-439.0,64.0,-874.0,-429.0,120.0,549.0,-550.0,-49.0
19:41:24.916000,-79.0,-443.0,98.0,-867.0,-464.0,102.0,549.0,-550.0,-49.0
19:41:24.920000,-84.0,-450.0,123.0,-860.0,-480.0,87.0,540.0,-553.0,-46.0
19:41:24.925000,-81.0,-458.0,147.0,-848.0,-492.0,72.0,540.0,-553.0,-46.0
19:41:24.932000,-86.0,-461.0,177.0,-840.0,-486.0,49.0,538.0,-552.0,-54.0
19:41:24.934000,-86.0,-461.0,177.0,-840.0,-486.0,49.0,538.0,-552.0,-54.0
19:41:24.938000,-94.0,-459.0,161.0,-854.0,-455.0,34.0,538.0,-552.0,-54.0
19:41:24.944000,-107.0,-452.0,125.0,-872.0,-424.0,20.0,540.0,-553.0,-57.0
19:41:24.948000,-132.0,-448.0,79.0,-882.0,-414.0,9.0,540.0,-553.0,-57.0
19:41:24.953000,-163.0,-448.0,39.0,-882.0,-414.0,9.0,537.0,-559.0,-55.0
19:41:24.958000,-191.0,-452.0,16.0,-884.0,-441.0,-19.0,537.0,-559.0,-55.0
19:41:24.962000,-215.0,-460.0,0.0,-884.0,-446.0,-19.0,537.0,-559.0,-55.0
19:41:24.967000,-242.0,-470.0,-17.0,-882.0,-446.0,-34.0,535.0,-550.0,-61.0
19:41:24.972000,-277.0,-478.0,-46.0,-880.0,-370.0,-37.0,535.0,-550.0,-61.0
19:41:24.977000,-324.0,-487.0,-85.0,-880.0,-370.0,-37.0,516.0,-547.0,-57.0
19:41:24.981000,-386.0,-504.0,-120.0,-880.0,-298.0,-23.0,516.0,-547.0,-57.0
19:41:24.985000,-467.0,-520.0,-148.0,-880.0,-219.0,-5.0,516.0,-547.0,-57.0
19:41:24.991000,-568.0,-547.0,-174.0,-887.0,-135.0,17.0,532.0,-549.0,-61.0
19:41:24.995000,-674.0,-581.0,-197.0,-897.0,-61.0,47.0,532.0,-549.0,-61.0
19:41:25.000000,-785.0,-609.0,-210.0,-896.0,-27.0,77.0,522.0,-534.0,-67.0
19:41:25.005000,-898.0,-640.0,-232.0,-894.0,-31.0,106.0,522.0,-534.0,-67.0
19:41:25.009000,-898.0,-640.0,-232.0,-891.0,-40.0,135.0,522.0,-534.0,-67.0
19:41:25.014000,-1003.0,-676.0,-266.0,-879.0,-60.0,162.0,526.0,-544.0,-69.0
19:41:25.019000,-1094.0,-714.0,-291.0,-874.0,-89.0,190.0,526.0,-544.0,-69.0
19:41:25.024000,-1181.0,-748.0,-299.0,-885.0,-121.0,219.0,514.0,-528.0,-84.0
19:41:25.028000,-1268.0,-771.0,-281.0,-906.0,-147.0,247.0,514.0,-528.0,-84.0
19:41:25.032000,-1342.0,-801.0,-253.0,-936.0,-158.0,279.0,514.0,-528.0,-84.0
19:41:25.038000,-1417.0,-833.0,-261.0,-961.0,-154.0,310.0,520.0,-519.0,-90.0
19:41:25.042000,-1479.0,-865.0,-303.0,-966.0,-150.0,328.0,520.0,-519.0,-90.0
19:41:25.047000,-1516.0,-893.0,-347.0,-954.0,-160.0,347.0,514.0,-508.0,-96.0
19:41:25.052000,-1563.0,-926.0,-374.0,-931.0,-173.0,373.0,514.0,-508.0,-96.0
19:41:25.056000,-1638.0,-959.0,-391.0,-906.0,-153.0,402.0,514.0,-508.0,-96.0
19:41:25.061000,-1717.0,-996.0,-420.0,-907.0,-96.0,407.0,504.0,-498.0,-106.0
19:41:25.066000,-1775.0,-1026.0,-493.0,-904.0,-32.0,418.0,504.0,-498.0,-106.0
19:41:25.071000,-1847.0,-1061.0,-601.0,-904.0,-32.0,418.0,507.0,-492.0,-109.0
19:41:25.075000,-1914.0,-1101.0,-684.0,-848.0,8.0,454.0,507.0,-492.0,-109.0
19:41:25.079000,-1965.0,-1147.0,-749.0,-783.0,24.0,479.0,507.0,-492.0,-109.0
19:41:25.085000,-2046.0,-1184.0,-774.0,-740.0,53.0,510.0,499.0,-484.0,-117.0
19:41:25.089000,-2148.0,-1222.0,-764.0,-720.0,66.0,552.0,499.0,-484.0,-117.0
19:41:25.094000,-2257.0,-1257.0,-767.0,-714.0,71.0,588.0,487.0,-463.0,-118.0
19:41:25.099000,-2353.0,-1305.0,-783.0,-701.0,119.0,624.0,487.0,-463.0,-118.0
19:41:25.103000,-2461.0,-1350.0,-744.0,-692.0,156.0,672.0,487.0,-463.0,-118.0
19:41:25.108000,-2593.0,-1397.0,-672.0,-705.0,156.0,724.0,466.0,-436.0,-121.0
19:41:25.113000,-2724.0,-1448.0,-616.0,-735.0,198.0,769.0,466.0,-436.0,-121.0
19:41:25.118000,-2855.0,-1505.0,-557.0,-760.0,257.0,810.0,474.0,-403.0,-132.0
19:41:25.122000,-2855.0,-1505.0,-557.0,-773.0,251.0,862.0,474.0,-403.0,-132.0
19:41:25.126000,-2990.0,-1569.0,-489.0,-793.0,213.0,910.0,474.0,-403.0,-132.0
19:41:25.132000,-3099.0,-1633.0,-464.0,-813.0,187.0,955.0,459.0,-394.0,-141.0
19:41:25.136000,-3200.0,-1685.0,-478.0,-793.0,142.0,994.0,459.0,-394.0,-141.0
19:41:25.140000,-3279.0,-1733.0,-467.0,-766.0,67.0,1028.0,442.0,-367.0,-147.0
19:41:25.146000,-3347.0,-1778.0,-435.0,-761.0,2.0,1059.0,442.0,-367.0,-147.0
19:41:25.150000,-3420.0,-1794.0,-416.0,-779.0,-26.0,1077.0,442.0,-367.0,-147.0
19:41:25.155000,-3481.0,-1794.0,-422.0,-820.0,-33.0,1109.0,424.0,-337.0,-151.0
19:41:25.160000,-3530.0,-1802.0,-455.0,-834.0,-31.0,1126.0,424.0,-337.0,-151.0
19:41:25.165000,-3570.0,-1775.0,-502.0,-839.0,-36.0,1113.0,424.0,-315.0,-145.0
19:41:25.169000,-3602.0,-1732.0,-552.0,-881.0,-32.0,1107.0,424.0,-315.0,-145.0
19:41:25.173000,-3627.0,-1687.0,-599.0,-934.0,-8.0,1110.0,424.0,-315.0,-145.0
19:41:25.179000,-3645.0,-1652.0,-638.0,-985.0,10.0,1114.0,409.0,-276.0,-150.0
19:41:25.183000,-3650.0,-1621.0,-682.0,-1011.0,-2.0,1103.0,409.0,-276.0,-150.0
19:41:25.188000,-3637.0,-1581.0,-725.0,-1011.0,-2.0,1103.0,378.0,-244.0,-118.0
19:41:25.193000,-3603.0,-1542.0,-759.0,-997.0,-51.0,1082.0,378.0,-244.0,-118.0
19:41:25.197000,-3562.0,-1500.0,-773.0,-953.0,-110.0,1059.0,370.0,-225.0,-132.0
19:41:25.202000,-3507.0,-1464.0,-759.0,-892.0,-150.0,1039.0,370.0,-225.0,-132.0
19:41:25.206000,-3451.0,-1420.0,-726.0,-837.0,-171.0,1017.0,370.0,-225.0,-132.0
19:41:25.212000,-3385.0,-1372.0,-689.0,-810.0,-175.0,989.0,370.0,-199.0,-115.0
19:41:25.216000,-3313.0,-1316.0,-665.0,-821.0,-153.0,954.0,370.0,-199.0,-115.0
19:41:25.221000,-3241.0,-1260.0,-651.0,-857.0,-122.0,920.0,370.0,-181.0,-106.0
19:41:25.226000,-3178.0,-1207.0,-640.0,-898.0,-89.0,899.0,370.0,-181.0,-106.0
19:41:25.230000,-3178.0,-1207.0,-640.0,-915.0,-54.0,882.0,370.0,-181.0,-106.0
19:41:25.235000,-3126.0,-1145.0,-606.0,-903.0,-25.0,859.0,340.0,-160.0,-84.0
19:41:25.240000,-3074.0,-1071.0,-545.0,-874.0,-6.0,837.0,340.0,-160.0,-84.0
19:41:25.244000,-3024.0,-994.0,-464.0,-848.0,10.0,821.0,346.0,-136.0,-90.0
19:41:25.249000,-2988.0,-913.0,-385.0,-835.0,29.0,805.0,346.0,-136.0,-90.0
19:41:25.253000,-2955.0,-835.0,-306.0,-828.0,47.0,788.0,346.0,-136.0,-90.0
19:41:25.259000,-2921.0,-753.0,-228.0,-824.0,71.0,775.0,330.0,-105.0,-64.0
19:41:25.263000,-2880.0,-674.0,-156.0,-816.0,98.0,765.0,330.0,-105.0,-64.0
19:41:25.267000,-2824.0,-596.0,-111.0,-808.0,113.0,753.0,327.0,-103.0,-48.0
19:41:25.273000,-2755.0,-515.0,-86.0,-794.0,107.0,744.0,327.0,-103.0,-48.0
19:41:25.277000,-2680.0,-441.0,-67.0,-770.0,86.0,740.0,327.0,-103.0,-48.0
19:41:25.282000,-2602.0,-371.0,-35.0,-753.0,62.0,730.0,321.0,-82.0,-40.0
19:41:25.287000,-2510.0,-299.0,7.0,-746.0,52.0,717.0,321.0,-82.0,-40.0
19:41:25.291000,-2417.0,-235.0,29.0,-746.0,52.0,717.0,324.0,-70.0,-16.0
19:41:25.296000,-2304.0,-172.0,16.0,-730.0,55.0,697.0,324.0,-70.0,-16.0
19:41:25.300000,-2191.0,-111.0,9.0,-695.0,49.0,663.0,324.0,-70.0,-16.0
19:41:25.306000,-2079.0,-56.0,23.0,-672.0,52.0,636.0,307.0,-61.0,-1.0
19:41:25.310000,-1978.0,-7.0,23.0,-670.0,97.0,612.0,307.0,-61.0,-1.0
19:41:25.314000,-1883.0,37.0,-30.0,-655.0,184.0,589.0,324.0,-57.0,6.0
19:41:25.320000,-1777.0,69.0,-29.0,-584.0,251.0,559.0,324.0,-57.0,6.0
19:41:25.324000,-1777.0,69.0,-29.0,-558.0,180.0,546.0,324.0,-57.0,6.0
19:41:25.329000,-1638.0,101.0,175.0,-611.0,109.0,524.0,316.0,-40.0,19.0
19:41:25.334000,-1556.0,154.0,105.0,-613.0,224.0,468.0,316.0,-40.0,19.0
19:41:25.338000,-1556.0,154.0,105.0,-561.0,366.0,424.0,321.0,-30.0,36.0
19:41:25.343000,-1470.0,201.0,21.0,-543.0,364.0,413.0,321.0,-30.0,36.0
19:41:25.347000,-1424.0,231.0,57.0,-568.0,350.0,400.0,321.0,-30.0,36.0
19:41:25.353000,-1372.0,263.0,91.0,-554.0,382.0,370.0,318.0,-24.0,48.0
19:41:25.357000,-1316.0,301.0,95.0,-561.0,421.0,348.0,318.0,-24.0,48.0
19:41:25.361000,-1248.0,333.0,39.0,-616.0,447.0,330.0,324.0,-12.0,52.0
19:41:25.367000,-1183.0,363.0,-6.0,-609.0,419.0,324.0,324.0,-12.0,52.0
19:41:25.371000,-1137.0,382.0,15.0,-535.0,391.0,327.0,324.0,-12.0,52.0
19:41:25.376000,-1101.0,401.0,84.0,-464.0,414.0,325.0,327.0,-24.0,61.0
19:41:25.381000,-1068.0,425.0,140.0,-447.0,477.0,323.0,327.0,-24.0,61.0
19:41:25.385000,-1034.0,443.0,135.0,-447.0,545.0,335.0,322.0,-6.0,69.0
19:41:25.390000,-1017.0,452.0,103.0,-448.0,588.0,347.0,322.0,-6.0,69.0
19:41:25.394000,-991.0,455.0,74.0,-416.0,602.0,348.0,322.0,-6.0,69.0
19:41:25.400000,-972.0,467.0,61.0,-416.0,606.0,348.0,330.0,-3.0,88.0
19:41:25.404000,-956.0,484.0,63.0,-412.0,606.0,348.0,330.0,-3.0,88.0
19:41:25.408000,-952.0,501.0,43.0,-532.0,661.0,352.0,331.0,-4.0,90.0
19:41:25.414000,-951.0,513.0,11.0,-532.0,661.0,352.0,331.0,-4.0,90.0
19:41:25.418000,-948.0,529.0,-20.0,-522.0,698.0,353.0,331.0,-4.0,90.0
19:41:25.423000,-942.0,541.0,-42.0,-484.0,707.0,354.0,333.0,3.0,91.0
19:41:25.428000,-933.0,557.0,-77.0,-468.0,701.0,350.0,333.0,3.0,91.0
19:41:25.432000,-923.0,566.0,-93.0,-465.0,692.0,342.0,334.0,0.0,102.0
19:41:25.437000,-908.0,568.0,-91.0,-463.0,691.0,340.0,334.0,0.0,102.0
19:41:25.441000,-908.0,568.0,-91.0,-492.0,688.0,337.0,334.0,0.0,102.0
19:41:25.447000,-891.0,569.0,-106.0,-517.0,667.0,334.0,334.0,-1.0,109.0
19:41:25.451000,-868.0,563.0,-129.0,-485.0,639.0,333.0,334.0,-1.0,109.0
19:41:25.455000,-847.0,550.0,-133.0,-425.0,634.0,319.0,339.0,4.0,126.0
19:41:25.461000,-812.0,536.0,-129.0,-388.0,643.0,301.0,339.0,4.0,126.0
19:41:25.465000,-777.0,522.0,-132.0,-396.0,642.0,292.0,339.0,4.0,126.0
19:41:25.470000,-746.0,502.0,-151.0,-423.0,665.0,286.0,321.0,12.0,141.0
19:41:25.475000,-724.0,480.0,-182.0,-435.0,688.0,278.0,321.0,12.0,141.0
19:41:25.479000,-707.0,459.0,-168.0,-439.0,681.0,265.0,334.0,16.0,132.0
19:41:25.484000,-700.0,442.0,-130.0,-460.0,702.0,254.0,334.0,16.0,132.0
19:41:25.488000,-693.0,429.0,-149.0,-472.0,737.0,249.0,334.0,16.0,132.0
19:41:25.494000,-691.0,409.0,-170.0,-465.0,761.0,255.0,339.0,10.0,142.0
