hh:mm:ss.ms,gyroX[mdps],gyroY[mdps],gyroZ[mdps],accX[mg],accY[mg],accZ[mg],magX[mG],magY[mG],magZ[mG]
19:40:01.867000,-1782.0,-1141.0,-1201.0,-910.0,1023.0,-1042.0,169.0,-496.0,489.0
19:40:01.871000,-1785.0,-1179.0,-1192.0,-903.0,963.0,-1044.0,171.0,-510.0,486.0
19:40:01.876000,-1835.0,-1250.0,-1121.0,-865.0,922.0,-994.0,171.0,-510.0,486.0
19:40:01.880000,-1835.0,-1250.0,-1121.0,-733.0,808.0,-1000.0,171.0,-510.0,486.0
19:40:01.886000,-1833.0,-1236.0,-794.0,-674.0,730.0,-1036.0,189.0,-519.0,478.0
19:40:01.890000,-1850.0,-1201.0,-794.0,-723.0,695.0,-1023.0,189.0,-519.0,478.0
19:40:01.895000,-1850.0,-1201.0,-794.0,-656.0,643.0,-984.0,196.0,-529.0,474.0
19:40:01.900000,-1849.0,-1234.0,-795.0,-503.0,520.0,-948.0,196.0,-529.0,474.0
19:40:01.904000,-1880.0,-1206.0,-802.0,-369.0,329.0,-920.0,196.0,-529.0,474.0
19:40:01.909000,-1981.0,-1190.0,-798.0,-251.0,206.0,-875.0,220.0,-550.0,469.0
19:40:01.914000,-2030.0,-1184.0,-837.0,-92.0,135.0,-854.0,220.0,-550.0,469.0
19:40:01.919000,-2120.0,-1168.0,-834.0,117.0,-3.0,-783.0,219.0,-559.0,460.0
19:40:01.923000,-2173.0,-1211.0,-831.0,200.0,-204.0,-762.0,219.0,-559.0,460.0
19:40:01.927000,-2090.0,-1187.0,-875.0,303.0,-441.0,-806.0,219.0,-559.0,460.0
19:40:01.933000,-1939.0,-1161.0,-791.0,436.0,-571.0,-774.0,229.0,-573.0,462.0
19:40:01.937000,-1759.0,-1230.0,-875.0,517.0,-556.0,-738.0,229.0,-573.0,462.0
19:40:01.942000,-1672.0,-1238.0,-1178.0,517.0,-556.0,-738.0,240.0,-595.0,451.0
19:40:01.947000,-1548.0,-1298.0,-1520.0,494.0,-730.0,-759.0,240.0,-595.0,451.0
19:40:01.954000,-1438.0,-1267.0,-1722.0,460.0,-823.0,-823.0,253.0,-598.0,439.0
19:40:01.956000,-1406.0,-1281.0,-1673.0,460.0,-823.0,-823.0,253.0,-598.0,439.0
19:40:01.960000,-1428.0,-1299.0,-1668.0,398.0,-607.0,-809.0,253.0,-598.0,439.0
19:40:01.966000,-1438.0,-1328.0,-1781.0,218.0,-264.0,-778.0,273.0,-604.0,448.0
19:40:01.970000,-1474.0,-1347.0,-1727.0,95.0,-296.0,-770.0,273.0,-604.0,448.0
19:40:01.975000,-1537.0,-1316.0,-1672.0,-7.0,-496.0,-855.0,273.0,-612.0,438.0
19:40:01.980000,-1607.0,-1341.0,-1721.0,-160.0,-484.0,-898.0,273.0,-612.0,438.0
19:40:01.984000,-1717.0,-1274.0,-1799.0,-204.0,-350.0,-902.0,273.0,-612.0,438.0
19:40:01.989000,-1754.0,-1268.0,-1807.0,-169.0,-230.0,-946.0,295.0,-627.0,420.0
19:40:01.994000,-1824.0,-1315.0,-1798.0,-174.0,-175.0,-962.0,295.0,-627.0,420.0
19:40:01.999000,-1892.0,-1339.0,-1715.0,-141.0,-136.0,-989.0,304.0,-631.0,409.0
19:40:02.003000,-1892.0,-1339.0,-1715.0,-11.0,-142.0,-957.0,304.0,-631.0,409.0
19:40:02.007000,-1986.0,-1363.0,-1571.0,-7.0,-245.0,-932.0,304.0,-631.0,409.0
19:40:02.013000,-2014.0,-1387.0,-1495.0,-39.0,-358.0,-1034.0,328.0,-634.0,405.0
19:40:02.017000,-2011.0,-1404.0,-1439.0,127.0,-354.0,-980.0,328.0,-634.0,405.0
19:40:02.022000,-2115.0,-1482.0,-1452.0,132.0,-397.0,-935.0,343.0,-640.0,385.0
19:40:02.027000,-2103.0,-1528.0,-1593.0,61.0,-540.0,-1016.0,343.0,-640.0,385.0
19:40:02.031000,-2053.0,-1597.0,-1537.0,142.0,-663.0,-997.0,343.0,-640.0,385.0
19:40:02.036000,-2028.0,-1662.0,-1394.0,133.0,-732.0,-1022.0,346.0,-642.0,373.0
19:40:02.041000,-1934.0,-1743.0,-1347.0,91.0,-649.0,-997.0,346.0,-642.0,373.0
19:40:02.046000,-1904.0,-1803.0,-1474.0,21.0,-615.0,-970.0,376.0,-657.0,366.0
19:40:02.050000,-1824.0,-1853.0,-1585.0,39.0,-671.0,-969.0,376.0,-657.0,366.0
19:40:02.054000,-1689.0,-1950.0,-1502.0,55.0,-747.0,-950.0,376.0,-657.0,366.0
19:40:02.060000,-1534.0,-1984.0,-1393.0,-40.0,-805.0,-958.0,376.0,-651.0,354.0
19:40:02.064000,-1487.0,-1974.0,-1325.0,-40.0,-805.0,-958.0,376.0,-651.0,354.0
19:40:02.069000,-1470.0,-1959.0,-1313.0,-146.0,-771.0,-916.0,402.0,-660.0,324.0
19:40:02.073000,-1402.0,-1974.0,-1373.0,-369.0,-640.0,-906.0,402.0,-660.0,324.0
19:40:02.078000,-1394.0,-1921.0,-1401.0,-369.0,-640.0,-906.0,402.0,-660.0,324.0
19:40:02.083000,-1358.0,-1866.0,-1348.0,-316.0,-623.0,-909.0,420.0,-664.0,306.0
19:40:02.088000,-1316.0,-1829.0,-1375.0,-225.0,-585.0,-895.0,420.0,-664.0,306.0
19:40:02.093000,-1310.0,-1789.0,-1393.0,-217.0,-615.0,-871.0,424.0,-661.0,301.0
19:40:02.097000,-1299.0,-1730.0,-1424.0,-286.0,-650.0,-867.0,424.0,-661.0,301.0
19:40:02.101000,-1299.0,-1730.0,-1424.0,-460.0,-625.0,-849.0,424.0,-661.0,301.0
19:40:02.107000,-1307.0,-1712.0,-1451.0,-601.0,-701.0,-835.0,441.0,-652.0,294.0
19:40:02.111000,-1307.0,-1712.0,-1451.0,-628.0,-816.0,-832.0,441.0,-652.0,294.0
19:40:02.115000,-1334.0,-1684.0,-1431.0,-650.0,-759.0,-874.0,453.0,-649.0,280.0
19:40:02.121000,-1241.0,-1642.0,-1442.0,-684.0,-608.0,-918.0,453.0,-649.0,280.0
19:40:02.125000,-1146.0,-1613.0,-1440.0,-690.0,-532.0,-881.0,453.0,-649.0,280.0
19:40:02.130000,-1078.0,-1625.0,-1486.0,-692.0,-555.0,-796.0,444.0,-655.0,267.0
19:40:02.135000,-1101.0,-1666.0,-1520.0,-610.0,-647.0,-775.0,444.0,-655.0,267.0
19:40:02.140000,-1083.0,-1638.0,-1470.0,-479.0,-790.0,-802.0,481.0,-637.0,250.0
19:40:02.144000,-1050.0,-1591.0,-1320.0,-421.0,-847.0,-795.0,481.0,-637.0,250.0
19:40:02.148000,-974.0,-1551.0,-1248.0,-401.0,-740.0,-806.0,481.0,-637.0,250.0
19:40:02.154000,-820.0,-1543.0,-1248.0,-367.0,-601.0,-829.0,486.0,-651.0,231.0
19:40:02.158000,-662.0,-1486.0,-1197.0,-373.0,-595.0,-762.0,486.0,-651.0,231.0
19:40:02.163000,-677.0,-1456.0,-1028.0,-373.0,-595.0,-762.0,495.0,-633.0,229.0
19:40:02.168000,-896.0,-1426.0,-938.0,-612.0,-708.0,-492.0,495.0,-633.0,229.0
19:40:02.172000,-1092.0,-1434.0,-1005.0,-612.0,-814.0,-492.0,495.0,-633.0,229.0
19:40:02.177000,-1034.0,-1415.0,-1029.0,-733.0,-814.0,-614.0,496.0,-627.0,216.0
19:40:02.182000,-907.0,-1404.0,-1108.0,-797.0,-831.0,-735.0,496.0,-627.0,216.0
19:40:02.187000,-825.0,-1379.0,-1194.0,-882.0,-715.0,-731.0,502.0,-633.0,205.0
19:40:02.191000,-653.0,-1375.0,-1117.0,-912.0,-651.0,-756.0,502.0,-633.0,205.0
19:40:02.199000,-597.0,-1437.0,-991.0,-853.0,-630.0,-635.0,498.0,-622.0,192.0
19:40:02.201000,-700.0,-1418.0,-887.0,-853.0,-630.0,-635.0,498.0,-622.0,192.0
19:40:02.205000,-791.0,-1397.0,-846.0,-729.0,-630.0,-595.0,498.0,-622.0,192.0
19:40:02.210000,-862.0,-1374.0,-860.0,-622.0,-526.0,-582.0,507.0,-616.0,186.0
19:40:02.215000,-762.0,-1301.0,-1104.0,-628.0,-402.0,-653.0,507.0,-616.0,186.0
19:40:02.219000,-762.0,-1301.0,-1104.0,-794.0,-313.0,-700.0,523.0,-618.0,171.0
19:40:02.224000,-581.0,-1292.0,-1402.0,-843.0,-390.0,-658.0,523.0,-618.0,171.0
19:40:02.228000,-490.0,-1271.0,-1332.0,-727.0,-558.0,-603.0,523.0,-618.0,171.0
19:40:02.234000,-488.0,-1263.0,-1086.0,-668.0,-612.0,-569.0,520.0,-603.0,162.0
19:40:02.238000,-493.0,-1253.0,-1036.0,-697.0,-600.0,-575.0,520.0,-603.0,162.0
19:40:02.243000,-503.0,-1222.0,-1124.0,-731.0,-631.0,-560.0,519.0,-601.0,172.0
19:40:02.248000,-474.0,-1228.0,-1124.0,-768.0,-766.0,-570.0,519.0,-601.0,172.0
19:40:02.252000,-436.0,-1200.0,-1079.0,-868.0,-860.0,-555.0,519.0,-601.0,172.0
19:40:02.257000,-429.0,-1198.0,-1114.0,-970.0,-651.0,-542.0,531.0,-594.0,153.0
19:40:02.262000,-416.0,-1161.0,-1210.0,-1009.0,-329.0,-537.0,531.0,-594.0,153.0
19:40:02.266000,-438.0,-1138.0,-1309.0,-942.0,-247.0,-503.0,535.0,-580.0,139.0
19:40:02.271000,-409.0,-1134.0,-1278.0,-942.0,-247.0,-503.0,535.0,-580.0,139.0
19:40:02.275000,-368.0,-1129.0,-1229.0,-798.0,-437.0,-477.0,535.0,-580.0,139.0
19:40:02.281000,-373.0,-1095.0,-1204.0,-793.0,-465.0,-453.0,538.0,-591.0,130.0
19:40:02.285000,-389.0,-1080.0,-1139.0,-793.0,-465.0,-453.0,538.0,-591.0,130.0
19:40:02.290000,-402.0,-1070.0,-1085.0,-796.0,-488.0,-423.0,535.0,-573.0,121.0
19:40:02.295000,-393.0,-1052.0,-1111.0,-843.0,-415.0,-411.0,535.0,-573.0,121.0
19:40:02.299000,-365.0,-1023.0,-1178.0,-890.0,-290.0,-421.0,535.0,-573.0,121.0
19:40:02.304000,-350.0,-1025.0,-1241.0,-927.0,-259.0,-397.0,550.0,-565.0,120.0
19:40:02.309000,-323.0,-994.0,-1194.0,-886.0,-345.0,-388.0,550.0,-565.0,120.0
19:40:02.313000,-280.0,-961.0,-1078.0,-789.0,-452.0,-405.0,552.0,-558.0,111.0
19:40:02.318000,-235.0,-951.0,-1026.0,-833.0,-474.0,-390.0,552.0,-558.0,111.0
19:40:02.322000,-235.0,-951.0,-1026.0,-951.0,-446.0,-363.0,552.0,-558.0,111.0
19:40:02.328000,-256.0,-920.0,-1023.0,-963.0,-350.0,-351.0,547.0,-546.0,117.0
19:40:02.332000,-256.0,-920.0,-1023.0,-887.0,-284.0,-368.0,547.0,-546.0,117.0
19:40:02.337000,-209.0,-893.0,-978.0,-809.0,-364.0,-369.0,552.0,-552.0,103.0
19:40:02.342000,-201.0,-854.0,-862.0,-838.0,-392.0,-353.0,552.0,-552.0,103.0
19:40:02.346000,-176.0,-830.0,-853.0,-947.0,-315.0,-348.0,552.0,-552.0,103.0
19:40:02.351000,-145.0,-801.0,-962.0,-955.0,-299.0,-350.0,559.0,-543.0,96.0
19:40:02.356000,-93.0,-786.0,-949.0,-880.0,-374.0,-342.0,559.0,-543.0,96.0
19:40:02.360000,-59.0,-772.0,-833.0,-887.0,-388.0,-342.0,561.0,-531.0,100.0
19:40:02.365000,-46.0,-720.0,-828.0,-941.0,-332.0,-337.0,561.0,-531.0,100.0
19:40:02.369000,0.0,-705.0,-844.0,-959.0,-293.0,-328.0,561.0,-531.0,100.0
19:40:02.375000,49.0,-686.0,-860.0,-946.0,-249.0,-339.0,553.0,-522.0,79.0
19:40:02.379000,75.0,-645.0,-890.0,-913.0,-242.0,-322.0,553.0,-522.0,79.0
19:40:02.384000,63.0,-623.0,-877.0,-913.0,-242.0,-322.0,556.0,-525.0,79.0
19:40:02.389000,48.0,-608.0,-758.0,-870.0,-321.0,-307.0,556.0,-525.0,79.0
19:40:02.393000,65.0,-606.0,-631.0,-870.0,-321.0,-307.0,556.0,-525.0,79.0
19:40:02.398000,56.0,-594.0,-645.0,-916.0,-265.0,-305.0,564.0,-522.0,66.0
19:40:02.402000,56.0,-590.0,-699.0,-886.0,-149.0,-289.0,564.0,-522.0,66.0
19:40:02.407000,86.0,-582.0,-662.0,-886.0,-149.0,-289.0,568.0,-513.0,66.0
19:40:02.412000,104.0,-580.0,-606.0,-838.0,-155.0,-284.0,568.0,-513.0,66.0
19:40:02.417000,112.0,-560.0,-609.0,-837.0,-96.0,-271.0,567.0,-507.0,70.0
19:40:02.422000,93.0,-541.0,-620.0,-855.0,-47.0,-254.0,567.0,-507.0,70.0
19:40:02.426000,93.0,-541.0,-620.0,-847.0,-94.0,-232.0,567.0,-507.0,70.0
19:40:02.431000,102.0,-555.0,-476.0,-820.0,-143.0,-214.0,565.0,-507.0,69.0
19:40:02.436000,114.0,-555.0,-462.0,-810.0,-116.0,-203.0,565.0,-507.0,69.0
19:40:02.440000,114.0,-555.0,-462.0,-805.0,-78.0,-195.0,556.0,-499.0,58.0
19:40:02.445000,114.0,-546.0,-430.0,-813.0,-27.0,-176.0,556.0,-499.0,58.0
19:40:02.449000,121.0,-543.0,-415.0,-832.0,32.0,-152.0,556.0,-499.0,58.0
19:40:02.454000,95.0,-537.0,-418.0,-835.0,51.0,-129.0,544.0,-498.0,76.0
19:40:02.459000,56.0,-532.0,-385.0,-831.0,38.0,-113.0,544.0,-498.0,76.0
19:40:02.464000,33.0,-527.0,-325.0,-846.0,20.0,-99.0,568.0,-508.0,54.0
19:40:02.469000,11.0,-525.0,-296.0,-868.0,40.0,-83.0,568.0,-508.0,54.0
19:40:02.473000,-10.0,-528.0,-290.0,-883.0,59.0,-69.0,568.0,-508.0,54.0
19:40:02.478000,-40.0,-522.0,-256.0,-898.0,58.0,-55.0,561.0,-496.0,51.0
19:40:02.483000,-83.0,-511.0,-207.0,-913.0,77.0,-30.0,561.0,-496.0,51.0
19:40:02.487000,-123.0,-514.0,-207.0,-918.0,87.0,-20.0,562.0,-493.0,45.0
19:40:02.492000,-168.0,-497.0,-212.0,-919.0,69.0,-19.0,562.0,-493.0,45.0
19:40:02.499000,-190.0,-486.0,-183.0,-948.0,51.0,-8.0,567.0,-493.0,40.0
19:40:02.501000,-217.0,-476.0,-161.0,-948.0,51.0,-8.0,567.0,-493.0,40.0
19:40:02.506000,-250.0,-469.0,-176.0,-999.0,66.0,6.0,567.0,-493.0,40.0
19:40:02.511000,-294.0,-446.0,-189.0,-1019.0,81.0,11.0,567.0,-498.0,39.0
19:40:02.516000,-317.0,-429.0,-137.0,-1011.0,44.0,8.0,567.0,-498.0,39.0
19:40:02.520000,-335.0,-408.0,-81.0,-1024.0,5.0,8.0,553.0,-493.0,39.0
19:40:02.525000,-357.0,-390.0,-90.0,-1064.0,6.0,11.0,553.0,-493.0,39.0
19:40:02.529000,-365.0,-372.0,-117.0,-1081.0,28.0,13.0,553.0,-493.0,39.0
19:40:02.534000,-371.0,-361.0,-44.0,-1043.0,18.0,17.0,558.0,-495.0,42.0
19:40:02.539000,-389.0,-344.0,30.0,-1005.0,-8.0,28.0,558.0,-495.0,42.0
19:40:02.544000,-406.0,-315.0,13.0,-1033.0,2.0,27.0,555.0,-492.0,34.0
19:40:02.548000,-406.0,-315.0,13.0,-1078.0,16.0,25.0,555.0,-492.0,34.0
19:40:02.553000,-423.0,-294.0,-7.0,-1074.0,0.0,31.0,555.0,-492.0,34.0
19:40:02.558000,-442.0,-286.0,18.0,-1042.0,-10.0,34.0,555.0,-487.0,33.0
19:40:02.563000,-452.0,-285.0,60.0,-1010.0,0.0,38.0,555.0,-487.0,33.0
19:40:02.567000,-458.0,-287.0,65.0,-989.0,26.0,42.0,546.0,-490.0,24.0
19:40:02.572000,-473.0,-275.0,46.0,-979.0,37.0,42.0,546.0,-490.0,24.0
19:40:02.576000,-487.0,-252.0,52.0,-993.0,42.0,50.0,546.0,-490.0,24.0
19:40:02.581000,-508.0,-243.0,64.0,-1034.0,57.0,66.0,558.0,-496.0,28.0
19:40:02.586000,-548.0,-235.0,52.0,-1047.0,59.0,69.0,558.0,-496.0,28.0
19:40:02.590000,-592.0,-218.0,53.0,-1031.0,51.0,67.0,555.0,-492.0,36.0
19:40:02.595000,-619.0,-201.0,77.0,-1033.0,57.0,72.0,555.0,-492.0,36.0
19:40:02.600000,-648.0,-189.0,101.0,-1046.0,80.0,78.0,555.0,-492.0,36.0
19:40:02.605000,-700.0,-168.0,144.0,-1081.0,107.0,81.0,564.0,-484.0,13.0
19:40:02.610000,-763.0,-149.0,142.0,-1081.0,137.0,82.0,564.0,-484.0,13.0
19:40:02.614000,-805.0,-139.0,82.0,-1125.0,137.0,82.0,556.0,-481.0,21.0
19:40:02.619000,-853.0,-132.0,90.0,-1095.0,121.0,80.0,556.0,-481.0,21.0
19:40:02.623000,-899.0,-132.0,165.0,-1019.0,78.0,79.0,556.0,-481.0,21.0
19:40:02.628000,-952.0,-133.0,183.0,-997.0,110.0,82.0,552.0,-486.0,13.0
19:40:02.633000,-1007.0,-130.0,182.0,-1011.0,170.0,86.0,552.0,-486.0,13.0
19:40:02.638000,-1073.0,-131.0,221.0,-1017.0,171.0,92.0,558.0,-477.0,25.0
19:40:02.642000,-1150.0,-141.0,236.0,-1037.0,162.0,103.0,558.0,-477.0,25.0
19:40:02.647000,-1150.0,-141.0,236.0,-1058.0,174.0,113.0,558.0,-477.0,25.0
19:40:02.652000,-1292.0,-192.0,233.0,-1038.0,176.0,118.0,556.0,-480.0,12.0
19:40:02.657000,-1372.0,-229.0,273.0,-995.0,172.0,127.0,556.0,-480.0,12.0
19:40:02.661000,-1372.0,-229.0,273.0,-967.0,195.0,142.0,552.0,-472.0,16.0
19:40:02.666000,-1472.0,-263.0,296.0,-953.0,229.0,157.0,552.0,-472.0,16.0
19:40:02.670000,-1569.0,-309.0,291.0,-934.0,226.0,179.0,552.0,-472.0,16.0
19:40:02.675000,-1678.0,-366.0,303.0,-903.0,191.0,201.0,553.0,-463.0,4.0
19:40:02.680000,-1790.0,-431.0,353.0,-883.0,172.0,213.0,553.0,-463.0,4.0
19:40:02.685000,-1888.0,-500.0,369.0,-878.0,204.0,223.0,547.0,-466.0,3.0
19:40:02.689000,-1998.0,-566.0,296.0,-833.0,222.0,247.0,547.0,-466.0,3.0
19:40:02.694000,-2102.0,-651.0,273.0,-753.0,196.0,276.0,547.0,-466.0,3.0
19:40:02.699000,-2222.0,-740.0,305.0,-720.0,192.0,301.0,547.0,-457.0,-6.0
19:40:02.704000,-2365.0,-818.0,300.0,-732.0,221.0,324.0,547.0,-457.0,-6.0
19:40:02.708000,-2480.0,-911.0,267.0,-732.0,221.0,324.0,556.0,-450.0,-15.0
19:40:02.713000,-2608.0,-996.0,248.0,-749.0,229.0,381.0,556.0,-450.0,-15.0
19:40:02.717000,-2750.0,-1087.0,250.0,-750.0,216.0,422.0,556.0,-450.0,-15.0
19:40:02.722000,-2894.0,-1182.0,219.0,-750.0,234.0,455.0,552.0,-447.0,-22.0
19:40:02.727000,-3041.0,-1262.0,151.0,-750.0,234.0,455.0,552.0,-447.0,-22.0
19:40:02.732000,-3196.0,-1342.0,149.0,-727.0,230.0,493.0,538.0,-433.0,-9.0
19:40:02.736000,-3366.0,-1421.0,122.0,-724.0,241.0,542.0,538.0,-433.0,-9.0
19:40:02.741000,-3535.0,-1484.0,20.0,-752.0,312.0,589.0,538.0,-433.0,-9.0
19:40:02.746000,-3672.0,-1549.0,-45.0,-757.0,314.0,632.0,528.0,-411.0,-34.0
19:40:02.751000,-3803.0,-1618.0,-95.0,-753.0,238.0,679.0,528.0,-411.0,-34.0
19:40:02.755000,-3927.0,-1687.0,-165.0,-769.0,179.0,725.0,523.0,-387.0,-54.0
19:40:02.760000,-4027.0,-1763.0,-248.0,-798.0,148.0,770.0,523.0,-387.0,-54.0
19:40:02.764000,-4027.0,-1763.0,-248.0,-798.0,116.0,813.0,523.0,-387.0,-54.0
19:40:02.769000,-4114.0,-1834.0,-289.0,-770.0,79.0,850.0,517.0,-379.0,-48.0
19:40:02.774000,-4197.0,-1892.0,-318.0,-766.0,48.0,896.0,517.0,-379.0,-48.0
19:40:02.778000,-4270.0,-1959.0,-380.0,-772.0,7.0,939.0,517.0,-379.0,-48.0
19:40:02.783000,-4323.0,-2025.0,-420.0,-775.0,-18.0,965.0,502.0,-361.0,-63.0
19:40:02.788000,-4369.0,-2074.0,-478.0,-807.0,11.0,991.0,502.0,-361.0,-63.0
19:40:02.793000,-4396.0,-2127.0,-602.0,-820.0,27.0,1017.0,504.0,-336.0,-60.0
19:40:02.798000,-4428.0,-2163.0,-689.0,-799.0,-4.0,1040.0,504.0,-336.0,-60.0
19:40:02.802000,-4449.0,-2198.0,-707.0,-826.0,-13.0,1066.0,504.0,-336.0,-60.0
19:40:02.807000,-4473.0,-2225.0,-756.0,-878.0,19.0,1087.0,478.0,-294.0,-60.0
19:40:02.811000,-4473.0,-2257.0,-853.0,-879.0,36.0,1103.0,478.0,-294.0,-60.0
19:40:02.816000,-4488.0,-2272.0,-905.0,-849.0,24.0,1125.0,462.0,-258.0,-63.0
19:40:02.821000,-4491.0,-2293.0,-884.0,-839.0,34.0,1143.0,462.0,-258.0,-63.0
19:40:02.826000,-4485.0,-2318.0,-870.0,-839.0,34.0,1143.0,459.0,-238.0,-69.0
19:40:02.830000,-4499.0,-2310.0,-947.0,-882.0,104.0,1152.0,459.0,-238.0,-69.0
19:40:02.835000,-4495.0,-2300.0,-1004.0,-929.0,163.0,1153.0,459.0,-238.0,-69.0
19:40:02.840000,-4481.0,-2292.0,-1021.0,-949.0,163.0,1157.0,435.0,-207.0,-60.0
19:40:02.845000,-4453.0,-2290.0,-993.0,-977.0,146.0,1158.0,435.0,-207.0,-60.0
19:40:02.849000,-4429.0,-2291.0,-991.0,-1010.0,192.0,1161.0,429.0,-198.0,-40.0
19:40:02.854000,-4401.0,-2295.0,-1042.0,-1018.0,192.0,1170.0,429.0,-198.0,-40.0
19:40:02.858000,-4350.0,-2297.0,-1079.0,-962.0,198.0,1169.0,429.0,-198.0,-40.0
19:40:02.863000,-4297.0,-2293.0,-1027.0,-866.0,136.0,1164.0,415.0,-178.0,-36.0
19:40:02.868000,-4229.0,-2286.0,-948.0,-812.0,81.0,1154.0,415.0,-178.0,-36.0
19:40:02.873000,-4160.0,-2278.0,-940.0,-837.0,94.0,1141.0,394.0,-144.0,-27.0
19:40:02.877000,-4160.0,-2278.0,-940.0,-875.0,137.0,1126.0,394.0,-144.0,-27.0
19:40:02.882000,-4092.0,-2261.0,-960.0,-876.0,162.0,1103.0,394.0,-144.0,-27.0
19:40:02.887000,-4020.0,-2237.0,-959.0,-884.0,171.0,1078.0,369.0,-105.0,0.0
19:40:02.892000,-3935.0,-2205.0,-942.0,-919.0,180.0,1048.0,369.0,-105.0,0.0
19:40:02.896000,-3840.0,-2168.0,-934.0,-956.0,198.0,1015.0,343.0,-88.0,21.0
19:40:02.901000,-3758.0,-2121.0,-928.0,-998.0,237.0,987.0,343.0,-88.0,21.0
19:40:02.905000,-3688.0,-2074.0,-927.0,-1027.0,282.0,964.0,343.0,-88.0,21.0
19:40:02.910000,-3622.0,-2025.0,-906.0,-1023.0,318.0,938.0,334.0,-76.0,37.0
19:40:02.915000,-3552.0,-1978.0,-873.0,-1008.0,346.0,908.0,334.0,-76.0,37.0
19:40:02.920000,-3478.0,-1925.0,-869.0,-985.0,348.0,876.0,349.0,-69.0,39.0
19:40:02.924000,-3387.0,-1880.0,-877.0,-958.0,326.0,845.0,349.0,-69.0,39.0
19:40:02.929000,-3299.0,-1829.0,-862.0,-917.0,307.0,813.0,349.0,-69.0,39.0
19:40:02.934000,-3204.0,-1780.0,-788.0,-883.0,313.0,784.0,328.0,-52.0,64.0
19:40:02.939000,-3112.0,-1733.0,-702.0,-883.0,313.0,784.0,328.0,-52.0,64.0
19:40:02.943000,-3019.0,-1675.0,-673.0,-897.0,342.0,749.0,307.0,-52.0,99.0
19:40:02.948000,-2916.0,-1619.0,-653.0,-915.0,365.0,708.0,307.0,-52.0,99.0
19:40:02.952000,-2814.0,-1569.0,-602.0,-898.0,358.0,677.0,307.0,-52.0,99.0
19:40:02.957000,-2708.0,-1523.0,-531.0,-863.0,350.0,653.0,309.0,-24.0,117.0
19:40:02.962000,-2599.0,-1474.0,-468.0,-839.0,342.0,624.0,309.0,-24.0,117.0
19:40:02.967000,-2486.0,-1414.0,-401.0,-832.0,321.0,586.0,298.0,-18.0,129.0
19:40:02.971000,-2376.0,-1356.0,-322.0,-825.0,303.0,551.0,298.0,-18.0,129.0
19:40:02.976000,-2376.0,-1356.0,-322.0,-814.0,325.0,531.0,298.0,-18.0,129.0
19:40:02.981000,-2186.0,-1245.0,-261.0,-811.0,408.0,512.0,295.0,-16.0,144.0
19:40:02.986000,-2186.0,-1245.0,-261.0,-806.0,494.0,496.0,295.0,-16.0,144.0
19:40:02.990000,-2094.0,-1194.0,-273.0,-780.0,511.0,485.0,289.0,-21.0,150.0
19:40:02.995000,-1995.0,-1144.0,-259.0,-749.0,462.0,476.0,289.0,-21.0,150.0
19:40:02.999000,-1904.0,-1092.0,-207.0,-744.0,411.0,468.0,289.0,-21.0,150.0
19:40:03.004000,-1821.0,-1043.0,-162.0,-765.0,415.0,459.0,291.0,-9.0,163.0
19:40:03.009000,-1736.0,-998.0,-158.0,-767.0,444.0,440.0,291.0,-9.0,163.0
19:40:03.014000,-1654.0,-942.0,-170.0,-743.0,452.0,412.0,285.0,1.0,180.0
19:40:03.018000,-1568.0,-882.0,-156.0,-722.0,449.0,385.0,285.0,1.0,180.0
19:40:03.023000,-1488.0,-817.0,-137.0,-730.0,462.0,358.0,285.0,1.0,180.0
19:40:03.028000,-1416.0,-751.0,-156.0,-745.0,504.0,334.0,279.0,-1.0,196.0
19:40:03.033000,-1352.0,-695.0,-191.0,-740.0,549.0,321.0,279.0,-1.0,196.0
19:40:03.037000,-1312.0,-641.0,-207.0,-740.0,549.0,321.0,285.0,-9.0,201.0
19:40:03.042000,-1288.0,-590.0,-205.0,-722.0,661.0,298.0,285.0,-9.0,201.0
19:40:03.046000,-1283.0,-546.0,-215.0,-720.0,720.0,289.0,285.0,-9.0,201.0
19:40:03.051000,-1281.0,-504.0,-238.0,-720.0,720.0,289.0,282.0,4.0,208.0
19:40:03.056000,-1268.0,-474.0,-264.0,-704.0,743.0,279.0,282.0,4.0,208.0
19:40:03.061000,-1253.0,-452.0,-301.0,-677.0,728.0,273.0,282.0,-3.0,219.0
19:40:03.065000,-1239.0,-432.0,-322.0,-641.0,690.0,268.0,282.0,-3.0,219.0
19:40:03.073000,-1210.0,-419.0,-326.0,-580.0,640.0,238.0,283.0,1.0,222.0
19:40:03.075000,-1167.0,-404.0,-350.0,-580.0,640.0,238.0,283.0,1.0,222.0
19:40:03.079000,-1112.0,-392.0,-407.0,-575.0,648.0,216.0,283.0,1.0,222.0
19:40:03.084000,-1057.0,-380.0,-464.0,-565.0,667.0,205.0,279.0,-6.0,237.0
19:40:03.089000,-1014.0,-378.0,-480.0,-538.0,676.0,209.0,279.0,-6.0,237.0
19:40:03.094000,-978.0,-382.0,-458.0,-499.0,660.0,212.0,276.0,-6.0,243.0
19:40:03.098000,-978.0,-382.0,-458.0,-461.0,643.0,211.0,276.0,-6.0,243.0
19:40:03.102000,-941.0,-387.0,-418.0,-436.0,638.0,204.0,276.0,-6.0,243.0
19:40:03.108000,-902.0,-382.0,-389.0,-423.0,651.0,195.0,276.0,6.0,252.0
19:40:03.112000,-864.0,-371.0,-386.0,-407.0,674.0,187.0,276.0,6.0,252.0
19:40:03.117000,-828.0,-357.0,-379.0,-395.0,684.0,177.0,264.0,4.0,259.0
19:40:03.122000,-798.0,-338.0,-338.0,-406.0,707.0,171.0,264.0,4.0,259.0
19:40:03.126000,-779.0,-317.0,-297.0,-446.0,750.0,172.0,264.0,4.0,259.0
19:40:03.131000,-770.0,-291.0,-283.0,-481.0,779.0,167.0,258.0,-1.0,265.0
19:40:03.136000,-756.0,-259.0,-287.0,-480.0,765.0,164.0,258.0,-1.0,265.0
19:40:03.141000,-733.0,-227.0,-285.0,-448.0,720.0,167.0,274.0,6.0,265.0
19:40:03.145000,-708.0,-198.0,-275.0,-410.0,678.0,172.0,274.0,6.0,265.0
19:40:03.149000,-689.0,-165.0,-253.0,-393.0,660.0,175.0,274.0,6.0,265.0
19:40:03.155000,-662.0,-141.0,-247.0,-400.0,685.0,173.0,261.0,7.0,271.0
19:40:03.159000,-634.0,-122.0,-277.0,-405.0,731.0,168.0,261.0,7.0,271.0
19:40:03.164000,-612.0,-103.0,-331.0,-405.0,731.0,168.0,258.0,-3.0,282.0
19:40:03.169000,-587.0,-93.0,-351.0,-397.0,760.0,165.0,258.0,-3.0,282.0
19:40:03.173000,-562.0,-79.0,-331.0,-395.0,755.0,157.0,258.0,-3.0,282.0
19:40:03.178000,-541.0,-73.0,-322.0,-416.0,748.0,148.0,262.0,-4.0,286.0
19:40:03.183000,-516.0,-79.0,-328.0,-432.0,755.0,146.0,262.0,-4.0,286.0
19:40:03.188000,-495.0,-87.0,-315.0,-417.0,752.0,144.0,255.0,-3.0,292.0
19:40:03.192000,-471.0,-93.0,-305.0,-391.0,746.0,139.0,255.0,-3.0,292.0
19:40:03.196000,-471.0,-93.0,-305.0,-376.0,755.0,131.0,255.0,-3.0,292.0
19:40:03.201000,-442.0,-107.0,-322.0,-351.0,765.0,133.0,255.0,4.0,289.0
19:40:03.206000,-424.0,-122.0,-324.0,-313.0,767.0,132.0,255.0,4.0,289.0
19:40:03.211000,-403.0,-137.0,-294.0,-307.0,786.0,129.0,240.0,3.0,315.0
19:40:03.216000,-388.0,-149.0,-287.0,-320.0,822.0,135.0,240.0,3.0,315.0
19:40:03.220000,-369.0,-164.0,-324.0,-315.0,845.0,138.0,240.0,3.0,315.0
19:40:03.225000,-347.0,-177.0,-367.0,-297.0,828.0,143.0,255.0,0.0,297.0
19:40:03.230000,-327.0,-189.0,-366.0,-287.0,794.0,150.0,255.0,0.0,297.0
19:40:03.235000,-303.0,-197.0,-340.0,-291.0,777.0,153.0,241.0,-3.0,295.0
19:40:03.239000,-276.0,-200.0,-327.0,-304.0,779.0,159.0,241.0,-3.0,295.0
19:40:03.243000,-264.0,-197.0,-338.0,-305.0,793.0,171.0,241.0,-3.0,295.0
19:40:03.249000,-249.0,-202.0,-337.0,-291.0,816.0,177.0,246.0,10.0,306.0
19:40:03.253000,-233.0,-202.0,-326.0,-279.0,848.0,185.0,246.0,10.0,306.0
19:40:03.258000,-235.0,-197.0,-319.0,-279.0,848.0,185.0,223.0,-9.0,315.0
19:40:03.263000,-238.0,-185.0,-308.0,-274.0,916.0,200.0,223.0,-9.0,315.0
19:40:03.267000,-248.0,-176.0,-277.0,-274.0,916.0,200.0,223.0,-9.0,315.0
19:40:03.272000,-271.0,-171.0,-245.0,-289.0,931.0,216.0,243.0,3.0,301.0
19:40:03.277000,-291.0,-163.0,-253.0,-318.0,956.0,226.0,243.0,3.0,301.0
19:40:03.282000,-293.0,-151.0,-272.0,-339.0,986.0,220.0,241.0,3.0,315.0
19:40:03.286000,-296.0,-142.0,-259.0,-333.0,987.0,215.0,241.0,3.0,315.0
19:40:03.290000,-306.0,-143.0,-231.0,-317.0,963.0,220.0,241.0,3.0,315.0
19:40:03.296000,-306.0,-147.0,-207.0,-295.0,941.0,222.0,235.0,3.0,301.0
19:40:03.300000,-293.0,-147.0,-179.0,-266.0,924.0,210.0,235.0,3.0,301.0
19:40:03.305000,-286.0,-151.0,-151.0,-242.0,904.0,202.0,220.0,4.0,327.0
19:40:03.310000,-277.0,-157.0,-121.0,-233.0,885.0,199.0,220.0,4.0,327.0
19:40:03.314000,-277.0,-157.0,-121.0,-231.0,866.0,195.0,220.0,4.0,327.0
19:40:03.319000,-273.0,-169.0,-86.0,-232.0,852.0,196.0,238.0,1.0,321.0
19:40:03.324000,-268.0,-182.0,-58.0,-239.0,851.0,192.0,238.0,1.0,321.0
19:40:03.329000,-250.0,-194.0,-46.0,-251.0,858.0,180.0,237.0,0.0,316.0
19:40:03.333000,-224.0,-200.0,-48.0,-258.0,856.0,173.0,237.0,0.0,316.0
19:40:03.337000,-198.0,-207.0,-40.0,-259.0,837.0,171.0,237.0,0.0,316.0
19:40:03.343000,-177.0,-213.0,-15.0,-265.0,814.0,162.0,234.0,0.0,328.0
19:40:03.347000,-157.0,-217.0,4.0,-279.0,803.0,151.0,234.0,0.0,328.0
19:40:03.352000,-133.0,-220.0,18.0,-301.0,802.0,140.0,243.0,1.0,324.0
19:40:03.357000,-109.0,-217.0,25.0,-329.0,803.0,129.0,243.0,1.0,324.0
19:40:03.361000,-84.0,-211.0,18.0,-351.0,795.0,122.0,243.0,1.0,324.0
19:40:03.366000,-60.0,-206.0,7.0,-353.0,782.0,118.0,237.0,-1.0,324.0
19:40:03.371000,-38.0,-205.0,-3.0,-343.0,779.0,117.0,237.0,-1.0,324.0
19:40:03.376000,-23.0,-205.0,-16.0,-343.0,779.0,117.0,235.0,3.0,310.0
19:40:03.380000,-7.0,-210.0,-45.0,-343.0,799.0,116.0,235.0,3.0,310.0
19:40:03.384000,9.0,-221.0,-93.0,-346.0,832.0,117.0,235.0,3.0,310.0
19:40:03.390000,23.0,-226.0,-131.0,-333.0,852.0,117.0,238.0,4.0,327.0
19:40:03.394000,32.0,-230.0,-156.0,-293.0,834.0,112.0,238.0,4.0,327.0
19:40:03.399000,42.0,-233.0,-180.0,-293.0,834.0,112.0,228.0,6.0,325.0
19:40:03.404000,51.0,-237.0,-203.0,-286.0,821.0,106.0,228.0,6.0,325.0
19:40:03.408000,60.0,-242.0,-216.0,-280.0,808.0,103.0,228.0,6.0,325.0
19:40:03.413000,72.0,-245.0,-229.0,-270.0,798.0,96.0,235.0,0.0,318.0
19:40:03.418000,91.0,-247.0,-243.0,-257.0,792.0,84.0,235.0,0.0,318.0
19:40:03.423000,91.0,-247.0,-243.0,-251.0,798.0,76.0,234.0,9.0,321.0
19:40:03.427000,108.0,-249.0,-259.0,-256.0,824.0,75.0,234.0,9.0,321.0
19:40:03.431000,114.0,-248.0,-267.0,-260.0,854.0,78.0,234.0,9.0,321.0
19:40:03.436000,117.0,-251.0,-268.0,-254.0,863.0,79.0,232.0,4.0,322.0
19:40:03.441000,119.0,-257.0,-265.0,-235.0,851.0,78.0,232.0,4.0,322.0
19:40:03.446000,121.0,-261.0,-254.0,-201.0,838.0,70.0,232.0,7.0,318.0
19:40:03.451000,125.0,-264.0,-231.0,-179.0,844.0,59.0,232.0,7.0,318.0
19:40:03.455000,129.0,-265.0,-205.0,-185.0,873.0,49.0,232.0,7.0,318.0
19:40:03.460000,135.0,-268.0,-196.0,-208.0,905.0,41.0,240.0,12.0,328.0
19:40:03.465000,141.0,-273.0,-206.0,-231.0,924.0,34.0,240.0,12.0,328.0
19:40:03.470000,147.0,-281.0,-230.0,-234.0,916.0,29.0,225.0,-7.0,324.0
19:40:03.474000,160.0,-294.0,-252.0,-209.0,880.0,23.0,225.0,-7.0,324.0
19:40:03.478000,182.0,-310.0,-269.0,-176.0,836.0,13.0,225.0,-7.0,324.0
19:40:03.484000,217.0,-323.0,-277.0,-155.0,806.0,9.0,229.0,1.0,321.0
19:40:03.488000,260.0,-336.0,-273.0,-132.0,791.0,13.0,229.0,1.0,321.0
19:40:03.493000,311.0,-354.0,-268.0,-132.0,791.0,13.0,234.0,0.0,342.0
19:40:03.498000,365.0,-371.0,-271.0,-101.0,782.0,19.0,234.0,0.0,342.0
19:40:03.502000,434.0,-385.0,-299.0,-82.0,790.0,19.0,234.0,0.0,342.0
19:40:03.507000,506.0,-395.0,-329.0,-91.0,801.0,18.0,231.0,6.0,310.0
19:40:03.512000,572.0,-405.0,-329.0,-129.0,798.0,24.0,231.0,6.0,310.0
19:40:03.517000,639.0,-424.0,-298.0,-178.0,785.0,38.0,231.0,4.0,312.0
19:40:03.521000,701.0,-452.0,-258.0,-208.0,765.0,66.0,231.0,4.0,312.0
19:40:03.525000,701.0,-452.0,-258.0,-216.0,755.0,89.0,231.0,4.0,312.0
19:40:03.531000,843.0,-502.0,-230.0,-208.0,758.0,101.0,216.0,7.0,307.0
19:40:03.535000,843.0,-502.0,-230.0,-183.0,748.0,108.0,216.0,7.0,307.0
19:40:03.540000,919.0,-518.0,-237.0,-164.0,716.0,113.0,216.0,19.0,294.0
19:40:03.545000,999.0,-529.0,-198.0,-169.0,690.0,123.0,216.0,19.0,294.0
19:40:03.549000,1071.0,-541.0,-142.0,-188.0,680.0,138.0,216.0,19.0,294.0
19:40:03.554000,1136.0,-555.0,-89.0,-201.0,671.0,151.0,220.0,12.0,288.0
19:40:03.559000,1194.0,-571.0,-51.0,-203.0,661.0,160.0,220.0,12.0,288.0
19:40:03.564000,1249.0,-585.0,-32.0,-198.0,654.0,160.0,231.0,9.0,277.0
19:40:03.568000,1313.0,-588.0,-35.0,-197.0,648.0,150.0,231.0,9.0,277.0
19:40:03.572000,1384.0,-585.0,-39.0,-212.0,640.0,151.0,231.0,9.0,277.0
19:40:03.578000,1451.0,-587.0,-36.0,-250.0,634.0,162.0,219.0,18.0,268.0
19:40:03.582000,1499.0,-586.0,-29.0,-288.0,617.0,169.0,219.0,18.0,268.0
19:40:03.587000,1553.0,-578.0,-11.0,-288.0,617.0,169.0,231.0,27.0,265.0
19:40:03.592000,1609.0,-573.0,-1.0,-305.0,557.0,192.0,231.0,27.0,265.0
19:40:03.596000,1673.0,-569.0,-9.0,-305.0,557.0,192.0,231.0,27.0,265.0
19:40:03.601000,1750.0,-564.0,-16.0,-283.0,515.0,204.0,225.0,27.0,244.0
19:40:03.606000,1840.0,-563.0,-6.0,-251.0,461.0,221.0,225.0,27.0,244.0
19:40:03.611000,1934.0,-562.0,11.0,-234.0,414.0,245.0,225.0,12.0,240.0
19:40:03.615000,2039.0,-555.0,14.0,-249.0,387.0,269.0,225.0,12.0,240.0
19:40:03.619000,2146.0,-546.0,-15.0,-291.0,389.0,299.0,225.0,12.0,240.0
19:40:03.625000,2258.0,-536.0,-48.0,-332.0,392.0,340.0,232.0,22.0,213.0
19:40:03.629000,2383.0,-527.0,-58.0,-360.0,356.0,385.0,232.0,22.0,213.0
19:40:03.634000,2519.0,-522.0,-62.0,-382.0,297.0,432.0,222.0,10.0,226.0
19:40:03.639000,2673.0,-520.0,-79.0,-402.0,243.0,478.0,222.0,10.0,226.0
19:40:03.643000,2673.0,-520.0,-79.0,-414.0,197.0,524.0,222.0,10.0,226.0
19:40:03.648000,2845.0,-522.0,-81.0,-418.0,157.0,573.0,231.0,18.0,178.0
19:40:03.653000,3016.0,-521.0,-60.0,-423.0,115.0,633.0,231.0,18.0,178.0
19:40:03.658000,3185.0,-518.0,-52.0,-425.0,72.0,694.0,222.0,16.0,157.0
19:40:03.662000,3363.0,-504.0,-50.0,-422.0,75.0,749.0,222.0,16.0,157.0
19:40:03.666000,3538.0,-465.0,-30.0,-432.0,134.0,813.0,222.0,16.0,157.0
19:40:03.671000,3682.0,-414.0,-35.0,-463.0,225.0,882.0,223.0,-1.0,123.0
19:40:03.676000,3789.0,-347.0,-74.0,-510.0,321.0,942.0,223.0,-1.0,123.0
19:40:03.681000,3868.0,-271.0,-126.0,-541.0,351.0,993.0,225.0,4.0,85.0
19:40:03.686000,3932.0,-204.0,-153.0,-544.0,330.0,1022.0,225.0,4.0,85.0
19:40:03.690000,3993.0,-133.0,-183.0,-544.0,321.0,1039.0,225.0,4.0,85.0
19:40:03.695000,4057.0,-65.0,-240.0,-554.0,321.0,1057.0,228.0,-10.0,58.0
19:40:03.700000,4109.0,-2.0,-299.0,-564.0,304.0,1070.0,228.0,-10.0,58.0
19:40:03.705000,4152.0,59.0,-329.0,-564.0,304.0,1070.0,220.0,-18.0,31.0
19:40:03.709000,4200.0,117.0,-329.0,-559.0,266.0,1069.0,220.0,-18.0,31.0
19:40:03.713000,4247.0,165.0,-354.0,-553.0,236.0,1069.0,220.0,-18.0,31.0
19:40:03.719000,4281.0,222.0,-398.0,-530.0,218.0,1066.0,226.0,-39.0,13.0
19:40:03.723000,4300.0,280.0,-403.0,-380.0,157.0,1060.0,226.0,-39.0,13.0
19:40:03.728000,4323.0,326.0,-397.0,-380.0,157.0,1060.0,222.0,-58.0,-15.0
19:40:03.733000,4323.0,372.0,-412.0,-344.0,161.0,1059.0,222.0,-58.0,-15.0
19:40:03.737000,4323.0,372.0,-412.0,-357.0,187.0,1068.0,222.0,-58.0,-15.0
19:40:03.742000,4274.0,433.0,-433.0,-371.0,193.0,1083.0,213.0,-70.0,-37.0
19:40:03.747000,4236.0,455.0,-463.0,-385.0,170.0,1092.0,213.0,-70.0,-37.0
19:40:03.752000,4236.0,455.0,-463.0,-412.0,141.0,1115.0,226.0,-114.0,-84.0
19:40:03.756000,4179.0,445.0,-515.0,-364.0,108.0,1125.0,226.0,-114.0,-84.0
19:40:03.760000,4119.0,451.0,-512.0,-293.0,51.0,1105.0,226.0,-114.0,-84.0
19:40:03.766000,4067.0,480.0,-490.0,-579.0,-38.0,1139.0,214.0,-136.0,-103.0
19:40:03.770000,4008.0,504.0,-665.0,-930.0,-296.0,1322.0,214.0,-136.0,-103.0
19:40:03.775000,3971.0,453.0,-714.0,-297.0,-181.0,1264.0,222.0,-154.0,-126.0
19:40:03.780000,3901.0,560.0,-366.0,151.0,103.0,1150.0,222.0,-154.0,-126.0
19:40:03.784000,3827.0,571.0,-384.0,-252.0,21.0,1235.0,222.0,-154.0,-126.0
19:40:03.789000,3731.0,545.0,-551.0,-437.0,-77.0,1174.0,213.0,-186.0,-133.0
19:40:03.794000,3691.0,601.0,-571.0,-454.0,-227.0,1147.0,213.0,-186.0,-133.0
19:40:03.799000,3665.0,616.0,-537.0,-447.0,-341.0,1170.0,220.0,-208.0,-154.0
19:40:03.803000,3606.0,633.0,-520.0,-449.0,-368.0,1161.0,220.0,-208.0,-154.0
19:40:03.807000,3577.0,664.0,-538.0,-442.0,-377.0,1164.0,220.0,-208.0,-154.0
19:40:03.813000,3560.0,673.0,-556.0,-442.0,-391.0,1180.0,213.0,-231.0,-163.0
19:40:03.817000,3522.0,687.0,-544.0,-395.0,-391.0,1180.0,213.0,-231.0,-163.0
19:40:03.822000,3490.0,720.0,-525.0,-357.0,-433.0,1183.0,226.0,-279.0,-177.0
19:40:03.827000,3474.0,743.0,-552.0,-358.0,-454.0,1189.0,226.0,-279.0,-177.0
19:40:03.831000,3451.0,792.0,-634.0,-379.0,-434.0,1194.0,226.0,-279.0,-177.0
19:40:03.836000,3433.0,850.0,-660.0,-418.0,-466.0,1194.0,232.0,-300.0,-181.0
19:40:03.841000,3423.0,892.0,-589.0,-429.0,-528.0,1220.0,232.0,-300.0,-181.0
19:40:03.846000,3412.0,956.0,-556.0,-445.0,-551.0,1242.0,237.0,-316.0,-195.0
19:40:03.850000,3412.0,956.0,-556.0,-522.0,-536.0,1258.0,237.0,-316.0,-195.0
19:40:03.854000,3404.0,1016.0,-587.0,-558.0,-500.0,1276.0,237.0,-316.0,-195.0
19:40:03.860000,3388.0,1176.0,-654.0,-551.0,-488.0,1294.0,229.0,-345.0,-184.0
19:40:03.864000,3388.0,1176.0,-654.0,-544.0,-508.0,1318.0,229.0,-345.0,-184.0
19:40:03.869000,3369.0,1225.0,-634.0,-505.0,-527.0,1348.0,249.0,-366.0,-198.0
19:40:03.874000,3340.0,1262.0,-568.0,-435.0,-487.0,1356.0,249.0,-366.0,-198.0
19:40:03.878000,3323.0,1302.0,-598.0,-403.0,-444.0,1357.0,249.0,-366.0,-198.0
19:40:03.883000,3284.0,1362.0,-744.0,-352.0,-417.0,1373.0,252.0,-391.0,-202.0
19:40:03.888000,3236.0,1396.0,-793.0,-277.0,-383.0,1376.0,252.0,-391.0,-202.0
19:40:03.892000,3179.0,1438.0,-786.0,-295.0,-365.0,1374.0,276.0,-433.0,-202.0
19:40:03.897000,3102.0,1474.0,-771.0,-328.0,-353.0,1377.0,276.0,-433.0,-202.0
19:40:03.901000,3003.0,1505.0,-688.0,-311.0,-372.0,1345.0,276.0,-433.0,-202.0
19:40:03.906000,2912.0,1562.0,-597.0,-311.0,-399.0,1278.0,303.0,-462.0,-201.0
19:40:03.911000,2815.0,1638.0,-569.0,-374.0,-410.0,1218.0,303.0,-462.0,-201.0
19:40:03.916000,2742.0,1701.0,-594.0,-374.0,-410.0,1218.0,301.0,-477.0,-195.0
19:40:03.921000,2710.0,1742.0,-592.0,-490.0,-529.0,1126.0,301.0,-477.0,-195.0
19:40:03.925000,2681.0,1761.0,-542.0,-490.0,-529.0,1126.0,301.0,-477.0,-195.0
19:40:03.930000,2655.0,1766.0,-517.0,-486.0,-630.0,1105.0,313.0,-498.0,-190.0
19:40:03.934000,2602.0,1757.0,-506.0,-397.0,-629.0,1087.0,313.0,-498.0,-190.0
19:40:03.940000,2556.0,1768.0,-484.0,-397.0,-629.0,1087.0,331.0,-514.0,-177.0
19:40:03.944000,2507.0,1768.0,-485.0,-323.0,-549.0,1054.0,331.0,-514.0,-177.0
19:40:03.949000,2462.0,1731.0,-492.0,-324.0,-481.0,1038.0,352.0,-525.0,-177.0
19:40:03.954000,2415.0,1696.0,-511.0,-306.0,-438.0,1018.0,352.0,-525.0,-177.0
19:40:03.958000,2415.0,1696.0,-511.0,-260.0,-419.0,986.0,352.0,-525.0,-177.0
19:40:03.963000,2257.0,1680.0,-541.0,-232.0,-410.0,950.0,349.0,-546.0,-166.0
19:40:03.968000,2167.0,1661.0,-509.0,-239.0,-395.0,922.0,349.0,-546.0,-166.0
19:40:03.972000,2167.0,1661.0,-509.0,-289.0,-353.0,890.0,375.0,-568.0,-153.0
19:40:03.977000,2065.0,1656.0,-485.0,-355.0,-301.0,850.0,375.0,-568.0,-153.0
19:40:03.981000,1962.0,1654.0,-479.0,-427.0,-268.0,819.0,375.0,-568.0,-153.0
19:40:03.987000,1858.0,1640.0,-457.0,-482.0,-248.0,791.0,396.0,-579.0,-147.0
19:40:03.991000,1763.0,1630.0,-422.0,-508.0,-262.0,760.0,396.0,-579.0,-147.0
19:40:03.996000,1676.0,1619.0,-392.0,-521.0,-304.0,727.0,412.0,-588.0,-139.0
19:40:04.001000,1589.0,1614.0,-366.0,-524.0,-349.0,690.0,412.0,-588.0,-139.0
19:40:04.005000,1508.0,1611.0,-327.0,-527.0,-374.0,659.0,412.0,-588.0,-139.0
19:40:04.010000,1433.0,1607.0,-289.0,-533.0,-377.0,628.0,418.0,-598.0,-132.0
19:40:04.015000,1367.0,1598.0,-269.0,-537.0,-377.0,600.0,418.0,-598.0,-132.0
19:40:04.019000,1296.0,1585.0,-254.0,-522.0,-382.0,573.0,429.0,-595.0,-114.0
19:40:04.024000,1225.0,1562.0,-235.0,-509.0,-387.0,540.0,429.0,-595.0,-114.0
19:40:04.028000,1166.0,1535.0,-219.0,-511.0,-399.0,505.0,429.0,-595.0,-114.0
19:40:04.034000,1111.0,1506.0,-214.0,-511.0,-399.0,505.0,426.0,-616.0,-106.0
19:40:04.038000,1054.0,1474.0,-217.0,-524.0,-410.0,476.0,426.0,-616.0,-106.0
19:40:04.043000,996.0,1444.0,-222.0,-554.0,-415.0,442.0,454.0,-624.0,-88.0
19:40:04.048000,933.0,1408.0,-218.0,-572.0,-421.0,417.0,454.0,-624.0,-88.0
19:40:04.052000,874.0,1369.0,-208.0,-577.0,-448.0,400.0,454.0,-624.0,-88.0
19:40:04.057000,823.0,1328.0,-216.0,-577.0,-471.0,367.0,463.0,-624.0,-84.0
19:40:04.062000,772.0,1284.0,-231.0,-568.0,-484.0,333.0,463.0,-624.0,-84.0
19:40:04.066000,719.0,1232.0,-240.0,-563.0,-499.0,309.0,465.0,-627.0,-55.0
19:40:04.071000,672.0,1176.0,-231.0,-558.0,-517.0,285.0,465.0,-627.0,-55.0
19:40:04.075000,672.0,1176.0,-231.0,-553.0,-546.0,259.0,465.0,-627.0,-55.0
19:40:04.081000,623.0,1122.0,-228.0,-560.0,-555.0,236.0,483.0,-631.0,-64.0
19:40:04.085000,579.0,1066.0,-252.0,-555.0,-565.0,210.0,483.0,-631.0,-64.0
19:40:04.090000,547.0,1010.0,-292.0,-527.0,-604.0,178.0,490.0,-628.0,-67.0
19:40:04.095000,518.0,968.0,-317.0,-498.0,-642.0,159.0,490.0,-628.0,-67.0
19:40:04.099000,477.0,920.0,-323.0,-484.0,-668.0,141.0,490.0,-628.0,-67.0
19:40:04.104000,447.0,872.0,-323.0,-498.0,-680.0,118.0,498.0,-631.0,-33.0
19:40:04.109000,415.0,823.0,-347.0,-524.0,-676.0,100.0,498.0,-631.0,-33.0
19:40:04.113000,389.0,775.0,-375.0,-548.0,-677.0,84.0,507.0,-634.0,-28.0
19:40:04.118000,366.0,726.0,-406.0,-575.0,-687.0,66.0,507.0,-634.0,-28.0
19:40:04.122000,352.0,679.0,-450.0,-594.0,-703.0,46.0,507.0,-634.0,-28.0
19:40:04.128000,344.0,635.0,-496.0,-596.0,-731.0,30.0,519.0,-642.0,-42.0
19:40:04.132000,338.0,590.0,-515.0,-594.0,-764.0,9.0,519.0,-642.0,-42.0
19:40:04.137000,336.0,550.0,-518.0,-594.0,-764.0,9.0,513.0,-619.0,-37.0
19:40:04.142000,325.0,502.0,-513.0,-599.0,-781.0,-8.0,513.0,-619.0,-37.0
19:40:04.146000,306.0,453.0,-520.0,-614.0,-767.0,-17.0,513.0,-619.0,-37.0
19:40:04.151000,286.0,407.0,-516.0,-626.0,-746.0,-27.0,517.0,-627.0,-28.0
19:40:04.156000,270.0,362.0,-507.0,-627.0,-741.0,-34.0,517.0,-627.0,-28.0
19:40:04.160000,263.0,320.0,-492.0,-625.0,-758.0,-34.0,514.0,-624.0,-30.0
19:40:04.165000,258.0,277.0,-466.0,-618.0,-792.0,-28.0,514.0,-624.0,-30.0
19:40:04.169000,252.0,235.0,-450.0,-613.0,-820.0,-20.0,514.0,-624.0,-30.0
19:40:04.175000,260.0,199.0,-448.0,-614.0,-831.0,-19.0,519.0,-628.0,-21.0
19:40:04.179000,269.0,168.0,-451.0,-623.0,-836.0,-24.0,519.0,-628.0,-21.0
19:40:04.184000,282.0,142.0,-449.0,-642.0,-838.0,-31.0,529.0,-621.0,-19.0
19:40:04.189000,282.0,142.0,-449.0,-674.0,-835.0,-43.0,529.0,-621.0,-19.0
19:40:04.193000,297.0,125.0,-447.0,-715.0,-820.0,-51.0,529.0,-621.0,-19.0
19:40:04.198000,308.0,112.0,-448.0,-751.0,-792.0,-55.0,525.0,-615.0,-15.0
19:40:04.203000,310.0,105.0,-441.0,-773.0,-754.0,-66.0,525.0,-615.0,-15.0
19:40:04.207000,308.0,102.0,-425.0,-794.0,-702.0,-75.0,537.0,-615.0,-15.0
19:40:04.212000,298.0,98.0,-426.0,-808.0,-651.0,-72.0,537.0,-615.0,-15.0
19:40:04.216000,279.0,86.0,-434.0,-793.0,-631.0,-70.0,537.0,-615.0,-15.0
19:40:04.222000,256.0,72.0,-422.0,-767.0,-636.0,-72.0,537.0,-622.0,-10.0
19:40:04.226000,234.0,55.0,-396.0,-756.0,-645.0,-73.0,537.0,-622.0,-10.0
19:40:04.231000,209.0,37.0,-374.0,-765.0,-639.0,-75.0,532.0,-624.0,-6.0
19:40:04.236000,184.0,18.0,-377.0,-778.0,-619.0,-81.0,532.0,-624.0,-6.0
19:40:04.240000,160.0,1.0,-394.0,-779.0,-606.0,-81.0,532.0,-624.0,-6.0
19:40:04.245000,130.0,-18.0,-392.0,-776.0,-604.0,-82.0,538.0,-612.0,-3.0
19:40:04.250000,98.0,-33.0,-371.0,-784.0,-613.0,-93.0,538.0,-612.0,-3.0
19:40:04.254000,67.0,-39.0,-348.0,-784.0,-613.0,-93.0,537.0,-613.0,-4.0
19:40:04.259000,39.0,-40.0,-340.0,-815.0,-617.0,-105.0,537.0,-613.0,-4.0
19:40:04.263000,10.0,-37.0,-360.0,-854.0,-598.0,-116.0,537.0,-613.0,-4.0
19:40:04.269000,-25.0,-31.0,-376.0,-880.0,-571.0,-126.0,544.0,-618.0,-7.0
19:40:04.273000,-59.0,-29.0,-365.0,-886.0,-554.0,-127.0,544.0,-618.0,-7.0
19:40:04.278000,-88.0,-20.0,-322.0,-891.0,-555.0,-129.0,547.0,-615.0,-6.0
19:40:04.283000,-116.0,-7.0,-276.0,-913.0,-579.0,-139.0,547.0,-615.0,-6.0
19:40:04.290000,-140.0,4.0,-250.0,-976.0,-584.0,-136.0,561.0,-607.0,-4.0
19:40:04.292000,-151.0,12.0,-227.0,-976.0,-584.0,-136.0,561.0,-607.0,-4.0
19:40:04.296000,-151.0,12.0,-227.0,-986.0,-587.0,-129.0,561.0,-607.0,-4.0
19:40:04.301000,-154.0,18.0,-206.0,-967.0,-638.0,-127.0,547.0,-601.0,-15.0
19:40:04.306000,-150.0,19.0,-182.0,-931.0,-703.0,-125.0,547.0,-601.0,-15.0
19:40:04.311000,-130.0,11.0,-146.0,-905.0,-735.0,-119.0,555.0,-606.0,1.0
19:40:04.316000,-102.0,-2.0,-112.0,-892.0,-736.0,-111.0,555.0,-606.0,1.0
19:40:04.320000,-78.0,-20.0,-90.0,-889.0,-723.0,-96.0,555.0,-606.0,1.0
19:40:04.325000,-53.0,-49.0,-72.0,-884.0,-703.0,-82.0,550.0,-610.0,-7.0
19:40:04.330000,-31.0,-81.0,-55.0,-879.0,-687.0,-69.0,550.0,-610.0,-7.0
19:40:04.334000,-18.0,-111.0,-35.0,-874.0,-682.0,-62.0,552.0,-609.0,-1.0
19:40:04.339000,-11.0,-142.0,-18.0,-860.0,-674.0,-60.0,552.0,-609.0,-1.0
19:40:04.343000,-3.0,-169.0,-13.0,-843.0,-665.0,-53.0,552.0,-609.0,-1.0
19:40:04.348000,-1.0,-196.0,-12.0,-828.0,-664.0,-45.0,549.0,-601.0,-4.0
19:40:04.353000,-2.0,-226.0,-5.0,-817.0,-650.0,-35.0,549.0,-601.0,-4.0
19:40:04.358000,-2.0,-256.0,-7.0,-817.0,-650.0,-35.0,547.0,-603.0,-3.0
19:40:04.363000,-9.0,-287.0,-7.0,-812.0,-631.0,-25.0,547.0,-603.0,-3.0
19:40:04.367000,-19.0,-319.0,2.0,-812.0,-633.0,-16.0,547.0,-603.0,-3.0
19:40:04.371000,-25.0,-350.0,8.0,-810.0,-636.0,-8.0,547.0,-603.0,-4.0
19:40:04.377000,-28.0,-380.0,0.0,-807.0,-632.0,2.0,547.0,-603.0,-4.0
19:40:04.381000,-25.0,-410.0,-18.0,-799.0,-632.0,14.0,546.0,-595.0,0.0
19:40:04.386000,-19.0,-440.0,-34.0,-779.0,-645.0,27.0,546.0,-595.0,0.0
19:40:04.390000,-10.0,-469.0,-46.0,-752.0,-665.0,41.0,546.0,-595.0,0.0
19:40:04.395000,1.0,-492.0,-52.0,-735.0,-675.0,49.0,543.0,-610.0,-3.0
19:40:04.400000,9.0,-511.0,-58.0,-740.0,-663.0,53.0,543.0,-610.0,-3.0
19:40:04.405000,12.0,-527.0,-77.0,-767.0,-625.0,61.0,538.0,-598.0,-7.0
19:40:04.410000,12.0,-527.0,-77.0,-801.0,-582.0,65.0,538.0,-598.0,-7.0
19:40:04.414000,9.0,-536.0,-102.0,-822.0,-556.0,63.0,538.0,-598.0,-7.0
19:40:04.419000,3.0,-536.0,-126.0,-827.0,-544.0,63.0,543.0,-592.0,-19.0
19:40:04.424000,-7.0,-534.0,-145.0,-824.0,-542.0,64.0,543.0,-592.0,-19.0
19:40:04.428000,-22.0,-530.0,-161.0,-813.0,-543.0,59.0,532.0,-603.0,-12.0
19:40:04.433000,-36.0,-522.0,-170.0,-801.0,-538.0,53.0,532.0,-603.0,-12.0
19:40:04.437000,-53.0,-511.0,-178.0,-796.0,-525.0,48.0,532.0,-603.0,-12.0
19:40:04.442000,-70.0,-499.0,-184.0,-800.0,-510.0,42.0,537.0,-595.0,-27.0
19:40:04.447000,-86.0,-488.0,-184.0,-811.0,-502.0,34.0,537.0,-595.0,-27.0
19:40:04.452000,-102.0,-476.0,-179.0,-825.0,-499.0,20.0,529.0,-597.0,-30.0
19:40:04.457000,-121.0,-461.0,-177.0,-836.0,-501.0,1.0,529.0,-597.0,-30.0
19:40:04.461000,-135.0,-452.0,-180.0,-832.0,-513.0,-17.0,529.0,-597.0,-30.0
19:40:04.466000,-142.0,-450.0,-186.0,-807.0,-538.0,-35.0,537.0,-592.0,-25.0
19:40:04.471000,-149.0,-448.0,-184.0,-774.0,-570.0,-56.0,537.0,-592.0,-25.0
19:40:04.475000,-159.0,-442.0,-177.0,-774.0,-570.0,-56.0,532.0,-600.0,-28.0
19:40:04.480000,-169.0,-437.0,-184.0,-756.0,-573.0,-83.0,532.0,-600.0,-28.0
19:40:04.484000,-181.0,-435.0,-211.0,-760.0,-537.0,-108.0,532.0,-600.0,-28.0
19:40:04.489000,-194.0,-441.0,-252.0,-761.0,-485.0,-123.0,526.0,-603.0,-36.0
19:40:04.494000,-212.0,-457.0,-295.0,-744.0,-444.0,-133.0,526.0,-603.0,-36.0
19:40:04.499000,-232.0,-476.0,-338.0,-718.0,-421.0,-143.0,535.0,-594.0,-37.0
19:40:04.504000,-249.0,-503.0,-378.0,-688.0,-406.0,-155.0,535.0,-594.0,-37.0
19:40:04.508000,-249.0,-503.0,-378.0,-665.0,-386.0,-163.0,535.0,-594.0,-37.0
19:40:04.513000,-284.0,-581.0,-443.0,-654.0,-359.0,-164.0,534.0,-585.0,-31.0
19:40:04.518000,-284.0,-581.0,-443.0,-650.0,-330.0,-163.0,534.0,-585.0,-31.0
19:40:04.522000,-301.0,-630.0,-467.0,-641.0,-310.0,-164.0,523.0,-588.0,-42.0
19:40:04.527000,-316.0,-679.0,-478.0,-635.0,-300.0,-162.0,523.0,-588.0,-42.0
19:40:04.531000,-328.0,-727.0,-479.0,-642.0,-274.0,-154.0,523.0,-588.0,-42.0
19:40:04.536000,-339.0,-779.0,-483.0,-659.0,-223.0,-140.0,528.0,-588.0,-46.0
19:40:04.541000,-351.0,-835.0,-492.0,-674.0,-179.0,-117.0,528.0,-588.0,-46.0
19:40:04.546000,-365.0,-886.0,-487.0,-677.0,-155.0,-86.0,517.0,-576.0,-54.0
19:40:04.551000,-380.0,-938.0,-459.0,-680.0,-144.0,-49.0,517.0,-576.0,-54.0
19:40:04.555000,-395.0,-986.0,-402.0,-695.0,-150.0,-10.0,517.0,-576.0,-54.0
19:40:04.560000,-438.0,-1020.0,-305.0,-751.0,-101.0,30.0,505.0,-567.0,-48.0
19:40:04.565000,-480.0,-1054.0,-270.0,-824.0,-5.0,69.0,505.0,-567.0,-48.0
19:40:04.569000,-508.0,-1087.0,-279.0,-824.0,-5.0,69.0,511.0,-564.0,-66.0
19:40:04.574000,-550.0,-1110.0,-237.0,-962.0,45.0,172.0,511.0,-564.0,-66.0
19:40:04.578000,-592.0,-1143.0,-152.0,-962.0,40.0,242.0,511.0,-564.0,-66.0
19:40:04.583000,-622.0,-1194.0,-82.0,-1102.0,40.0,242.0,510.0,-561.0,-70.0
19:40:04.588000,-572.0,-1257.0,-35.0,-1321.0,-19.0,320.0,510.0,-561.0,-70.0
19:40:04.593000,-420.0,-1232.0,-10.0,-1364.0,-22.0,330.0,504.0,-553.0,-78.0
19:40:04.598000,-526.0,-1072.0,-72.0,-1159.0,-59.0,311.0,504.0,-553.0,-78.0
19:40:04.602000,-788.0,-968.0,-67.0,-900.0,-146.0,482.0,504.0,-553.0,-78.0
19:40:04.606000,-821.0,-884.0,-166.0,-716.0,-27.0,477.0,493.0,-556.0,-78.0
19:40:04.612000,-953.0,-805.0,-398.0,-709.0,219.0,366.0,493.0,-556.0,-78.0
19:40:04.616000,-1042.0,-715.0,-593.0,-736.0,351.0,408.0,486.0,-546.0,-100.0
19:40:04.621000,-1062.0,-676.0,-417.0,-775.0,180.0,374.0,486.0,-546.0,-100.0
19:40:04.625000,-1062.0,-676.0,-417.0,-942.0,-80.0,371.0,486.0,-546.0,-100.0
19:40:04.630000,-1100.0,-679.0,-120.0,-1164.0,-210.0,354.0,492.0,-540.0,-91.0
19:40:04.635000,-1128.0,-668.0,-28.0,-1297.0,-287.0,292.0,492.0,-540.0,-91.0
19:40:04.640000,-1109.0,-682.0,-67.0,-1275.0,-345.0,247.0,478.0,-537.0,-106.0
19:40:04.645000,-1054.0,-695.0,-126.0,-1130.0,-426.0,221.0,478.0,-537.0,-106.0
19:40:04.649000,-1024.0,-700.0,-116.0,-954.0,-472.0,199.0,478.0,-537.0,-106.0
19:40:04.654000,-960.0,-707.0,-67.0,-828.0,-457.0,186.0,478.0,-535.0,-109.0
19:40:04.659000,-902.0,-723.0,-32.0,-743.0,-444.0,187.0,478.0,-535.0,-109.0
19:40:04.663000,-828.0,-749.0,-4.0,-689.0,-489.0,169.0,477.0,-517.0,-117.0
19:40:04.668000,-720.0,-766.0,60.0,-730.0,-520.0,160.0,477.0,-517.0,-117.0
19:40:04.672000,-651.0,-777.0,90.0,-824.0,-517.0,177.0,477.0,-517.0,-117.0
19:40:04.677000,-603.0,-795.0,128.0,-920.0,-501.0,180.0,480.0,-516.0,-118.0
19:40:04.682000,-588.0,-790.0,74.0,-1023.0,-360.0,181.0,480.0,-516.0,-118.0
19:40:04.687000,-622.0,-759.0,-147.0,-1060.0,-177.0,186.0,469.0,-508.0,-117.0
19:40:04.692000,-616.0,-732.0,-329.0,-1060.0,-177.0,186.0,469.0,-508.0,-117.0
19:40:04.696000,-652.0,-697.0,-274.0,-996.0,-184.0,204.0,460.0,-511.0,-121.0
19:40:04.701000,-674.0,-656.0,-204.0,-920.0,-263.0,218.0,460.0,-511.0,-121.0
19:40:04.705000,-695.0,-609.0,-114.0,-887.0,-302.0,232.0,460.0,-511.0,-121.0
19:40:04.710000,-674.0,-575.0,-5.0,-867.0,-352.0,243.0,454.0,-505.0,-126.0
19:40:04.715000,-494.0,-636.0,380.0,-836.0,-523.0,238.0,454.0,-505.0,-126.0
19:40:04.720000,-613.0,-539.0,547.0,-855.0,-770.0,265.0,459.0,-502.0,-138.0
19:40:04.724000,-525.0,-540.0,323.0,-984.0,-569.0,276.0,459.0,-502.0,-138.0
19:40:04.729000,-525.0,-540.0,323.0,-996.0,-337.0,265.0,459.0,-502.0,-138.0
19:40:04.734000,-555.0,-440.0,373.0,-903.0,-365.0,300.0,432.0,-495.0,-138.0
19:40:04.739000,-555.0,-440.0,373.0,-892.0,-277.0,346.0,432.0,-495.0,-138.0
19:40:04.743000,-590.0,-422.0,341.0,-900.0,-193.0,337.0,447.0,-486.0,-133.0
19:40:04.748000,-571.0,-389.0,249.0,-888.0,-210.0,330.0,447.0,-486.0,-133.0
19:40:04.752000,-583.0,-354.0,156.0,-856.0,-305.0,349.0,447.0,-486.0,-133.0
19:40:04.757000,-606.0,-323.0,114.0,-826.0,-389.0,356.0,444.0,-487.0,-142.0
19:40:04.762000,-598.0,-310.0,102.0,-835.0,-420.0,366.0,444.0,-487.0,-142.0
19:40:04.767000,-606.0,-301.0,94.0,-860.0,-412.0,388.0,439.0,-489.0,-144.0
19:40:04.771000,-658.0,-280.0,116.0,-923.0,-349.0,442.0,439.0,-489.0,-144.0
19:40:04.776000,-723.0,-266.0,221.0,-949.0,-303.0,506.0,439.0,-489.0,-144.0
19:40:04.781000,-697.0,-331.0,325.0,-914.0,-412.0,533.0,435.0,-484.0,-141.0
19:40:04.786000,-687.0,-338.0,326.0,-886.0,-510.0,513.0,435.0,-484.0,-141.0
19:40:04.790000,-667.0,-315.0,160.0,-886.0,-510.0,513.0,429.0,-478.0,-148.0
19:40:04.795000,-644.0,-303.0,-12.0,-722.0,-370.0,527.0,429.0,-478.0,-148.0
19:40:04.799000,-647.0,-316.0,-27.0,-722.0,-370.0,527.0,429.0,-478.0,-148.0
19:40:04.804000,-665.0,-343.0,56.0,-666.0,-348.0,550.0,423.0,-475.0,-150.0
19:40:04.809000,-683.0,-356.0,95.0,-703.0,-346.0,553.0,423.0,-475.0,-150.0
19:40:04.814000,-734.0,-347.0,86.0,-841.0,-333.0,548.0,435.0,-471.0,-148.0
19:40:04.818000,-780.0,-346.0,69.0,-841.0,-333.0,548.0,435.0,-471.0,-148.0
19:40:04.822000,-826.0,-340.0,46.0,-851.0,-320.0,542.0,435.0,-471.0,-148.0
19:40:04.828000,-868.0,-324.0,21.0,-825.0,-287.0,533.0,432.0,-477.0,-151.0
19:40:04.833000,-929.0,-307.0,-1.0,-790.0,-261.0,535.0,432.0,-477.0,-151.0
19:40:04.837000,-989.0,-297.0,-23.0,-759.0,-230.0,551.0,417.0,-471.0,-159.0
19:40:04.842000,-1046.0,-291.0,-60.0,-735.0,-198.0,562.0,417.0,-471.0,-159.0
19:40:04.846000,-1046.0,-291.0,-60.0,-705.0,-194.0,575.0,417.0,-471.0,-159.0
19:40:04.851000,-1106.0,-289.0,-100.0,-666.0,-215.0,585.0,424.0,-450.0,-156.0
19:40:04.856000,-1169.0,-284.0,-136.0,-628.0,-223.0,585.0,424.0,-450.0,-156.0
19:40:04.861000,-1233.0,-270.0,-168.0,-608.0,-210.0,584.0,406.0,-441.0,-148.0
19:40:04.865000,-1289.0,-259.0,-209.0,-604.0,-197.0,590.0,406.0,-441.0,-148.0
19:40:04.869000,-1351.0,-250.0,-250.0,-615.0,-179.0,609.0,406.0,-441.0,-148.0
19:40:04.875000,-1408.0,-260.0,-289.0,-633.0,-141.0,629.0,409.0,-438.0,-151.0
19:40:04.880000,-1479.0,-267.0,-329.0,-656.0,-95.0,645.0,409.0,-438.0,-151.0
19:40:04.884000,-1550.0,-282.0,-364.0,-680.0,-45.0,658.0,421.0,-415.0,-156.0
19:40:04.889000,-1632.0,-294.0,-390.0,-697.0,3.0,671.0,421.0,-415.0,-156.0
19:40:04.893000,-1716.0,-305.0,-403.0,-705.0,33.0,691.0,421.0,-415.0,-156.0
19:40:04.898000,-1813.0,-324.0,-399.0,-701.0,61.0,720.0,414.0,-397.0,-133.0
19:40:04.903000,-1917.0,-347.0,-376.0,-693.0,87.0,755.0,414.0,-397.0,-133.0
19:40:04.908000,-2034.0,-374.0,-340.0,-693.0,87.0,755.0,399.0,-397.0,-133.0
19:40:04.912000,-2156.0,-408.0,-308.0,-681.0,119.0,793.0,399.0,-397.0,-133.0
19:40:04.916000,-2277.0,-453.0,-291.0,-664.0,151.0,828.0,399.0,-397.0,-133.0
19:40:04.922000,-2394.0,-494.0,-282.0,-635.0,173.0,862.0,408.0,-360.0,-160.0
19:40:04.927000,-2504.0,-539.0,-268.0,-600.0,171.0,896.0,408.0,-360.0,-160.0
19:40:04.931000,-2605.0,-578.0,-254.0,-568.0,146.0,930.0,397.0,-351.0,-154.0
19:40:04.936000,-2698.0,-618.0,-247.0,-551.0,124.0,960.0,397.0,-351.0,-154.0
19:40:04.940000,-2698.0,-618.0,-247.0,-549.0,122.0,989.0,397.0,-351.0,-154.0
19:40:04.945000,-2845.0,-698.0,-264.0,-550.0,134.0,1013.0,393.0,-321.0,-153.0
