hh:mm:ss.ms,gyroX[mdps],gyroY[mdps],gyroZ[mdps],accX[mg],accY[mg],accZ[mg],magX[mG],magY[mG],magZ[mG]
19:30:09.632000,136.0,154.0,-932.0,-1836.0,-890.0,314.0,490.0,-613.0,-34.0
19:30:09.637000,235.0,243.0,-954.0,-1404.0,-1057.0,261.0,490.0,-613.0,-34.0
19:30:09.642000,441.0,276.0,-368.0,-706.0,-665.0,285.0,481.0,-601.0,-19.0
19:30:09.647000,215.0,531.0,-700.0,-66.0,-275.0,323.0,481.0,-601.0,-19.0
19:30:09.651000,235.0,539.0,-1239.0,413.0,-487.0,311.0,499.0,-597.0,-28.0
19:30:09.656000,210.0,513.0,-1152.0,269.0,-752.0,272.0,499.0,-597.0,-28.0
19:30:09.660000,181.0,527.0,-887.0,-248.0,-672.0,219.0,499.0,-597.0,-28.0
19:30:09.665000,200.0,513.0,-803.0,-569.0,-493.0,192.0,499.0,-594.0,-25.0
19:30:09.669000,178.0,510.0,-815.0,-688.0,-344.0,162.0,499.0,-594.0,-25.0
19:30:09.675000,121.0,519.0,-824.0,-762.0,-264.0,143.0,510.0,-589.0,-10.0
19:30:09.679000,77.0,490.0,-745.0,-743.0,-266.0,125.0,510.0,-589.0,-10.0
19:30:09.684000,109.0,416.0,-658.0,-743.0,-266.0,125.0,517.0,-583.0,-16.0
19:30:09.689000,87.0,396.0,-555.0,-609.0,-335.0,78.0,517.0,-583.0,-16.0
19:30:09.693000,83.0,373.0,-450.0,-496.0,-398.0,40.0,517.0,-583.0,-16.0
19:30:09.698000,47.0,333.0,-373.0,-518.0,-388.0,33.0,513.0,-580.0,-19.0
19:30:09.703000,64.0,277.0,-368.0,-622.0,-352.0,43.0,513.0,-580.0,-19.0
19:30:09.708000,63.0,232.0,-503.0,-734.0,-263.0,63.0,514.0,-574.0,-16.0
19:30:09.712000,50.0,206.0,-622.0,-703.0,-244.0,69.0,514.0,-574.0,-16.0
19:30:09.716000,50.0,206.0,-622.0,-584.0,-319.0,48.0,514.0,-574.0,-16.0
19:30:09.722000,-9.0,228.0,-693.0,-576.0,-321.0,32.0,508.0,-574.0,-16.0
19:30:09.726000,-32.0,249.0,-710.0,-661.0,-294.0,18.0,508.0,-574.0,-16.0
19:30:09.731000,-32.0,249.0,-710.0,-794.0,-324.0,24.0,510.0,-568.0,-9.0
19:30:09.736000,-29.0,261.0,-773.0,-894.0,-416.0,31.0,510.0,-568.0,-9.0
19:30:09.740000,-42.0,283.0,-844.0,-908.0,-539.0,26.0,510.0,-568.0,-9.0
19:30:09.745000,-68.0,322.0,-868.0,-922.0,-607.0,26.0,523.0,-570.0,-7.0
19:30:09.750000,-104.0,360.0,-860.0,-953.0,-638.0,22.0,523.0,-570.0,-7.0
19:30:09.755000,-123.0,399.0,-819.0,-996.0,-625.0,16.0,519.0,-549.0,-19.0
19:30:09.759000,-123.0,429.0,-891.0,-1038.0,-558.0,15.0,519.0,-549.0,-19.0
19:30:09.767000,-51.0,453.0,-1202.0,-960.0,-623.0,-12.0,519.0,-552.0,-19.0
19:30:09.769000,-51.0,453.0,-1202.0,-960.0,-623.0,-12.0,519.0,-552.0,-19.0
19:30:09.773000,-49.0,470.0,-1150.0,-997.0,-643.0,-9.0,519.0,-552.0,-19.0
19:30:09.778000,-48.0,486.0,-1088.0,-1016.0,-650.0,-19.0,526.0,-550.0,-4.0
19:30:09.783000,24.0,464.0,-1067.0,-984.0,-697.0,-49.0,526.0,-550.0,-4.0
19:30:09.788000,91.0,446.0,-1096.0,-984.0,-697.0,-49.0,532.0,-538.0,-19.0
19:30:09.792000,95.0,429.0,-1122.0,-986.0,-684.0,-59.0,532.0,-538.0,-19.0
19:30:09.796000,107.0,399.0,-1040.0,-984.0,-634.0,-56.0,532.0,-538.0,-19.0
19:30:09.802000,157.0,380.0,-891.0,-991.0,-613.0,-83.0,531.0,-535.0,-3.0
19:30:09.806000,138.0,389.0,-863.0,-1053.0,-490.0,-65.0,531.0,-535.0,-3.0
19:30:09.811000,112.0,392.0,-861.0,-1053.0,-490.0,-65.0,528.0,-535.0,0.0
19:30:09.816000,139.0,400.0,-847.0,-988.0,-459.0,-76.0,528.0,-535.0,0.0
19:30:09.820000,207.0,360.0,-855.0,-924.0,-326.0,-63.0,528.0,-535.0,0.0
19:30:09.825000,186.0,344.0,-834.0,-916.0,-218.0,-26.0,537.0,-523.0,3.0
19:30:09.830000,130.0,326.0,-825.0,-1029.0,-209.0,-8.0,537.0,-523.0,3.0
19:30:09.835000,115.0,318.0,-895.0,-1237.0,-205.0,-11.0,535.0,-520.0,1.0
19:30:09.839000,115.0,318.0,-895.0,-1347.0,-253.0,-40.0,535.0,-520.0,1.0
19:30:09.843000,77.0,338.0,-986.0,-1310.0,-344.0,-59.0,535.0,-520.0,1.0
19:30:09.849000,74.0,344.0,-953.0,-1286.0,-335.0,-73.0,535.0,-531.0,3.0
19:30:09.853000,115.0,340.0,-984.0,-1300.0,-292.0,-88.0,535.0,-531.0,3.0
19:30:09.858000,169.0,320.0,-1040.0,-1220.0,-350.0,-76.0,544.0,-511.0,7.0
19:30:09.863000,151.0,322.0,-912.0,-1132.0,-357.0,-70.0,544.0,-511.0,7.0
19:30:09.867000,149.0,321.0,-767.0,-1188.0,-233.0,-84.0,544.0,-511.0,7.0
19:30:09.872000,194.0,306.0,-860.0,-1260.0,-133.0,-95.0,547.0,-519.0,15.0
19:30:09.877000,201.0,303.0,-1009.0,-1233.0,-113.0,-111.0,547.0,-519.0,15.0
19:30:09.882000,202.0,295.0,-1009.0,-1199.0,-101.0,-128.0,541.0,-504.0,16.0
19:30:09.886000,219.0,266.0,-910.0,-1257.0,-66.0,-140.0,541.0,-504.0,16.0
19:30:09.890000,239.0,241.0,-847.0,-1362.0,32.0,-157.0,541.0,-504.0,16.0
19:30:09.896000,246.0,236.0,-896.0,-1379.0,143.0,-153.0,549.0,-496.0,21.0
19:30:09.900000,168.0,241.0,-864.0,-1379.0,143.0,-153.0,549.0,-496.0,21.0
19:30:09.905000,112.0,245.0,-716.0,-1343.0,217.0,-153.0,556.0,-498.0,18.0
19:30:09.910000,-1.0,266.0,-499.0,-1344.0,278.0,-152.0,556.0,-498.0,18.0
19:30:09.914000,-88.0,281.0,-263.0,-1359.0,247.0,-146.0,556.0,-498.0,18.0
19:30:09.919000,-84.0,249.0,-305.0,-1325.0,290.0,-118.0,546.0,-495.0,15.0
19:30:09.924000,-57.0,206.0,-365.0,-1370.0,378.0,-136.0,546.0,-495.0,15.0
19:30:09.929000,-58.0,159.0,-268.0,-1304.0,206.0,-183.0,552.0,-487.0,19.0
19:30:09.933000,-35.0,136.0,-253.0,-1029.0,-10.0,-182.0,552.0,-487.0,19.0
19:30:09.937000,-35.0,136.0,-253.0,-860.0,41.0,-181.0,552.0,-487.0,19.0
19:30:09.943000,88.0,122.0,-490.0,-812.0,184.0,-154.0,547.0,-492.0,25.0
19:30:09.947000,75.0,130.0,-504.0,-835.0,190.0,-131.0,547.0,-492.0,25.0
19:30:09.952000,75.0,130.0,-504.0,-945.0,180.0,-129.0,549.0,-493.0,30.0
19:30:09.957000,95.0,110.0,-476.0,-1107.0,208.0,-141.0,549.0,-493.0,30.0
19:30:09.961000,63.0,112.0,-470.0,-1236.0,185.0,-160.0,549.0,-493.0,30.0
19:30:09.966000,30.0,124.0,-487.0,-1312.0,169.0,-176.0,546.0,-484.0,22.0
19:30:09.971000,23.0,128.0,-454.0,-1347.0,155.0,-173.0,546.0,-484.0,22.0
19:30:09.976000,23.0,132.0,-364.0,-1387.0,198.0,-164.0,540.0,-492.0,18.0
19:30:09.980000,40.0,135.0,-354.0,-1395.0,240.0,-160.0,540.0,-492.0,18.0
19:30:09.984000,0.0,158.0,-364.0,-1334.0,208.0,-152.0,540.0,-492.0,18.0
19:30:09.990000,-7.0,166.0,-310.0,-1260.0,191.0,-142.0,559.0,-487.0,18.0
19:30:09.994000,-15.0,166.0,-280.0,-1227.0,164.0,-140.0,559.0,-487.0,18.0
19:30:09.999000,-23.0,180.0,-290.0,-1227.0,164.0,-140.0,541.0,-481.0,37.0
19:30:10.004000,7.0,171.0,-284.0,-1235.0,167.0,-147.0,541.0,-481.0,37.0
19:30:10.008000,19.0,165.0,-264.0,-1214.0,133.0,-150.0,541.0,-481.0,37.0
19:30:10.013000,7.0,173.0,-265.0,-1214.0,133.0,-150.0,550.0,-475.0,21.0
19:30:10.018000,37.0,163.0,-296.0,-1218.0,178.0,-157.0,550.0,-475.0,21.0
19:30:10.023000,28.0,156.0,-313.0,-1213.0,245.0,-158.0,549.0,-484.0,22.0
19:30:10.027000,0.0,166.0,-275.0,-1180.0,254.0,-163.0,549.0,-484.0,22.0
19:30:10.031000,-23.0,164.0,-230.0,-1163.0,289.0,-169.0,549.0,-484.0,22.0
19:30:10.037000,-35.0,167.0,-228.0,-1172.0,321.0,-172.0,553.0,-483.0,36.0
19:30:10.041000,-51.0,168.0,-260.0,-1183.0,319.0,-177.0,553.0,-483.0,36.0
19:30:10.046000,-52.0,161.0,-256.0,-1159.0,293.0,-175.0,556.0,-477.0,24.0
19:30:10.051000,-70.0,159.0,-177.0,-1107.0,248.0,-174.0,556.0,-477.0,24.0
19:30:10.055000,-70.0,159.0,-177.0,-1081.0,228.0,-178.0,556.0,-477.0,24.0
19:30:10.060000,-76.0,156.0,-92.0,-1090.0,219.0,-187.0,546.0,-474.0,25.0
19:30:10.065000,-79.0,149.0,-70.0,-1095.0,219.0,-194.0,546.0,-474.0,25.0
19:30:10.070000,-66.0,142.0,-82.0,-1065.0,224.0,-197.0,561.0,-486.0,22.0
19:30:10.074000,-43.0,128.0,-69.0,-1023.0,210.0,-198.0,561.0,-486.0,22.0
19:30:10.082000,7.0,112.0,0.0,-1029.0,217.0,-204.0,555.0,-477.0,19.0
19:30:10.084000,7.0,112.0,0.0,-1029.0,217.0,-204.0,555.0,-477.0,19.0
19:30:10.088000,35.0,95.0,-9.0,-1059.0,217.0,-202.0,555.0,-477.0,19.0
19:30:10.093000,47.0,98.0,13.0,-1049.0,183.0,-194.0,537.0,-478.0,28.0
19:30:10.098000,72.0,88.0,63.0,-1042.0,152.0,-188.0,537.0,-478.0,28.0
19:30:10.102000,89.0,89.0,93.0,-1037.0,139.0,-179.0,561.0,-484.0,27.0
19:30:10.107000,94.0,85.0,105.0,-1009.0,171.0,-166.0,561.0,-484.0,27.0
19:30:10.111000,93.0,82.0,108.0,-982.0,223.0,-162.0,561.0,-484.0,27.0
19:30:10.117000,84.0,79.0,130.0,-955.0,237.0,-156.0,555.0,-480.0,12.0
19:30:10.121000,84.0,72.0,128.0,-955.0,237.0,-156.0,555.0,-480.0,12.0
19:30:10.125000,108.0,64.0,81.0,-939.0,205.0,-171.0,549.0,-475.0,18.0
19:30:10.131000,119.0,67.0,30.0,-939.0,205.0,-171.0,549.0,-475.0,18.0
19:30:10.135000,126.0,48.0,26.0,-953.0,203.0,-166.0,549.0,-475.0,18.0
19:30:10.140000,130.0,32.0,68.0,-975.0,228.0,-165.0,559.0,-483.0,21.0
19:30:10.145000,79.0,46.0,109.0,-977.0,237.0,-170.0,559.0,-483.0,21.0
19:30:10.149000,63.0,62.0,127.0,-974.0,197.0,-175.0,558.0,-475.0,25.0
19:30:10.154000,75.0,56.0,83.0,-977.0,217.0,-171.0,558.0,-475.0,25.0
19:30:10.158000,75.0,56.0,83.0,-974.0,276.0,-163.0,558.0,-475.0,25.0
19:30:10.164000,82.0,77.0,-84.0,-994.0,311.0,-162.0,552.0,-480.0,22.0
19:30:10.168000,82.0,77.0,-84.0,-998.0,329.0,-174.0,552.0,-480.0,22.0
19:30:10.172000,114.0,74.0,-51.0,-985.0,352.0,-188.0,547.0,-483.0,30.0
19:30:10.178000,142.0,66.0,14.0,-1045.0,431.0,-192.0,547.0,-483.0,30.0
19:30:10.182000,129.0,74.0,-28.0,-1131.0,500.0,-229.0,547.0,-483.0,30.0
19:30:10.187000,130.0,87.0,-100.0,-1112.0,549.0,-261.0,556.0,-478.0,18.0
19:30:10.192000,121.0,84.0,-122.0,-998.0,645.0,-282.0,556.0,-478.0,18.0
19:30:10.196000,148.0,102.0,-97.0,-952.0,756.0,-296.0,546.0,-481.0,19.0
19:30:10.201000,139.0,112.0,-72.0,-1059.0,814.0,-330.0,546.0,-481.0,19.0
19:30:10.205000,144.0,137.0,-38.0,-1158.0,824.0,-365.0,546.0,-481.0,19.0
19:30:10.211000,109.0,138.0,29.0,-1104.0,884.0,-384.0,550.0,-492.0,16.0
19:30:10.215000,84.0,132.0,131.0,-990.0,1024.0,-431.0,550.0,-492.0,16.0
19:30:10.219000,115.0,105.0,221.0,-1055.0,1119.0,-475.0,555.0,-484.0,18.0
19:30:10.225000,130.0,100.0,152.0,-1212.0,1055.0,-490.0,555.0,-484.0,18.0
19:30:10.229000,130.0,83.0,99.0,-1212.0,962.0,-490.0,555.0,-484.0,18.0
19:30:10.234000,108.0,46.0,200.0,-1199.0,940.0,-485.0,538.0,-492.0,33.0
19:30:10.239000,84.0,33.0,483.0,-1027.0,939.0,-491.0,538.0,-492.0,33.0
19:30:10.243000,98.0,42.0,695.0,-918.0,1045.0,-494.0,561.0,-484.0,22.0
19:30:10.248000,64.0,49.0,714.0,-1018.0,991.0,-480.0,561.0,-484.0,22.0
19:30:10.252000,-32.0,58.0,643.0,-1145.0,810.0,-460.0,561.0,-484.0,22.0
19:30:10.258000,-179.0,91.0,797.0,-1126.0,721.0,-443.0,553.0,-498.0,16.0
19:30:10.262000,-182.0,132.0,875.0,-1016.0,703.0,-434.0,553.0,-498.0,16.0
19:30:10.266000,-182.0,132.0,875.0,-1026.0,636.0,-385.0,549.0,-499.0,16.0
19:30:10.272000,-194.0,74.0,810.0,-1117.0,442.0,-309.0,549.0,-499.0,16.0
19:30:10.276000,-194.0,74.0,810.0,-1085.0,255.0,-284.0,549.0,-499.0,16.0
19:30:10.281000,-233.0,112.0,980.0,-1017.0,177.0,-258.0,555.0,-510.0,12.0
19:30:10.286000,-280.0,119.0,993.0,-916.0,161.0,-153.0,555.0,-510.0,12.0
19:30:10.290000,-310.0,15.0,1043.0,-807.0,91.0,-100.0,550.0,-511.0,21.0
19:30:10.295000,-175.0,35.0,1047.0,-919.0,-201.0,-60.0,550.0,-511.0,21.0
19:30:10.299000,-47.0,-23.0,1025.0,-1084.0,-327.0,-5.0,550.0,-511.0,21.0
19:30:10.305000,-39.0,-105.0,856.0,-1033.0,-266.0,29.0,535.0,-508.0,22.0
19:30:10.309000,-84.0,-184.0,821.0,-716.0,-430.0,-15.0,535.0,-508.0,22.0
19:30:10.313000,-116.0,-53.0,940.0,-594.0,-560.0,-23.0,534.0,-525.0,28.0
19:30:10.319000,-183.0,-119.0,904.0,-678.0,-656.0,77.0,534.0,-525.0,28.0
19:30:10.323000,-346.0,-161.0,847.0,-637.0,-918.0,-3.0,534.0,-525.0,28.0
19:30:10.328000,-362.0,14.0,882.0,-703.0,-1135.0,-3.0,544.0,-525.0,19.0
19:30:10.333000,-271.0,-28.0,684.0,-826.0,-1265.0,70.0,544.0,-525.0,19.0
19:30:10.337000,-87.0,-113.0,565.0,-826.0,-1265.0,70.0,534.0,-529.0,9.0
19:30:10.342000,37.0,-137.0,382.0,-866.0,-1337.0,21.0,534.0,-529.0,9.0
19:30:10.346000,235.0,-173.0,139.0,-780.0,-1332.0,25.0,534.0,-529.0,9.0
19:30:10.352000,342.0,-333.0,-182.0,-772.0,-1226.0,69.0,534.0,-534.0,13.0
19:30:10.356000,298.0,-403.0,-190.0,-918.0,-833.0,-31.0,534.0,-534.0,13.0
19:30:10.361000,380.0,-326.0,-292.0,-918.0,-833.0,-31.0,526.0,-540.0,9.0
19:30:10.366000,429.0,-308.0,-588.0,-923.0,-580.0,-106.0,526.0,-540.0,9.0
19:30:10.370000,480.0,-395.0,-727.0,-944.0,-457.0,-36.0,529.0,-541.0,13.0
19:30:10.375000,396.0,-440.0,-665.0,-884.0,-564.0,29.0,529.0,-541.0,13.0
19:30:10.379000,396.0,-440.0,-665.0,-949.0,-563.0,-31.0,529.0,-541.0,13.0
19:30:10.384000,166.0,-253.0,-830.0,-984.0,-480.0,-57.0,516.0,-538.0,9.0
19:30:10.389000,166.0,-253.0,-830.0,-1021.0,-483.0,27.0,516.0,-538.0,9.0
19:30:10.394000,2.0,-205.0,-722.0,-1100.0,-560.0,51.0,535.0,-532.0,12.0
19:30:10.399000,-46.0,-154.0,-648.0,-1077.0,-669.0,75.0,535.0,-532.0,12.0
19:30:10.403000,-139.0,-111.0,-523.0,-996.0,-783.0,98.0,535.0,-532.0,12.0
19:30:10.408000,-280.0,-1.0,-347.0,-1129.0,-689.0,71.0,540.0,-529.0,22.0
19:30:10.413000,-434.0,105.0,-472.0,-1184.0,-532.0,56.0,540.0,-529.0,22.0
19:30:10.417000,-382.0,165.0,-542.0,-988.0,-556.0,106.0,529.0,-519.0,15.0
19:30:10.422000,-239.0,140.0,-472.0,-918.0,-648.0,96.0,529.0,-519.0,15.0
19:30:10.426000,-119.0,186.0,-327.0,-1077.0,-666.0,64.0,529.0,-519.0,15.0
19:30:10.431000,-18.0,198.0,-319.0,-1288.0,-547.0,44.0,529.0,-520.0,7.0
19:30:10.436000,86.0,258.0,-582.0,-1305.0,-437.0,36.0,529.0,-520.0,7.0
19:30:10.441000,173.0,207.0,-678.0,-1305.0,-437.0,36.0,535.0,-529.0,6.0
19:30:10.446000,242.0,165.0,-425.0,-821.0,-401.0,30.0,535.0,-529.0,6.0
19:30:10.453000,200.0,186.0,-408.0,-880.0,-205.0,-43.0,537.0,-513.0,16.0
19:30:10.455000,219.0,249.0,-527.0,-880.0,-205.0,-43.0,537.0,-513.0,16.0
19:30:10.459000,270.0,188.0,-653.0,-959.0,-178.0,-61.0,537.0,-513.0,16.0
19:30:10.464000,295.0,206.0,-653.0,-945.0,-258.0,-76.0,526.0,-511.0,15.0
19:30:10.469000,354.0,236.0,-341.0,-868.0,-405.0,-135.0,526.0,-511.0,15.0
19:30:10.474000,238.0,200.0,-96.0,-957.0,-526.0,-151.0,546.0,-517.0,30.0
19:30:10.478000,58.0,172.0,-63.0,-1078.0,-496.0,-149.0,546.0,-517.0,30.0
19:30:10.483000,58.0,172.0,-63.0,-1016.0,-353.0,-177.0,546.0,-517.0,30.0
19:30:10.488000,-119.0,274.0,-338.0,-908.0,-250.0,-241.0,534.0,-517.0,24.0
19:30:10.493000,-137.0,279.0,-144.0,-872.0,-338.0,-277.0,534.0,-517.0,24.0
19:30:10.497000,-137.0,279.0,-144.0,-866.0,-439.0,-262.0,523.0,-516.0,39.0
19:30:10.502000,-134.0,258.0,-37.0,-879.0,-467.0,-244.0,523.0,-516.0,39.0
19:30:10.506000,-114.0,245.0,34.0,-857.0,-480.0,-223.0,523.0,-516.0,39.0
19:30:10.511000,-79.0,171.0,-11.0,-764.0,-386.0,-255.0,547.0,-516.0,22.0
19:30:10.516000,-25.0,165.0,-104.0,-735.0,-330.0,-234.0,547.0,-516.0,22.0
19:30:10.521000,7.0,79.0,-211.0,-755.0,-320.0,-192.0,546.0,-508.0,16.0
19:30:10.525000,23.0,63.0,-361.0,-708.0,-389.0,-207.0,546.0,-508.0,16.0
19:30:10.530000,46.0,50.0,-246.0,-694.0,-504.0,-185.0,546.0,-508.0,16.0
19:30:10.535000,67.0,-28.0,-72.0,-760.0,-508.0,-185.0,540.0,-510.0,34.0
19:30:10.540000,43.0,-43.0,-59.0,-883.0,-493.0,-213.0,540.0,-510.0,34.0
19:30:10.544000,18.0,9.0,-59.0,-883.0,-466.0,-195.0,547.0,-511.0,30.0
19:30:10.549000,23.0,1.0,-88.0,-1015.0,-438.0,-167.0,547.0,-511.0,30.0
19:30:10.553000,25.0,3.0,-47.0,-970.0,-461.0,-174.0,547.0,-511.0,30.0
19:30:10.558000,106.0,-38.0,9.0,-970.0,-453.0,-174.0,546.0,-501.0,27.0
19:30:10.563000,149.0,-56.0,-129.0,-942.0,-453.0,-186.0,546.0,-501.0,27.0
19:30:10.568000,151.0,-94.0,-166.0,-911.0,-423.0,-158.0,547.0,-508.0,19.0
19:30:10.572000,162.0,-67.0,-38.0,-851.0,-443.0,-155.0,547.0,-508.0,19.0
19:30:10.577000,116.0,-114.0,-24.0,-936.0,-433.0,-141.0,547.0,-508.0,19.0
19:30:10.582000,99.0,-94.0,5.0,-1014.0,-352.0,-156.0,544.0,-519.0,22.0
19:30:10.587000,67.0,-83.0,74.0,-938.0,-278.0,-199.0,544.0,-519.0,22.0
19:30:10.591000,11.0,-31.0,86.0,-968.0,-282.0,-183.0,543.0,-514.0,24.0
19:30:10.596000,12.0,-42.0,51.0,-1096.0,-314.0,-179.0,543.0,-514.0,24.0
19:30:10.600000,12.0,-42.0,51.0,-1114.0,-402.0,-139.0,543.0,-514.0,24.0
19:30:10.605000,-162.0,-37.0,-23.0,-949.0,-377.0,-152.0,549.0,-516.0,27.0
19:30:10.610000,-162.0,-37.0,-23.0,-739.0,-227.0,-135.0,549.0,-516.0,27.0
19:30:10.615000,-166.0,-72.0,-20.0,-677.0,-157.0,-123.0,546.0,-511.0,22.0
19:30:10.619000,-100.0,-48.0,42.0,-869.0,-247.0,-134.0,546.0,-511.0,22.0
19:30:10.624000,16.0,-112.0,34.0,-1118.0,-399.0,-104.0,546.0,-511.0,22.0
19:30:10.629000,35.0,-157.0,-10.0,-1187.0,-429.0,-120.0,543.0,-504.0,28.0
19:30:10.634000,-8.0,-158.0,-160.0,-999.0,-367.0,-132.0,543.0,-504.0,28.0
19:30:10.638000,-108.0,-107.0,-128.0,-789.0,-315.0,-113.0,541.0,-510.0,24.0
19:30:10.643000,-123.0,-86.0,23.0,-851.0,-334.0,-112.0,541.0,-510.0,24.0
19:30:10.647000,-63.0,-64.0,96.0,-1106.0,-429.0,-96.0,541.0,-510.0,24.0
19:30:10.652000,-62.0,-77.0,32.0,-1257.0,-511.0,-85.0,546.0,-510.0,24.0
19:30:10.657000,-104.0,-42.0,-39.0,-1185.0,-464.0,-89.0,546.0,-510.0,24.0
19:30:10.662000,-130.0,-39.0,-172.0,-1185.0,-464.0,-89.0,541.0,-511.0,13.0
19:30:10.666000,-57.0,-2.0,-80.0,-820.0,-460.0,-86.0,541.0,-511.0,13.0
19:30:10.671000,37.0,-44.0,81.0,-820.0,-460.0,-86.0,541.0,-511.0,13.0
19:30:10.676000,99.0,-95.0,-51.0,-983.0,-418.0,-66.0,544.0,-510.0,34.0
19:30:10.681000,163.0,-91.0,-277.0,-1121.0,-436.0,-85.0,544.0,-510.0,34.0
19:30:10.685000,169.0,-73.0,-323.0,-1109.0,-446.0,-88.0,553.0,-510.0,25.0
19:30:10.690000,145.0,-36.0,-301.0,-1071.0,-501.0,-102.0,553.0,-510.0,25.0
19:30:10.694000,175.0,-48.0,-240.0,-1048.0,-459.0,-94.0,553.0,-510.0,25.0
19:30:10.699000,191.0,-32.0,-146.0,-1050.0,-426.0,-96.0,544.0,-508.0,28.0
19:30:10.704000,205.0,-51.0,-172.0,-1092.0,-409.0,-96.0,544.0,-508.0,28.0
19:30:10.709000,182.0,-51.0,-131.0,-1063.0,-414.0,-87.0,546.0,-510.0,21.0
19:30:10.713000,119.0,-45.0,-131.0,-971.0,-361.0,-86.0,546.0,-510.0,21.0
19:30:10.718000,119.0,-45.0,-131.0,-959.0,-270.0,-95.0,546.0,-510.0,21.0
19:30:10.723000,102.0,-32.0,-156.0,-976.0,-248.0,-84.0,555.0,-517.0,15.0
19:30:10.728000,104.0,-83.0,-229.0,-926.0,-229.0,-50.0,555.0,-517.0,15.0
19:30:10.732000,126.0,-116.0,-344.0,-808.0,-252.0,-80.0,537.0,-520.0,31.0
19:30:10.737000,112.0,-67.0,-226.0,-828.0,-350.0,-92.0,537.0,-520.0,31.0
19:30:10.741000,120.0,-88.0,-60.0,-989.0,-362.0,-70.0,537.0,-520.0,31.0
19:30:10.746000,93.0,-134.0,-26.0,-1056.0,-195.0,-83.0,549.0,-507.0,21.0
19:30:10.751000,91.0,-119.0,-186.0,-1024.0,-86.0,-99.0,549.0,-507.0,21.0
19:30:10.756000,84.0,-118.0,-316.0,-949.0,-140.0,-84.0,546.0,-502.0,24.0
19:30:10.760000,15.0,-100.0,-375.0,-930.0,-172.0,-65.0,546.0,-502.0,24.0
19:30:10.765000,-54.0,-60.0,-413.0,-984.0,-176.0,-69.0,546.0,-502.0,24.0
19:30:10.770000,72.0,-93.0,-418.0,-987.0,-218.0,-57.0,553.0,-510.0,37.0
19:30:10.775000,107.0,-149.0,-409.0,-995.0,-311.0,-53.0,553.0,-510.0,37.0
19:30:10.779000,104.0,-137.0,-296.0,-995.0,-311.0,-53.0,556.0,-505.0,19.0
19:30:10.784000,28.0,-156.0,-254.0,-1035.0,-360.0,-58.0,556.0,-505.0,19.0
19:30:10.788000,-11.0,-105.0,-261.0,-1024.0,-282.0,-80.0,556.0,-505.0,19.0
19:30:10.793000,26.0,-120.0,-260.0,-992.0,-167.0,-94.0,556.0,-507.0,22.0
19:30:10.798000,16.0,-117.0,-260.0,-997.0,-134.0,-76.0,556.0,-507.0,22.0
19:30:10.803000,-44.0,-105.0,-224.0,-1014.0,-165.0,-70.0,549.0,-505.0,18.0
19:30:10.807000,-28.0,-107.0,-210.0,-1035.0,-197.0,-65.0,549.0,-505.0,18.0
19:30:10.815000,-27.0,-107.0,-198.0,-923.0,-189.0,-55.0,555.0,-507.0,18.0
19:30:10.817000,-19.0,-109.0,-119.0,-923.0,-189.0,-55.0,555.0,-507.0,18.0
19:30:10.821000,-19.0,-109.0,-119.0,-903.0,-205.0,-45.0,555.0,-507.0,18.0
19:30:10.826000,-5.0,-133.0,-44.0,-970.0,-145.0,-53.0,546.0,-502.0,12.0
19:30:10.831000,-54.0,-126.0,-144.0,-1024.0,-68.0,-69.0,546.0,-502.0,12.0
19:30:10.836000,-107.0,-104.0,-263.0,-951.0,-100.0,-63.0,558.0,-490.0,21.0
19:30:10.840000,-164.0,-99.0,-203.0,-872.0,-146.0,-52.0,558.0,-490.0,21.0
19:30:10.844000,-198.0,-75.0,-88.0,-923.0,-100.0,-55.0,558.0,-490.0,21.0
19:30:10.850000,-158.0,-72.0,-130.0,-1019.0,-119.0,-55.0,553.0,-501.0,13.0
19:30:10.854000,-156.0,-67.0,-212.0,-1021.0,-185.0,-44.0,553.0,-501.0,13.0
19:30:10.859000,-141.0,-63.0,-224.0,-935.0,-285.0,-58.0,540.0,-504.0,28.0
19:30:10.864000,-83.0,-58.0,37.0,-897.0,-388.0,-60.0,540.0,-504.0,28.0
19:30:10.868000,-110.0,-67.0,233.0,-979.0,-288.0,-57.0,540.0,-504.0,28.0
19:30:10.873000,-147.0,-25.0,129.0,-1022.0,-146.0,-84.0,549.0,-510.0,22.0
19:30:10.878000,-124.0,-7.0,-18.0,-925.0,-102.0,-60.0,549.0,-510.0,22.0
19:30:10.883000,-151.0,-36.0,-33.0,-925.0,-102.0,-60.0,553.0,-501.0,12.0
19:30:10.887000,-110.0,-33.0,-87.0,-812.0,-20.0,-49.0,553.0,-501.0,12.0
19:30:10.891000,-28.0,-37.0,-154.0,-815.0,-20.0,-81.0,553.0,-501.0,12.0
19:30:10.897000,-17.0,-61.0,-16.0,-863.0,-223.0,-58.0,556.0,-507.0,18.0
19:30:10.901000,-13.0,-22.0,195.0,-1054.0,-353.0,-86.0,556.0,-507.0,18.0
19:30:10.906000,8.0,-32.0,222.0,-1054.0,-353.0,-86.0,552.0,-508.0,18.0
19:30:10.911000,-18.0,-30.0,172.0,-1123.0,-262.0,-82.0,552.0,-508.0,18.0
19:30:10.915000,-25.0,-30.0,193.0,-1009.0,-159.0,-76.0,552.0,-508.0,18.0
19:30:10.920000,-7.0,-39.0,83.0,-892.0,-55.0,-73.0,556.0,-504.0,21.0
19:30:10.925000,-9.0,-46.0,12.0,-842.0,-50.0,-74.0,556.0,-504.0,21.0
19:30:10.930000,-3.0,-70.0,35.0,-814.0,-170.0,-58.0,553.0,-511.0,19.0
19:30:10.934000,-25.0,-67.0,63.0,-824.0,-251.0,-46.0,553.0,-511.0,19.0
19:30:10.938000,-25.0,-67.0,63.0,-834.0,-217.0,-44.0,553.0,-511.0,19.0
19:30:10.944000,-18.0,-73.0,114.0,-825.0,-199.0,-49.0,559.0,-504.0,16.0
19:30:10.948000,-39.0,-72.0,299.0,-878.0,-223.0,-44.0,559.0,-504.0,16.0
19:30:10.953000,-109.0,-97.0,340.0,-939.0,-114.0,-38.0,555.0,-504.0,13.0
19:30:10.958000,-169.0,-78.0,114.0,-888.0,-66.0,-62.0,555.0,-504.0,13.0
19:30:10.962000,-195.0,-40.0,-13.0,-813.0,-197.0,-67.0,555.0,-504.0,13.0
19:30:10.967000,-192.0,-40.0,39.0,-839.0,-290.0,-56.0,549.0,-511.0,18.0
19:30:10.972000,-156.0,-42.0,19.0,-923.0,-278.0,-53.0,549.0,-511.0,18.0
19:30:10.977000,-83.0,-42.0,-74.0,-974.0,-273.0,-46.0,562.0,-510.0,27.0
19:30:10.981000,-19.0,-65.0,-167.0,-966.0,-303.0,-35.0,562.0,-510.0,27.0
19:30:10.985000,-18.0,-56.0,-173.0,-953.0,-323.0,-50.0,562.0,-510.0,27.0
19:30:10.991000,-29.0,-20.0,-105.0,-963.0,-336.0,-50.0,561.0,-507.0,13.0
19:30:10.995000,-58.0,-32.0,-37.0,-941.0,-251.0,-52.0,561.0,-507.0,13.0
19:30:11.000000,-32.0,-36.0,-73.0,-941.0,-251.0,-52.0,538.0,-502.0,21.0
19:30:11.005000,-63.0,-30.0,-72.0,-873.0,-144.0,-63.0,538.0,-502.0,21.0
19:30:11.009000,-91.0,18.0,-16.0,-854.0,-104.0,-73.0,538.0,-502.0,21.0
19:30:11.014000,-67.0,36.0,-26.0,-938.0,-108.0,-92.0,559.0,-516.0,12.0
19:30:11.019000,-32.0,5.0,-107.0,-1047.0,-163.0,-73.0,559.0,-516.0,12.0
19:30:11.024000,-30.0,-1.0,-154.0,-1015.0,-200.0,-51.0,558.0,-505.0,16.0
19:30:11.028000,-7.0,-2.0,-128.0,-889.0,-185.0,-40.0,558.0,-505.0,16.0
19:30:11.032000,-7.0,-2.0,-128.0,-818.0,-189.0,-42.0,558.0,-505.0,16.0
19:30:11.038000,-10.0,9.0,131.0,-845.0,-254.0,-23.0,559.0,-505.0,15.0
19:30:11.042000,-25.0,42.0,142.0,-945.0,-263.0,-16.0,559.0,-505.0,15.0
19:30:11.047000,-25.0,42.0,142.0,-974.0,-231.0,-53.0,552.0,-510.0,9.0
19:30:11.052000,-3.0,72.0,140.0,-912.0,-254.0,-48.0,552.0,-510.0,9.0
19:30:11.056000,-31.0,55.0,203.0,-829.0,-188.0,-41.0,552.0,-510.0,9.0
19:30:11.061000,-70.0,67.0,207.0,-828.0,-54.0,-87.0,553.0,-510.0,6.0
19:30:11.066000,-47.0,94.0,88.0,-864.0,-45.0,-99.0,553.0,-510.0,6.0
19:30:11.071000,-4.0,70.0,-24.0,-840.0,-95.0,-78.0,556.0,-510.0,22.0
19:30:11.075000,20.0,38.0,-56.0,-805.0,-84.0,-79.0,556.0,-510.0,22.0
19:30:11.079000,32.0,23.0,-102.0,-832.0,-6.0,-91.0,556.0,-510.0,22.0
19:30:11.085000,51.0,45.0,-255.0,-908.0,-16.0,-100.0,562.0,-510.0,12.0
19:30:11.089000,72.0,53.0,-318.0,-905.0,-175.0,-84.0,562.0,-510.0,12.0
19:30:11.094000,63.0,26.0,-101.0,-905.0,-175.0,-84.0,565.0,-511.0,24.0
19:30:11.099000,96.0,58.0,7.0,-1030.0,-156.0,-109.0,565.0,-511.0,24.0
19:30:11.103000,88.0,70.0,-39.0,-1072.0,-144.0,-89.0,565.0,-511.0,24.0
19:30:11.108000,30.0,58.0,18.0,-1072.0,-144.0,-89.0,567.0,-511.0,15.0
19:30:11.113000,-4.0,63.0,182.0,-927.0,-91.0,-95.0,567.0,-511.0,15.0
19:30:11.118000,-74.0,60.0,246.0,-824.0,2.0,-84.0,567.0,-514.0,16.0
19:30:11.122000,-97.0,77.0,171.0,-863.0,76.0,-76.0,567.0,-514.0,16.0
19:30:11.126000,-74.0,70.0,-28.0,-928.0,113.0,-89.0,567.0,-514.0,16.0
19:30:11.132000,-62.0,40.0,-136.0,-925.0,23.0,-69.0,558.0,-511.0,13.0
19:30:11.136000,-95.0,64.0,-165.0,-892.0,-130.0,-58.0,558.0,-511.0,13.0
19:30:11.141000,-86.0,76.0,-72.0,-893.0,-230.0,-66.0,558.0,-511.0,28.0
19:30:11.146000,-67.0,41.0,7.0,-937.0,-283.0,-49.0,558.0,-511.0,28.0
19:30:11.150000,-67.0,41.0,7.0,-974.0,-260.0,-46.0,558.0,-511.0,28.0
19:30:11.155000,-61.0,35.0,23.0,-1004.0,-213.0,-59.0,558.0,-502.0,16.0
19:30:11.160000,-87.0,37.0,-32.0,-1054.0,-181.0,-60.0,558.0,-502.0,16.0
19:30:11.165000,-88.0,27.0,-144.0,-1029.0,-193.0,-78.0,574.0,-520.0,13.0
19:30:11.169000,-69.0,28.0,-141.0,-958.0,-273.0,-81.0,574.0,-520.0,13.0
19:30:11.173000,-63.0,18.0,13.0,-986.0,-314.0,-75.0,574.0,-520.0,13.0
19:30:11.179000,-74.0,23.0,105.0,-1097.0,-258.0,-81.0,553.0,-516.0,19.0
19:30:11.183000,-102.0,36.0,47.0,-1155.0,-151.0,-92.0,553.0,-516.0,19.0
19:30:11.188000,-133.0,75.0,-100.0,-1098.0,-91.0,-101.0,549.0,-511.0,10.0
19:30:11.193000,-127.0,96.0,-204.0,-1010.0,-97.0,-102.0,549.0,-511.0,10.0
19:30:11.197000,-81.0,92.0,-318.0,-980.0,-167.0,-120.0,549.0,-511.0,10.0
19:30:11.202000,-7.0,107.0,-416.0,-1030.0,-271.0,-128.0,568.0,-510.0,22.0
19:30:11.207000,51.0,109.0,-504.0,-1120.0,-336.0,-130.0,568.0,-510.0,22.0
19:30:11.212000,118.0,120.0,-582.0,-1120.0,-336.0,-130.0,570.0,-501.0,19.0
19:30:11.216000,170.0,114.0,-639.0,-1188.0,-341.0,-138.0,570.0,-501.0,19.0
19:30:11.220000,198.0,137.0,-681.0,-1236.0,-341.0,-138.0,570.0,-501.0,19.0
19:30:11.226000,236.0,153.0,-665.0,-1273.0,-284.0,-158.0,567.0,-504.0,19.0
19:30:11.230000,273.0,147.0,-613.0,-1313.0,-175.0,-183.0,567.0,-504.0,19.0
19:30:11.235000,310.0,149.0,-561.0,-1313.0,-175.0,-183.0,571.0,-501.0,18.0
19:30:11.240000,258.0,140.0,-527.0,-1341.0,-99.0,-172.0,571.0,-501.0,18.0
19:30:11.244000,206.0,161.0,-639.0,-1369.0,2.0,-170.0,571.0,-501.0,18.0
19:30:11.249000,219.0,182.0,-694.0,-1347.0,73.0,-193.0,570.0,-495.0,16.0
19:30:11.254000,213.0,187.0,-573.0,-1272.0,21.0,-191.0,570.0,-495.0,16.0
19:30:11.259000,177.0,202.0,-448.0,-1240.0,-33.0,-185.0,571.0,-502.0,27.0
19:30:11.263000,156.0,209.0,-410.0,-1254.0,0.0,-178.0,571.0,-502.0,27.0
19:30:11.267000,156.0,209.0,-410.0,-1299.0,22.0,-176.0,571.0,-502.0,27.0
19:30:11.273000,143.0,217.0,-515.0,-1309.0,-5.0,-182.0,576.0,-490.0,22.0
19:30:11.277000,151.0,233.0,-658.0,-1230.0,-62.0,-171.0,576.0,-490.0,22.0
19:30:11.282000,156.0,237.0,-732.0,-1163.0,-57.0,-161.0,588.0,-483.0,18.0
19:30:11.287000,186.0,246.0,-805.0,-1157.0,-20.0,-160.0,588.0,-483.0,18.0
19:30:11.291000,217.0,238.0,-857.0,-1169.0,-17.0,-153.0,588.0,-483.0,18.0
19:30:11.296000,207.0,258.0,-887.0,-1196.0,15.0,-160.0,576.0,-492.0,25.0
19:30:11.301000,207.0,285.0,-934.0,-1232.0,69.0,-171.0,576.0,-492.0,25.0
19:30:11.306000,228.0,296.0,-960.0,-1242.0,63.0,-177.0,582.0,-483.0,21.0
19:30:11.310000,256.0,293.0,-916.0,-1255.0,39.0,-178.0,582.0,-483.0,21.0
19:30:11.314000,262.0,281.0,-882.0,-1265.0,89.0,-183.0,582.0,-483.0,21.0
19:30:11.320000,241.0,284.0,-864.0,-1258.0,192.0,-198.0,592.0,-471.0,36.0
19:30:11.324000,225.0,299.0,-894.0,-1259.0,265.0,-206.0,592.0,-471.0,36.0
19:30:11.329000,199.0,313.0,-933.0,-1259.0,265.0,-206.0,588.0,-472.0,34.0
19:30:11.334000,172.0,342.0,-911.0,-1261.0,277.0,-211.0,588.0,-472.0,34.0
19:30:11.338000,151.0,363.0,-826.0,-1274.0,254.0,-220.0,588.0,-472.0,34.0
19:30:11.343000,141.0,378.0,-702.0,-1312.0,214.0,-232.0,592.0,-462.0,34.0
19:30:11.348000,153.0,374.0,-620.0,-1363.0,179.0,-246.0,592.0,-462.0,34.0
19:30:11.353000,159.0,388.0,-587.0,-1391.0,145.0,-262.0,594.0,-466.0,42.0
19:30:11.357000,158.0,400.0,-537.0,-1389.0,83.0,-276.0,594.0,-466.0,42.0
19:30:11.361000,158.0,400.0,-537.0,-1379.0,61.0,-277.0,594.0,-466.0,42.0
19:30:11.367000,129.0,395.0,-494.0,-1334.0,125.0,-277.0,600.0,-451.0,37.0
19:30:11.371000,127.0,397.0,-463.0,-1264.0,201.0,-289.0,600.0,-451.0,37.0
19:30:11.376000,127.0,397.0,-463.0,-1212.0,255.0,-292.0,598.0,-442.0,43.0
19:30:11.381000,104.0,379.0,-439.0,-1169.0,267.0,-289.0,598.0,-442.0,43.0
19:30:11.385000,85.0,376.0,-386.0,-1152.0,237.0,-287.0,598.0,-442.0,43.0
19:30:11.390000,65.0,359.0,-324.0,-1168.0,264.0,-261.0,606.0,-448.0,39.0
19:30:11.395000,47.0,321.0,-408.0,-1159.0,294.0,-254.0,606.0,-448.0,39.0
19:30:11.400000,39.0,339.0,-527.0,-1151.0,210.0,-251.0,604.0,-436.0,48.0
19:30:11.404000,41.0,327.0,-581.0,-1146.0,81.0,-211.0,604.0,-436.0,48.0
19:30:11.412000,4.0,322.0,-623.0,-1119.0,108.0,-191.0,606.0,-441.0,57.0
19:30:11.414000,4.0,322.0,-623.0,-1119.0,108.0,-191.0,606.0,-441.0,57.0
19:30:11.418000,-25.0,340.0,-714.0,-1132.0,144.0,-180.0,606.0,-441.0,57.0
19:30:11.423000,-51.0,362.0,-812.0,-1112.0,61.0,-190.0,615.0,-433.0,48.0
19:30:11.428000,-30.0,400.0,-742.0,-1129.0,-76.0,-186.0,615.0,-433.0,48.0
19:30:11.432000,14.0,381.0,-583.0,-1129.0,-76.0,-186.0,610.0,-424.0,54.0
19:30:11.437000,49.0,364.0,-529.0,-1199.0,-114.0,-173.0,610.0,-424.0,54.0
19:30:11.441000,65.0,357.0,-552.0,-1233.0,-92.0,-180.0,610.0,-424.0,54.0
19:30:11.447000,30.0,359.0,-516.0,-1146.0,-86.0,-195.0,622.0,-432.0,51.0
19:30:11.451000,21.0,374.0,-359.0,-955.0,-31.0,-209.0,622.0,-432.0,51.0
19:30:11.456000,81.0,333.0,-290.0,-897.0,69.0,-220.0,609.0,-424.0,57.0
19:30:11.461000,133.0,284.0,-409.0,-1002.0,135.0,-215.0,609.0,-424.0,57.0
19:30:11.465000,154.0,273.0,-554.0,-1044.0,168.0,-210.0,609.0,-424.0,57.0
19:30:11.470000,157.0,250.0,-576.0,-1025.0,122.0,-199.0,604.0,-409.0,64.0
19:30:11.475000,160.0,225.0,-513.0,-1022.0,25.0,-188.0,604.0,-409.0,64.0
19:30:11.479000,154.0,207.0,-536.0,-1028.0,2.0,-180.0,618.0,-397.0,61.0
19:30:11.484000,154.0,207.0,-536.0,-1038.0,21.0,-166.0,618.0,-397.0,61.0
19:30:11.488000,137.0,226.0,-567.0,-1048.0,-17.0,-169.0,618.0,-397.0,61.0
19:30:11.494000,164.0,227.0,-494.0,-1067.0,-138.0,-144.0,618.0,-408.0,63.0
19:30:11.498000,157.0,179.0,-343.0,-1059.0,-183.0,-121.0,618.0,-408.0,63.0
19:30:11.503000,100.0,182.0,-308.0,-1051.0,-69.0,-160.0,621.0,-405.0,75.0
19:30:11.508000,39.0,245.0,-431.0,-1053.0,-12.0,-184.0,621.0,-405.0,75.0
19:30:11.512000,42.0,235.0,-395.0,-999.0,-50.0,-179.0,621.0,-405.0,75.0
19:30:11.517000,53.0,200.0,-203.0,-965.0,-15.0,-191.0,624.0,-397.0,61.0
19:30:11.522000,39.0,204.0,-161.0,-1044.0,112.0,-199.0,624.0,-397.0,61.0
19:30:11.526000,61.0,189.0,-391.0,-1073.0,146.0,-200.0,624.0,-399.0,61.0
19:30:11.531000,111.0,161.0,-577.0,-977.0,65.0,-199.0,624.0,-399.0,61.0
19:30:11.535000,128.0,124.0,-522.0,-917.0,10.0,-193.0,624.0,-399.0,61.0
19:30:11.541000,109.0,98.0,-365.0,-940.0,6.0,-197.0,625.0,-393.0,64.0
19:30:11.545000,41.0,107.0,-222.0,-974.0,80.0,-206.0,625.0,-393.0,64.0
19:30:11.550000,-9.0,104.0,-177.0,-974.0,80.0,-206.0,622.0,-387.0,67.0
19:30:11.555000,-65.0,103.0,-180.0,-965.0,185.0,-211.0,622.0,-387.0,67.0
19:30:11.559000,-85.0,105.0,-117.0,-880.0,226.0,-222.0,622.0,-387.0,67.0
19:30:11.564000,-124.0,98.0,-21.0,-845.0,166.0,-231.0,640.0,-382.0,64.0
19:30:11.569000,-150.0,82.0,-11.0,-900.0,104.0,-228.0,640.0,-382.0,64.0
19:30:11.573000,-133.0,58.0,-90.0,-923.0,121.0,-228.0,630.0,-381.0,67.0
19:30:11.578000,-122.0,42.0,-83.0,-881.0,100.0,-224.0,630.0,-381.0,67.0
19:30:11.582000,-122.0,42.0,-83.0,-823.0,16.0,-213.0,630.0,-381.0,67.0
19:30:11.588000,-110.0,32.0,95.0,-808.0,-18.0,-200.0,634.0,-385.0,61.0
19:30:11.592000,-102.0,10.0,70.0,-832.0,-19.0,-183.0,634.0,-385.0,61.0
19:30:11.597000,-102.0,10.0,70.0,-819.0,-30.0,-169.0,643.0,-384.0,61.0
19:30:11.602000,-84.0,5.0,55.0,-764.0,-73.0,-166.0,643.0,-384.0,61.0
19:30:11.606000,-83.0,9.0,104.0,-739.0,-119.0,-162.0,643.0,-384.0,61.0
19:30:11.611000,-72.0,-1.0,167.0,-752.0,-130.0,-165.0,645.0,-382.0,60.0
19:30:11.616000,-29.0,-25.0,190.0,-766.0,-107.0,-169.0,645.0,-382.0,60.0
19:30:11.620000,2.0,-45.0,174.0,-768.0,-74.0,-159.0,636.0,-387.0,63.0
19:30:11.625000,24.0,-83.0,186.0,-781.0,-13.0,-155.0,636.0,-387.0,63.0
19:30:11.629000,4.0,-85.0,150.0,-835.0,69.0,-173.0,636.0,-387.0,63.0
19:30:11.635000,-17.0,-55.0,27.0,-881.0,75.0,-181.0,625.0,-387.0,60.0
19:30:11.639000,-11.0,-65.0,-39.0,-823.0,6.0,-178.0,625.0,-387.0,60.0
19:30:11.644000,25.0,-113.0,79.0,-823.0,6.0,-178.0,646.0,-384.0,73.0
19:30:11.649000,59.0,-161.0,243.0,-662.0,39.0,-197.0,646.0,-384.0,73.0
19:30:11.653000,98.0,-175.0,323.0,-705.0,102.0,-204.0,646.0,-384.0,73.0
19:30:11.658000,102.0,-188.0,364.0,-705.0,102.0,-204.0,637.0,-384.0,63.0
19:30:11.663000,112.0,-221.0,346.0,-800.0,104.0,-199.0,637.0,-384.0,63.0
19:30:11.667000,120.0,-251.0,323.0,-819.0,116.0,-187.0,636.0,-385.0,58.0
19:30:11.672000,156.0,-254.0,254.0,-782.0,172.0,-189.0,636.0,-385.0,58.0
19:30:11.676000,135.0,-281.0,169.0,-799.0,166.0,-185.0,636.0,-385.0,58.0
19:30:11.682000,98.0,-298.0,114.0,-800.0,116.0,-158.0,642.0,-391.0,52.0
19:30:11.686000,114.0,-296.0,92.0,-745.0,109.0,-173.0,642.0,-391.0,52.0
19:30:11.691000,47.0,-293.0,97.0,-716.0,68.0,-169.0,636.0,-393.0,54.0
19:30:11.696000,-12.0,-278.0,163.0,-702.0,12.0,-145.0,636.0,-393.0,54.0
19:30:11.700000,-12.0,-278.0,163.0,-699.0,3.0,-154.0,636.0,-393.0,54.0
19:30:11.705000,-26.0,-265.0,210.0,-737.0,-19.0,-169.0,639.0,-387.0,51.0
19:30:11.710000,-3.0,-252.0,277.0,-783.0,-80.0,-164.0,639.0,-387.0,51.0
19:30:11.714000,-4.0,-269.0,356.0,-803.0,-114.0,-156.0,640.0,-397.0,48.0
19:30:11.719000,2.0,-273.0,419.0,-807.0,-108.0,-165.0,640.0,-397.0,48.0
19:30:11.723000,21.0,-282.0,471.0,-827.0,-96.0,-164.0,640.0,-397.0,48.0
19:30:11.729000,16.0,-280.0,472.0,-839.0,-86.0,-161.0,640.0,-394.0,45.0
19:30:11.733000,16.0,-280.0,458.0,-804.0,-85.0,-146.0,640.0,-394.0,45.0
19:30:11.738000,-7.0,-282.0,488.0,-747.0,-62.0,-130.0,639.0,-399.0,37.0
19:30:11.743000,-43.0,-269.0,478.0,-718.0,-12.0,-134.0,639.0,-399.0,37.0
19:30:11.747000,-56.0,-247.0,415.0,-694.0,-16.0,-143.0,639.0,-399.0,37.0
19:30:11.752000,-15.0,-233.0,445.0,-696.0,-68.0,-134.0,639.0,-402.0,43.0
19:30:11.757000,21.0,-238.0,499.0,-732.0,-100.0,-116.0,639.0,-402.0,43.0
19:30:11.761000,35.0,-235.0,467.0,-732.0,-100.0,-116.0,637.0,-414.0,34.0
19:30:11.766000,36.0,-238.0,412.0,-754.0,-118.0,-100.0,637.0,-414.0,34.0
19:30:11.770000,71.0,-212.0,392.0,-722.0,-123.0,-100.0,637.0,-414.0,34.0
19:30:11.776000,84.0,-226.0,344.0,-699.0,-124.0,-88.0,631.0,-415.0,25.0
19:30:11.780000,64.0,-236.0,274.0,-689.0,-145.0,-54.0,631.0,-415.0,25.0
19:30:11.785000,22.0,-211.0,235.0,-666.0,-204.0,-60.0,633.0,-417.0,27.0
19:30:11.790000,-14.0,-198.0,175.0,-682.0,-231.0,-66.0,633.0,-417.0,27.0
19:30:11.794000,-19.0,-186.0,102.0,-708.0,-214.0,-74.0,633.0,-417.0,27.0
19:30:11.799000,-83.0,-188.0,12.0,-708.0,-190.0,-77.0,634.0,-409.0,30.0
19:30:11.804000,-106.0,-166.0,-15.0,-678.0,-146.0,-76.0,634.0,-409.0,30.0
19:30:11.808000,-98.0,-178.0,14.0,-641.0,-108.0,-91.0,645.0,-406.0,31.0
19:30:11.813000,-98.0,-178.0,14.0,-631.0,-101.0,-93.0,645.0,-406.0,31.0
19:30:11.817000,-84.0,-184.0,30.0,-643.0,-145.0,-93.0,645.0,-406.0,31.0
19:30:11.823000,-79.0,-191.0,58.0,-673.0,-216.0,-89.0,636.0,-409.0,36.0
19:30:11.827000,-78.0,-190.0,79.0,-721.0,-258.0,-88.0,636.0,-409.0,36.0
19:30:11.832000,-67.0,-195.0,52.0,-742.0,-267.0,-87.0,631.0,-412.0,19.0
19:30:11.837000,-53.0,-199.0,19.0,-720.0,-266.0,-89.0,631.0,-412.0,19.0
19:30:11.841000,-13.0,-205.0,28.0,-696.0,-261.0,-93.0,631.0,-412.0,19.0
19:30:11.846000,36.0,-210.0,61.0,-699.0,-239.0,-87.0,651.0,-414.0,21.0
19:30:11.851000,56.0,-207.0,74.0,-727.0,-204.0,-75.0,651.0,-414.0,21.0
19:30:11.855000,46.0,-186.0,57.0,-754.0,-176.0,-69.0,640.0,-414.0,21.0
19:30:11.860000,35.0,-166.0,28.0,-767.0,-162.0,-68.0,640.0,-414.0,21.0
19:30:11.864000,29.0,-151.0,2.0,-771.0,-163.0,-69.0,640.0,-414.0,21.0
19:30:11.870000,20.0,-130.0,-11.0,-777.0,-166.0,-68.0,622.0,-414.0,16.0
19:30:11.874000,11.0,-108.0,-7.0,-777.0,-167.0,-68.0,622.0,-414.0,16.0
19:30:11.879000,2.0,-82.0,18.0,-791.0,-167.0,-68.0,616.0,-414.0,34.0
19:30:11.884000,-19.0,-55.0,40.0,-817.0,-165.0,-67.0,616.0,-414.0,34.0
19:30:11.888000,-36.0,-32.0,44.0,-846.0,-157.0,-66.0,616.0,-414.0,34.0
19:30:11.893000,-44.0,-15.0,25.0,-869.0,-143.0,-68.0,631.0,-408.0,13.0
19:30:11.898000,-49.0,-4.0,4.0,-878.0,-129.0,-72.0,631.0,-408.0,13.0
19:30:11.902000,-50.0,0.0,-11.0,-870.0,-115.0,-77.0,634.0,-412.0,21.0
19:30:11.907000,-49.0,2.0,-23.0,-856.0,-98.0,-82.0,634.0,-412.0,21.0
19:30:11.911000,-49.0,2.0,-23.0,-849.0,-77.0,-87.0,634.0,-412.0,21.0
19:30:11.917000,-71.0,20.0,-72.0,-850.0,-57.0,-88.0,630.0,-409.0,21.0
19:30:11.921000,-82.0,25.0,-86.0,-852.0,-50.0,-89.0,630.0,-409.0,21.0
19:30:11.926000,-82.0,25.0,-86.0,-851.0,-63.0,-93.0,637.0,-417.0,25.0
19:30:11.931000,-89.0,30.0,-73.0,-850.0,-85.0,-98.0,637.0,-417.0,25.0
19:30:11.935000,-89.0,33.0,-43.0,-861.0,-95.0,-103.0,637.0,-417.0,25.0
19:30:11.940000,-83.0,34.0,-19.0,-885.0,-91.0,-108.0,640.0,-405.0,15.0
19:30:11.945000,-76.0,33.0,-14.0,-909.0,-79.0,-115.0,640.0,-405.0,15.0
19:30:11.949000,-68.0,32.0,-14.0,-924.0,-74.0,-120.0,637.0,-406.0,22.0
19:30:11.954000,-60.0,29.0,0.0,-942.0,-71.0,-122.0,637.0,-406.0,22.0
19:30:11.958000,-55.0,28.0,21.0,-971.0,-64.0,-121.0,637.0,-406.0,22.0
19:30:11.964000,-53.0,30.0,39.0,-995.0,-65.0,-117.0,636.0,-400.0,18.0
19:30:11.968000,-52.0,31.0,51.0,-1007.0,-75.0,-116.0,636.0,-400.0,18.0
19:30:11.973000,-48.0,32.0,57.0,-1007.0,-75.0,-116.0,621.0,-411.0,24.0
19:30:11.978000,-42.0,35.0,55.0,-1003.0,-69.0,-110.0,621.0,-411.0,24.0
19:30:11.982000,-36.0,36.0,43.0,-989.0,-54.0,-109.0,621.0,-411.0,24.0
19:30:11.987000,-30.0,37.0,27.0,-989.0,-54.0,-109.0,640.0,-409.0,19.0
19:30:11.992000,-22.0,35.0,15.0,-974.0,-39.0,-113.0,640.0,-409.0,19.0
19:30:11.996000,-9.0,31.0,2.0,-968.0,-22.0,-121.0,631.0,-408.0,25.0
19:30:12.001000,4.0,28.0,-20.0,-979.0,3.0,-130.0,631.0,-408.0,25.0
19:30:12.005000,17.0,24.0,-56.0,-1002.0,46.0,-139.0,631.0,-408.0,25.0
19:30:12.011000,25.0,21.0,-93.0,-1021.0,92.0,-144.0,642.0,-406.0,16.0
19:30:12.015000,32.0,18.0,-121.0,-1031.0,128.0,-148.0,642.0,-406.0,16.0
19:30:12.020000,37.0,15.0,-134.0,-1035.0,147.0,-150.0,619.0,-409.0,16.0
19:30:12.025000,42.0,9.0,-142.0,-1033.0,157.0,-151.0,619.0,-409.0,16.0
19:30:12.029000,42.0,9.0,-142.0,-1027.0,165.0,-155.0,619.0,-409.0,16.0
19:30:12.034000,51.0,1.0,-143.0,-1021.0,184.0,-162.0,634.0,-405.0,24.0
19:30:12.039000,62.0,-9.0,-144.0,-1022.0,222.0,-168.0,634.0,-405.0,24.0
19:30:12.043000,70.0,-19.0,-147.0,-1030.0,275.0,-173.0,639.0,-411.0,19.0
19:30:12.048000,72.0,-28.0,-156.0,-1038.0,332.0,-180.0,639.0,-411.0,19.0
19:30:12.052000,67.0,-32.0,-167.0,-1041.0,382.0,-189.0,639.0,-411.0,19.0
19:30:12.058000,56.0,-34.0,-172.0,-1041.0,421.0,-200.0,637.0,-406.0,22.0
19:30:12.062000,50.0,-38.0,-173.0,-1038.0,449.0,-214.0,637.0,-406.0,22.0
19:30:12.067000,53.0,-42.0,-174.0,-1029.0,474.0,-235.0,633.0,-400.0,37.0
19:30:12.072000,66.0,-50.0,-172.0,-1025.0,506.0,-262.0,633.0,-400.0,37.0
19:30:12.076000,89.0,-59.0,-174.0,-1041.0,559.0,-294.0,633.0,-400.0,37.0
19:30:12.081000,119.0,-66.0,-189.0,-1077.0,639.0,-328.0,634.0,-400.0,15.0
19:30:12.086000,147.0,-70.0,-226.0,-1126.0,740.0,-357.0,634.0,-400.0,15.0
19:30:12.090000,165.0,-67.0,-285.0,-1126.0,740.0,-357.0,634.0,-397.0,15.0
19:30:12.095000,166.0,-59.0,-343.0,-1175.0,851.0,-372.0,634.0,-397.0,15.0
19:30:12.099000,151.0,-47.0,-380.0,-1213.0,950.0,-373.0,634.0,-397.0,15.0
19:30:12.105000,121.0,-33.0,-390.0,-1212.0,1029.0,-346.0,643.0,-399.0,27.0
19:30:12.109000,88.0,-25.0,-375.0,-1212.0,1029.0,-346.0,643.0,-399.0,27.0
19:30:12.114000,50.0,-22.0,-324.0,-1161.0,1002.0,-323.0,631.0,-403.0,18.0
19:30:12.119000,21.0,-23.0,-249.0,-1072.0,929.0,-299.0,631.0,-403.0,18.0
19:30:12.123000,13.0,-35.0,-166.0,-976.0,848.0,-280.0,631.0,-403.0,18.0
19:30:12.128000,16.0,-50.0,-96.0,-894.0,798.0,-266.0,637.0,-396.0,21.0
19:30:12.133000,21.0,-67.0,-61.0,-842.0,803.0,-254.0,637.0,-396.0,21.0
19:30:12.137000,28.0,-86.0,-56.0,-820.0,841.0,-244.0,643.0,-390.0,13.0
19:30:12.142000,28.0,-86.0,-56.0,-811.0,884.0,-236.0,643.0,-390.0,13.0
19:30:12.146000,28.0,-100.0,-55.0,-824.0,927.0,-229.0,643.0,-390.0,13.0
19:30:12.152000,18.0,-107.0,-51.0,-862.0,949.0,-222.0,633.0,-387.0,22.0
19:30:12.156000,-8.0,-102.0,-37.0,-912.0,945.0,-221.0,633.0,-387.0,22.0
19:30:12.161000,-36.0,-88.0,-32.0,-978.0,942.0,-224.0,624.0,-394.0,34.0
19:30:12.166000,-70.0,-60.0,-65.0,-1042.0,949.0,-227.0,624.0,-394.0,34.0
19:30:12.170000,-101.0,-37.0,-121.0,-1077.0,943.0,-235.0,624.0,-394.0,34.0
19:30:12.175000,-121.0,-16.0,-149.0,-1083.0,926.0,-244.0,634.0,-391.0,25.0
19:30:12.180000,-134.0,4.0,-164.0,-1087.0,920.0,-249.0,634.0,-391.0,25.0
19:30:12.184000,-147.0,25.0,-197.0,-1082.0,918.0,-254.0,633.0,-382.0,16.0
19:30:12.189000,-157.0,51.0,-186.0,-1085.0,919.0,-261.0,633.0,-382.0,16.0
19:30:12.193000,-172.0,90.0,-157.0,-1125.0,932.0,-266.0,633.0,-382.0,16.0
19:30:12.199000,-177.0,128.0,-191.0,-1164.0,915.0,-268.0,631.0,-385.0,24.0
19:30:12.203000,-169.0,154.0,-282.0,-1164.0,833.0,-272.0,631.0,-385.0,24.0
19:30:12.208000,-174.0,179.0,-358.0,-1157.0,833.0,-272.0,631.0,-381.0,18.0
19:30:12.213000,-193.0,196.0,-396.0,-1109.0,749.0,-274.0,631.0,-381.0,18.0
19:30:12.217000,-192.0,212.0,-401.0,-1062.0,733.0,-276.0,631.0,-381.0,18.0
19:30:12.222000,-165.0,210.0,-375.0,-1031.0,760.0,-275.0,637.0,-379.0,24.0
19:30:12.227000,-147.0,219.0,-349.0,-1015.0,762.0,-269.0,637.0,-379.0,24.0
19:30:12.231000,-157.0,235.0,-342.0,-1037.0,707.0,-262.0,640.0,-376.0,28.0
19:30:12.236000,-172.0,265.0,-310.0,-1069.0,607.0,-259.0,640.0,-376.0,28.0
19:30:12.240000,-172.0,265.0,-310.0,-1071.0,500.0,-249.0,640.0,-376.0,28.0
19:30:12.246000,-150.0,234.0,-256.0,-1033.0,432.0,-233.0,637.0,-367.0,34.0
19:30:12.250000,-153.0,218.0,-242.0,-950.0,405.0,-225.0,637.0,-367.0,34.0
19:30:12.255000,-153.0,218.0,-242.0,-858.0,385.0,-216.0,646.0,-364.0,27.0
19:30:12.260000,-151.0,203.0,-203.0,-795.0,357.0,-207.0,646.0,-364.0,27.0
19:30:12.264000,-149.0,197.0,-156.0,-807.0,326.0,-202.0,646.0,-364.0,27.0
19:30:12.269000,-143.0,201.0,-155.0,-883.0,303.0,-197.0,645.0,-361.0,27.0
19:30:12.274000,-149.0,210.0,-222.0,-936.0,273.0,-180.0,645.0,-361.0,27.0
19:30:12.278000,-172.0,207.0,-312.0,-911.0,225.0,-173.0,639.0,-363.0,30.0
19:30:12.283000,-196.0,225.0,-358.0,-854.0,142.0,-186.0,639.0,-363.0,30.0
19:30:12.287000,-210.0,255.0,-270.0,-847.0,56.0,-193.0,639.0,-363.0,30.0
19:30:12.293000,-190.0,261.0,-111.0,-903.0,42.0,-199.0,654.0,-357.0,46.0
19:30:12.297000,-124.0,236.0,-42.0,-966.0,103.0,-201.0,654.0,-357.0,46.0
19:30:12.302000,-44.0,175.0,-168.0,-966.0,184.0,-193.0,637.0,-354.0,33.0
19:30:12.307000,6.0,118.0,-368.0,-862.0,199.0,-214.0,637.0,-354.0,33.0
19:30:12.311000,7.0,126.0,-375.0,-826.0,136.0,-227.0,637.0,-354.0,33.0
19:30:12.316000,-16.0,115.0,-219.0,-826.0,136.0,-227.0,661.0,-354.0,42.0
19:30:12.321000,-21.0,103.0,-117.0,-902.0,132.0,-220.0,661.0,-354.0,42.0
19:30:12.325000,-10.0,109.0,-114.0,-982.0,212.0,-229.0,660.0,-351.0,43.0
19:30:12.330000,16.0,109.0,-128.0,-1101.0,253.0,-227.0,660.0,-351.0,43.0
19:30:12.334000,37.0,114.0,-85.0,-1101.0,253.0,-227.0,660.0,-351.0,43.0
19:30:12.340000,49.0,128.0,-110.0,-1156.0,241.0,-226.0,634.0,-345.0,39.0
19:30:12.344000,39.0,147.0,-255.0,-1200.0,268.0,-224.0,634.0,-345.0,39.0
19:30:12.349000,-8.0,183.0,-368.0,-1211.0,287.0,-225.0,646.0,-349.0,40.0
19:30:12.354000,-37.0,241.0,-359.0,-1172.0,273.0,-233.0,646.0,-349.0,40.0
19:30:12.358000,-37.0,241.0,-359.0,-1191.0,218.0,-238.0,646.0,-349.0,40.0
19:30:12.363000,-57.0,264.0,-301.0,-1276.0,195.0,-229.0,654.0,-348.0,33.0
19:30:12.368000,-45.0,238.0,-401.0,-1266.0,249.0,-223.0,654.0,-348.0,33.0
19:30:12.372000,-9.0,216.0,-540.0,-1144.0,232.0,-244.0,661.0,-337.0,45.0
19:30:12.377000,7.0,254.0,-506.0,-1070.0,112.0,-266.0,661.0,-337.0,45.0
19:30:12.381000,4.0,289.0,-324.0,-1126.0,22.0,-262.0,661.0,-337.0,45.0
19:30:12.387000,-21.0,312.0,-138.0,-1228.0,48.0,-259.0,661.0,-327.0,51.0
19:30:12.391000,-13.0,321.0,-116.0,-1254.0,149.0,-253.0,661.0,-327.0,51.0
19:30:12.396000,18.0,310.0,-238.0,-1137.0,186.0,-255.0,658.0,-324.0,51.0
19:30:12.401000,52.0,330.0,-242.0,-1020.0,135.0,-248.0,658.0,-324.0,51.0
19:30:12.405000,65.0,323.0,-143.0,-1004.0,129.0,-241.0,658.0,-324.0,51.0
19:30:12.410000,97.0,355.0,-124.0,-1033.0,144.0,-237.0,657.0,-331.0,60.0
19:30:12.415000,155.0,346.0,-165.0,-1066.0,116.0,-221.0,657.0,-331.0,60.0
19:30:12.419000,206.0,344.0,-277.0,-1101.0,72.0,-216.0,664.0,-328.0,55.0
19:30:12.424000,222.0,347.0,-450.0,-1101.0,72.0,-216.0,664.0,-328.0,55.0
19:30:12.428000,243.0,334.0,-575.0,-1115.0,9.0,-221.0,664.0,-328.0,55.0
19:30:12.434000,273.0,276.0,-582.0,-1031.0,-26.0,-212.0,663.0,-321.0,58.0
19:30:12.438000,279.0,291.0,-590.0,-928.0,37.0,-220.0,663.0,-321.0,58.0
19:30:12.443000,273.0,326.0,-637.0,-924.0,140.0,-254.0,663.0,-321.0,61.0
19:30:12.448000,289.0,317.0,-712.0,-982.0,214.0,-265.0,663.0,-321.0,61.0
19:30:12.452000,290.0,298.0,-746.0,-963.0,300.0,-271.0,663.0,-321.0,61.0
19:30:12.457000,308.0,277.0,-667.0,-843.0,364.0,-281.0,652.0,-325.0,63.0
19:30:12.462000,336.0,261.0,-511.0,-753.0,376.0,-294.0,652.0,-325.0,63.0
19:30:12.466000,336.0,261.0,-511.0,-790.0,400.0,-310.0,661.0,-301.0,66.0
19:30:12.471000,363.0,244.0,-460.0,-898.0,433.0,-319.0,661.0,-301.0,66.0
19:30:12.476000,364.0,213.0,-540.0,-942.0,415.0,-326.0,664.0,-304.0,66.0
19:30:12.481000,345.0,200.0,-571.0,-914.0,384.0,-335.0,664.0,-304.0,66.0
19:30:12.485000,315.0,200.0,-517.0,-896.0,393.0,-346.0,664.0,-304.0,66.0
19:30:12.490000,302.0,210.0,-453.0,-909.0,439.0,-349.0,664.0,-303.0,61.0
19:30:12.495000,299.0,197.0,-420.0,-925.0,485.0,-338.0,664.0,-303.0,61.0
19:30:12.499000,264.0,198.0,-458.0,-918.0,495.0,-340.0,667.0,-303.0,64.0
19:30:12.504000,212.0,215.0,-523.0,-881.0,475.0,-343.0,667.0,-303.0,64.0
19:30:12.508000,163.0,230.0,-571.0,-833.0,440.0,-343.0,667.0,-303.0,64.0
19:30:12.513000,144.0,233.0,-558.0,-794.0,407.0,-342.0,652.0,-295.0,64.0
19:30:12.518000,145.0,213.0,-509.0,-785.0,381.0,-335.0,652.0,-295.0,64.0
19:30:12.523000,151.0,192.0,-458.0,-785.0,381.0,-335.0,646.0,-295.0,78.0
19:30:12.528000,171.0,177.0,-448.0,-838.0,358.0,-337.0,646.0,-295.0,78.0
19:30:12.532000,207.0,149.0,-450.0,-838.0,332.0,-329.0,646.0,-295.0,78.0
19:30:12.537000,234.0,114.0,-434.0,-852.0,332.0,-329.0,661.0,-282.0,73.0
19:30:12.542000,245.0,83.0,-428.0,-851.0,330.0,-321.0,661.0,-282.0,73.0
19:30:12.546000,234.0,68.0,-441.0,-857.0,355.0,-318.0,670.0,-279.0,72.0
19:30:12.551000,214.0,63.0,-488.0,-880.0,398.0,-320.0,670.0,-279.0,72.0
19:30:12.555000,203.0,51.0,-536.0,-902.0,446.0,-321.0,670.0,-279.0,72.0
19:30:12.560000,198.0,35.0,-564.0,-909.0,473.0,-321.0,660.0,-279.0,84.0
19:30:12.565000,196.0,22.0,-562.0,-916.0,479.0,-329.0,660.0,-279.0,84.0
19:30:12.570000,203.0,7.0,-546.0,-944.0,479.0,-338.0,669.0,-273.0,73.0
19:30:12.575000,208.0,-12.0,-534.0,-992.0,490.0,-343.0,669.0,-273.0,73.0
19:30:12.579000,208.0,-12.0,-534.0,-999.0,509.0,-346.0,669.0,-273.0,73.0
19:30:12.584000,219.0,-32.0,-508.0,-955.0,525.0,-350.0,658.0,-270.0,67.0
19:30:12.589000,217.0,-39.0,-459.0,-937.0,540.0,-350.0,658.0,-270.0,67.0
19:30:12.593000,193.0,-31.0,-415.0,-958.0,581.0,-340.0,673.0,-267.0,67.0
19:30:12.598000,167.0,-20.0,-434.0,-955.0,612.0,-332.0,673.0,-267.0,67.0
19:30:12.605000,140.0,-11.0,-435.0,-917.0,611.0,-318.0,663.0,-259.0,67.0
19:30:12.607000,140.0,-11.0,-435.0,-917.0,611.0,-318.0,663.0,-259.0,67.0
19:30:12.611000,149.0,-23.0,-424.0,-892.0,618.0,-314.0,663.0,-259.0,67.0
19:30:12.617000,187.0,-53.0,-410.0,-844.0,609.0,-307.0,652.0,-265.0,73.0
19:30:12.622000,233.0,-91.0,-378.0,-807.0,599.0,-299.0,652.0,-265.0,73.0
19:30:12.626000,258.0,-114.0,-358.0,-815.0,617.0,-293.0,649.0,-259.0,67.0
19:30:12.631000,275.0,-127.0,-366.0,-850.0,635.0,-279.0,649.0,-259.0,67.0
19:30:12.635000,279.0,-146.0,-380.0,-869.0,625.0,-267.0,649.0,-259.0,67.0
19:30:12.640000,280.0,-156.0,-354.0,-868.0,630.0,-258.0,658.0,-258.0,66.0
19:30:12.645000,303.0,-187.0,-305.0,-868.0,630.0,-258.0,658.0,-258.0,66.0
19:30:12.649000,328.0,-209.0,-266.0,-816.0,725.0,-257.0,666.0,-249.0,72.0
19:30:12.654000,305.0,-203.0,-238.0,-816.0,725.0,-257.0,666.0,-249.0,72.0
19:30:12.658000,267.0,-195.0,-202.0,-816.0,754.0,-247.0,666.0,-249.0,72.0
19:30:12.664000,221.0,-177.0,-138.0,-842.0,755.0,-234.0,660.0,-253.0,72.0
19:30:12.669000,200.0,-175.0,-98.0,-864.0,749.0,-229.0,660.0,-253.0,72.0
19:30:12.673000,220.0,-186.0,-110.0,-859.0,762.0,-224.0,658.0,-255.0,61.0
19:30:12.678000,222.0,-179.0,-94.0,-826.0,748.0,-220.0,658.0,-255.0,61.0
19:30:12.682000,222.0,-179.0,-94.0,-790.0,705.0,-209.0,658.0,-255.0,61.0
19:30:12.687000,177.0,-164.0,74.0,-772.0,673.0,-195.0,655.0,-249.0,64.0
19:30:12.692000,177.0,-164.0,74.0,-765.0,661.0,-191.0,655.0,-249.0,64.0
19:30:12.697000,171.0,-160.0,128.0,-745.0,643.0,-181.0,642.0,-243.0,58.0
19:30:12.701000,184.0,-170.0,214.0,-715.0,589.0,-162.0,642.0,-243.0,58.0
19:30:12.705000,199.0,-176.0,327.0,-693.0,540.0,-140.0,642.0,-243.0,58.0
19:30:12.711000,194.0,-165.0,395.0,-678.0,519.0,-116.0,666.0,-252.0,57.0
