hh:mm:ss.ms,gyroX[mdps],gyroY[mdps],gyroZ[mdps],accX[mg],accY[mg],accZ[mg],magX[mG],magY[mG],magZ[mG]
19:43:30.436000,457.0,19.0,-273.0,-1434.0,359.0,-314.0,0.0,0.0,0.0
19:43:30.441000,480.0,45.0,-202.0,-1434.0,359.0,-314.0,0.0,0.0,0.0
19:43:30.445000,463.0,71.0,-67.0,-1412.0,302.0,-280.0,0.0,0.0,0.0
19:43:30.450000,463.0,71.0,-67.0,-1412.0,302.0,-280.0,0.0,0.0,0.0
19:43:30.455000,461.0,65.0,9.0,-1409.0,383.0,-255.0,0.0,0.0,0.0
19:43:30.459000,417.0,41.0,-26.0,-1409.0,383.0,-255.0,0.0,0.0,0.0
19:43:30.464000,326.0,28.0,-74.0,-1352.0,702.0,-238.0,0.0,0.0,0.0
19:43:30.469000,277.0,31.0,-249.0,-1352.0,702.0,-238.0,0.0,0.0,0.0
19:43:30.473000,268.0,-4.0,-297.0,-1284.0,757.0,-233.0,0.0,0.0,0.0
19:43:30.478000,218.0,-39.0,-126.0,-1284.0,757.0,-233.0,0.0,0.0,0.0
19:43:30.483000,93.0,-86.0,-54.0,-1293.0,736.0,-206.0,0.0,0.0,0.0
19:43:30.488000,-11.0,-105.0,-35.0,-1293.0,736.0,-206.0,0.0,0.0,0.0
19:43:30.492000,18.0,-95.0,-115.0,-1338.0,779.0,-182.0,0.0,0.0,0.0
19:43:30.497000,-85.0,-123.0,-286.0,-1338.0,779.0,-182.0,0.0,0.0,0.0
19:43:30.502000,-199.0,-177.0,-434.0,-1368.0,709.0,-146.0,0.0,0.0,0.0
19:43:30.506000,-205.0,-207.0,-539.0,-1368.0,709.0,-146.0,0.0,0.0,0.0
19:43:30.511000,-247.0,-181.0,-284.0,-1368.0,709.0,-146.0,0.0,0.0,0.0
19:43:30.516000,-274.0,-157.0,-93.0,-1177.0,418.0,-68.0,0.0,0.0,0.0
19:43:30.520000,-289.0,-176.0,8.0,-1177.0,418.0,-68.0,0.0,0.0,0.0
19:43:30.525000,-354.0,-197.0,43.0,-1154.0,-45.0,0.0,0.0,0.0,0.0
19:43:30.530000,-341.0,-139.0,-61.0,-1154.0,-45.0,0.0,0.0,0.0,0.0
19:43:30.535000,-357.0,-124.0,-196.0,-1072.0,-283.0,38.0,0.0,0.0,0.0
19:43:30.539000,-430.0,-145.0,-317.0,-1072.0,-283.0,38.0,0.0,0.0,0.0
19:43:30.544000,-485.0,-167.0,-217.0,-791.0,-499.0,76.0,0.0,0.0,0.0
19:43:30.549000,-382.0,-137.0,152.0,-791.0,-499.0,76.0,0.0,0.0,0.0
19:43:30.553000,-319.0,-123.0,420.0,-638.0,-937.0,64.0,0.0,0.0,0.0
19:43:30.558000,-319.0,-123.0,420.0,-638.0,-937.0,64.0,0.0,0.0,0.0
19:43:30.563000,-417.0,-95.0,414.0,-580.0,-1113.0,17.0,0.0,0.0,0.0
19:43:30.567000,-395.0,-89.0,121.0,-580.0,-1113.0,17.0,0.0,0.0,0.0
19:43:30.572000,-229.0,-21.0,90.0,-605.0,-1127.0,-18.0,0.0,0.0,0.0
19:43:30.577000,-146.0,-4.0,-58.0,-605.0,-1127.0,-18.0,0.0,0.0,0.0
19:43:30.582000,-107.0,-4.0,-129.0,-580.0,-1154.0,-73.0,0.0,0.0,0.0
19:43:30.586000,-34.0,31.0,-77.0,-580.0,-1154.0,-73.0,0.0,0.0,0.0
19:43:30.591000,-41.0,18.0,-317.0,-609.0,-906.0,-109.0,0.0,0.0,0.0
19:43:30.596000,-21.0,30.0,-491.0,-609.0,-906.0,-109.0,0.0,0.0,0.0
19:43:30.600000,13.0,40.0,-534.0,-698.0,-719.0,-186.0,0.0,0.0,0.0
19:43:30.605000,39.0,67.0,-652.0,-698.0,-719.0,-186.0,0.0,0.0,0.0
19:43:30.610000,18.0,77.0,-835.0,-875.0,-673.0,-254.0,0.0,0.0,0.0
19:43:30.614000,73.0,60.0,-825.0,-875.0,-673.0,-254.0,0.0,0.0,0.0
19:43:30.619000,105.0,81.0,-573.0,-875.0,-673.0,-254.0,0.0,0.0,0.0
19:43:30.624000,208.0,58.0,-278.0,-872.0,-678.0,-300.0,0.0,0.0,0.0
19:43:30.629000,213.0,43.0,-126.0,-872.0,-678.0,-300.0,0.0,0.0,0.0
19:43:30.633000,148.0,44.0,-116.0,-814.0,-598.0,-325.0,0.0,0.0,0.0
19:43:30.638000,125.0,42.0,-82.0,-814.0,-598.0,-325.0,0.0,0.0,0.0
19:43:30.643000,111.0,9.0,-96.0,-850.0,-351.0,-312.0,0.0,0.0,0.0
19:43:30.647000,37.0,-34.0,-37.0,-850.0,-351.0,-312.0,0.0,0.0,0.0
19:43:30.652000,70.0,-95.0,21.0,-712.0,-362.0,-309.0,0.0,0.0,0.0
19:43:30.657000,178.0,-157.0,35.0,-712.0,-362.0,-309.0,0.0,0.0,0.0
19:43:30.661000,223.0,-195.0,-84.0,-603.0,-554.0,-333.0,0.0,0.0,0.0
19:43:30.666000,223.0,-195.0,-84.0,-603.0,-554.0,-333.0,0.0,0.0,0.0
19:43:30.671000,179.0,-258.0,-130.0,-615.0,-574.0,-307.0,0.0,0.0,0.0
19:43:30.676000,135.0,-261.0,-93.0,-615.0,-574.0,-307.0,0.0,0.0,0.0
19:43:30.680000,114.0,-277.0,-65.0,-756.0,-517.0,-265.0,0.0,0.0,0.0
19:43:30.685000,65.0,-294.0,-72.0,-756.0,-517.0,-265.0,0.0,0.0,0.0
19:43:30.690000,9.0,-312.0,49.0,-842.0,-483.0,-242.0,0.0,0.0,0.0
19:43:30.694000,-24.0,-308.0,139.0,-842.0,-483.0,-242.0,0.0,0.0,0.0
19:43:30.699000,-39.0,-363.0,-14.0,-802.0,-441.0,-176.0,0.0,0.0,0.0
19:43:30.704000,-70.0,-377.0,-154.0,-802.0,-441.0,-176.0,0.0,0.0,0.0
19:43:30.708000,-91.0,-399.0,-122.0,-798.0,-517.0,-116.0,0.0,0.0,0.0
19:43:30.713000,-152.0,-387.0,23.0,-798.0,-517.0,-116.0,0.0,0.0,0.0
19:43:30.718000,-186.0,-340.0,-2.0,-968.0,-584.0,-93.0,0.0,0.0,0.0
19:43:30.723000,-148.0,-319.0,-71.0,-968.0,-584.0,-93.0,0.0,0.0,0.0
19:43:30.727000,-151.0,-298.0,51.0,-1036.0,-525.0,-67.0,0.0,0.0,0.0
19:43:30.732000,-124.0,-266.0,9.0,-1036.0,-525.0,-67.0,0.0,0.0,0.0
19:43:30.737000,-136.0,-198.0,14.0,-1036.0,-525.0,-67.0,0.0,0.0,0.0
19:43:30.741000,-121.0,-180.0,95.0,-983.0,-570.0,-38.0,0.0,0.0,0.0
19:43:30.746000,-131.0,-175.0,53.0,-983.0,-570.0,-38.0,0.0,0.0,0.0
19:43:30.751000,-105.0,-133.0,73.0,-1076.0,-528.0,-22.0,0.0,0.0,0.0
19:43:30.755000,-119.0,-148.0,49.0,-1076.0,-528.0,-22.0,0.0,0.0,0.0
19:43:30.760000,-60.0,-112.0,13.0,-1088.0,-438.0,-10.0,0.0,0.0,0.0
19:43:30.765000,-65.0,-67.0,-77.0,-1088.0,-438.0,-10.0,0.0,0.0,0.0
19:43:30.770000,-104.0,-42.0,-139.0,-1058.0,-506.0,-6.0,0.0,0.0,0.0
19:43:30.774000,-104.0,-42.0,-139.0,-1058.0,-506.0,-6.0,0.0,0.0,0.0
19:43:30.779000,-2.0,-39.0,-128.0,-993.0,-584.0,-29.0,0.0,0.0,0.0
19:43:30.784000,77.0,-49.0,-86.0,-993.0,-584.0,-29.0,0.0,0.0,0.0
19:43:30.788000,67.0,-35.0,-34.0,-955.0,-481.0,-33.0,0.0,0.0,0.0
19:43:30.793000,25.0,-11.0,-41.0,-955.0,-481.0,-33.0,0.0,0.0,0.0
19:43:30.798000,60.0,19.0,7.0,-990.0,-502.0,-53.0,0.0,0.0,0.0
19:43:30.802000,122.0,-4.0,104.0,-990.0,-502.0,-53.0,0.0,0.0,0.0
19:43:30.807000,106.0,-14.0,122.0,-1003.0,-525.0,-83.0,0.0,0.0,0.0
19:43:30.812000,86.0,-10.0,71.0,-1003.0,-525.0,-83.0,0.0,0.0,0.0
19:43:30.817000,68.0,-28.0,-48.0,-950.0,-358.0,-66.0,0.0,0.0,0.0
19:43:30.821000,21.0,-39.0,-142.0,-950.0,-358.0,-66.0,0.0,0.0,0.0
19:43:30.826000,0.0,-58.0,-142.0,-868.0,-374.0,-62.0,0.0,0.0,0.0
19:43:30.831000,-28.0,-70.0,-95.0,-868.0,-374.0,-62.0,0.0,0.0,0.0
19:43:30.835000,-36.0,-90.0,-62.0,-895.0,-474.0,-70.0,0.0,0.0,0.0
19:43:30.840000,7.0,-100.0,-53.0,-895.0,-474.0,-70.0,0.0,0.0,0.0
19:43:30.845000,17.0,-112.0,-63.0,-895.0,-474.0,-70.0,0.0,0.0,0.0
19:43:30.849000,-9.0,-127.0,-37.0,-930.0,-511.0,-62.0,0.0,0.0,0.0
19:43:30.854000,-11.0,-136.0,-49.0,-930.0,-511.0,-62.0,0.0,0.0,0.0
19:43:30.859000,20.0,-150.0,-106.0,-879.0,-542.0,-54.0,0.0,0.0,0.0
19:43:30.864000,-51.0,-156.0,-65.0,-879.0,-542.0,-54.0,0.0,0.0,0.0
19:43:30.868000,-114.0,-160.0,-145.0,-927.0,-458.0,-54.0,0.0,0.0,0.0
19:43:30.873000,-93.0,-177.0,-265.0,-927.0,-458.0,-54.0,0.0,0.0,0.0
19:43:30.878000,-81.0,-179.0,-211.0,-870.0,-397.0,-57.0,0.0,0.0,0.0
19:43:30.882000,-124.0,-193.0,-66.0,-870.0,-397.0,-57.0,0.0,0.0,0.0
19:43:30.887000,-124.0,-193.0,-66.0,-803.0,-471.0,-45.0,0.0,0.0,0.0
19:43:30.892000,-175.0,-198.0,-58.0,-803.0,-471.0,-45.0,0.0,0.0,0.0
19:43:30.896000,-196.0,-184.0,-213.0,-955.0,-395.0,-27.0,0.0,0.0,0.0
19:43:30.901000,-191.0,-167.0,-301.0,-955.0,-395.0,-27.0,0.0,0.0,0.0
19:43:30.906000,-179.0,-168.0,-286.0,-963.0,-349.0,-17.0,0.0,0.0,0.0
19:43:30.911000,-222.0,-162.0,-352.0,-963.0,-349.0,-17.0,0.0,0.0,0.0
19:43:30.915000,-264.0,-141.0,-342.0,-882.0,-404.0,-8.0,0.0,0.0,0.0
19:43:30.920000,-247.0,-120.0,-189.0,-882.0,-404.0,-8.0,0.0,0.0,0.0
19:43:30.925000,-242.0,-96.0,-117.0,-997.0,-445.0,-21.0,0.0,0.0,0.0
19:43:30.929000,-271.0,-86.0,-147.0,-997.0,-445.0,-21.0,0.0,0.0,0.0
19:43:30.934000,-245.0,-76.0,-149.0,-1055.0,-480.0,-50.0,0.0,0.0,0.0
19:43:30.939000,-180.0,-60.0,-119.0,-1055.0,-480.0,-50.0,0.0,0.0,0.0
19:43:30.943000,-116.0,-42.0,-109.0,-988.0,-496.0,-76.0,0.0,0.0,0.0
19:43:30.948000,-86.0,-45.0,-90.0,-988.0,-496.0,-76.0,0.0,0.0,0.0
19:43:30.953000,-63.0,-64.0,-149.0,-988.0,-496.0,-76.0,0.0,0.0,0.0
19:43:30.958000,-67.0,-69.0,-161.0,-889.0,-501.0,-71.0,0.0,0.0,0.0
19:43:30.962000,-66.0,-62.0,-161.0,-838.0,-442.0,-65.0,0.0,0.0,0.0
19:43:30.967000,-33.0,-59.0,-218.0,-838.0,-442.0,-65.0,0.0,0.0,0.0
19:43:30.972000,-22.0,-58.0,-354.0,-838.0,-442.0,-65.0,0.0,0.0,0.0
19:43:30.976000,4.0,-61.0,-443.0,-893.0,-369.0,-70.0,0.0,0.0,0.0
19:43:30.981000,0.0,-67.0,-408.0,-893.0,-369.0,-70.0,0.0,0.0,0.0
19:43:30.986000,-16.0,-69.0,-319.0,-824.0,-396.0,-55.0,0.0,0.0,0.0
19:43:30.990000,-4.0,-67.0,-261.0,-824.0,-396.0,-55.0,0.0,0.0,0.0
19:43:30.995000,-4.0,-67.0,-261.0,-823.0,-429.0,-48.0,0.0,0.0,0.0
19:43:31.000000,-24.0,-53.0,-223.0,-823.0,-429.0,-48.0,0.0,0.0,0.0
19:43:31.005000,-9.0,-40.0,-198.0,-926.0,-400.0,-53.0,0.0,0.0,0.0
19:43:31.009000,13.0,-18.0,-112.0,-926.0,-400.0,-53.0,0.0,0.0,0.0
19:43:31.014000,9.0,-9.0,-25.0,-1052.0,-417.0,-49.0,0.0,0.0,0.0
19:43:31.019000,-18.0,-8.0,-47.0,-1052.0,-417.0,-49.0,0.0,0.0,0.0
19:43:31.033000,-32.0,4.0,-234.0,-940.0,-361.0,-68.0,0.0,0.0,0.0
19:43:31.037000,3.0,0.0,-142.0,-940.0,-361.0,-68.0,0.0,0.0,0.0
19:43:31.042000,29.0,-8.0,-102.0,-861.0,-388.0,-67.0,0.0,0.0,0.0
19:43:31.047000,30.0,-20.0,-165.0,-861.0,-388.0,-67.0,0.0,0.0,0.0
19:43:31.052000,18.0,-24.0,-242.0,-844.0,-322.0,-60.0,0.0,0.0,0.0
19:43:31.056000,-5.0,-24.0,-282.0,-844.0,-322.0,-60.0,0.0,0.0,0.0
19:43:31.061000,-32.0,-18.0,-305.0,-844.0,-322.0,-60.0,0.0,0.0,0.0
19:43:31.066000,-43.0,-27.0,-341.0,-848.0,-287.0,-42.0,0.0,0.0,0.0
19:43:31.070000,-15.0,-30.0,-367.0,-848.0,-287.0,-42.0,0.0,0.0,0.0
19:43:31.075000,7.0,-46.0,-340.0,-860.0,-307.0,-34.0,0.0,0.0,0.0
19:43:31.080000,-14.0,-50.0,-352.0,-860.0,-307.0,-34.0,0.0,0.0,0.0
19:43:31.084000,-19.0,-51.0,-375.0,-912.0,-369.0,-24.0,0.0,0.0,0.0
19:43:31.089000,-31.0,-38.0,-401.0,-912.0,-369.0,-24.0,0.0,0.0,0.0
19:43:31.094000,-14.0,-21.0,-375.0,-959.0,-372.0,-15.0,0.0,0.0,0.0
19:43:31.099000,-15.0,0.0,-301.0,-959.0,-372.0,-15.0,0.0,0.0,0.0
19:43:31.103000,-15.0,0.0,-301.0,-974.0,-328.0,-17.0,0.0,0.0,0.0
19:43:31.108000,-16.0,11.0,-222.0,-974.0,-328.0,-17.0,0.0,0.0,0.0
19:43:31.113000,-39.0,18.0,-214.0,-1028.0,-267.0,-8.0,0.0,0.0,0.0
19:43:31.117000,-78.0,25.0,-295.0,-1028.0,-267.0,-8.0,0.0,0.0,0.0
19:43:31.122000,-115.0,26.0,-394.0,-995.0,-228.0,1.0,0.0,0.0,0.0
19:43:31.127000,-123.0,35.0,-370.0,-995.0,-228.0,1.0,0.0,0.0,0.0
19:43:31.131000,-105.0,42.0,-285.0,-859.0,-284.0,-12.0,0.0,0.0,0.0
19:43:31.136000,-99.0,50.0,-189.0,-859.0,-284.0,-12.0,0.0,0.0,0.0
19:43:31.141000,-91.0,58.0,-138.0,-916.0,-317.0,-38.0,0.0,0.0,0.0
19:43:31.146000,-72.0,52.0,-170.0,-916.0,-317.0,-38.0,0.0,0.0,0.0
19:43:31.150000,-38.0,47.0,-221.0,-1040.0,-288.0,-50.0,0.0,0.0,0.0
19:43:31.155000,-23.0,54.0,-262.0,-1040.0,-288.0,-50.0,0.0,0.0,0.0
19:43:31.160000,-2.0,53.0,-293.0,-994.0,-285.0,-48.0,0.0,0.0,0.0
19:43:31.164000,0.0,51.0,-345.0,-994.0,-285.0,-48.0,0.0,0.0,0.0
19:43:31.169000,-11.0,53.0,-364.0,-994.0,-285.0,-48.0,0.0,0.0,0.0
19:43:31.174000,-5.0,57.0,-368.0,-896.0,-298.0,-34.0,0.0,0.0,0.0
19:43:31.178000,-35.0,44.0,-319.0,-896.0,-298.0,-34.0,0.0,0.0,0.0
19:43:31.183000,-44.0,39.0,-240.0,-874.0,-302.0,-25.0,0.0,0.0,0.0
19:43:31.188000,-55.0,33.0,-242.0,-874.0,-302.0,-25.0,0.0,0.0,0.0
19:43:31.193000,-67.0,39.0,-284.0,-937.0,-291.0,-30.0,0.0,0.0,0.0
19:43:31.197000,-37.0,45.0,-285.0,-937.0,-291.0,-30.0,0.0,0.0,0.0
19:43:31.202000,-14.0,49.0,-239.0,-964.0,-290.0,-45.0,0.0,0.0,0.0
19:43:31.207000,-5.0,47.0,-210.0,-964.0,-290.0,-45.0,0.0,0.0,0.0
19:43:31.211000,-5.0,47.0,-210.0,-968.0,-287.0,-45.0,0.0,0.0,0.0
19:43:31.216000,-6.0,50.0,-163.0,-968.0,-287.0,-45.0,0.0,0.0,0.0
19:43:31.221000,-14.0,56.0,-128.0,-986.0,-277.0,-37.0,0.0,0.0,0.0
19:43:31.225000,-4.0,67.0,-184.0,-986.0,-277.0,-37.0,0.0,0.0,0.0
19:43:31.230000,1.0,78.0,-273.0,-998.0,-289.0,-45.0,0.0,0.0,0.0
19:43:31.234000,7.0,81.0,-296.0,-998.0,-289.0,-45.0,0.0,0.0,0.0
19:43:31.240000,10.0,72.0,-328.0,-983.0,-298.0,-45.0,0.0,0.0,0.0
19:43:31.244000,31.0,67.0,-330.0,-983.0,-298.0,-45.0,0.0,0.0,0.0
19:43:31.249000,46.0,70.0,-237.0,-883.0,-289.0,-55.0,0.0,0.0,0.0
19:43:31.254000,62.0,65.0,-114.0,-883.0,-289.0,-55.0,0.0,0.0,0.0
19:43:31.258000,67.0,58.0,-34.0,-922.0,-261.0,-85.0,0.0,0.0,0.0
19:43:31.263000,56.0,48.0,-43.0,-922.0,-261.0,-85.0,0.0,0.0,0.0
19:43:31.268000,56.0,47.0,-157.0,-1031.0,-178.0,-106.0,0.0,0.0,0.0
19:43:31.272000,72.0,39.0,-282.0,-1031.0,-178.0,-106.0,0.0,0.0,0.0
19:43:31.277000,95.0,24.0,-299.0,-945.0,-183.0,-108.0,0.0,0.0,0.0
19:43:31.282000,112.0,9.0,-287.0,-945.0,-183.0,-108.0,0.0,0.0,0.0
19:43:31.287000,124.0,13.0,-294.0,-945.0,-183.0,-108.0,0.0,0.0,0.0
19:43:31.291000,124.0,11.0,-310.0,-839.0,-247.0,-102.0,0.0,0.0,0.0
19:43:31.296000,91.0,5.0,-319.0,-839.0,-247.0,-102.0,0.0,0.0,0.0
19:43:31.301000,58.0,3.0,-264.0,-849.0,-269.0,-92.0,0.0,0.0,0.0
19:43:31.305000,38.0,9.0,-219.0,-849.0,-269.0,-92.0,0.0,0.0,0.0
19:43:31.310000,38.0,18.0,-247.0,-966.0,-301.0,-101.0,0.0,0.0,0.0
19:43:31.315000,25.0,24.0,-295.0,-966.0,-301.0,-101.0,0.0,0.0,0.0
19:43:31.319000,33.0,26.0,-233.0,-1019.0,-257.0,-115.0,0.0,0.0,0.0
19:43:31.324000,33.0,26.0,-233.0,-1019.0,-257.0,-115.0,0.0,0.0,0.0
19:43:31.329000,25.0,25.0,-156.0,-980.0,-211.0,-104.0,0.0,0.0,0.0
19:43:31.334000,25.0,27.0,-189.0,-980.0,-211.0,-104.0,0.0,0.0,0.0
19:43:31.338000,37.0,30.0,-286.0,-982.0,-198.0,-102.0,0.0,0.0,0.0
19:43:31.343000,43.0,35.0,-325.0,-982.0,-198.0,-102.0,0.0,0.0,0.0
19:43:31.348000,39.0,37.0,-309.0,-959.0,-186.0,-101.0,0.0,0.0,0.0
19:43:31.352000,39.0,37.0,-287.0,-959.0,-186.0,-101.0,0.0,0.0,0.0
19:43:31.357000,28.0,44.0,-269.0,-945.0,-198.0,-97.0,0.0,0.0,0.0
19:43:31.362000,21.0,50.0,-272.0,-945.0,-198.0,-97.0,0.0,0.0,0.0
19:43:31.366000,23.0,51.0,-296.0,-972.0,-193.0,-96.0,0.0,0.0,0.0
19:43:31.371000,24.0,52.0,-307.0,-972.0,-193.0,-96.0,0.0,0.0,0.0
19:43:31.376000,23.0,53.0,-310.0,-970.0,-146.0,-92.0,0.0,0.0,0.0
19:43:31.381000,14.0,58.0,-298.0,-970.0,-146.0,-92.0,0.0,0.0,0.0
19:43:31.385000,4.0,63.0,-275.0,-970.0,-146.0,-92.0,0.0,0.0,0.0
19:43:31.390000,-7.0,74.0,-259.0,-992.0,-134.0,-81.0,0.0,0.0,0.0
19:43:31.395000,-11.0,80.0,-245.0,-992.0,-134.0,-81.0,0.0,0.0,0.0
19:43:31.399000,-8.0,85.0,-232.0,-1046.0,-167.0,-72.0,0.0,0.0,0.0
19:43:31.404000,-3.0,95.0,-221.0,-1046.0,-167.0,-72.0,0.0,0.0,0.0
19:43:31.409000,4.0,104.0,-228.0,-1042.0,-189.0,-67.0,0.0,0.0,0.0
19:43:31.413000,10.0,113.0,-257.0,-1042.0,-189.0,-67.0,0.0,0.0,0.0
19:43:31.418000,15.0,122.0,-287.0,-1022.0,-176.0,-62.0,0.0,0.0,0.0
19:43:31.423000,14.0,131.0,-267.0,-1022.0,-176.0,-62.0,0.0,0.0,0.0
19:43:31.428000,22.0,136.0,-251.0,-1003.0,-170.0,-54.0,0.0,0.0,0.0
19:43:31.432000,22.0,136.0,-251.0,-1003.0,-170.0,-54.0,0.0,0.0,0.0
19:43:31.437000,31.0,135.0,-284.0,-998.0,-199.0,-50.0,0.0,0.0,0.0
19:43:31.442000,45.0,133.0,-324.0,-998.0,-199.0,-50.0,0.0,0.0,0.0
19:43:31.446000,62.0,135.0,-326.0,-991.0,-208.0,-56.0,0.0,0.0,0.0
19:43:31.451000,77.0,134.0,-291.0,-991.0,-208.0,-56.0,0.0,0.0,0.0
19:43:31.456000,83.0,131.0,-262.0,-977.0,-172.0,-65.0,0.0,0.0,0.0
19:43:31.460000,88.0,135.0,-273.0,-977.0,-172.0,-65.0,0.0,0.0,0.0
19:43:31.465000,84.0,136.0,-287.0,-1017.0,-114.0,-69.0,0.0,0.0,0.0
19:43:31.470000,70.0,138.0,-277.0,-1017.0,-114.0,-69.0,0.0,0.0,0.0
19:43:31.475000,63.0,142.0,-256.0,-1051.0,-107.0,-72.0,0.0,0.0,0.0
19:43:31.479000,52.0,146.0,-256.0,-1051.0,-107.0,-72.0,0.0,0.0,0.0
19:43:31.484000,41.0,157.0,-297.0,-1066.0,-96.0,-74.0,0.0,0.0,0.0
19:43:31.489000,27.0,168.0,-352.0,-1066.0,-96.0,-74.0,0.0,0.0,0.0
19:43:31.493000,11.0,175.0,-384.0,-1066.0,-96.0,-74.0,0.0,0.0,0.0
19:43:31.498000,1.0,182.0,-392.0,-1067.0,-95.0,-66.0,0.0,0.0,0.0
19:43:31.503000,2.0,188.0,-384.0,-1067.0,-95.0,-66.0,0.0,0.0,0.0
19:43:31.507000,2.0,194.0,-385.0,-1069.0,-164.0,-61.0,0.0,0.0,0.0
19:43:31.512000,2.0,200.0,-403.0,-1069.0,-164.0,-61.0,0.0,0.0,0.0
19:43:31.516000,16.0,196.0,-413.0,-1078.0,-228.0,-68.0,0.0,0.0,0.0
19:43:31.522000,23.0,188.0,-431.0,-1078.0,-228.0,-68.0,0.0,0.0,0.0
19:43:31.526000,34.0,176.0,-462.0,-1062.0,-233.0,-80.0,0.0,0.0,0.0
19:43:31.531000,49.0,167.0,-490.0,-1062.0,-233.0,-80.0,0.0,0.0,0.0
19:43:31.536000,72.0,154.0,-505.0,-995.0,-216.0,-96.0,0.0,0.0,0.0
19:43:31.540000,72.0,154.0,-505.0,-995.0,-216.0,-96.0,0.0,0.0,0.0
19:43:31.545000,93.0,142.0,-504.0,-909.0,-190.0,-108.0,0.0,0.0,0.0
19:43:31.550000,108.0,126.0,-525.0,-909.0,-190.0,-108.0,0.0,0.0,0.0
19:43:31.554000,123.0,112.0,-573.0,-883.0,-137.0,-106.0,0.0,0.0,0.0
19:43:31.559000,140.0,103.0,-604.0,-883.0,-137.0,-106.0,0.0,0.0,0.0
19:43:31.564000,149.0,101.0,-615.0,-909.0,-98.0,-105.0,0.0,0.0,0.0
19:43:31.569000,154.0,100.0,-610.0,-909.0,-98.0,-105.0,0.0,0.0,0.0
19:43:31.573000,154.0,98.0,-607.0,-946.0,-61.0,-107.0,0.0,0.0,0.0
19:43:31.578000,140.0,93.0,-618.0,-946.0,-61.0,-107.0,0.0,0.0,0.0
19:43:31.583000,123.0,95.0,-602.0,-954.0,-23.0,-110.0,0.0,0.0,0.0
19:43:31.587000,123.0,95.0,-580.0,-954.0,-23.0,-110.0,0.0,0.0,0.0
19:43:31.592000,115.0,96.0,-569.0,-946.0,6.0,-114.0,0.0,0.0,0.0
19:43:31.597000,107.0,95.0,-558.0,-946.0,6.0,-114.0,0.0,0.0,0.0
19:43:31.601000,99.0,91.0,-550.0,-946.0,16.0,-113.0,0.0,0.0,0.0
19:43:31.606000,102.0,85.0,-527.0,-943.0,16.0,-113.0,0.0,0.0,0.0
19:43:31.611000,112.0,77.0,-508.0,-943.0,16.0,-113.0,0.0,0.0,0.0
19:43:31.616000,125.0,70.0,-504.0,-910.0,-19.0,-114.0,0.0,0.0,0.0
19:43:31.620000,139.0,60.0,-522.0,-910.0,-19.0,-114.0,0.0,0.0,0.0
19:43:31.625000,149.0,54.0,-541.0,-874.0,-16.0,-117.0,0.0,0.0,0.0
19:43:31.630000,151.0,46.0,-527.0,-874.0,-16.0,-117.0,0.0,0.0,0.0
19:43:31.634000,149.0,38.0,-485.0,-863.0,25.0,-117.0,0.0,0.0,0.0
19:43:31.639000,149.0,30.0,-479.0,-863.0,25.0,-117.0,0.0,0.0,0.0
19:43:31.644000,144.0,30.0,-495.0,-896.0,59.0,-118.0,0.0,0.0,0.0
19:43:31.648000,144.0,30.0,-495.0,-896.0,59.0,-118.0,0.0,0.0,0.0
19:43:31.653000,144.0,29.0,-478.0,-951.0,73.0,-122.0,0.0,0.0,0.0
19:43:31.658000,142.0,27.0,-481.0,-951.0,73.0,-122.0,0.0,0.0,0.0
19:43:31.663000,133.0,28.0,-483.0,-982.0,68.0,-123.0,0.0,0.0,0.0
19:43:31.667000,123.0,32.0,-464.0,-982.0,68.0,-123.0,0.0,0.0,0.0
19:43:31.672000,118.0,34.0,-448.0,-1006.0,66.0,-124.0,0.0,0.0,0.0
19:43:31.677000,108.0,39.0,-459.0,-1006.0,66.0,-124.0,0.0,0.0,0.0
19:43:31.681000,98.0,47.0,-470.0,-1015.0,75.0,-127.0,0.0,0.0,0.0
19:43:31.686000,89.0,56.0,-476.0,-1015.0,75.0,-127.0,0.0,0.0,0.0
19:43:31.691000,81.0,70.0,-495.0,-1013.0,83.0,-131.0,0.0,0.0,0.0
19:43:31.695000,75.0,84.0,-511.0,-1013.0,83.0,-131.0,0.0,0.0,0.0
19:43:31.700000,76.0,93.0,-506.0,-1026.0,55.0,-134.0,0.0,0.0,0.0
19:43:31.705000,81.0,98.0,-495.0,-1026.0,55.0,-134.0,0.0,0.0,0.0
19:43:31.710000,87.0,102.0,-497.0,-1045.0,20.0,-133.0,0.0,0.0,0.0
19:43:31.714000,93.0,102.0,-518.0,-1045.0,20.0,-133.0,0.0,0.0,0.0
19:43:31.719000,102.0,98.0,-539.0,-1045.0,20.0,-133.0,0.0,0.0,0.0
19:43:31.724000,116.0,95.0,-543.0,-1020.0,11.0,-128.0,0.0,0.0,0.0
19:43:31.728000,126.0,92.0,-562.0,-1020.0,11.0,-128.0,0.0,0.0,0.0
19:43:31.733000,137.0,89.0,-582.0,-969.0,30.0,-126.0,0.0,0.0,0.0
19:43:31.738000,153.0,86.0,-599.0,-969.0,30.0,-126.0,0.0,0.0,0.0
19:43:31.742000,166.0,82.0,-611.0,-938.0,67.0,-133.0,0.0,0.0,0.0
19:43:31.747000,180.0,79.0,-625.0,-938.0,67.0,-133.0,0.0,0.0,0.0
19:43:31.752000,193.0,78.0,-651.0,-937.0,104.0,-141.0,0.0,0.0,0.0
19:43:31.757000,197.0,79.0,-661.0,-937.0,104.0,-141.0,0.0,0.0,0.0
19:43:31.761000,197.0,79.0,-661.0,-967.0,138.0,-145.0,0.0,0.0,0.0
19:43:31.766000,200.0,78.0,-651.0,-967.0,138.0,-145.0,0.0,0.0,0.0
19:43:31.771000,199.0,77.0,-648.0,-993.0,169.0,-146.0,0.0,0.0,0.0
19:43:31.775000,202.0,76.0,-644.0,-993.0,169.0,-146.0,0.0,0.0,0.0
19:43:31.780000,206.0,77.0,-628.0,-999.0,182.0,-148.0,0.0,0.0,0.0
19:43:31.785000,200.0,81.0,-612.0,-999.0,182.0,-148.0,0.0,0.0,0.0
19:43:31.789000,196.0,85.0,-602.0,-999.0,209.0,-153.0,0.0,0.0,0.0
19:43:31.794000,188.0,88.0,-608.0,-999.0,209.0,-153.0,0.0,0.0,0.0
19:43:31.799000,174.0,95.0,-609.0,-1003.0,257.0,-157.0,0.0,0.0,0.0
19:43:31.804000,159.0,105.0,-589.0,-1003.0,257.0,-157.0,0.0,0.0,0.0
19:43:31.808000,148.0,111.0,-561.0,-1004.0,278.0,-161.0,0.0,0.0,0.0
19:43:31.813000,139.0,116.0,-546.0,-1004.0,278.0,-161.0,0.0,0.0,0.0
19:43:31.818000,128.0,123.0,-534.0,-1023.0,285.0,-164.0,0.0,0.0,0.0
19:43:31.822000,116.0,133.0,-524.0,-1023.0,285.0,-164.0,0.0,0.0,0.0
19:43:31.827000,98.0,136.0,-511.0,-1023.0,285.0,-164.0,0.0,0.0,0.0
19:43:31.832000,83.0,136.0,-497.0,-1049.0,292.0,-160.0,0.0,0.0,0.0
19:43:31.836000,71.0,134.0,-483.0,-1049.0,292.0,-160.0,0.0,0.0,0.0
19:43:31.841000,63.0,133.0,-466.0,-1046.0,287.0,-155.0,0.0,0.0,0.0
19:43:31.846000,56.0,135.0,-443.0,-1046.0,287.0,-155.0,0.0,0.0,0.0
19:43:31.851000,48.0,139.0,-431.0,-1020.0,275.0,-156.0,0.0,0.0,0.0
19:43:31.855000,43.0,142.0,-444.0,-1020.0,275.0,-156.0,0.0,0.0,0.0
19:43:31.860000,41.0,144.0,-466.0,-1004.0,279.0,-156.0,0.0,0.0,0.0
19:43:31.865000,34.0,143.0,-482.0,-1004.0,279.0,-156.0,0.0,0.0,0.0
19:43:31.869000,34.0,143.0,-482.0,-991.0,297.0,-152.0,0.0,0.0,0.0
19:43:31.874000,21.0,145.0,-487.0,-991.0,297.0,-152.0,0.0,0.0,0.0
19:43:31.879000,7.0,153.0,-489.0,-955.0,318.0,-145.0,0.0,0.0,0.0
19:43:31.883000,-8.0,164.0,-475.0,-955.0,318.0,-145.0,0.0,0.0,0.0
19:43:31.888000,-14.0,182.0,-442.0,-934.0,317.0,-140.0,0.0,0.0,0.0
19:43:31.893000,-14.0,200.0,-415.0,-934.0,317.0,-140.0,0.0,0.0,0.0
19:43:31.898000,-10.0,219.0,-435.0,-971.0,302.0,-140.0,0.0,0.0,0.0
19:43:31.902000,-11.0,233.0,-484.0,-971.0,302.0,-140.0,0.0,0.0,0.0
19:43:31.907000,-11.0,252.0,-506.0,-998.0,313.0,-144.0,0.0,0.0,0.0
19:43:31.912000,-13.0,268.0,-495.0,-998.0,313.0,-144.0,0.0,0.0,0.0
19:43:31.916000,-9.0,287.0,-468.0,-990.0,336.0,-146.0,0.0,0.0,0.0
19:43:31.921000,-9.0,306.0,-438.0,-990.0,336.0,-146.0,0.0,0.0,0.0
19:43:31.926000,-9.0,324.0,-440.0,-1034.0,353.0,-148.0,0.0,0.0,0.0
19:43:31.930000,-8.0,340.0,-466.0,-1034.0,353.0,-148.0,0.0,0.0,0.0
19:43:31.935000,-16.0,356.0,-464.0,-1066.0,357.0,-154.0,0.0,0.0,0.0
19:43:31.940000,-26.0,371.0,-427.0,-1066.0,357.0,-154.0,0.0,0.0,0.0
19:43:31.945000,-29.0,385.0,-374.0,-1066.0,357.0,-154.0,0.0,0.0,0.0
19:43:31.949000,-38.0,391.0,-326.0,-1023.0,363.0,-167.0,0.0,0.0,0.0
19:43:31.954000,-47.0,396.0,-294.0,-1023.0,363.0,-167.0,0.0,0.0,0.0
19:43:31.959000,-46.0,396.0,-247.0,-1015.0,368.0,-184.0,0.0,0.0,0.0
19:43:31.963000,-29.0,389.0,-215.0,-1015.0,368.0,-184.0,0.0,0.0,0.0
19:43:31.968000,-10.0,378.0,-240.0,-1013.0,377.0,-202.0,0.0,0.0,0.0
19:43:31.973000,0.0,372.0,-317.0,-1013.0,377.0,-202.0,0.0,0.0,0.0
19:43:31.977000,0.0,372.0,-317.0,-962.0,413.0,-220.0,0.0,0.0,0.0
19:43:31.982000,14.0,352.0,-354.0,-962.0,413.0,-220.0,0.0,0.0,0.0
19:43:31.987000,19.0,339.0,-286.0,-852.0,402.0,-235.0,0.0,0.0,0.0
19:43:31.992000,29.0,313.0,-216.0,-852.0,402.0,-235.0,0.0,0.0,0.0
19:43:31.996000,30.0,289.0,-207.0,-791.0,402.0,-245.0,0.0,0.0,0.0
19:43:32.001000,33.0,257.0,-234.0,-791.0,402.0,-245.0,0.0,0.0,0.0
19:43:32.006000,27.0,230.0,-245.0,-780.0,442.0,-255.0,0.0,0.0,0.0
19:43:32.010000,22.0,207.0,-209.0,-780.0,442.0,-255.0,0.0,0.0,0.0
19:43:32.015000,17.0,185.0,-183.0,-744.0,452.0,-269.0,0.0,0.0,0.0
19:43:32.020000,9.0,158.0,-183.0,-744.0,452.0,-269.0,0.0,0.0,0.0
19:43:32.024000,-8.0,137.0,-175.0,-747.0,467.0,-274.0,0.0,0.0,0.0
19:43:32.029000,-19.0,112.0,-162.0,-747.0,467.0,-274.0,0.0,0.0,0.0
19:43:32.034000,-28.0,91.0,-150.0,-745.0,484.0,-277.0,0.0,0.0,0.0
19:43:32.039000,-39.0,77.0,-133.0,-745.0,484.0,-277.0,0.0,0.0,0.0
19:43:32.043000,-53.0,64.0,-110.0,-745.0,484.0,-277.0,0.0,0.0,0.0
19:43:32.048000,-60.0,51.0,-86.0,-752.0,497.0,-284.0,0.0,0.0,0.0
19:43:32.053000,-69.0,45.0,-72.0,-788.0,511.0,-292.0,0.0,0.0,0.0
19:43:32.057000,-77.0,35.0,-58.0,-788.0,511.0,-292.0,0.0,0.0,0.0
19:43:32.062000,-80.0,25.0,-39.0,-788.0,511.0,-292.0,0.0,0.0,0.0
19:43:32.067000,-81.0,14.0,-17.0,-809.0,503.0,-302.0,0.0,0.0,0.0
19:43:32.071000,-76.0,0.0,-3.0,-809.0,503.0,-302.0,0.0,0.0,0.0
19:43:32.076000,-77.0,-18.0,3.0,-818.0,491.0,-308.0,0.0,0.0,0.0
19:43:32.081000,-79.0,-43.0,19.0,-818.0,491.0,-308.0,0.0,0.0,0.0
19:43:32.085000,-81.0,-74.0,55.0,-825.0,484.0,-304.0,0.0,0.0,0.0
19:43:32.090000,-81.0,-74.0,55.0,-825.0,484.0,-304.0,0.0,0.0,0.0
19:43:32.095000,-79.0,-108.0,88.0,-792.0,459.0,-289.0,0.0,0.0,0.0
19:43:32.100000,-72.0,-145.0,97.0,-792.0,459.0,-289.0,0.0,0.0,0.0
19:43:32.104000,-67.0,-189.0,111.0,-733.0,437.0,-267.0,0.0,0.0,0.0
19:43:32.109000,-62.0,-231.0,150.0,-733.0,437.0,-267.0,0.0,0.0,0.0
19:43:32.114000,-49.0,-272.0,183.0,-698.0,406.0,-244.0,0.0,0.0,0.0
19:43:32.118000,-39.0,-315.0,199.0,-698.0,406.0,-244.0,0.0,0.0,0.0
19:43:32.123000,-29.0,-357.0,224.0,-695.0,363.0,-222.0,0.0,0.0,0.0
19:43:32.128000,-13.0,-396.0,250.0,-695.0,363.0,-222.0,0.0,0.0,0.0
19:43:32.132000,0.0,-431.0,280.0,-684.0,315.0,-199.0,0.0,0.0,0.0
19:43:32.137000,7.0,-459.0,319.0,-684.0,315.0,-199.0,0.0,0.0,0.0
19:43:32.142000,14.0,-477.0,346.0,-659.0,282.0,-183.0,0.0,0.0,0.0
19:43:32.147000,16.0,-486.0,350.0,-659.0,282.0,-183.0,0.0,0.0,0.0
19:43:32.151000,4.0,-490.0,345.0,-659.0,282.0,-183.0,0.0,0.0,0.0
19:43:32.156000,-14.0,-485.0,343.0,-656.0,293.0,-170.0,0.0,0.0,0.0
19:43:32.161000,-40.0,-471.0,329.0,-656.0,293.0,-170.0,0.0,0.0,0.0
19:43:32.165000,-70.0,-449.0,290.0,-681.0,342.0,-161.0,0.0,0.0,0.0
19:43:32.170000,-100.0,-423.0,242.0,-681.0,342.0,-161.0,0.0,0.0,0.0
19:43:32.175000,-133.0,-391.0,196.0,-729.0,396.0,-162.0,0.0,0.0,0.0
19:43:32.179000,-170.0,-355.0,161.0,-729.0,396.0,-162.0,0.0,0.0,0.0
19:43:32.184000,-205.0,-317.0,142.0,-787.0,428.0,-167.0,0.0,0.0,0.0
19:43:32.189000,-239.0,-283.0,139.0,-787.0,428.0,-167.0,0.0,0.0,0.0
19:43:32.194000,-270.0,-254.0,149.0,-837.0,432.0,-170.0,0.0,0.0,0.0
19:43:32.198000,-270.0,-254.0,149.0,-837.0,432.0,-170.0,0.0,0.0,0.0
19:43:32.203000,-296.0,-230.0,172.0,-858.0,410.0,-167.0,0.0,0.0,0.0
19:43:32.208000,-313.0,-210.0,207.0,-858.0,410.0,-167.0,0.0,0.0,0.0
19:43:32.212000,-326.0,-194.0,242.0,-837.0,366.0,-163.0,0.0,0.0,0.0
19:43:32.217000,-333.0,-182.0,287.0,-837.0,366.0,-163.0,0.0,0.0,0.0
19:43:32.222000,-333.0,-171.0,338.0,-789.0,295.0,-166.0,0.0,0.0,0.0
19:43:32.226000,-326.0,-162.0,375.0,-789.0,295.0,-166.0,0.0,0.0,0.0
19:43:32.231000,-319.0,-154.0,407.0,-721.0,214.0,-173.0,0.0,0.0,0.0
19:43:32.236000,-317.0,-149.0,431.0,-721.0,214.0,-173.0,0.0,0.0,0.0
19:43:32.241000,-317.0,-147.0,438.0,-669.0,182.0,-174.0,0.0,0.0,0.0
19:43:32.245000,-318.0,-151.0,420.0,-669.0,182.0,-174.0,0.0,0.0,0.0
19:43:32.250000,-322.0,-156.0,385.0,-650.0,193.0,-164.0,0.0,0.0,0.0
19:43:32.255000,-327.0,-163.0,350.0,-650.0,193.0,-164.0,0.0,0.0,0.0
19:43:32.259000,-329.0,-172.0,323.0,-650.0,193.0,-164.0,0.0,0.0,0.0
19:43:32.264000,-329.0,-184.0,297.0,-637.0,184.0,-152.0,0.0,0.0,0.0
19:43:32.269000,-327.0,-194.0,273.0,-637.0,184.0,-152.0,0.0,0.0,0.0
19:43:32.273000,-321.0,-206.0,245.0,-636.0,154.0,-144.0,0.0,0.0,0.0
19:43:32.278000,-315.0,-216.0,221.0,-636.0,154.0,-144.0,0.0,0.0,0.0
19:43:32.283000,-308.0,-224.0,203.0,-645.0,135.0,-139.0,0.0,0.0,0.0
19:43:32.288000,-305.0,-229.0,195.0,-645.0,135.0,-139.0,0.0,0.0,0.0
19:43:32.292000,-301.0,-231.0,193.0,-660.0,137.0,-137.0,0.0,0.0,0.0
19:43:32.297000,-298.0,-228.0,190.0,-660.0,137.0,-137.0,0.0,0.0,0.0
19:43:32.302000,-301.0,-219.0,191.0,-687.0,153.0,-141.0,0.0,0.0,0.0
19:43:32.306000,-301.0,-219.0,191.0,-687.0,153.0,-141.0,0.0,0.0,0.0
19:43:32.311000,-304.0,-213.0,203.0,-712.0,171.0,-143.0,0.0,0.0,0.0
19:43:32.316000,-312.0,-207.0,221.0,-712.0,171.0,-143.0,0.0,0.0,0.0
19:43:32.320000,-316.0,-199.0,242.0,-721.0,178.0,-142.0,0.0,0.0,0.0
19:43:32.325000,-318.0,-193.0,261.0,-721.0,178.0,-142.0,0.0,0.0,0.0
19:43:32.330000,-322.0,-186.0,280.0,-710.0,176.0,-142.0,0.0,0.0,0.0
19:43:32.335000,-327.0,-180.0,303.0,-710.0,176.0,-142.0,0.0,0.0,0.0
19:43:32.339000,-333.0,-175.0,324.0,-685.0,164.0,-141.0,0.0,0.0,0.0
19:43:32.344000,-341.0,-175.0,343.0,-685.0,164.0,-141.0,0.0,0.0,0.0
19:43:32.349000,-347.0,-177.0,361.0,-656.0,143.0,-134.0,0.0,0.0,0.0
19:43:32.353000,-350.0,-182.0,375.0,-656.0,143.0,-134.0,0.0,0.0,0.0
19:43:32.358000,-347.0,-191.0,383.0,-630.0,112.0,-120.0,0.0,0.0,0.0
19:43:32.363000,-338.0,-204.0,386.0,-630.0,112.0,-120.0,0.0,0.0,0.0
19:43:32.367000,-321.0,-218.0,387.0,-630.0,112.0,-120.0,0.0,0.0,0.0
19:43:32.372000,-298.0,-233.0,389.0,-603.0,61.0,-101.0,0.0,0.0,0.0
19:43:32.377000,-272.0,-249.0,383.0,-603.0,61.0,-101.0,0.0,0.0,0.0
19:43:32.382000,-245.0,-265.0,373.0,-585.0,4.0,-82.0,0.0,0.0,0.0
19:43:32.386000,-219.0,-280.0,366.0,-585.0,4.0,-82.0,0.0,0.0,0.0
19:43:32.391000,-197.0,-288.0,358.0,-584.0,-28.0,-67.0,0.0,0.0,0.0
19:43:32.396000,-182.0,-294.0,345.0,-584.0,-28.0,-67.0,0.0,0.0,0.0
19:43:32.400000,-172.0,-296.0,331.0,-606.0,-16.0,-55.0,0.0,0.0,0.0
19:43:32.405000,-169.0,-294.0,317.0,-606.0,-16.0,-55.0,0.0,0.0,0.0
19:43:32.410000,-172.0,-291.0,305.0,-644.0,25.0,-46.0,0.0,0.0,0.0
19:43:32.414000,-172.0,-291.0,305.0,-644.0,25.0,-46.0,0.0,0.0,0.0
19:43:32.419000,-182.0,-288.0,297.0,-670.0,65.0,-35.0,0.0,0.0,0.0
19:43:32.424000,-196.0,-282.0,295.0,-670.0,65.0,-35.0,0.0,0.0,0.0
19:43:32.429000,-210.0,-275.0,295.0,-669.0,87.0,-26.0,0.0,0.0,0.0
19:43:32.433000,-224.0,-268.0,296.0,-669.0,87.0,-26.0,0.0,0.0,0.0
19:43:32.438000,-238.0,-264.0,298.0,-665.0,92.0,-20.0,0.0,0.0,0.0
19:43:32.443000,-250.0,-263.0,304.0,-665.0,92.0,-20.0,0.0,0.0,0.0
19:43:32.447000,-259.0,-263.0,314.0,-662.0,75.0,-14.0,0.0,0.0,0.0
19:43:32.452000,-263.0,-263.0,326.0,-662.0,75.0,-14.0,0.0,0.0,0.0
19:43:32.457000,-263.0,-262.0,333.0,-651.0,39.0,-10.0,0.0,0.0,0.0
19:43:32.461000,-259.0,-262.0,338.0,-651.0,39.0,-10.0,0.0,0.0,0.0
19:43:32.466000,-254.0,-261.0,336.0,-648.0,10.0,-8.0,0.0,0.0,0.0
19:43:32.471000,-245.0,-257.0,327.0,-648.0,10.0,-8.0,0.0,0.0,0.0
19:43:32.476000,-235.0,-252.0,315.0,-660.0,-2.0,-9.0,0.0,0.0,0.0
19:43:32.480000,-226.0,-244.0,305.0,-660.0,-2.0,-9.0,0.0,0.0,0.0
19:43:32.485000,-218.0,-233.0,298.0,-660.0,-2.0,-9.0,0.0,0.0,0.0
19:43:32.490000,-212.0,-220.0,295.0,-686.0,-1.0,-13.0,0.0,0.0,0.0
19:43:32.494000,-207.0,-203.0,291.0,-686.0,-1.0,-13.0,0.0,0.0,0.0
19:43:32.499000,-204.0,-186.0,287.0,-705.0,5.0,-16.0,0.0,0.0,0.0
19:43:32.504000,-202.0,-170.0,278.0,-705.0,5.0,-16.0,0.0,0.0,0.0
19:43:32.508000,-200.0,-154.0,269.0,-700.0,16.0,-18.0,0.0,0.0,0.0
19:43:32.513000,-196.0,-136.0,260.0,-700.0,16.0,-18.0,0.0,0.0,0.0
19:43:32.518000,-191.0,-123.0,248.0,-689.0,38.0,-30.0,0.0,0.0,0.0
19:43:32.523000,-186.0,-114.0,234.0,-689.0,38.0,-30.0,0.0,0.0,0.0
19:43:32.527000,-186.0,-114.0,234.0,-696.0,67.0,-46.0,0.0,0.0,0.0
19:43:32.532000,-179.0,-111.0,227.0,-696.0,67.0,-46.0,0.0,0.0,0.0
19:43:32.537000,-167.0,-108.0,231.0,-693.0,77.0,-60.0,0.0,0.0,0.0
19:43:32.541000,-151.0,-105.0,236.0,-693.0,77.0,-60.0,0.0,0.0,0.0
19:43:32.546000,-137.0,-102.0,239.0,-679.0,76.0,-72.0,0.0,0.0,0.0
19:43:32.551000,-126.0,-100.0,244.0,-679.0,76.0,-72.0,0.0,0.0,0.0
19:43:32.555000,-117.0,-97.0,251.0,-693.0,81.0,-81.0,0.0,0.0,0.0
19:43:32.560000,-109.0,-95.0,256.0,-693.0,81.0,-81.0,0.0,0.0,0.0
19:43:32.565000,-102.0,-93.0,254.0,-725.0,88.0,-91.0,0.0,0.0,0.0
19:43:32.570000,-94.0,-90.0,249.0,-725.0,88.0,-91.0,0.0,0.0,0.0
19:43:32.574000,-85.0,-90.0,245.0,-743.0,101.0,-102.0,0.0,0.0,0.0
19:43:32.579000,-74.0,-92.0,240.0,-743.0,101.0,-102.0,0.0,0.0,0.0
19:43:32.584000,-65.0,-93.0,240.0,-746.0,121.0,-110.0,0.0,0.0,0.0
19:43:32.588000,-60.0,-98.0,247.0,-746.0,121.0,-110.0,0.0,0.0,0.0
19:43:32.593000,-58.0,-102.0,263.0,-746.0,121.0,-110.0,0.0,0.0,0.0
19:43:32.598000,-56.0,-104.0,281.0,-755.0,140.0,-111.0,0.0,0.0,0.0
19:43:32.602000,-56.0,-108.0,296.0,-755.0,140.0,-111.0,0.0,0.0,0.0
19:43:32.607000,-63.0,-111.0,308.0,-768.0,151.0,-109.0,0.0,0.0,0.0
19:43:32.612000,-71.0,-108.0,319.0,-768.0,151.0,-109.0,0.0,0.0,0.0
19:43:32.617000,-80.0,-95.0,320.0,-785.0,157.0,-108.0,0.0,0.0,0.0
19:43:32.621000,-87.0,-77.0,315.0,-785.0,157.0,-108.0,0.0,0.0,0.0
19:43:32.626000,-92.0,-56.0,313.0,-837.0,144.0,-117.0,0.0,0.0,0.0
19:43:32.631000,-94.0,-34.0,322.0,-837.0,144.0,-117.0,0.0,0.0,0.0
19:43:32.635000,-94.0,-34.0,322.0,-920.0,103.0,-131.0,0.0,0.0,0.0
19:43:32.640000,-94.0,-14.0,336.0,-920.0,103.0,-131.0,0.0,0.0,0.0
19:43:32.645000,-92.0,6.0,346.0,-962.0,81.0,-138.0,0.0,0.0,0.0
19:43:32.649000,-91.0,25.0,345.0,-962.0,81.0,-138.0,0.0,0.0,0.0
19:43:32.654000,-91.0,42.0,337.0,-947.0,113.0,-135.0,0.0,0.0,0.0
19:43:32.659000,-92.0,55.0,327.0,-947.0,113.0,-135.0,0.0,0.0,0.0
19:43:32.664000,-94.0,64.0,322.0,-919.0,155.0,-129.0,0.0,0.0,0.0
19:43:32.668000,-95.0,68.0,324.0,-919.0,155.0,-129.0,0.0,0.0,0.0
19:43:32.673000,-94.0,69.0,329.0,-899.0,172.0,-127.0,0.0,0.0,0.0
19:43:32.678000,-93.0,65.0,332.0,-899.0,172.0,-127.0,0.0,0.0,0.0
19:43:32.682000,-93.0,59.0,336.0,-890.0,190.0,-127.0,0.0,0.0,0.0
19:43:32.687000,-95.0,50.0,347.0,-890.0,190.0,-127.0,0.0,0.0,0.0
19:43:32.692000,-93.0,39.0,364.0,-878.0,197.0,-127.0,0.0,0.0,0.0
19:43:32.696000,-88.0,30.0,372.0,-878.0,197.0,-127.0,0.0,0.0,0.0
19:43:32.701000,-81.0,25.0,366.0,-878.0,197.0,-127.0,0.0,0.0,0.0
19:43:32.706000,-73.0,23.0,349.0,-872.0,197.0,-132.0,0.0,0.0,0.0
19:43:32.711000,-69.0,23.0,324.0,-899.0,212.0,-139.0,0.0,0.0,0.0
19:43:32.715000,-65.0,22.0,297.0,-899.0,212.0,-139.0,0.0,0.0,0.0
19:43:32.720000,-62.0,21.0,268.0,-899.0,212.0,-139.0,0.0,0.0,0.0
19:43:32.725000,-62.0,21.0,237.0,-945.0,230.0,-145.0,0.0,0.0,0.0
19:43:32.729000,-67.0,21.0,203.0,-945.0,230.0,-145.0,0.0,0.0,0.0
19:43:32.734000,-76.0,25.0,171.0,-979.0,264.0,-148.0,0.0,0.0,0.0
19:43:32.739000,-89.0,30.0,145.0,-979.0,264.0,-148.0,0.0,0.0,0.0
19:43:32.743000,-89.0,30.0,145.0,-993.0,298.0,-148.0,0.0,0.0,0.0
19:43:32.748000,-98.0,36.0,130.0,-993.0,298.0,-148.0,0.0,0.0,0.0
19:43:32.753000,-109.0,39.0,109.0,-969.0,314.0,-146.0,0.0,0.0,0.0
19:43:32.758000,-116.0,42.0,80.0,-969.0,314.0,-146.0,0.0,0.0,0.0
19:43:32.762000,-123.0,40.0,47.0,-935.0,343.0,-141.0,0.0,0.0,0.0
19:43:32.767000,-134.0,36.0,17.0,-935.0,343.0,-141.0,0.0,0.0,0.0
19:43:32.772000,-132.0,28.0,1.0,-923.0,341.0,-136.0,0.0,0.0,0.0
19:43:32.776000,-119.0,18.0,-30.0,-923.0,341.0,-136.0,0.0,0.0,0.0
19:43:32.781000,-109.0,9.0,-77.0,-955.0,336.0,-136.0,0.0,0.0,0.0
19:43:32.786000,-105.0,-2.0,-112.0,-955.0,336.0,-136.0,0.0,0.0,0.0
19:43:32.790000,-110.0,-18.0,-131.0,-1012.0,353.0,-122.0,0.0,0.0,0.0
19:43:32.795000,-116.0,-34.0,-114.0,-1012.0,353.0,-122.0,0.0,0.0,0.0
19:43:32.800000,-109.0,-43.0,-84.0,-1007.0,317.0,-122.0,0.0,0.0,0.0
19:43:32.805000,-101.0,-47.0,-105.0,-1007.0,317.0,-122.0,0.0,0.0,0.0
19:43:32.809000,-107.0,-58.0,-142.0,-1007.0,317.0,-122.0,0.0,0.0,0.0
19:43:32.814000,-126.0,-72.0,-143.0,-1033.0,342.0,-128.0,0.0,0.0,0.0
19:43:32.819000,-155.0,-86.0,-135.0,-1033.0,342.0,-128.0,0.0,0.0,0.0
19:43:32.823000,-174.0,-93.0,-141.0,-1085.0,417.0,-120.0,0.0,0.0,0.0
19:43:32.828000,-210.0,-103.0,-159.0,-1085.0,417.0,-120.0,0.0,0.0,0.0
19:43:32.833000,-246.0,-113.0,-165.0,-1102.0,469.0,-121.0,0.0,0.0,0.0
19:43:32.837000,-279.0,-126.0,-170.0,-1102.0,469.0,-121.0,0.0,0.0,0.0
19:43:32.842000,-279.0,-126.0,-170.0,-1142.0,518.0,-121.0,0.0,0.0,0.0
19:43:32.847000,-359.0,-147.0,-183.0,-1142.0,518.0,-121.0,0.0,0.0,0.0
19:43:32.852000,-359.0,-147.0,-183.0,-1218.0,540.0,-120.0,0.0,0.0,0.0
19:43:32.856000,-394.0,-161.0,-238.0,-1218.0,540.0,-120.0,0.0,0.0,0.0
19:43:32.861000,-494.0,-193.0,-218.0,-1289.0,529.0,-94.0,0.0,0.0,0.0
19:43:32.866000,-557.0,-217.0,-151.0,-1289.0,529.0,-94.0,0.0,0.0,0.0
19:43:32.870000,-583.0,-249.0,-407.0,-1465.0,498.0,-85.0,0.0,0.0,0.0
19:43:32.875000,-603.0,-253.0,-294.0,-1465.0,498.0,-85.0,0.0,0.0,0.0
19:43:32.880000,-688.0,-259.0,75.0,-1262.0,496.0,-70.0,0.0,0.0,0.0
19:43:32.884000,-754.0,-290.0,23.0,-1262.0,496.0,-70.0,0.0,0.0,0.0
19:43:32.889000,-807.0,-333.0,-214.0,-1084.0,534.0,-33.0,0.0,0.0,0.0
19:43:32.894000,-857.0,-363.0,-308.0,-1084.0,534.0,-33.0,0.0,0.0,0.0
19:43:32.899000,-900.0,-393.0,-316.0,-1280.0,441.0,-32.0,0.0,0.0,0.0
19:43:32.903000,-961.0,-429.0,-297.0,-1280.0,441.0,-32.0,0.0,0.0,0.0
19:43:32.908000,-1013.0,-477.0,-256.0,-1298.0,309.0,-28.0,0.0,0.0,0.0
19:43:32.913000,-1069.0,-529.0,-231.0,-1298.0,309.0,-28.0,0.0,0.0,0.0
19:43:32.917000,-1136.0,-585.0,-226.0,-1298.0,309.0,-28.0,0.0,0.0,0.0
19:43:32.922000,-1196.0,-636.0,-237.0,-1260.0,299.0,-9.0,0.0,0.0,0.0
19:43:32.927000,-1266.0,-686.0,-231.0,-1260.0,299.0,-9.0,0.0,0.0,0.0
19:43:32.931000,-1334.0,-739.0,-214.0,-1164.0,284.0,15.0,0.0,0.0,0.0
19:43:32.936000,-1392.0,-793.0,-214.0,-1164.0,284.0,15.0,0.0,0.0,0.0
19:43:32.940000,-1449.0,-844.0,-251.0,-1100.0,204.0,35.0,0.0,0.0,0.0
19:43:32.946000,-1511.0,-896.0,-308.0,-1100.0,204.0,35.0,0.0,0.0,0.0
19:43:32.950000,-1573.0,-952.0,-338.0,-1114.0,142.0,65.0,0.0,0.0,0.0
19:43:32.955000,-1629.0,-1006.0,-337.0,-1114.0,142.0,65.0,0.0,0.0,0.0
19:43:32.960000,-1673.0,-1066.0,-373.0,-1100.0,84.0,105.0,0.0,0.0,0.0
19:43:32.964000,-1673.0,-1066.0,-373.0,-1100.0,84.0,105.0,0.0,0.0,0.0
19:43:32.969000,-1721.0,-1127.0,-462.0,-1066.0,42.0,165.0,0.0,0.0,0.0
19:43:32.974000,-1773.0,-1173.0,-548.0,-1066.0,42.0,165.0,0.0,0.0,0.0
19:43:32.978000,-1833.0,-1206.0,-584.0,-1045.0,52.0,219.0,0.0,0.0,0.0
19:43:32.983000,-1880.0,-1238.0,-604.0,-1045.0,52.0,219.0,0.0,0.0,0.0
19:43:32.988000,-1914.0,-1266.0,-644.0,-1017.0,31.0,232.0,0.0,0.0,0.0
19:43:32.993000,-1955.0,-1292.0,-710.0,-1017.0,31.0,232.0,0.0,0.0,0.0
19:43:32.997000,-2007.0,-1317.0,-786.0,-1060.0,62.0,250.0,0.0,0.0,0.0
19:43:33.002000,-2068.0,-1330.0,-816.0,-1060.0,62.0,250.0,0.0,0.0,0.0
19:43:33.007000,-2139.0,-1350.0,-805.0,-1080.0,136.0,295.0,0.0,0.0,0.0
19:43:33.011000,-2227.0,-1372.0,-804.0,-1080.0,136.0,295.0,0.0,0.0,0.0
19:43:33.016000,-2202.0,-1400.0,-847.0,-1052.0,153.0,319.0,0.0,0.0,0.0
19:43:33.021000,-2264.0,-1416.0,-846.0,-1052.0,153.0,319.0,0.0,0.0,0.0
19:43:33.025000,-2287.0,-1436.0,-851.0,-1052.0,153.0,319.0,0.0,0.0,0.0
19:43:33.030000,-2314.0,-1459.0,-892.0,-1045.0,123.0,345.0,0.0,0.0,0.0
19:43:33.035000,-2338.0,-1464.0,-913.0,-1045.0,123.0,345.0,0.0,0.0,0.0
19:43:33.040000,-2354.0,-1474.0,-899.0,-1010.0,121.0,390.0,0.0,0.0,0.0
19:43:33.044000,-2390.0,-1495.0,-910.0,-1010.0,121.0,390.0,0.0,0.0,0.0
19:43:33.049000,-2409.0,-1512.0,-974.0,-1013.0,155.0,457.0,0.0,0.0,0.0
19:43:33.054000,-2405.0,-1508.0,-986.0,-1013.0,155.0,457.0,0.0,0.0,0.0
19:43:33.058000,-2403.0,-1498.0,-953.0,-1023.0,181.0,506.0,0.0,0.0,0.0
19:43:33.063000,-2415.0,-1500.0,-998.0,-1023.0,181.0,506.0,0.0,0.0,0.0
19:43:33.068000,-2402.0,-1487.0,-1085.0,-1070.0,197.0,535.0,0.0,0.0,0.0
19:43:33.072000,-2402.0,-1487.0,-1085.0,-1070.0,197.0,535.0,0.0,0.0,0.0
19:43:33.077000,-2391.0,-1472.0,-1088.0,-1141.0,196.0,580.0,0.0,0.0,0.0
19:43:33.082000,-2388.0,-1446.0,-1098.0,-1141.0,196.0,580.0,0.0,0.0,0.0
19:43:33.087000,-2375.0,-1401.0,-1065.0,-1128.0,193.0,607.0,0.0,0.0,0.0
19:43:33.091000,-2385.0,-1373.0,-1013.0,-1128.0,193.0,607.0,0.0,0.0,0.0
19:43:33.096000,-2371.0,-1320.0,-1011.0,-1148.0,194.0,616.0,0.0,0.0,0.0
19:43:33.101000,-2328.0,-1238.0,-972.0,-1148.0,194.0,616.0,0.0,0.0,0.0
19:43:33.105000,-2356.0,-1184.0,-890.0,-1079.0,220.0,621.0,0.0,0.0,0.0
19:43:33.110000,-2345.0,-1122.0,-877.0,-1079.0,220.0,621.0,0.0,0.0,0.0
19:43:33.115000,-2352.0,-1099.0,-882.0,-1164.0,226.0,641.0,0.0,0.0,0.0
19:43:33.119000,-2363.0,-1057.0,-882.0,-1164.0,226.0,641.0,0.0,0.0,0.0
19:43:33.124000,-2322.0,-994.0,-835.0,-1218.0,248.0,621.0,0.0,0.0,0.0
19:43:33.129000,-2328.0,-949.0,-800.0,-1218.0,248.0,621.0,0.0,0.0,0.0
19:43:33.134000,-2335.0,-911.0,-828.0,-1218.0,248.0,621.0,0.0,0.0,0.0
19:43:33.138000,-2321.0,-882.0,-856.0,-1118.0,356.0,590.0,0.0,0.0,0.0
19:43:33.143000,-2280.0,-858.0,-821.0,-1118.0,356.0,590.0,0.0,0.0,0.0
19:43:33.148000,-2239.0,-837.0,-778.0,-1185.0,377.0,576.0,0.0,0.0,0.0
19:43:33.152000,-2186.0,-822.0,-758.0,-1185.0,377.0,576.0,0.0,0.0,0.0
19:43:33.157000,-2127.0,-806.0,-701.0,-1225.0,336.0,556.0,0.0,0.0,0.0
19:43:33.162000,-2061.0,-788.0,-616.0,-1225.0,336.0,556.0,0.0,0.0,0.0
19:43:33.166000,-1976.0,-746.0,-640.0,-1227.0,345.0,544.0,0.0,0.0,0.0
19:43:33.171000,-1907.0,-731.0,-707.0,-1227.0,345.0,544.0,0.0,0.0,0.0
19:43:33.176000,-1857.0,-701.0,-733.0,-1096.0,432.0,552.0,0.0,0.0,0.0
19:43:33.181000,-1857.0,-701.0,-733.0,-1096.0,432.0,552.0,0.0,0.0,0.0
19:43:33.185000,-1810.0,-676.0,-627.0,-1001.0,451.0,551.0,0.0,0.0,0.0
19:43:33.190000,-1743.0,-655.0,-536.0,-1001.0,451.0,551.0,0.0,0.0,0.0
19:43:33.195000,-1687.0,-634.0,-522.0,-1117.0,453.0,517.0,0.0,0.0,0.0
19:43:33.199000,-1636.0,-618.0,-494.0,-1117.0,453.0,517.0,0.0,0.0,0.0
19:43:33.204000,-1591.0,-608.0,-390.0,-1127.0,458.0,502.0,0.0,0.0,0.0
19:43:33.209000,-1526.0,-578.0,-290.0,-1127.0,458.0,502.0,0.0,0.0,0.0
19:43:33.213000,-1453.0,-540.0,-250.0,-1042.0,394.0,485.0,0.0,0.0,0.0
19:43:33.218000,-1373.0,-494.0,-254.0,-1042.0,394.0,485.0,0.0,0.0,0.0
19:43:33.223000,-1309.0,-448.0,-262.0,-1054.0,429.0,456.0,0.0,0.0,0.0
19:43:33.228000,-1259.0,-408.0,-239.0,-1054.0,429.0,456.0,0.0,0.0,0.0
19:43:33.232000,-1213.0,-367.0,-199.0,-1054.0,454.0,453.0,0.0,0.0,0.0
19:43:33.237000,-1167.0,-321.0,-171.0,-1054.0,454.0,453.0,0.0,0.0,0.0
19:43:33.242000,-1122.0,-276.0,-172.0,-1054.0,460.0,440.0,0.0,0.0,0.0
19:43:33.246000,-1094.0,-233.0,-199.0,-991.0,460.0,440.0,0.0,0.0,0.0
19:43:33.251000,-1073.0,-194.0,-220.0,-991.0,460.0,440.0,0.0,0.0,0.0
19:43:33.256000,-1054.0,-160.0,-227.0,-945.0,528.0,415.0,0.0,0.0,0.0
19:43:33.260000,-1036.0,-129.0,-224.0,-945.0,528.0,415.0,0.0,0.0,0.0
19:43:33.265000,-1010.0,-104.0,-218.0,-911.0,553.0,393.0,0.0,0.0,0.0
19:43:33.270000,-982.0,-81.0,-223.0,-911.0,553.0,393.0,0.0,0.0,0.0
19:43:33.275000,-956.0,-67.0,-240.0,-863.0,522.0,357.0,0.0,0.0,0.0
19:43:33.279000,-935.0,-59.0,-248.0,-863.0,522.0,357.0,0.0,0.0,0.0
19:43:33.284000,-916.0,-56.0,-239.0,-838.0,528.0,321.0,0.0,0.0,0.0
19:43:33.289000,-916.0,-56.0,-239.0,-838.0,528.0,321.0,0.0,0.0,0.0
19:43:33.293000,-897.0,-55.0,-226.0,-820.0,544.0,297.0,0.0,0.0,0.0
19:43:33.298000,-879.0,-55.0,-208.0,-820.0,544.0,297.0,0.0,0.0,0.0
19:43:33.303000,-863.0,-58.0,-196.0,-808.0,544.0,272.0,0.0,0.0,0.0
19:43:33.307000,-848.0,-63.0,-202.0,-808.0,544.0,272.0,0.0,0.0,0.0
19:43:33.312000,-836.0,-68.0,-211.0,-823.0,556.0,245.0,0.0,0.0,0.0
19:43:33.317000,-824.0,-72.0,-217.0,-823.0,556.0,245.0,0.0,0.0,0.0
19:43:33.322000,-812.0,-74.0,-222.0,-833.0,561.0,218.0,0.0,0.0,0.0
19:43:33.326000,-798.0,-74.0,-232.0,-833.0,561.0,218.0,0.0,0.0,0.0
19:43:33.331000,-779.0,-75.0,-242.0,-841.0,534.0,189.0,0.0,0.0,0.0
19:43:33.336000,-759.0,-77.0,-252.0,-841.0,534.0,189.0,0.0,0.0,0.0
19:43:33.340000,-741.0,-77.0,-259.0,-853.0,502.0,160.0,0.0,0.0,0.0
19:43:33.345000,-728.0,-74.0,-263.0,-853.0,502.0,160.0,0.0,0.0,0.0
19:43:33.350000,-718.0,-71.0,-270.0,-859.0,502.0,137.0,0.0,0.0,0.0
19:43:33.354000,-716.0,-66.0,-277.0,-859.0,502.0,137.0,0.0,0.0,0.0
19:43:33.359000,-718.0,-60.0,-284.0,-859.0,502.0,137.0,0.0,0.0,0.0
19:43:33.364000,-722.0,-53.0,-289.0,-859.0,525.0,124.0,0.0,0.0,0.0
19:43:33.369000,-725.0,-48.0,-299.0,-859.0,525.0,124.0,0.0,0.0,0.0
19:43:33.373000,-730.0,-42.0,-315.0,-841.0,530.0,117.0,0.0,0.0,0.0
19:43:33.378000,-737.0,-34.0,-324.0,-841.0,530.0,117.0,0.0,0.0,0.0
19:43:33.382000,-749.0,-23.0,-330.0,-804.0,530.0,110.0,0.0,0.0,0.0
19:43:33.387000,-763.0,-9.0,-338.0,-804.0,530.0,110.0,0.0,0.0,0.0
19:43:33.392000,-781.0,8.0,-347.0,-780.0,553.0,103.0,0.0,0.0,0.0
19:43:33.397000,-798.0,28.0,-350.0,-780.0,553.0,103.0,0.0,0.0,0.0
19:43:33.401000,-798.0,28.0,-350.0,-772.0,564.0,87.0,0.0,0.0,0.0
19:43:33.406000,-809.0,49.0,-350.0,-772.0,564.0,87.0,0.0,0.0,0.0
19:43:33.411000,-819.0,70.0,-355.0,-762.0,558.0,60.0,0.0,0.0,0.0
19:43:33.416000,-828.0,91.0,-357.0,-762.0,558.0,60.0,0.0,0.0,0.0
19:43:33.420000,-833.0,108.0,-352.0,-741.0,559.0,34.0,0.0,0.0,0.0
19:43:33.425000,-833.0,119.0,-345.0,-741.0,559.0,34.0,0.0,0.0,0.0
19:43:33.430000,-826.0,128.0,-338.0,-701.0,547.0,12.0,0.0,0.0,0.0
19:43:33.434000,-818.0,134.0,-331.0,-701.0,547.0,12.0,0.0,0.0,0.0
19:43:33.439000,-809.0,139.0,-326.0,-674.0,541.0,-2.0,0.0,0.0,0.0
19:43:33.444000,-803.0,144.0,-319.0,-674.0,541.0,-2.0,0.0,0.0,0.0
19:43:33.448000,-801.0,148.0,-310.0,-662.0,559.0,-14.0,0.0,0.0,0.0
19:43:33.453000,-799.0,150.0,-296.0,-662.0,559.0,-14.0,0.0,0.0,0.0
19:43:33.458000,-795.0,150.0,-284.0,-639.0,588.0,-28.0,0.0,0.0,0.0
19:43:33.463000,-790.0,147.0,-284.0,-639.0,588.0,-28.0,0.0,0.0,0.0
19:43:33.467000,-784.0,138.0,-287.0,-639.0,588.0,-28.0,0.0,0.0,0.0
19:43:33.472000,-777.0,126.0,-294.0,-624.0,627.0,-45.0,0.0,0.0,0.0
19:43:33.477000,-770.0,109.0,-301.0,-624.0,627.0,-45.0,0.0,0.0,0.0
19:43:33.481000,-768.0,91.0,-310.0,-636.0,676.0,-56.0,0.0,0.0,0.0
19:43:33.486000,-771.0,73.0,-322.0,-636.0,676.0,-56.0,0.0,0.0,0.0
19:43:33.491000,-780.0,53.0,-334.0,-645.0,733.0,-51.0,0.0,0.0,0.0
19:43:33.495000,-795.0,29.0,-341.0,-645.0,733.0,-51.0,0.0,0.0,0.0
19:43:33.500000,-814.0,0.0,-346.0,-630.0,793.0,-31.0,0.0,0.0,0.0
19:43:33.505000,-835.0,-37.0,-355.0,-630.0,793.0,-31.0,0.0,0.0,0.0
19:43:33.510000,-835.0,-37.0,-355.0,-592.0,840.0,-1.0,0.0,0.0,0.0
19:43:33.514000,-856.0,-79.0,-367.0,-592.0,840.0,-1.0,0.0,0.0,0.0
19:43:33.519000,-878.0,-127.0,-378.0,-542.0,863.0,33.0,0.0,0.0,0.0
19:43:33.524000,-900.0,-180.0,-388.0,-542.0,863.0,33.0,0.0,0.0,0.0
