hh:mm:ss.ms,gyroX[mdps],gyroY[mdps],gyroZ[mdps],accX[mg],accY[mg],accZ[mg],magX[mG],magY[mG],magZ[mG]
19:39:39.797000,-2277.0,-924.0,-1443.0,-1203.0,1565.0,-572.0,114.0,-330.0,487.0
19:39:39.802000,-2440.0,-963.0,-1510.0,-1152.0,1678.0,-732.0,114.0,-330.0,487.0
19:39:39.807000,-2384.0,-961.0,-1486.0,-915.0,1458.0,-826.0,127.0,-352.0,487.0
19:39:39.811000,-2329.0,-906.0,-1598.0,-897.0,1253.0,-844.0,127.0,-352.0,487.0
19:39:39.815000,-2279.0,-934.0,-1702.0,-837.0,1226.0,-842.0,127.0,-352.0,487.0
19:39:39.821000,-2291.0,-989.0,-1687.0,-749.0,1178.0,-801.0,132.0,-354.0,502.0
19:39:39.825000,-2354.0,-1070.0,-1570.0,-878.0,1258.0,-842.0,132.0,-354.0,502.0
19:39:39.829000,-2321.0,-1092.0,-1603.0,-994.0,1333.0,-910.0,127.0,-382.0,498.0
19:39:39.835000,-2309.0,-1091.0,-1626.0,-878.0,1294.0,-861.0,127.0,-382.0,498.0
19:39:39.839000,-2340.0,-1163.0,-1623.0,-846.0,1247.0,-822.0,127.0,-382.0,498.0
19:39:39.844000,-2349.0,-1229.0,-1719.0,-912.0,1203.0,-834.0,129.0,-397.0,493.0
19:39:39.849000,-2354.0,-1292.0,-1794.0,-873.0,1156.0,-857.0,129.0,-397.0,493.0
19:39:39.854000,-2366.0,-1332.0,-1807.0,-873.0,1156.0,-857.0,138.0,-421.0,501.0
19:39:39.858000,-2415.0,-1395.0,-1802.0,-770.0,1126.0,-810.0,138.0,-421.0,501.0
19:39:39.862000,-2404.0,-1337.0,-1792.0,-887.0,947.0,-779.0,138.0,-421.0,501.0
19:39:39.868000,-2366.0,-1227.0,-1183.0,-900.0,352.0,-878.0,154.0,-465.0,511.0
19:39:39.872000,-2358.0,-1205.0,-860.0,-902.0,-6.0,-887.0,154.0,-465.0,511.0
19:39:39.877000,-2341.0,-1161.0,-1134.0,-1069.0,365.0,-833.0,162.0,-483.0,502.0
19:39:39.882000,-2337.0,-1106.0,-1236.0,-798.0,695.0,-848.0,162.0,-483.0,502.0
19:39:39.886000,-2352.0,-1132.0,-1102.0,-330.0,533.0,-767.0,162.0,-483.0,502.0
19:39:39.891000,-2388.0,-1115.0,-1103.0,-244.0,258.0,-695.0,178.0,-486.0,498.0
19:39:39.896000,-2348.0,-1098.0,-1139.0,-228.0,122.0,-728.0,178.0,-486.0,498.0
19:39:39.901000,-2328.0,-1103.0,-1125.0,-121.0,-68.0,-652.0,186.0,-504.0,504.0
19:39:39.905000,-2328.0,-1103.0,-1125.0,-99.0,-274.0,-628.0,186.0,-504.0,504.0
19:39:39.913000,-2360.0,-1061.0,-1146.0,97.0,-490.0,-562.0,199.0,-528.0,498.0
19:39:39.915000,-2360.0,-1061.0,-1146.0,97.0,-490.0,-562.0,199.0,-528.0,498.0
19:39:39.919000,-2387.0,-1071.0,-1316.0,202.0,-392.0,-581.0,199.0,-528.0,498.0
19:39:39.924000,-2305.0,-1039.0,-1530.0,241.0,-379.0,-576.0,198.0,-543.0,489.0
19:39:39.929000,-2280.0,-1036.0,-1602.0,320.0,-409.0,-576.0,198.0,-543.0,489.0
19:39:39.933000,-2157.0,-1018.0,-1628.0,251.0,-343.0,-621.0,220.0,-555.0,486.0
19:39:39.938000,-2082.0,-1001.0,-1825.0,189.0,-212.0,-653.0,220.0,-555.0,486.0
19:39:39.942000,-2020.0,-974.0,-2053.0,236.0,-163.0,-650.0,220.0,-555.0,486.0
19:39:39.948000,-1991.0,-952.0,-2100.0,262.0,-169.0,-641.0,229.0,-589.0,480.0
19:39:39.952000,-1981.0,-980.0,-2060.0,186.0,-35.0,-659.0,229.0,-589.0,480.0
19:39:39.957000,-2053.0,-956.0,-2266.0,186.0,-35.0,-659.0,241.0,-597.0,477.0
19:39:39.962000,-2179.0,-935.0,-2394.0,66.0,-43.0,-690.0,241.0,-597.0,477.0
19:39:39.966000,-2205.0,-989.0,-2422.0,66.0,-212.0,-690.0,241.0,-597.0,477.0
19:39:39.971000,-2198.0,-953.0,-2422.0,178.0,-212.0,-744.0,262.0,-615.0,460.0
19:39:39.976000,-2128.0,-1015.0,-2213.0,304.0,-318.0,-778.0,262.0,-615.0,460.0
19:39:39.980000,-2109.0,-1068.0,-1985.0,286.0,-437.0,-747.0,273.0,-616.0,460.0
19:39:39.985000,-2076.0,-1056.0,-2181.0,177.0,-174.0,-808.0,273.0,-616.0,460.0
19:39:39.989000,-2135.0,-1117.0,-2200.0,101.0,-123.0,-807.0,273.0,-616.0,460.0
19:39:39.995000,-2209.0,-1172.0,-2068.0,141.0,-394.0,-817.0,297.0,-642.0,454.0
19:39:39.999000,-2090.0,-1279.0,-2015.0,209.0,-419.0,-859.0,297.0,-642.0,454.0
19:39:40.004000,-1920.0,-1378.0,-1955.0,185.0,-556.0,-845.0,297.0,-642.0,454.0
19:39:40.009000,-1843.0,-1372.0,-1841.0,123.0,-780.0,-914.0,297.0,-642.0,454.0
19:39:40.013000,-1843.0,-1372.0,-1841.0,119.0,-811.0,-964.0,297.0,-642.0,454.0
19:39:40.018000,-1762.0,-1416.0,-1690.0,77.0,-835.0,-916.0,345.0,-652.0,417.0
19:39:40.023000,-1745.0,-1483.0,-1586.0,87.0,-700.0,-938.0,345.0,-652.0,417.0
19:39:40.027000,-1707.0,-1514.0,-1503.0,91.0,-565.0,-947.0,354.0,-652.0,415.0
19:39:40.032000,-1648.0,-1538.0,-1347.0,36.0,-549.0,-933.0,354.0,-652.0,415.0
19:39:40.036000,-1605.0,-1579.0,-1199.0,34.0,-529.0,-926.0,354.0,-652.0,415.0
19:39:40.042000,-1586.0,-1623.0,-1183.0,26.0,-546.0,-923.0,352.0,-661.0,399.0
19:39:40.046000,-1519.0,-1654.0,-1234.0,20.0,-562.0,-945.0,352.0,-661.0,399.0
19:39:40.051000,-1451.0,-1634.0,-1247.0,-23.0,-670.0,-942.0,372.0,-670.0,384.0
19:39:40.056000,-1410.0,-1656.0,-1177.0,-63.0,-792.0,-899.0,372.0,-670.0,384.0
19:39:40.060000,-1403.0,-1689.0,-1057.0,-192.0,-839.0,-910.0,372.0,-670.0,384.0
19:39:40.065000,-1365.0,-1675.0,-1097.0,-276.0,-731.0,-942.0,399.0,-667.0,370.0
19:39:40.070000,-1305.0,-1669.0,-1221.0,-272.0,-699.0,-933.0,399.0,-667.0,370.0
19:39:40.074000,-1210.0,-1673.0,-1290.0,-149.0,-714.0,-939.0,402.0,-669.0,370.0
19:39:40.079000,-1141.0,-1695.0,-1148.0,-149.0,-714.0,-939.0,402.0,-669.0,370.0
19:39:40.083000,-1092.0,-1724.0,-1110.0,-108.0,-653.0,-899.0,402.0,-669.0,370.0
19:39:40.089000,-1029.0,-1758.0,-1314.0,-316.0,-518.0,-895.0,417.0,-667.0,342.0
19:39:40.093000,-1033.0,-1738.0,-1510.0,-467.0,-451.0,-889.0,417.0,-667.0,342.0
19:39:40.098000,-1099.0,-1716.0,-1254.0,-256.0,-815.0,-842.0,438.0,-660.0,333.0
19:39:40.103000,-1122.0,-1712.0,-888.0,88.0,-1157.0,-820.0,438.0,-660.0,333.0
19:39:40.107000,-1150.0,-1659.0,-866.0,60.0,-1127.0,-828.0,438.0,-660.0,333.0
19:39:40.111000,-1150.0,-1659.0,-866.0,-179.0,-879.0,-848.0,444.0,-667.0,310.0
19:39:40.121000,-1168.0,-1619.0,-1194.0,-603.0,-546.0,-835.0,459.0,-667.0,325.0
19:39:40.126000,-1085.0,-1635.0,-1396.0,-616.0,-541.0,-872.0,459.0,-667.0,325.0
19:39:40.130000,-983.0,-1585.0,-1468.0,-467.0,-660.0,-867.0,459.0,-667.0,325.0
19:39:40.136000,-910.0,-1591.0,-1406.0,-363.0,-744.0,-831.0,457.0,-652.0,297.0
19:39:40.140000,-901.0,-1578.0,-1272.0,-335.0,-786.0,-803.0,457.0,-652.0,297.0
19:39:40.145000,-924.0,-1553.0,-1191.0,-377.0,-696.0,-793.0,474.0,-666.0,280.0
19:39:40.150000,-941.0,-1544.0,-1196.0,-428.0,-631.0,-766.0,474.0,-666.0,280.0
19:39:40.154000,-962.0,-1567.0,-1215.0,-465.0,-652.0,-753.0,474.0,-666.0,280.0
19:39:40.159000,-983.0,-1577.0,-1229.0,-514.0,-702.0,-746.0,496.0,-651.0,271.0
19:39:40.164000,-992.0,-1576.0,-1216.0,-574.0,-695.0,-767.0,496.0,-651.0,271.0
19:39:40.168000,-951.0,-1582.0,-1138.0,-618.0,-651.0,-786.0,496.0,-648.0,261.0
19:39:40.173000,-902.0,-1575.0,-1044.0,-667.0,-642.0,-769.0,496.0,-648.0,261.0
19:39:40.177000,-856.0,-1584.0,-1004.0,-704.0,-615.0,-762.0,496.0,-648.0,261.0
19:39:40.183000,-783.0,-1564.0,-1050.0,-675.0,-616.0,-744.0,508.0,-649.0,252.0
19:39:40.187000,-789.0,-1528.0,-1117.0,-675.0,-616.0,-744.0,508.0,-649.0,252.0
19:39:40.192000,-819.0,-1500.0,-1142.0,-593.0,-654.0,-691.0,508.0,-645.0,240.0
19:39:40.197000,-852.0,-1456.0,-1208.0,-573.0,-685.0,-660.0,508.0,-645.0,240.0
19:39:40.204000,-842.0,-1435.0,-1254.0,-652.0,-741.0,-653.0,528.0,-643.0,216.0
19:39:40.206000,-815.0,-1400.0,-1229.0,-652.0,-741.0,-653.0,528.0,-643.0,216.0
19:39:40.210000,-777.0,-1381.0,-1125.0,-718.0,-839.0,-656.0,528.0,-643.0,216.0
19:39:40.215000,-735.0,-1388.0,-1099.0,-798.0,-782.0,-641.0,529.0,-637.0,213.0
19:39:40.220000,-680.0,-1369.0,-1207.0,-872.0,-583.0,-642.0,529.0,-637.0,213.0
19:39:40.225000,-644.0,-1308.0,-1334.0,-871.0,-461.0,-649.0,526.0,-631.0,205.0
19:39:40.230000,-606.0,-1276.0,-1338.0,-807.0,-450.0,-636.0,526.0,-631.0,205.0
19:39:40.234000,-606.0,-1276.0,-1338.0,-759.0,-515.0,-608.0,526.0,-631.0,205.0
19:39:40.239000,-574.0,-1261.0,-1320.0,-764.0,-572.0,-584.0,541.0,-612.0,190.0
19:39:40.244000,-574.0,-1228.0,-1339.0,-715.0,-527.0,-561.0,541.0,-612.0,190.0
19:39:40.248000,-609.0,-1197.0,-1259.0,-661.0,-444.0,-531.0,538.0,-612.0,181.0
19:39:40.253000,-662.0,-1161.0,-1169.0,-698.0,-363.0,-514.0,538.0,-612.0,181.0
19:39:40.257000,-704.0,-1130.0,-1177.0,-733.0,-359.0,-511.0,538.0,-612.0,181.0
19:39:40.262000,-701.0,-1122.0,-1183.0,-706.0,-444.0,-505.0,555.0,-598.0,177.0
19:39:40.267000,-681.0,-1116.0,-1109.0,-722.0,-514.0,-503.0,555.0,-598.0,177.0
19:39:40.272000,-640.0,-1106.0,-1022.0,-783.0,-500.0,-494.0,556.0,-600.0,171.0
19:39:40.277000,-635.0,-1082.0,-1005.0,-824.0,-430.0,-471.0,556.0,-600.0,171.0
19:39:40.281000,-638.0,-1073.0,-1047.0,-823.0,-420.0,-470.0,556.0,-600.0,171.0
19:39:40.286000,-602.0,-1059.0,-1078.0,-811.0,-483.0,-472.0,555.0,-595.0,160.0
19:39:40.291000,-567.0,-1045.0,-1080.0,-809.0,-579.0,-467.0,555.0,-595.0,160.0
19:39:40.295000,-520.0,-1033.0,-1004.0,-809.0,-579.0,-467.0,567.0,-582.0,156.0
19:39:40.300000,-471.0,-1028.0,-967.0,-822.0,-624.0,-465.0,567.0,-582.0,156.0
19:39:40.304000,-443.0,-1014.0,-1005.0,-844.0,-578.0,-457.0,567.0,-582.0,156.0
19:39:40.309000,-427.0,-1011.0,-996.0,-846.0,-498.0,-444.0,570.0,-579.0,145.0
19:39:40.314000,-429.0,-989.0,-1015.0,-824.0,-418.0,-428.0,570.0,-579.0,145.0
19:39:40.319000,-424.0,-976.0,-1022.0,-794.0,-377.0,-416.0,577.0,-565.0,133.0
19:39:40.324000,-421.0,-956.0,-968.0,-784.0,-420.0,-408.0,577.0,-565.0,133.0
19:39:40.328000,-421.0,-956.0,-968.0,-814.0,-430.0,-396.0,577.0,-565.0,133.0
19:39:40.333000,-425.0,-934.0,-935.0,-863.0,-417.0,-385.0,571.0,-558.0,124.0
19:39:40.338000,-427.0,-914.0,-949.0,-895.0,-376.0,-386.0,571.0,-558.0,124.0
19:39:40.342000,-427.0,-914.0,-949.0,-910.0,-360.0,-388.0,583.0,-555.0,117.0
19:39:40.347000,-421.0,-886.0,-957.0,-906.0,-351.0,-381.0,583.0,-555.0,117.0
19:39:40.351000,-429.0,-861.0,-956.0,-904.0,-343.0,-364.0,583.0,-555.0,117.0
19:39:40.356000,-434.0,-835.0,-941.0,-897.0,-329.0,-357.0,582.0,-552.0,121.0
19:39:40.361000,-419.0,-806.0,-934.0,-896.0,-344.0,-352.0,582.0,-552.0,121.0
19:39:40.365000,-392.0,-776.0,-921.0,-909.0,-373.0,-347.0,589.0,-549.0,117.0
19:39:40.371000,-365.0,-743.0,-903.0,-934.0,-387.0,-339.0,589.0,-549.0,117.0
19:39:40.375000,-335.0,-716.0,-879.0,-946.0,-411.0,-332.0,577.0,-538.0,124.0
19:39:40.380000,-296.0,-691.0,-847.0,-919.0,-442.0,-322.0,577.0,-538.0,124.0
19:39:40.384000,-255.0,-670.0,-821.0,-887.0,-431.0,-313.0,577.0,-538.0,124.0
19:39:40.389000,-211.0,-660.0,-817.0,-866.0,-359.0,-307.0,591.0,-534.0,93.0
19:39:40.394000,-193.0,-637.0,-828.0,-848.0,-318.0,-301.0,591.0,-534.0,93.0
19:39:40.399000,-172.0,-616.0,-792.0,-848.0,-318.0,-301.0,601.0,-529.0,96.0
19:39:40.403000,-150.0,-602.0,-705.0,-833.0,-319.0,-292.0,601.0,-529.0,96.0
19:39:40.408000,-139.0,-595.0,-637.0,-843.0,-281.0,-289.0,601.0,-529.0,96.0
19:39:40.413000,-119.0,-588.0,-625.0,-843.0,-281.0,-289.0,589.0,-520.0,102.0
19:39:40.418000,-105.0,-583.0,-630.0,-860.0,-239.0,-290.0,589.0,-520.0,102.0
19:39:40.422000,-119.0,-574.0,-587.0,-834.0,-223.0,-279.0,594.0,-508.0,94.0
19:39:40.427000,-137.0,-563.0,-541.0,-803.0,-181.0,-276.0,594.0,-508.0,94.0
19:39:40.431000,-148.0,-554.0,-466.0,-801.0,-162.0,-277.0,594.0,-508.0,94.0
19:39:40.436000,-162.0,-540.0,-406.0,-825.0,-202.0,-280.0,573.0,-504.0,85.0
19:39:40.441000,-175.0,-528.0,-412.0,-873.0,-204.0,-286.0,573.0,-504.0,85.0
19:39:40.446000,-181.0,-518.0,-426.0,-903.0,-197.0,-288.0,598.0,-511.0,90.0
19:39:40.450000,-189.0,-509.0,-404.0,-879.0,-217.0,-296.0,598.0,-511.0,90.0
19:39:40.455000,-189.0,-509.0,-404.0,-854.0,-221.0,-300.0,598.0,-511.0,90.0
19:39:40.460000,-186.0,-513.0,-381.0,-841.0,-215.0,-296.0,594.0,-505.0,76.0
19:39:40.465000,-175.0,-515.0,-351.0,-817.0,-224.0,-291.0,594.0,-505.0,76.0
19:39:40.469000,-182.0,-521.0,-310.0,-806.0,-214.0,-285.0,586.0,-507.0,73.0
19:39:40.474000,-179.0,-525.0,-296.0,-824.0,-202.0,-284.0,586.0,-507.0,73.0
19:39:40.478000,-170.0,-528.0,-329.0,-837.0,-203.0,-282.0,586.0,-507.0,73.0
19:39:40.483000,-165.0,-526.0,-361.0,-836.0,-209.0,-272.0,591.0,-508.0,75.0
19:39:40.488000,-168.0,-529.0,-358.0,-832.0,-218.0,-262.0,591.0,-508.0,75.0
19:39:40.492000,-170.0,-527.0,-313.0,-845.0,-239.0,-256.0,592.0,-502.0,61.0
19:39:40.497000,-168.0,-527.0,-277.0,-874.0,-254.0,-253.0,592.0,-502.0,61.0
19:39:40.502000,-167.0,-521.0,-286.0,-906.0,-241.0,-250.0,592.0,-502.0,61.0
19:39:40.507000,-171.0,-509.0,-323.0,-927.0,-239.0,-244.0,589.0,-502.0,69.0
19:39:40.512000,-168.0,-494.0,-314.0,-937.0,-254.0,-238.0,589.0,-502.0,69.0
19:39:40.516000,-178.0,-476.0,-270.0,-937.0,-254.0,-238.0,586.0,-490.0,58.0
19:39:40.521000,-190.0,-462.0,-266.0,-955.0,-253.0,-228.0,586.0,-490.0,58.0
19:39:40.525000,-191.0,-455.0,-303.0,-956.0,-216.0,-218.0,586.0,-490.0,58.0
19:39:40.530000,-180.0,-446.0,-317.0,-931.0,-230.0,-214.0,591.0,-496.0,58.0
19:39:40.535000,-169.0,-436.0,-298.0,-898.0,-261.0,-217.0,591.0,-496.0,58.0
19:39:40.539000,-157.0,-427.0,-273.0,-912.0,-279.0,-212.0,592.0,-486.0,64.0
19:39:40.544000,-142.0,-416.0,-274.0,-952.0,-272.0,-208.0,592.0,-486.0,64.0
19:39:40.549000,-142.0,-416.0,-274.0,-972.0,-264.0,-205.0,592.0,-486.0,64.0
19:39:40.554000,-116.0,-405.0,-272.0,-960.0,-258.0,-204.0,592.0,-489.0,48.0
19:39:40.559000,-97.0,-405.0,-272.0,-950.0,-237.0,-208.0,592.0,-489.0,48.0
19:39:40.563000,-97.0,-405.0,-272.0,-950.0,-212.0,-205.0,588.0,-486.0,45.0
19:39:40.568000,-88.0,-403.0,-260.0,-960.0,-173.0,-202.0,588.0,-486.0,45.0
19:39:40.572000,-91.0,-401.0,-262.0,-974.0,-136.0,-202.0,588.0,-486.0,45.0
19:39:40.577000,-102.0,-393.0,-270.0,-981.0,-101.0,-201.0,588.0,-484.0,43.0
19:39:40.582000,-116.0,-385.0,-278.0,-983.0,-86.0,-198.0,588.0,-484.0,43.0
19:39:40.587000,-127.0,-380.0,-284.0,-967.0,-87.0,-194.0,595.0,-484.0,45.0
19:39:40.591000,-133.0,-375.0,-266.0,-951.0,-110.0,-191.0,595.0,-484.0,45.0
19:39:40.596000,-142.0,-374.0,-202.0,-959.0,-120.0,-184.0,595.0,-484.0,45.0
19:39:40.601000,-160.0,-368.0,-142.0,-994.0,-96.0,-177.0,589.0,-480.0,52.0
19:39:40.606000,-184.0,-361.0,-145.0,-1017.0,-60.0,-169.0,589.0,-480.0,52.0
19:39:40.610000,-210.0,-357.0,-158.0,-1017.0,-37.0,-155.0,586.0,-477.0,43.0
19:39:40.615000,-244.0,-352.0,-143.0,-967.0,-41.0,-141.0,586.0,-477.0,43.0
19:39:40.619000,-281.0,-345.0,-115.0,-948.0,-51.0,-133.0,586.0,-477.0,43.0
19:39:40.624000,-312.0,-337.0,-100.0,-960.0,-55.0,-124.0,592.0,-477.0,31.0
19:39:40.629000,-336.0,-326.0,-107.0,-960.0,-55.0,-124.0,592.0,-477.0,31.0
19:39:40.634000,-356.0,-307.0,-102.0,-975.0,-67.0,-117.0,583.0,-483.0,34.0
19:39:40.638000,-385.0,-284.0,-93.0,-983.0,-84.0,-110.0,583.0,-483.0,34.0
19:39:40.643000,-407.0,-260.0,-112.0,-993.0,-82.0,-102.0,583.0,-483.0,34.0
19:39:40.648000,-428.0,-238.0,-115.0,-994.0,-78.0,-93.0,583.0,-471.0,33.0
19:39:40.653000,-452.0,-219.0,-101.0,-989.0,-91.0,-81.0,583.0,-471.0,33.0
19:39:40.657000,-473.0,-202.0,-94.0,-989.0,-102.0,-75.0,588.0,-475.0,31.0
19:39:40.662000,-487.0,-184.0,-82.0,-987.0,-121.0,-75.0,588.0,-475.0,31.0
19:39:40.669000,-499.0,-171.0,-76.0,-990.0,-133.0,-67.0,588.0,-481.0,25.0
19:39:40.671000,-499.0,-171.0,-76.0,-990.0,-133.0,-67.0,588.0,-481.0,25.0
19:39:40.675000,-515.0,-153.0,-103.0,-997.0,-122.0,-66.0,588.0,-481.0,25.0
19:39:40.681000,-534.0,-141.0,-137.0,-974.0,-137.0,-65.0,576.0,-468.0,25.0
19:39:40.685000,-540.0,-137.0,-151.0,-939.0,-158.0,-70.0,576.0,-468.0,25.0
19:39:40.690000,-543.0,-134.0,-160.0,-923.0,-172.0,-74.0,589.0,-472.0,25.0
19:39:40.695000,-552.0,-135.0,-154.0,-927.0,-179.0,-76.0,589.0,-472.0,25.0
19:39:40.699000,-556.0,-143.0,-135.0,-941.0,-174.0,-80.0,589.0,-472.0,25.0
19:39:40.704000,-553.0,-152.0,-146.0,-956.0,-152.0,-86.0,594.0,-469.0,27.0
19:39:40.709000,-552.0,-160.0,-200.0,-945.0,-122.0,-87.0,594.0,-469.0,27.0
19:39:40.723000,-597.0,-192.0,-165.0,-892.0,-100.0,-73.0,577.0,-463.0,33.0
19:39:40.728000,-623.0,-211.0,-172.0,-942.0,-29.0,-71.0,577.0,-463.0,33.0
19:39:40.732000,-645.0,-230.0,-217.0,-942.0,-29.0,-71.0,577.0,-463.0,33.0
19:39:40.737000,-669.0,-254.0,-231.0,-945.0,-20.0,-70.0,592.0,-456.0,15.0
19:39:40.742000,-700.0,-287.0,-187.0,-924.0,-32.0,-62.0,592.0,-456.0,15.0
19:39:40.746000,-737.0,-324.0,-142.0,-911.0,-26.0,-52.0,592.0,-456.0,15.0
19:39:40.751000,-776.0,-361.0,-159.0,-926.0,18.0,-49.0,589.0,-462.0,16.0
19:39:40.756000,-825.0,-406.0,-172.0,-932.0,63.0,-40.0,589.0,-462.0,16.0
19:39:40.761000,-882.0,-448.0,-137.0,-896.0,73.0,-29.0,595.0,-457.0,4.0
19:39:40.765000,-940.0,-448.0,-137.0,-866.0,68.0,-23.0,595.0,-457.0,4.0
19:39:40.769000,-940.0,-491.0,-101.0,-874.0,77.0,-14.0,595.0,-457.0,4.0
19:39:40.775000,-1052.0,-592.0,-111.0,-889.0,102.0,-3.0,591.0,-448.0,0.0
19:39:40.779000,-1052.0,-592.0,-111.0,-881.0,130.0,9.0,591.0,-448.0,0.0
19:39:40.784000,-1123.0,-641.0,-107.0,-863.0,149.0,25.0,594.0,-436.0,4.0
19:39:40.789000,-1199.0,-693.0,-74.0,-878.0,179.0,42.0,594.0,-436.0,4.0
19:39:40.793000,-1278.0,-744.0,-99.0,-874.0,207.0,54.0,594.0,-436.0,4.0
19:39:40.798000,-1358.0,-802.0,-145.0,-832.0,198.0,70.0,582.0,-430.0,-10.0
19:39:40.803000,-1439.0,-864.0,-146.0,-802.0,177.0,83.0,582.0,-430.0,-10.0
19:39:40.808000,-1513.0,-928.0,-117.0,-813.0,168.0,98.0,586.0,-430.0,-10.0
19:39:40.812000,-1599.0,-984.0,-93.0,-871.0,184.0,121.0,586.0,-430.0,-10.0
19:39:40.816000,-1680.0,-1040.0,-111.0,-889.0,203.0,132.0,586.0,-430.0,-10.0
19:39:40.822000,-1761.0,-1101.0,-142.0,-875.0,208.0,145.0,580.0,-427.0,-12.0
19:39:40.826000,-1851.0,-1160.0,-158.0,-878.0,236.0,166.0,580.0,-427.0,-12.0
19:39:40.831000,-1936.0,-1229.0,-174.0,-878.0,236.0,166.0,577.0,-418.0,-22.0
19:39:40.836000,-2020.0,-1299.0,-173.0,-902.0,266.0,221.0,577.0,-418.0,-22.0
19:39:40.840000,-2115.0,-1375.0,-197.0,-906.0,278.0,255.0,577.0,-418.0,-22.0
19:39:40.845000,-2214.0,-1452.0,-228.0,-906.0,278.0,255.0,559.0,-405.0,-37.0
19:39:40.850000,-2314.0,-1535.0,-216.0,-871.0,268.0,283.0,559.0,-405.0,-37.0
19:39:40.854000,-2411.0,-1622.0,-222.0,-811.0,263.0,343.0,558.0,-393.0,-54.0
19:39:40.859000,-2510.0,-1706.0,-256.0,-811.0,263.0,343.0,558.0,-393.0,-54.0
19:39:40.863000,-2612.0,-1791.0,-298.0,-787.0,276.0,379.0,558.0,-393.0,-54.0
19:39:40.869000,-2716.0,-1869.0,-301.0,-767.0,280.0,417.0,547.0,-379.0,-52.0
19:39:40.873000,-2814.0,-1943.0,-302.0,-763.0,279.0,456.0,547.0,-379.0,-52.0
19:39:40.878000,-2915.0,-2013.0,-345.0,-790.0,297.0,503.0,546.0,-361.0,-57.0
19:39:40.883000,-3010.0,-2079.0,-385.0,-801.0,298.0,551.0,546.0,-361.0,-57.0
19:39:40.887000,-3010.0,-2079.0,-385.0,-794.0,283.0,600.0,546.0,-361.0,-57.0
19:39:40.892000,-3119.0,-2136.0,-420.0,-787.0,262.0,652.0,540.0,-346.0,-78.0
19:39:40.896000,-3209.0,-2201.0,-445.0,-769.0,233.0,698.0,540.0,-346.0,-78.0
19:39:40.902000,-3292.0,-2259.0,-464.0,-751.0,212.0,741.0,517.0,-336.0,-79.0
19:39:40.906000,-3380.0,-2307.0,-468.0,-753.0,215.0,785.0,517.0,-336.0,-79.0
19:39:40.911000,-3456.0,-2342.0,-477.0,-782.0,228.0,823.0,507.0,-324.0,-90.0
19:39:40.916000,-3532.0,-2366.0,-501.0,-824.0,227.0,864.0,507.0,-324.0,-90.0
19:39:40.920000,-3603.0,-2381.0,-526.0,-854.0,209.0,902.0,507.0,-324.0,-90.0
19:39:40.925000,-3665.0,-2389.0,-554.0,-874.0,201.0,941.0,493.0,-268.0,-90.0
19:39:40.930000,-3727.0,-2396.0,-604.0,-871.0,181.0,971.0,493.0,-268.0,-90.0
19:39:40.934000,-3775.0,-2387.0,-613.0,-873.0,137.0,989.0,474.0,-255.0,-87.0
19:39:40.939000,-3803.0,-2378.0,-608.0,-922.0,135.0,1005.0,474.0,-255.0,-87.0
19:39:40.943000,-3840.0,-2356.0,-674.0,-960.0,172.0,1015.0,474.0,-255.0,-87.0
19:39:40.949000,-3855.0,-2332.0,-772.0,-949.0,176.0,1018.0,453.0,-240.0,-81.0
19:39:40.953000,-3857.0,-2306.0,-793.0,-949.0,176.0,1018.0,453.0,-240.0,-81.0
19:39:40.958000,-3866.0,-2277.0,-778.0,-932.0,149.0,1023.0,436.0,-214.0,-82.0
19:39:40.963000,-3871.0,-2244.0,-796.0,-960.0,154.0,1029.0,436.0,-214.0,-82.0
19:39:40.967000,-3853.0,-2220.0,-836.0,-1012.0,192.0,1028.0,436.0,-214.0,-82.0
19:39:40.972000,-3839.0,-2186.0,-885.0,-1027.0,213.0,1022.0,430.0,-190.0,-70.0
19:39:40.977000,-3818.0,-2146.0,-894.0,-1000.0,217.0,1011.0,430.0,-190.0,-70.0
19:39:40.981000,-3794.0,-2116.0,-844.0,-970.0,193.0,1005.0,397.0,-144.0,-34.0
19:39:40.986000,-3768.0,-2092.0,-815.0,-960.0,178.0,1001.0,397.0,-144.0,-34.0
19:39:40.990000,-3768.0,-2092.0,-815.0,-961.0,193.0,990.0,397.0,-144.0,-34.0
19:39:40.996000,-3668.0,-2048.0,-746.0,-956.0,195.0,980.0,394.0,-121.0,-37.0
19:39:41.000000,-3668.0,-2048.0,-746.0,-932.0,187.0,963.0,394.0,-121.0,-37.0
19:39:41.005000,-3591.0,-2013.0,-715.0,-899.0,156.0,940.0,384.0,-105.0,-30.0
19:39:41.010000,-3497.0,-1974.0,-669.0,-892.0,131.0,922.0,384.0,-105.0,-30.0
19:39:41.014000,-3402.0,-1927.0,-672.0,-903.0,169.0,899.0,384.0,-105.0,-30.0
19:39:41.019000,-3310.0,-1871.0,-725.0,-894.0,213.0,878.0,367.0,-97.0,-10.0
19:39:41.024000,-3229.0,-1806.0,-754.0,-865.0,235.0,857.0,367.0,-97.0,-10.0
19:39:41.028000,-3140.0,-1748.0,-763.0,-846.0,270.0,825.0,351.0,-79.0,10.0
19:39:41.033000,-3049.0,-1690.0,-776.0,-851.0,297.0,798.0,351.0,-79.0,10.0
19:39:41.037000,-2963.0,-1638.0,-775.0,-870.0,317.0,775.0,351.0,-79.0,10.0
19:39:41.042000,-2884.0,-1583.0,-768.0,-894.0,342.0,743.0,346.0,-67.0,9.0
19:39:41.047000,-2808.0,-1523.0,-745.0,-901.0,371.0,708.0,346.0,-67.0,9.0
19:39:41.052000,-2732.0,-1464.0,-716.0,-901.0,371.0,708.0,334.0,-58.0,24.0
19:39:41.057000,-2664.0,-1407.0,-690.0,-892.0,420.0,653.0,334.0,-58.0,24.0
19:39:41.061000,-2588.0,-1358.0,-680.0,-892.0,420.0,653.0,334.0,-58.0,24.0
19:39:41.066000,-2503.0,-1322.0,-694.0,-841.0,438.0,607.0,319.0,-37.0,48.0
19:39:41.071000,-2412.0,-1284.0,-693.0,-841.0,438.0,607.0,319.0,-37.0,48.0
19:39:41.075000,-2310.0,-1252.0,-668.0,-779.0,418.0,578.0,304.0,-33.0,67.0
19:39:41.080000,-2206.0,-1219.0,-628.0,-723.0,386.0,553.0,304.0,-33.0,67.0
19:39:41.084000,-2106.0,-1185.0,-604.0,-698.0,373.0,532.0,304.0,-33.0,67.0
19:39:41.090000,-1998.0,-1147.0,-590.0,-693.0,384.0,505.0,300.0,-15.0,79.0
19:39:41.094000,-1889.0,-1116.0,-589.0,-680.0,382.0,476.0,300.0,-15.0,79.0
19:39:41.099000,-1787.0,-1086.0,-606.0,-660.0,379.0,453.0,288.0,-9.0,87.0
19:39:41.104000,-1694.0,-1054.0,-623.0,-637.0,403.0,431.0,288.0,-9.0,87.0
19:39:41.108000,-1694.0,-1054.0,-623.0,-604.0,435.0,414.0,288.0,-9.0,87.0
19:39:41.113000,-1619.0,-1022.0,-597.0,-582.0,477.0,389.0,288.0,-10.0,99.0
19:39:41.118000,-1544.0,-985.0,-561.0,-596.0,521.0,376.0,288.0,-10.0,99.0
19:39:41.122000,-1493.0,-949.0,-526.0,-618.0,549.0,369.0,273.0,-3.0,112.0
19:39:41.127000,-1435.0,-918.0,-515.0,-619.0,571.0,360.0,273.0,-3.0,112.0
19:39:41.131000,-1391.0,-886.0,-504.0,-591.0,580.0,357.0,273.0,-3.0,112.0
19:39:41.137000,-1346.0,-849.0,-457.0,-561.0,589.0,351.0,271.0,0.0,132.0
19:39:41.141000,-1299.0,-815.0,-411.0,-553.0,601.0,350.0,271.0,0.0,132.0
19:39:41.146000,-1253.0,-778.0,-389.0,-556.0,613.0,349.0,276.0,6.0,133.0
19:39:41.151000,-1206.0,-740.0,-382.0,-553.0,612.0,354.0,276.0,6.0,133.0
19:39:41.158000,-1124.0,-669.0,-333.0,-524.0,587.0,352.0,262.0,0.0,150.0
19:39:41.160000,-1124.0,-669.0,-333.0,-524.0,587.0,352.0,262.0,0.0,150.0
19:39:41.164000,-1085.0,-627.0,-294.0,-523.0,587.0,346.0,262.0,0.0,150.0
19:39:41.169000,-1050.0,-584.0,-265.0,-523.0,604.0,342.0,262.0,7.0,151.0
19:39:41.174000,-1014.0,-537.0,-255.0,-533.0,604.0,342.0,262.0,7.0,151.0
19:39:41.179000,-975.0,-486.0,-251.0,-539.0,621.0,333.0,265.0,3.0,157.0
19:39:41.184000,-936.0,-439.0,-239.0,-531.0,623.0,327.0,265.0,3.0,157.0
19:39:41.188000,-901.0,-392.0,-227.0,-512.0,615.0,324.0,265.0,3.0,157.0
19:39:41.193000,-866.0,-350.0,-205.0,-482.0,604.0,321.0,261.0,12.0,171.0
19:39:41.198000,-832.0,-317.0,-182.0,-452.0,599.0,324.0,261.0,12.0,171.0
19:39:41.202000,-800.0,-286.0,-172.0,-430.0,602.0,327.0,262.0,-1.0,168.0
19:39:41.207000,-770.0,-255.0,-169.0,-412.0,609.0,327.0,262.0,-1.0,168.0
19:39:41.211000,-770.0,-255.0,-169.0,-398.0,618.0,325.0,262.0,-1.0,168.0
19:39:41.216000,-743.0,-225.0,-161.0,-389.0,638.0,320.0,253.0,16.0,175.0
19:39:41.221000,-720.0,-196.0,-152.0,-390.0,671.0,317.0,253.0,16.0,175.0
19:39:41.226000,-708.0,-168.0,-139.0,-401.0,706.0,318.0,259.0,16.0,181.0
19:39:41.231000,-702.0,-140.0,-129.0,-416.0,732.0,317.0,259.0,16.0,181.0
19:39:41.235000,-697.0,-114.0,-126.0,-420.0,740.0,318.0,259.0,16.0,181.0
19:39:41.240000,-688.0,-98.0,-116.0,-408.0,721.0,322.0,250.0,18.0,184.0
19:39:41.245000,-675.0,-86.0,-95.0,-387.0,687.0,323.0,250.0,18.0,184.0
19:39:41.249000,-654.0,-76.0,-76.0,-369.0,660.0,319.0,261.0,15.0,210.0
19:39:41.254000,-623.0,-68.0,-74.0,-356.0,647.0,315.0,261.0,15.0,210.0
19:39:41.258000,-590.0,-61.0,-88.0,-345.0,644.0,310.0,261.0,15.0,210.0
19:39:41.263000,-559.0,-51.0,-96.0,-341.0,654.0,304.0,253.0,12.0,204.0
19:39:41.268000,-529.0,-45.0,-93.0,-345.0,674.0,301.0,253.0,12.0,204.0
19:39:41.273000,-508.0,-39.0,-84.0,-345.0,674.0,301.0,247.0,24.0,202.0
19:39:41.278000,-490.0,-32.0,-70.0,-352.0,696.0,298.0,247.0,24.0,202.0
19:39:41.282000,-476.0,-22.0,-55.0,-357.0,710.0,292.0,247.0,24.0,202.0
19:39:41.287000,-461.0,-9.0,-37.0,-361.0,709.0,286.0,252.0,27.0,207.0
19:39:41.292000,-440.0,1.0,-17.0,-365.0,687.0,272.0,252.0,27.0,207.0
19:39:41.296000,-416.0,14.0,1.0,-365.0,687.0,272.0,241.0,18.0,214.0
19:39:41.301000,-392.0,23.0,26.0,-362.0,670.0,267.0,241.0,18.0,214.0
19:39:41.305000,-365.0,36.0,51.0,-365.0,658.0,260.0,241.0,18.0,214.0
19:39:41.310000,-336.0,49.0,56.0,-381.0,665.0,253.0,249.0,24.0,223.0
19:39:41.315000,-306.0,60.0,43.0,-404.0,691.0,249.0,249.0,24.0,223.0
19:39:41.320000,-282.0,71.0,37.0,-415.0,715.0,246.0,249.0,21.0,211.0
19:39:41.325000,-260.0,79.0,53.0,-415.0,715.0,244.0,249.0,21.0,211.0
19:39:41.329000,-260.0,79.0,53.0,-414.0,700.0,243.0,249.0,21.0,211.0
19:39:41.334000,-233.0,81.0,69.0,-416.0,685.0,240.0,247.0,27.0,225.0
19:39:41.339000,-206.0,82.0,66.0,-412.0,672.0,238.0,247.0,27.0,225.0
19:39:41.386000,161.0,-16.0,-27.0,-280.0,780.0,319.0,253.0,24.0,226.0
19:39:41.390000,164.0,-27.0,-21.0,-280.0,780.0,319.0,253.0,24.0,226.0
19:39:41.395000,156.0,-30.0,-11.0,-280.0,822.0,321.0,255.0,21.0,237.0
19:39:41.400000,137.0,-25.0,-7.0,-307.0,872.0,317.0,255.0,21.0,237.0
19:39:41.404000,116.0,-16.0,-23.0,-359.0,926.0,313.0,255.0,21.0,237.0
19:39:41.409000,94.0,-2.0,-46.0,-403.0,961.0,307.0,252.0,24.0,214.0
19:39:41.414000,74.0,16.0,-59.0,-426.0,963.0,299.0,252.0,24.0,214.0
19:39:41.419000,62.0,32.0,-63.0,-433.0,942.0,292.0,250.0,22.0,219.0
19:39:41.423000,57.0,46.0,-67.0,-432.0,913.0,289.0,250.0,22.0,219.0
19:39:41.427000,57.0,46.0,-67.0,-425.0,882.0,286.0,250.0,22.0,219.0
19:39:41.433000,77.0,68.0,-68.0,-411.0,851.0,279.0,259.0,30.0,219.0
19:39:41.437000,77.0,68.0,-68.0,-391.0,827.0,278.0,259.0,30.0,219.0
19:39:41.442000,106.0,72.0,-70.0,-365.0,806.0,279.0,238.0,22.0,226.0
19:39:41.447000,143.0,77.0,-69.0,-345.0,779.0,282.0,238.0,22.0,226.0
19:39:41.451000,185.0,74.0,-62.0,-347.0,752.0,282.0,238.0,22.0,226.0
19:39:41.456000,231.0,69.0,-58.0,-359.0,741.0,279.0,250.0,13.0,214.0
19:39:41.461000,278.0,60.0,-56.0,-368.0,742.0,274.0,250.0,13.0,214.0
19:39:41.466000,320.0,49.0,-42.0,-372.0,759.0,271.0,253.0,21.0,213.0
19:39:41.470000,356.0,40.0,-28.0,-371.0,796.0,273.0,253.0,21.0,213.0
19:39:41.474000,387.0,31.0,-23.0,-370.0,826.0,276.0,253.0,21.0,213.0
19:39:41.480000,412.0,23.0,-18.0,-365.0,824.0,279.0,250.0,24.0,222.0
19:39:41.484000,432.0,16.0,-2.0,-362.0,799.0,279.0,250.0,24.0,222.0
19:39:41.489000,457.0,9.0,17.0,-362.0,799.0,279.0,237.0,25.0,231.0
19:39:41.494000,487.0,9.0,31.0,-399.0,748.0,266.0,237.0,25.0,231.0
19:39:41.498000,518.0,10.0,46.0,-399.0,748.0,266.0,237.0,25.0,231.0
19:39:41.503000,549.0,14.0,49.0,-434.0,732.0,254.0,250.0,30.0,204.0
19:39:41.508000,584.0,16.0,32.0,-464.0,733.0,247.0,250.0,30.0,204.0
19:39:41.513000,627.0,13.0,-4.0,-474.0,739.0,249.0,249.0,22.0,201.0
19:39:41.517000,677.0,5.0,-45.0,-460.0,722.0,253.0,249.0,22.0,201.0
19:39:41.521000,732.0,-5.0,-76.0,-429.0,683.0,254.0,249.0,22.0,201.0
19:39:41.527000,791.0,-15.0,-106.0,-404.0,649.0,256.0,258.0,21.0,201.0
19:39:41.531000,854.0,-24.0,-142.0,-398.0,631.0,248.0,258.0,21.0,201.0
19:39:41.536000,917.0,-31.0,-179.0,-415.0,632.0,242.0,247.0,27.0,186.0
19:39:41.541000,973.0,-37.0,-223.0,-452.0,656.0,246.0,247.0,27.0,186.0
19:39:41.545000,973.0,-37.0,-223.0,-492.0,686.0,248.0,247.0,27.0,186.0
19:39:41.550000,1028.0,-42.0,-272.0,-516.0,710.0,250.0,246.0,24.0,168.0
19:39:41.555000,1082.0,-50.0,-318.0,-528.0,717.0,251.0,246.0,24.0,168.0
19:39:41.560000,1132.0,-52.0,-360.0,-539.0,719.0,254.0,253.0,22.0,175.0
19:39:41.564000,1179.0,-51.0,-398.0,-547.0,722.0,263.0,253.0,22.0,175.0
19:39:41.568000,1225.0,-49.0,-427.0,-542.0,715.0,279.0,253.0,22.0,175.0
19:39:41.574000,1267.0,-51.0,-436.0,-522.0,708.0,300.0,244.0,15.0,172.0
19:39:41.578000,1309.0,-53.0,-433.0,-503.0,713.0,314.0,244.0,15.0,172.0
19:39:41.583000,1352.0,-56.0,-448.0,-475.0,737.0,331.0,241.0,18.0,162.0
19:39:41.588000,1396.0,-56.0,-473.0,-472.0,744.0,332.0,241.0,18.0,162.0
19:39:41.592000,1448.0,-51.0,-494.0,-506.0,721.0,335.0,241.0,18.0,162.0
19:39:41.597000,1497.0,-50.0,-494.0,-517.0,701.0,349.0,229.0,16.0,141.0
19:39:41.602000,1550.0,-40.0,-478.0,-506.0,687.0,358.0,229.0,16.0,141.0
19:39:41.607000,1605.0,-28.0,-461.0,-506.0,687.0,358.0,225.0,6.0,135.0
19:39:41.611000,1661.0,-6.0,-442.0,-490.0,676.0,368.0,225.0,6.0,135.0
19:39:41.615000,1717.0,18.0,-419.0,-487.0,666.0,377.0,225.0,6.0,135.0
19:39:41.621000,1770.0,43.0,-389.0,-495.0,646.0,394.0,231.0,12.0,114.0
19:39:41.625000,1829.0,72.0,-344.0,-493.0,583.0,428.0,231.0,12.0,114.0
19:39:41.630000,1892.0,105.0,-281.0,-493.0,583.0,428.0,219.0,-4.0,120.0
19:39:41.635000,1958.0,137.0,-221.0,-522.0,564.0,425.0,219.0,-4.0,120.0
19:39:41.639000,2032.0,170.0,-174.0,-582.0,567.0,427.0,219.0,-4.0,120.0
19:39:41.644000,2114.0,207.0,-116.0,-629.0,556.0,426.0,217.0,-1.0,94.0
19:39:41.649000,2200.0,247.0,-29.0,-624.0,512.0,422.0,217.0,-1.0,94.0
19:39:41.654000,2291.0,288.0,72.0,-591.0,457.0,428.0,219.0,-7.0,73.0
19:39:41.658000,2291.0,288.0,72.0,-578.0,437.0,450.0,219.0,-7.0,73.0
19:39:41.662000,2383.0,322.0,139.0,-622.0,440.0,487.0,219.0,-7.0,73.0
19:39:41.668000,2467.0,346.0,154.0,-629.0,424.0,515.0,217.0,-12.0,57.0
19:39:41.672000,2550.0,378.0,214.0,-571.0,406.0,544.0,217.0,-12.0,57.0
19:39:41.677000,2625.0,408.0,281.0,-563.0,417.0,581.0,232.0,-16.0,27.0
19:39:41.682000,2688.0,435.0,296.0,-565.0,451.0,608.0,232.0,-16.0,27.0
19:39:41.686000,2745.0,470.0,286.0,-540.0,470.0,630.0,232.0,-16.0,27.0
19:39:41.691000,2796.0,508.0,292.0,-532.0,473.0,648.0,232.0,-39.0,9.0
19:39:41.696000,2836.0,548.0,309.0,-556.0,494.0,659.0,232.0,-39.0,9.0
19:39:41.701000,2868.0,595.0,308.0,-622.0,512.0,666.0,232.0,-48.0,-12.0
19:39:41.705000,2905.0,643.0,280.0,-651.0,463.0,682.0,232.0,-48.0,-12.0
19:39:41.709000,2940.0,694.0,307.0,-641.0,435.0,694.0,232.0,-48.0,-12.0
19:39:41.715000,2978.0,753.0,361.0,-705.0,420.0,688.0,249.0,-61.0,-27.0
19:39:41.719000,3017.0,804.0,394.0,-739.0,342.0,693.0,249.0,-61.0,-27.0
19:39:41.724000,3066.0,842.0,442.0,-739.0,342.0,693.0,244.0,-67.0,-45.0
19:39:41.729000,3136.0,875.0,516.0,-714.0,257.0,709.0,244.0,-67.0,-45.0
19:39:41.733000,3211.0,909.0,604.0,-682.0,189.0,723.0,244.0,-67.0,-45.0
19:39:41.738000,3290.0,932.0,655.0,-681.0,138.0,743.0,253.0,-82.0,-61.0
19:39:41.743000,3372.0,944.0,689.0,-711.0,123.0,767.0,253.0,-82.0,-61.0
19:39:41.748000,3449.0,959.0,744.0,-677.0,91.0,777.0,264.0,-117.0,-91.0
19:39:41.752000,3524.0,966.0,798.0,-608.0,34.0,783.0,264.0,-117.0,-91.0
19:39:41.756000,3524.0,966.0,798.0,-573.0,23.0,795.0,264.0,-117.0,-91.0
19:39:41.762000,3652.0,1001.0,870.0,-595.0,41.0,806.0,276.0,-126.0,-108.0
19:39:41.766000,3652.0,1001.0,870.0,-596.0,79.0,818.0,276.0,-126.0,-108.0
19:39:41.771000,3705.0,1021.0,932.0,-574.0,109.0,850.0,271.0,-156.0,-108.0
19:39:41.776000,3734.0,1033.0,999.0,-564.0,75.0,879.0,271.0,-156.0,-108.0
19:39:41.780000,3766.0,1060.0,1082.0,-623.0,-61.0,917.0,271.0,-156.0,-108.0
19:39:41.785000,3821.0,1086.0,1125.0,-744.0,-226.0,1011.0,309.0,-180.0,-147.0
19:39:41.790000,3875.0,1094.0,1165.0,-605.0,-268.0,1055.0,309.0,-180.0,-147.0
19:39:41.795000,3922.0,1125.0,1309.0,-429.0,-186.0,1065.0,306.0,-207.0,-153.0
19:39:41.799000,3944.0,1148.0,1418.0,-476.0,-121.0,1101.0,306.0,-207.0,-153.0
19:39:41.803000,3973.0,1163.0,1378.0,-578.0,-79.0,1100.0,306.0,-207.0,-153.0
19:39:41.809000,4020.0,1184.0,1236.0,-642.0,-105.0,1099.0,334.0,-250.0,-154.0
19:39:41.813000,4037.0,1218.0,1159.0,-580.0,-242.0,1098.0,334.0,-250.0,-154.0
19:39:41.818000,4056.0,1267.0,1202.0,-580.0,-242.0,1098.0,348.0,-282.0,-177.0
19:39:41.823000,4029.0,1304.0,1225.0,-650.0,-269.0,1099.0,348.0,-282.0,-177.0
19:39:41.827000,3971.0,1359.0,1162.0,-650.0,-269.0,1099.0,348.0,-282.0,-177.0
19:39:41.832000,3918.0,1398.0,1040.0,-813.0,-212.0,1121.0,348.0,-312.0,-183.0
19:39:41.837000,3847.0,1450.0,996.0,-850.0,-114.0,1075.0,348.0,-312.0,-183.0
19:39:41.842000,3739.0,1490.0,943.0,-770.0,-13.0,1026.0,367.0,-343.0,-187.0
19:39:41.846000,3630.0,1513.0,875.0,-757.0,17.0,1025.0,367.0,-343.0,-187.0
19:39:41.850000,3512.0,1541.0,840.0,-733.0,48.0,993.0,367.0,-343.0,-187.0
19:39:41.856000,3374.0,1545.0,792.0,-696.0,48.0,982.0,370.0,-373.0,-181.0
19:39:41.860000,3248.0,1540.0,742.0,-657.0,20.0,963.0,370.0,-373.0,-181.0
19:39:41.865000,3124.0,1521.0,700.0,-583.0,-10.0,931.0,394.0,-388.0,-187.0
19:39:41.870000,3009.0,1492.0,632.0,-555.0,-47.0,909.0,394.0,-388.0,-187.0
19:39:41.874000,3009.0,1492.0,632.0,-554.0,-61.0,885.0,394.0,-388.0,-187.0
19:39:41.879000,2905.0,1448.0,559.0,-551.0,-100.0,852.0,403.0,-414.0,-186.0
19:39:41.884000,2807.0,1425.0,489.0,-532.0,-166.0,798.0,403.0,-414.0,-186.0
19:39:41.889000,2716.0,1423.0,442.0,-513.0,-261.0,768.0,403.0,-438.0,-172.0
19:39:41.893000,2662.0,1375.0,413.0,-534.0,-388.0,747.0,403.0,-438.0,-172.0
19:39:41.897000,2612.0,1339.0,405.0,-555.0,-492.0,720.0,403.0,-438.0,-172.0
19:39:41.903000,2576.0,1305.0,410.0,-583.0,-512.0,719.0,433.0,-468.0,-171.0
19:39:41.907000,2545.0,1246.0,392.0,-604.0,-454.0,720.0,433.0,-468.0,-171.0
19:39:41.912000,2510.0,1192.0,340.0,-597.0,-399.0,718.0,429.0,-495.0,-160.0
19:39:41.917000,2467.0,1139.0,285.0,-565.0,-366.0,714.0,429.0,-495.0,-160.0
19:39:41.921000,2417.0,1096.0,245.0,-537.0,-354.0,713.0,429.0,-495.0,-160.0
19:39:41.926000,2355.0,1055.0,219.0,-531.0,-353.0,705.0,445.0,-514.0,-156.0
19:39:41.931000,2286.0,1027.0,199.0,-540.0,-346.0,685.0,445.0,-514.0,-156.0
19:39:41.936000,2213.0,1003.0,191.0,-540.0,-346.0,685.0,450.0,-517.0,-142.0
19:39:41.940000,2133.0,987.0,170.0,-640.0,-317.0,648.0,450.0,-517.0,-142.0
19:39:41.944000,2051.0,975.0,147.0,-640.0,-317.0,648.0,450.0,-517.0,-142.0
19:39:41.950000,1967.0,958.0,148.0,-697.0,-299.0,633.0,456.0,-546.0,-132.0
19:39:41.954000,1878.0,935.0,180.0,-741.0,-309.0,613.0,456.0,-546.0,-132.0
19:39:41.959000,1799.0,926.0,175.0,-741.0,-327.0,572.0,466.0,-555.0,-130.0
19:39:41.964000,1723.0,920.0,154.0,-744.0,-330.0,537.0,466.0,-555.0,-130.0
19:39:41.968000,1647.0,918.0,110.0,-754.0,-311.0,520.0,466.0,-555.0,-130.0
19:39:41.973000,1647.0,918.0,110.0,-747.0,-309.0,511.0,466.0,-567.0,-115.0
19:39:41.978000,1473.0,900.0,88.0,-727.0,-331.0,497.0,466.0,-567.0,-115.0
19:39:41.983000,1473.0,900.0,88.0,-698.0,-335.0,472.0,477.0,-582.0,-99.0
19:39:41.987000,1384.0,891.0,79.0,-681.0,-340.0,456.0,477.0,-582.0,-99.0
19:39:41.991000,1294.0,873.0,71.0,-672.0,-351.0,440.0,477.0,-582.0,-99.0
19:39:41.997000,1215.0,855.0,59.0,-675.0,-353.0,419.0,483.0,-577.0,-93.0
19:39:42.001000,1143.0,833.0,36.0,-670.0,-368.0,406.0,483.0,-577.0,-93.0
19:39:42.006000,1065.0,800.0,9.0,-643.0,-398.0,386.0,489.0,-583.0,-87.0
19:39:42.011000,995.0,775.0,-14.0,-609.0,-425.0,357.0,489.0,-583.0,-87.0
19:39:42.015000,937.0,749.0,-40.0,-594.0,-451.0,341.0,489.0,-583.0,-87.0
19:39:42.020000,878.0,708.0,-69.0,-605.0,-480.0,323.0,492.0,-592.0,-85.0
19:39:42.024000,818.0,667.0,-98.0,-613.0,-528.0,285.0,492.0,-592.0,-85.0
19:39:42.030000,760.0,629.0,-129.0,-614.0,-576.0,241.0,484.0,-592.0,-84.0
19:39:42.034000,716.0,591.0,-158.0,-605.0,-614.0,210.0,484.0,-592.0,-84.0
19:39:42.039000,675.0,548.0,-192.0,-605.0,-614.0,210.0,498.0,-603.0,-76.0
19:39:42.044000,627.0,507.0,-237.0,-590.0,-624.0,169.0,498.0,-603.0,-76.0
19:39:42.048000,580.0,469.0,-286.0,-590.0,-624.0,169.0,498.0,-603.0,-76.0
19:39:42.053000,526.0,425.0,-334.0,-592.0,-600.0,155.0,504.0,-604.0,-58.0
19:39:42.058000,483.0,374.0,-383.0,-583.0,-565.0,148.0,504.0,-604.0,-58.0
19:39:42.062000,445.0,319.0,-423.0,-562.0,-548.0,140.0,510.0,-595.0,-67.0
19:39:42.067000,404.0,266.0,-458.0,-542.0,-558.0,132.0,510.0,-595.0,-67.0
19:39:42.071000,371.0,218.0,-481.0,-540.0,-578.0,122.0,510.0,-595.0,-67.0
19:39:42.077000,348.0,172.0,-485.0,-553.0,-611.0,112.0,510.0,-606.0,-61.0
19:39:42.081000,333.0,134.0,-478.0,-579.0,-636.0,104.0,510.0,-606.0,-61.0
19:39:42.086000,311.0,110.0,-460.0,-608.0,-641.0,97.0,511.0,-604.0,-60.0
19:39:42.091000,294.0,91.0,-422.0,-640.0,-648.0,95.0,511.0,-604.0,-60.0
19:39:42.095000,294.0,91.0,-422.0,-684.0,-649.0,92.0,511.0,-604.0,-60.0
19:39:42.100000,281.0,79.0,-385.0,-734.0,-631.0,87.0,505.0,-606.0,-57.0
19:39:42.105000,268.0,74.0,-353.0,-775.0,-622.0,85.0,505.0,-606.0,-57.0
19:39:42.109000,255.0,70.0,-336.0,-802.0,-629.0,84.0,514.0,-601.0,-57.0
19:39:42.114000,231.0,72.0,-331.0,-823.0,-630.0,81.0,514.0,-601.0,-57.0
19:39:42.121000,198.0,74.0,-295.0,-843.0,-642.0,77.0,517.0,-603.0,-54.0
19:39:42.124000,198.0,74.0,-295.0,-843.0,-642.0,77.0,517.0,-603.0,-54.0
19:39:42.128000,182.0,72.0,-257.0,-848.0,-649.0,74.0,517.0,-603.0,-54.0
19:39:42.133000,175.0,67.0,-236.0,-848.0,-651.0,75.0,519.0,-601.0,-43.0
19:39:42.138000,169.0,64.0,-221.0,-831.0,-668.0,77.0,519.0,-601.0,-43.0
19:39:42.142000,154.0,67.0,-201.0,-831.0,-668.0,77.0,514.0,-601.0,-45.0
19:39:42.147000,146.0,67.0,-177.0,-828.0,-661.0,75.0,514.0,-601.0,-45.0
19:39:42.151000,131.0,74.0,-170.0,-852.0,-628.0,71.0,514.0,-601.0,-45.0
19:39:42.156000,113.0,86.0,-175.0,-852.0,-628.0,71.0,519.0,-595.0,-49.0
19:39:42.161000,93.0,99.0,-183.0,-878.0,-607.0,67.0,519.0,-595.0,-49.0
19:39:42.166000,71.0,116.0,-195.0,-928.0,-578.0,57.0,534.0,-595.0,-48.0
19:39:42.171000,46.0,134.0,-203.0,-928.0,-578.0,57.0,534.0,-595.0,-48.0
19:39:42.175000,20.0,151.0,-203.0,-945.0,-584.0,50.0,534.0,-595.0,-48.0
19:39:42.180000,0.0,166.0,-182.0,-963.0,-584.0,45.0,525.0,-595.0,-45.0
19:39:42.185000,-29.0,180.0,-157.0,-979.0,-596.0,45.0,525.0,-595.0,-45.0
19:39:42.189000,-59.0,190.0,-131.0,-995.0,-595.0,48.0,525.0,-589.0,-45.0
19:39:42.194000,-82.0,197.0,-101.0,-1006.0,-582.0,45.0,525.0,-589.0,-45.0
19:39:42.198000,-82.0,197.0,-101.0,-1005.0,-590.0,44.0,525.0,-589.0,-45.0
19:39:42.203000,-105.0,202.0,-63.0,-992.0,-615.0,47.0,529.0,-589.0,-36.0
19:39:42.208000,-123.0,204.0,-19.0,-977.0,-646.0,47.0,529.0,-589.0,-36.0
19:39:42.213000,-135.0,204.0,21.0,-963.0,-675.0,44.0,514.0,-600.0,-39.0
19:39:42.218000,-144.0,204.0,55.0,-961.0,-681.0,45.0,514.0,-600.0,-39.0
19:39:42.222000,-155.0,203.0,80.0,-962.0,-674.0,44.0,514.0,-600.0,-39.0
19:39:42.227000,-164.0,204.0,98.0,-962.0,-679.0,42.0,532.0,-600.0,-45.0
19:39:42.232000,-166.0,198.0,105.0,-963.0,-676.0,39.0,532.0,-600.0,-45.0
19:39:42.236000,-166.0,193.0,104.0,-967.0,-668.0,35.0,538.0,-594.0,-39.0
19:39:42.241000,-166.0,187.0,107.0,-975.0,-676.0,31.0,538.0,-594.0,-39.0
19:39:42.245000,-166.0,182.0,121.0,-978.0,-691.0,24.0,538.0,-594.0,-39.0
19:39:42.250000,-161.0,175.0,133.0,-977.0,-700.0,22.0,526.0,-583.0,-31.0
19:39:42.255000,-156.0,165.0,127.0,-972.0,-699.0,22.0,526.0,-583.0,-31.0
19:39:42.260000,-154.0,156.0,116.0,-972.0,-699.0,22.0,526.0,-594.0,-34.0
19:39:42.265000,-148.0,148.0,109.0,-964.0,-697.0,17.0,526.0,-594.0,-34.0
19:39:42.269000,-142.0,140.0,103.0,-958.0,-700.0,13.0,526.0,-594.0,-34.0
19:39:42.274000,-131.0,127.0,101.0,-950.0,-705.0,12.0,529.0,-595.0,-37.0
19:39:42.279000,-115.0,107.0,93.0,-941.0,-711.0,16.0,529.0,-595.0,-37.0
19:39:42.283000,-88.0,89.0,76.0,-928.0,-720.0,15.0,532.0,-594.0,-33.0
19:39:42.288000,-58.0,70.0,67.0,-905.0,-738.0,15.0,532.0,-594.0,-33.0
19:39:42.292000,-28.0,53.0,75.0,-882.0,-757.0,17.0,532.0,-594.0,-33.0
19:39:42.297000,2.0,34.0,81.0,-872.0,-771.0,14.0,535.0,-591.0,-39.0
19:39:42.302000,30.0,17.0,69.0,-877.0,-773.0,12.0,535.0,-591.0,-39.0
19:39:42.307000,50.0,0.0,53.0,-873.0,-760.0,16.0,537.0,-592.0,-19.0
19:39:42.312000,50.0,0.0,53.0,-852.0,-736.0,26.0,537.0,-592.0,-19.0
19:39:42.316000,65.0,-23.0,42.0,-829.0,-683.0,34.0,537.0,-592.0,-19.0
19:39:42.321000,72.0,-44.0,24.0,-806.0,-645.0,41.0,522.0,-598.0,-36.0
19:39:42.326000,86.0,-72.0,-9.0,-780.0,-641.0,41.0,522.0,-598.0,-36.0
19:39:42.330000,100.0,-95.0,-49.0,-749.0,-638.0,41.0,525.0,-588.0,-27.0
19:39:42.335000,93.0,-112.0,-55.0,-739.0,-619.0,48.0,525.0,-588.0,-27.0
19:39:42.339000,75.0,-130.0,-43.0,-762.0,-569.0,51.0,525.0,-588.0,-27.0
19:39:42.344000,58.0,-146.0,-61.0,-792.0,-521.0,53.0,541.0,-586.0,-33.0
19:39:42.349000,35.0,-158.0,-94.0,-808.0,-494.0,57.0,541.0,-586.0,-33.0
19:39:42.354000,10.0,-169.0,-114.0,-806.0,-494.0,57.0,516.0,-592.0,-34.0
19:39:42.359000,-7.0,-178.0,-108.0,-801.0,-513.0,57.0,516.0,-592.0,-34.0
19:39:42.363000,-18.0,-182.0,-91.0,-813.0,-533.0,58.0,516.0,-592.0,-34.0
19:39:42.368000,-25.0,-186.0,-80.0,-834.0,-553.0,57.0,531.0,-592.0,-36.0
19:39:42.373000,-22.0,-187.0,-67.0,-834.0,-573.0,55.0,531.0,-592.0,-36.0
19:39:42.377000,-16.0,-183.0,-52.0,-851.0,-573.0,55.0,538.0,-588.0,-40.0
19:39:42.382000,-7.0,-178.0,-43.0,-871.0,-575.0,52.0,538.0,-588.0,-40.0
19:39:42.386000,-1.0,-166.0,-32.0,-892.0,-561.0,52.0,538.0,-588.0,-40.0
19:39:42.391000,2.0,-150.0,-11.0,-908.0,-545.0,54.0,532.0,-585.0,-36.0
19:39:42.396000,0.0,-132.0,16.0,-917.0,-534.0,56.0,532.0,-585.0,-36.0
19:39:42.401000,-2.0,-110.0,28.0,-922.0,-521.0,57.0,528.0,-586.0,-43.0
19:39:42.406000,-6.0,-84.0,18.0,-925.0,-508.0,56.0,528.0,-586.0,-43.0
19:39:42.410000,-6.0,-84.0,18.0,-915.0,-498.0,58.0,528.0,-586.0,-43.0
19:39:42.415000,-16.0,-36.0,14.0,-894.0,-491.0,58.0,531.0,-600.0,-37.0
19:39:42.420000,-21.0,-14.0,16.0,-874.0,-490.0,61.0,531.0,-600.0,-37.0
19:39:42.424000,-21.0,-14.0,16.0,-855.0,-497.0,68.0,532.0,-589.0,-46.0
19:39:42.429000,-27.0,9.0,14.0,-832.0,-511.0,66.0,532.0,-589.0,-46.0
19:39:42.433000,-30.0,41.0,6.0,-810.0,-528.0,62.0,532.0,-589.0,-46.0
19:39:42.438000,-33.0,74.0,3.0,-792.0,-546.0,64.0,532.0,-589.0,-46.0
19:39:42.443000,-33.0,103.0,19.0,-775.0,-564.0,66.0,532.0,-589.0,-46.0
19:39:42.448000,-25.0,128.0,43.0,-766.0,-580.0,66.0,525.0,-586.0,-22.0
19:39:42.453000,-10.0,158.0,54.0,-760.0,-602.0,63.0,525.0,-586.0,-22.0
19:39:42.457000,4.0,191.0,60.0,-745.0,-624.0,60.0,525.0,-586.0,-22.0
19:39:42.462000,21.0,223.0,77.0,-728.0,-632.0,57.0,529.0,-591.0,-37.0
19:39:42.467000,35.0,259.0,95.0,-722.0,-617.0,56.0,529.0,-591.0,-37.0
19:39:42.471000,44.0,287.0,101.0,-722.0,-617.0,56.0,534.0,-592.0,-39.0
19:39:42.476000,50.0,308.0,102.0,-716.0,-564.0,57.0,534.0,-592.0,-39.0
19:39:42.480000,53.0,333.0,111.0,-701.0,-557.0,55.0,534.0,-592.0,-39.0
19:39:42.485000,51.0,357.0,116.0,-701.0,-557.0,55.0,543.0,-592.0,-28.0
19:39:42.490000,52.0,376.0,116.0,-665.0,-581.0,56.0,543.0,-592.0,-28.0
19:39:42.495000,53.0,394.0,116.0,-665.0,-581.0,56.0,519.0,-600.0,-24.0
19:39:42.500000,59.0,410.0,121.0,-643.0,-604.0,56.0,519.0,-600.0,-24.0
19:39:42.504000,67.0,422.0,133.0,-621.0,-635.0,54.0,519.0,-600.0,-24.0
19:39:42.509000,76.0,433.0,149.0,-607.0,-671.0,55.0,538.0,-598.0,-27.0
19:39:42.514000,88.0,443.0,158.0,-608.0,-700.0,59.0,538.0,-598.0,-27.0
19:39:42.518000,110.0,450.0,158.0,-625.0,-726.0,62.0,538.0,-585.0,-27.0
19:39:42.523000,133.0,459.0,163.0,-627.0,-728.0,58.0,538.0,-585.0,-27.0
19:39:42.527000,133.0,459.0,163.0,-619.0,-713.0,55.0,538.0,-585.0,-27.0
19:39:42.532000,153.0,464.0,176.0,-633.0,-713.0,53.0,543.0,-603.0,-24.0
19:39:42.537000,179.0,469.0,186.0,-652.0,-725.0,50.0,543.0,-603.0,-24.0
19:39:42.542000,211.0,472.0,196.0,-660.0,-742.0,49.0,540.0,-594.0,-22.0
19:39:42.546000,245.0,473.0,210.0,-664.0,-765.0,49.0,540.0,-594.0,-22.0
19:39:42.551000,283.0,473.0,234.0,-671.0,-801.0,51.0,540.0,-594.0,-22.0
19:39:42.556000,326.0,472.0,256.0,-715.0,-887.0,62.0,535.0,-598.0,-13.0
19:39:42.561000,368.0,475.0,268.0,-718.0,-885.0,65.0,535.0,-598.0,-13.0
19:39:42.565000,423.0,485.0,286.0,-686.0,-836.0,58.0,541.0,-601.0,-3.0
19:39:42.570000,473.0,492.0,301.0,-690.0,-836.0,62.0,541.0,-601.0,-3.0
19:39:42.574000,501.0,506.0,316.0,-696.0,-815.0,61.0,541.0,-601.0,-3.0
19:39:42.579000,534.0,522.0,326.0,-719.0,-801.0,56.0,543.0,-609.0,-12.0
19:39:42.584000,555.0,544.0,321.0,-736.0,-783.0,52.0,543.0,-609.0,-12.0
19:39:42.589000,571.0,567.0,311.0,-736.0,-783.0,52.0,546.0,-616.0,6.0
19:39:42.593000,590.0,588.0,299.0,-745.0,-770.0,46.0,546.0,-616.0,6.0
19:39:42.598000,590.0,617.0,284.0,-756.0,-764.0,40.0,546.0,-616.0,6.0
19:39:42.603000,585.0,650.0,266.0,-765.0,-747.0,33.0,538.0,-612.0,-3.0
19:39:42.608000,576.0,687.0,243.0,-773.0,-734.0,21.0,538.0,-612.0,-3.0
19:39:42.612000,573.0,716.0,196.0,-783.0,-722.0,10.0,543.0,-615.0,4.0
19:39:42.617000,556.0,751.0,140.0,-796.0,-708.0,2.0,543.0,-615.0,4.0
19:39:42.621000,544.0,782.0,104.0,-794.0,-701.0,-11.0,543.0,-615.0,4.0
19:39:42.626000,527.0,809.0,83.0,-780.0,-690.0,-20.0,553.0,-624.0,24.0
19:39:42.631000,502.0,832.0,58.0,-760.0,-691.0,-21.0,553.0,-624.0,24.0
19:39:42.636000,488.0,842.0,23.0,-732.0,-699.0,-29.0,541.0,-625.0,21.0
19:39:42.640000,488.0,842.0,23.0,-700.0,-705.0,-32.0,541.0,-625.0,21.0
19:39:42.645000,466.0,846.0,-11.0,-672.0,-717.0,-37.0,541.0,-625.0,21.0
19:39:42.650000,446.0,843.0,-28.0,-650.0,-736.0,-54.0,558.0,-633.0,37.0
19:39:42.655000,441.0,837.0,-23.0,-640.0,-747.0,-70.0,558.0,-633.0,37.0
19:39:42.659000,436.0,821.0,-14.0,-636.0,-737.0,-79.0,552.0,-625.0,43.0
19:39:42.664000,432.0,800.0,-6.0,-637.0,-701.0,-93.0,552.0,-625.0,43.0
19:39:42.668000,428.0,783.0,-7.0,-639.0,-647.0,-103.0,552.0,-625.0,43.0
19:39:42.673000,415.0,758.0,-18.0,-630.0,-604.0,-108.0,562.0,-619.0,45.0
19:39:42.678000,406.0,732.0,-23.0,-598.0,-604.0,-116.0,562.0,-619.0,45.0
19:39:42.683000,393.0,702.0,1.0,-550.0,-635.0,-125.0,565.0,-628.0,54.0
19:39:42.687000,382.0,677.0,57.0,-519.0,-653.0,-138.0,565.0,-628.0,54.0
19:39:42.692000,371.0,647.0,125.0,-535.0,-634.0,-149.0,565.0,-628.0,54.0
19:39:42.697000,354.0,620.0,179.0,-579.0,-587.0,-163.0,555.0,-627.0,61.0
19:39:42.702000,338.0,598.0,226.0,-579.0,-587.0,-163.0,555.0,-627.0,61.0
19:39:42.706000,316.0,572.0,272.0,-623.0,-542.0,-175.0,565.0,-630.0,61.0
19:39:42.711000,286.0,554.0,319.0,-648.0,-516.0,-186.0,565.0,-630.0,61.0
19:39:42.715000,249.0,529.0,359.0,-647.0,-499.0,-188.0,565.0,-630.0,61.0
19:39:42.720000,208.0,499.0,399.0,-617.0,-481.0,-183.0,568.0,-643.0,64.0
19:39:42.725000,182.0,452.0,436.0,-569.0,-470.0,-174.0,568.0,-643.0,64.0
19:39:42.730000,123.0,440.0,406.0,-506.0,-470.0,-169.0,570.0,-645.0,84.0
19:39:42.734000,76.0,400.0,439.0,-413.0,-494.0,-170.0,570.0,-645.0,84.0
19:39:42.739000,76.0,400.0,439.0,-378.0,-549.0,-168.0,570.0,-645.0,84.0
19:39:42.744000,-1.0,290.0,448.0,-461.0,-550.0,-159.0,576.0,-633.0,69.0
19:39:42.749000,-1.0,290.0,448.0,-368.0,-531.0,-165.0,576.0,-633.0,69.0
19:39:42.753000,-30.0,253.0,400.0,-206.0,-559.0,-159.0,567.0,-640.0,87.0
19:39:42.758000,-67.0,204.0,339.0,-251.0,-542.0,-150.0,567.0,-640.0,87.0
19:39:42.762000,-107.0,163.0,235.0,-319.0,-516.0,-171.0,567.0,-640.0,87.0
19:39:42.767000,-140.0,125.0,159.0,-378.0,-540.0,-185.0,570.0,-651.0,84.0
19:39:42.772000,-161.0,93.0,114.0,-465.0,-591.0,-214.0,570.0,-651.0,84.0
19:39:42.777000,-177.0,77.0,38.0,-557.0,-650.0,-222.0,550.0,-648.0,78.0
19:39:42.781000,-173.0,52.0,-56.0,-582.0,-731.0,-157.0,550.0,-648.0,78.0
19:39:42.786000,-167.0,1.0,-87.0,-566.0,-760.0,-153.0,550.0,-648.0,78.0
19:39:42.791000,-180.0,-32.0,-89.0,-543.0,-692.0,-207.0,567.0,-648.0,73.0
19:39:42.796000,-217.0,-57.0,-32.0,-547.0,-569.0,-253.0,567.0,-648.0,73.0
19:39:42.800000,-233.0,-63.0,4.0,-547.0,-569.0,-253.0,567.0,-646.0,78.0
19:39:42.805000,-257.0,-89.0,-12.0,-722.0,-533.0,-182.0,567.0,-646.0,78.0
19:39:42.809000,-304.0,-130.0,-25.0,-686.0,-550.0,-217.0,567.0,-646.0,78.0
19:39:42.814000,-321.0,-141.0,35.0,-686.0,-582.0,-217.0,567.0,-646.0,75.0
19:39:42.819000,-373.0,-157.0,183.0,-548.0,-567.0,-235.0,567.0,-646.0,75.0
19:39:42.824000,-347.0,-140.0,228.0,-545.0,-579.0,-256.0,546.0,-639.0,79.0
19:39:42.828000,-406.0,-140.0,240.0,-645.0,-577.0,-278.0,546.0,-639.0,79.0
19:39:42.833000,-404.0,-114.0,342.0,-590.0,-639.0,-285.0,546.0,-639.0,79.0
19:39:42.838000,-365.0,-65.0,342.0,-587.0,-816.0,-372.0,568.0,-645.0,70.0
19:39:42.843000,-344.0,-48.0,249.0,-729.0,-969.0,-357.0,568.0,-645.0,70.0
19:39:42.847000,-300.0,-11.0,142.0,-779.0,-931.0,-349.0,559.0,-642.0,70.0
19:39:42.852000,-262.0,20.0,42.0,-747.0,-813.0,-379.0,559.0,-642.0,70.0
19:39:42.856000,-262.0,20.0,42.0,-732.0,-799.0,-334.0,559.0,-642.0,70.0
19:39:42.861000,-236.0,35.0,-59.0,-790.0,-924.0,-325.0,555.0,-646.0,72.0
19:39:42.866000,-182.0,63.0,-214.0,-862.0,-1003.0,-294.0,555.0,-646.0,72.0
19:39:42.871000,-147.0,64.0,-371.0,-860.0,-957.0,-278.0,562.0,-643.0,70.0
19:39:42.875000,-74.0,83.0,-512.0,-822.0,-886.0,-276.0,562.0,-643.0,70.0
19:39:42.880000,-32.0,68.0,-620.0,-789.0,-810.0,-239.0,562.0,-643.0,70.0
19:39:42.885000,7.0,56.0,-705.0,-826.0,-683.0,-268.0,556.0,-640.0,63.0
19:39:42.890000,2.0,51.0,-871.0,-806.0,-603.0,-219.0,556.0,-640.0,63.0
19:39:42.894000,-51.0,14.0,-865.0,-625.0,-646.0,-192.0,559.0,-636.0,67.0
19:39:42.899000,-41.0,8.0,-709.0,-561.0,-721.0,-208.0,559.0,-636.0,67.0
19:39:42.903000,-58.0,-9.0,-649.0,-680.0,-748.0,-184.0,559.0,-636.0,67.0
19:39:42.908000,-77.0,-39.0,-642.0,-769.0,-695.0,-205.0,574.0,-633.0,64.0
19:39:42.913000,-86.0,-55.0,-662.0,-806.0,-629.0,-237.0,574.0,-633.0,64.0
19:39:42.918000,-101.0,-63.0,-660.0,-806.0,-629.0,-237.0,571.0,-630.0,66.0
19:39:42.922000,-158.0,-81.0,-462.0,-683.0,-615.0,-219.0,571.0,-630.0,66.0
19:39:42.927000,-186.0,-76.0,-207.0,-398.0,-605.0,-236.0,571.0,-630.0,66.0
19:39:42.932000,-181.0,-68.0,-243.0,-445.0,-597.0,-297.0,574.0,-619.0,72.0
