hh:mm:ss.ms,gyroX[mdps],gyroY[mdps],gyroZ[mdps],accX[mg],accY[mg],accZ[mg],magX[mG],magY[mG],magZ[mG]
19:46:09.295000,57.0,-336.0,79.0,-1515.0,482.0,-188.0,0.0,0.0,0.0
19:46:09.300000,57.0,-336.0,79.0,-1602.0,463.0,-191.0,0.0,0.0,0.0
19:46:09.305000,30.0,-352.0,168.0,-1602.0,463.0,-191.0,0.0,0.0,0.0
19:46:09.309000,-39.0,-354.0,193.0,-1554.0,298.0,-155.0,0.0,0.0,0.0
19:46:09.314000,-62.0,-364.0,167.0,-1554.0,298.0,-155.0,0.0,0.0,0.0
19:46:09.319000,-56.0,-368.0,-3.0,-1477.0,-1.0,-129.0,0.0,0.0,0.0
19:46:09.324000,-90.0,-357.0,79.0,-1477.0,-1.0,-129.0,0.0,0.0,0.0
19:46:09.328000,-125.0,-350.0,247.0,-1361.0,-351.0,-110.0,0.0,0.0,0.0
19:46:09.333000,-183.0,-340.0,481.0,-1361.0,-351.0,-110.0,0.0,0.0,0.0
19:46:09.338000,-264.0,-310.0,590.0,-1196.0,-557.0,-44.0,0.0,0.0,0.0
19:46:09.342000,-306.0,-286.0,308.0,-1196.0,-557.0,-44.0,0.0,0.0,0.0
19:46:09.347000,-314.0,-283.0,-34.0,-954.0,-794.0,11.0,0.0,0.0,0.0
19:46:09.352000,-340.0,-179.0,85.0,-954.0,-794.0,11.0,0.0,0.0,0.0
19:46:09.356000,-321.0,-168.0,140.0,-745.0,-1178.0,43.0,0.0,0.0,0.0
19:46:09.361000,-266.0,-163.0,163.0,-745.0,-1178.0,43.0,0.0,0.0,0.0
19:46:09.366000,-281.0,-153.0,56.0,-745.0,-1178.0,43.0,0.0,0.0,0.0
19:46:09.371000,-173.0,-168.0,107.0,-651.0,-1333.0,85.0,0.0,0.0,0.0
19:46:09.375000,-230.0,-116.0,-109.0,-651.0,-1333.0,85.0,0.0,0.0,0.0
19:46:09.380000,-112.0,-126.0,-489.0,-697.0,-1194.0,94.0,0.0,0.0,0.0
19:46:09.385000,-144.0,-90.0,-547.0,-697.0,-1194.0,94.0,0.0,0.0,0.0
19:46:09.389000,-202.0,-61.0,-454.0,-659.0,-1033.0,99.0,0.0,0.0,0.0
19:46:09.394000,-164.0,-20.0,-612.0,-659.0,-1033.0,99.0,0.0,0.0,0.0
19:46:09.399000,-90.0,-14.0,-800.0,-637.0,-902.0,56.0,0.0,0.0,0.0
19:46:09.403000,-118.0,14.0,-1005.0,-637.0,-902.0,56.0,0.0,0.0,0.0
19:46:09.408000,-118.0,14.0,-1005.0,-777.0,-854.0,2.0,0.0,0.0,0.0
19:46:09.413000,-173.0,26.0,-742.0,-777.0,-854.0,2.0,0.0,0.0,0.0
19:46:09.418000,-179.0,35.0,-619.0,-921.0,-678.0,3.0,0.0,0.0,0.0
19:46:09.422000,-160.0,56.0,-877.0,-921.0,-678.0,3.0,0.0,0.0,0.0
19:46:09.427000,-86.0,50.0,-787.0,-877.0,-615.0,0.0,0.0,0.0,0.0
19:46:09.432000,-83.0,32.0,-560.0,-877.0,-615.0,0.0,0.0,0.0,0.0
19:46:09.436000,-95.0,40.0,-543.0,-723.0,-625.0,20.0,0.0,0.0,0.0
19:46:09.441000,-49.0,36.0,-567.0,-723.0,-625.0,20.0,0.0,0.0,0.0
19:46:09.446000,21.0,44.0,-501.0,-740.0,-596.0,28.0,0.0,0.0,0.0
19:46:09.450000,0.0,52.0,-387.0,-740.0,-596.0,28.0,0.0,0.0,0.0
19:46:09.455000,21.0,69.0,-271.0,-734.0,-656.0,26.0,0.0,0.0,0.0
19:46:09.460000,56.0,88.0,-165.0,-734.0,-656.0,26.0,0.0,0.0,0.0
19:46:09.465000,9.0,84.0,-152.0,-733.0,-608.0,43.0,0.0,0.0,0.0
19:46:09.469000,44.0,91.0,-191.0,-733.0,-608.0,43.0,0.0,0.0,0.0
19:46:09.474000,37.0,135.0,-152.0,-733.0,-608.0,43.0,0.0,0.0,0.0
19:46:09.479000,54.0,138.0,-270.0,-753.0,-585.0,53.0,0.0,0.0,0.0
19:46:09.483000,114.0,152.0,-374.0,-753.0,-585.0,53.0,0.0,0.0,0.0
19:46:09.488000,93.0,135.0,-259.0,-754.0,-689.0,65.0,0.0,0.0,0.0
19:46:09.493000,42.0,105.0,-225.0,-754.0,-689.0,65.0,0.0,0.0,0.0
19:46:09.497000,5.0,70.0,-282.0,-642.0,-692.0,87.0,0.0,0.0,0.0
19:46:09.502000,-65.0,99.0,-255.0,-642.0,-692.0,87.0,0.0,0.0,0.0
19:46:09.507000,-43.0,118.0,-189.0,-529.0,-499.0,68.0,0.0,0.0,0.0
19:46:09.512000,32.0,74.0,-235.0,-529.0,-499.0,68.0,0.0,0.0,0.0
19:46:09.516000,60.0,10.0,-212.0,-694.0,-579.0,45.0,0.0,0.0,0.0
19:46:09.521000,60.0,10.0,-212.0,-694.0,-579.0,45.0,0.0,0.0,0.0
19:46:09.526000,21.0,16.0,-156.0,-786.0,-643.0,47.0,0.0,0.0,0.0
19:46:09.530000,119.0,16.0,-306.0,-786.0,-643.0,47.0,0.0,0.0,0.0
19:46:09.534000,89.0,-18.0,-292.0,-740.0,-505.0,57.0,0.0,0.0,0.0
19:46:09.540000,-26.0,-7.0,-298.0,-740.0,-505.0,57.0,0.0,0.0,0.0
19:46:09.544000,-42.0,-21.0,-249.0,-712.0,-416.0,73.0,0.0,0.0,0.0
19:46:09.549000,-149.0,-15.0,-65.0,-712.0,-416.0,73.0,0.0,0.0,0.0
19:46:09.554000,-112.0,-42.0,-74.0,-753.0,-302.0,64.0,0.0,0.0,0.0
19:46:09.559000,-136.0,-49.0,-235.0,-753.0,-302.0,64.0,0.0,0.0,0.0
19:46:09.563000,-149.0,-52.0,-338.0,-819.0,-407.0,50.0,0.0,0.0,0.0
19:46:09.568000,-174.0,-52.0,-203.0,-819.0,-407.0,50.0,0.0,0.0,0.0
19:46:09.573000,-191.0,-46.0,-175.0,-856.0,-528.0,41.0,0.0,0.0,0.0
19:46:09.577000,-154.0,-73.0,-240.0,-856.0,-528.0,41.0,0.0,0.0,0.0
19:46:09.582000,-210.0,-88.0,-44.0,-856.0,-528.0,41.0,0.0,0.0,0.0
19:46:09.587000,-191.0,-73.0,135.0,-886.0,-609.0,43.0,0.0,0.0,0.0
19:46:09.591000,-161.0,-87.0,248.0,-857.0,-565.0,43.0,0.0,0.0,0.0
19:46:09.596000,-123.0,-71.0,161.0,-857.0,-565.0,43.0,0.0,0.0,0.0
19:46:09.601000,-109.0,-72.0,35.0,-857.0,-565.0,43.0,0.0,0.0,0.0
19:46:09.606000,-95.0,-77.0,7.0,-874.0,-549.0,42.0,0.0,0.0,0.0
19:46:09.610000,-77.0,-33.0,-167.0,-874.0,-549.0,42.0,0.0,0.0,0.0
19:46:09.615000,-42.0,-42.0,-367.0,-757.0,-622.0,31.0,0.0,0.0,0.0
19:46:09.620000,-128.0,-25.0,-469.0,-757.0,-622.0,31.0,0.0,0.0,0.0
19:46:09.624000,-168.0,0.0,-442.0,-660.0,-561.0,-1.0,0.0,0.0,0.0
19:46:09.629000,-168.0,0.0,-442.0,-660.0,-561.0,-1.0,0.0,0.0,0.0
19:46:09.634000,-149.0,11.0,-277.0,-754.0,-553.0,-15.0,0.0,0.0,0.0
19:46:09.638000,-105.0,-42.0,-70.0,-754.0,-553.0,-15.0,0.0,0.0,0.0
19:46:09.643000,-126.0,-68.0,19.0,-773.0,-581.0,14.0,0.0,0.0,0.0
19:46:09.648000,-63.0,-112.0,-104.0,-773.0,-581.0,14.0,0.0,0.0,0.0
19:46:09.653000,33.0,-106.0,-516.0,-735.0,-700.0,4.0,0.0,0.0,0.0
19:46:09.657000,96.0,-86.0,-725.0,-735.0,-700.0,4.0,0.0,0.0,0.0
19:46:09.662000,43.0,-51.0,-354.0,-760.0,-640.0,0.0,0.0,0.0,0.0
19:46:09.667000,-44.0,-7.0,-7.0,-760.0,-640.0,0.0,0.0,0.0,0.0
19:46:09.671000,-95.0,-7.0,18.0,-891.0,-310.0,21.0,0.0,0.0,0.0
19:46:09.676000,-77.0,30.0,-270.0,-891.0,-310.0,21.0,0.0,0.0,0.0
19:46:09.681000,-95.0,42.0,-463.0,-956.0,-502.0,-2.0,0.0,0.0,0.0
19:46:09.685000,-103.0,57.0,-223.0,-956.0,-502.0,-2.0,0.0,0.0,0.0
19:46:09.690000,-121.0,63.0,67.0,-956.0,-502.0,-2.0,0.0,0.0,0.0
19:46:09.695000,-7.0,10.0,49.0,-882.0,-711.0,24.0,0.0,0.0,0.0
19:46:09.700000,-40.0,25.0,-282.0,-882.0,-711.0,24.0,0.0,0.0,0.0
19:46:09.704000,-7.0,53.0,-561.0,-869.0,-521.0,58.0,0.0,0.0,0.0
19:46:09.709000,33.0,54.0,-539.0,-869.0,-521.0,58.0,0.0,0.0,0.0
19:46:09.714000,74.0,46.0,-465.0,-724.0,-587.0,0.0,0.0,0.0,0.0
19:46:09.718000,97.0,48.0,-524.0,-724.0,-587.0,0.0,0.0,0.0,0.0
19:46:09.723000,50.0,38.0,-344.0,-699.0,-695.0,-68.0,0.0,0.0,0.0
19:46:09.728000,15.0,-11.0,-72.0,-699.0,-695.0,-68.0,0.0,0.0,0.0
19:46:09.732000,49.0,-61.0,41.0,-940.0,-650.0,-27.0,0.0,0.0,0.0
19:46:09.737000,49.0,-61.0,41.0,-940.0,-650.0,-27.0,0.0,0.0,0.0
19:46:09.742000,106.0,-93.0,65.0,-921.0,-602.0,22.0,0.0,0.0,0.0
19:46:09.747000,140.0,-93.0,-77.0,-921.0,-602.0,22.0,0.0,0.0,0.0
19:46:09.751000,161.0,-133.0,-218.0,-753.0,-561.0,67.0,0.0,0.0,0.0
19:46:09.756000,158.0,-151.0,-175.0,-753.0,-561.0,67.0,0.0,0.0,0.0
19:46:09.761000,138.0,-150.0,-146.0,-739.0,-370.0,115.0,0.0,0.0,0.0
19:46:09.765000,107.0,-150.0,-147.0,-739.0,-370.0,115.0,0.0,0.0,0.0
19:46:09.770000,52.0,-133.0,-108.0,-830.0,-256.0,110.0,0.0,0.0,0.0
19:46:09.775000,-2.0,-125.0,-129.0,-830.0,-256.0,110.0,0.0,0.0,0.0
19:46:09.779000,-56.0,-107.0,-175.0,-972.0,-305.0,84.0,0.0,0.0,0.0
19:46:09.784000,-69.0,-77.0,-186.0,-972.0,-305.0,84.0,0.0,0.0,0.0
19:46:09.789000,-84.0,-35.0,-171.0,-1038.0,-433.0,35.0,0.0,0.0,0.0
19:46:09.794000,-101.0,-5.0,-88.0,-1038.0,-433.0,35.0,0.0,0.0,0.0
19:46:09.798000,-58.0,14.0,-53.0,-1038.0,-433.0,35.0,0.0,0.0,0.0
19:46:09.803000,-25.0,35.0,-68.0,-1014.0,-511.0,-4.0,0.0,0.0,0.0
19:46:09.808000,10.0,24.0,-224.0,-1014.0,-511.0,-4.0,0.0,0.0,0.0
19:46:09.812000,1.0,21.0,-429.0,-974.0,-525.0,-14.0,0.0,0.0,0.0
19:46:09.817000,-29.0,30.0,-464.0,-974.0,-525.0,-14.0,0.0,0.0,0.0
19:46:09.822000,7.0,-9.0,-147.0,-908.0,-674.0,11.0,0.0,0.0,0.0
19:46:09.826000,28.0,-74.0,236.0,-908.0,-674.0,11.0,0.0,0.0,0.0
19:46:09.831000,32.0,-86.0,55.0,-813.0,-687.0,32.0,0.0,0.0,0.0
19:46:09.836000,49.0,-60.0,-228.0,-813.0,-687.0,32.0,0.0,0.0,0.0
19:46:09.841000,100.0,-61.0,-282.0,-780.0,-441.0,-6.0,0.0,0.0,0.0
19:46:09.845000,100.0,-61.0,-282.0,-780.0,-441.0,-6.0,0.0,0.0,0.0
19:46:09.850000,72.0,-79.0,-328.0,-784.0,-375.0,-3.0,0.0,0.0,0.0
19:46:09.855000,72.0,-92.0,-358.0,-784.0,-375.0,-3.0,0.0,0.0,0.0
19:46:09.859000,71.0,-95.0,-370.0,-789.0,-424.0,24.0,0.0,0.0,0.0
19:46:09.864000,49.0,-72.0,-425.0,-789.0,-424.0,24.0,0.0,0.0,0.0
19:46:09.869000,30.0,-27.0,-377.0,-848.0,-450.0,-5.0,0.0,0.0,0.0
19:46:09.873000,78.0,-21.0,-281.0,-848.0,-450.0,-5.0,0.0,0.0,0.0
19:46:09.878000,115.0,-7.0,-284.0,-943.0,-504.0,-29.0,0.0,0.0,0.0
19:46:09.883000,120.0,11.0,-292.0,-943.0,-504.0,-29.0,0.0,0.0,0.0
19:46:09.888000,104.0,-2.0,-280.0,-959.0,-475.0,-25.0,0.0,0.0,0.0
19:46:09.892000,74.0,20.0,-331.0,-959.0,-475.0,-25.0,0.0,0.0,0.0
19:46:09.897000,109.0,30.0,-492.0,-884.0,-515.0,-42.0,0.0,0.0,0.0
19:46:09.902000,130.0,22.0,-494.0,-884.0,-515.0,-42.0,0.0,0.0,0.0
19:46:09.906000,135.0,11.0,-117.0,-884.0,-552.0,-62.0,0.0,0.0,0.0
19:46:09.911000,156.0,4.0,17.0,-856.0,-552.0,-62.0,0.0,0.0,0.0
19:46:09.916000,174.0,34.0,-232.0,-856.0,-552.0,-62.0,0.0,0.0,0.0
19:46:09.920000,203.0,30.0,-385.0,-945.0,-378.0,-68.0,0.0,0.0,0.0
19:46:09.925000,203.0,40.0,-241.0,-945.0,-378.0,-68.0,0.0,0.0,0.0
19:46:09.930000,250.0,25.0,-98.0,-863.0,-387.0,-75.0,0.0,0.0,0.0
19:46:09.935000,247.0,47.0,-137.0,-863.0,-387.0,-75.0,0.0,0.0,0.0
19:46:09.939000,287.0,37.0,-208.0,-821.0,-442.0,-83.0,0.0,0.0,0.0
19:46:09.944000,254.0,69.0,-222.0,-821.0,-442.0,-83.0,0.0,0.0,0.0
19:46:09.949000,273.0,65.0,-201.0,-934.0,-376.0,-104.0,0.0,0.0,0.0
19:46:09.953000,236.0,77.0,-190.0,-934.0,-376.0,-104.0,0.0,0.0,0.0
19:46:09.958000,236.0,77.0,-190.0,-940.0,-394.0,-111.0,0.0,0.0,0.0
19:46:09.963000,226.0,59.0,-178.0,-940.0,-394.0,-111.0,0.0,0.0,0.0
19:46:09.967000,193.0,56.0,-134.0,-928.0,-398.0,-106.0,0.0,0.0,0.0
19:46:09.972000,200.0,37.0,-105.0,-928.0,-398.0,-106.0,0.0,0.0,0.0
19:46:09.977000,201.0,28.0,-88.0,-894.0,-423.0,-104.0,0.0,0.0,0.0
19:46:09.982000,220.0,14.0,-106.0,-894.0,-423.0,-104.0,0.0,0.0,0.0
19:46:09.986000,191.0,12.0,-135.0,-876.0,-402.0,-85.0,0.0,0.0,0.0
19:46:09.991000,200.0,5.0,-146.0,-876.0,-402.0,-85.0,0.0,0.0,0.0
19:46:09.996000,203.0,11.0,-148.0,-855.0,-376.0,-66.0,0.0,0.0,0.0
19:46:10.000000,214.0,4.0,-170.0,-855.0,-376.0,-66.0,0.0,0.0,0.0
19:46:10.005000,189.0,10.0,-191.0,-866.0,-368.0,-63.0,0.0,0.0,0.0
19:46:10.010000,182.0,2.0,-181.0,-866.0,-368.0,-63.0,0.0,0.0,0.0
19:46:10.014000,158.0,2.0,-190.0,-920.0,-369.0,-52.0,0.0,0.0,0.0
19:46:10.019000,160.0,-4.0,-217.0,-920.0,-369.0,-52.0,0.0,0.0,0.0
19:46:10.024000,137.0,-13.0,-297.0,-920.0,-369.0,-52.0,0.0,0.0,0.0
19:46:10.029000,147.0,-23.0,-332.0,-914.0,-393.0,-45.0,0.0,0.0,0.0
19:46:10.033000,138.0,-21.0,-274.0,-914.0,-393.0,-45.0,0.0,0.0,0.0
19:46:10.038000,140.0,-25.0,-251.0,-875.0,-373.0,-50.0,0.0,0.0,0.0
19:46:10.043000,116.0,-23.0,-270.0,-875.0,-373.0,-50.0,0.0,0.0,0.0
19:46:10.047000,132.0,-32.0,-261.0,-909.0,-329.0,-55.0,0.0,0.0,0.0
19:46:10.052000,105.0,-32.0,-263.0,-909.0,-329.0,-55.0,0.0,0.0,0.0
19:46:10.057000,99.0,-35.0,-308.0,-957.0,-335.0,-54.0,0.0,0.0,0.0
19:46:10.061000,67.0,-32.0,-341.0,-957.0,-335.0,-54.0,0.0,0.0,0.0
19:46:10.066000,67.0,-32.0,-341.0,-934.0,-344.0,-31.0,0.0,0.0,0.0
19:46:10.071000,81.0,-49.0,-311.0,-934.0,-344.0,-31.0,0.0,0.0,0.0
19:46:10.076000,64.0,-43.0,-289.0,-904.0,-347.0,-23.0,0.0,0.0,0.0
19:46:10.080000,74.0,-49.0,-242.0,-904.0,-347.0,-23.0,0.0,0.0,0.0
19:46:10.085000,46.0,-49.0,-263.0,-951.0,-352.0,-21.0,0.0,0.0,0.0
19:46:10.090000,37.0,-42.0,-340.0,-951.0,-352.0,-21.0,0.0,0.0,0.0
19:46:10.094000,12.0,-32.0,-389.0,-1001.0,-322.0,-11.0,0.0,0.0,0.0
19:46:10.099000,21.0,-31.0,-401.0,-1001.0,-322.0,-11.0,0.0,0.0,0.0
19:46:10.104000,-9.0,-15.0,-408.0,-1021.0,-292.0,-7.0,0.0,0.0,0.0
19:46:10.108000,-14.0,-9.0,-403.0,-1021.0,-292.0,-7.0,0.0,0.0,0.0
19:46:10.113000,-38.0,1.0,-390.0,-1023.0,-317.0,-11.0,0.0,0.0,0.0
19:46:10.118000,-26.0,0.0,-396.0,-1023.0,-317.0,-11.0,0.0,0.0,0.0
19:46:10.123000,-55.0,13.0,-431.0,-1024.0,-349.0,-16.0,0.0,0.0,0.0
19:46:10.127000,-48.0,22.0,-443.0,-1024.0,-349.0,-16.0,0.0,0.0,0.0
19:46:10.132000,-64.0,44.0,-466.0,-1024.0,-349.0,-16.0,0.0,0.0,0.0
19:46:10.137000,-52.0,54.0,-455.0,-1046.0,-337.0,-2.0,0.0,0.0,0.0
19:46:10.141000,-75.0,74.0,-435.0,-1046.0,-330.0,-2.0,0.0,0.0,0.0
19:46:10.146000,-68.0,88.0,-445.0,-1055.0,-330.0,11.0,0.0,0.0,0.0
19:46:10.151000,-94.0,113.0,-481.0,-1055.0,-330.0,11.0,0.0,0.0,0.0
19:46:10.155000,-87.0,128.0,-483.0,-1049.0,-308.0,16.0,0.0,0.0,0.0
19:46:10.160000,-112.0,151.0,-452.0,-1049.0,-308.0,16.0,0.0,0.0,0.0
19:46:10.165000,-105.0,165.0,-439.0,-1039.0,-288.0,14.0,0.0,0.0,0.0
19:46:10.170000,-120.0,182.0,-462.0,-1039.0,-288.0,14.0,0.0,0.0,0.0
19:46:10.174000,-120.0,182.0,-462.0,-1028.0,-292.0,18.0,0.0,0.0,0.0
19:46:10.179000,-102.0,189.0,-483.0,-1028.0,-292.0,18.0,0.0,0.0,0.0
19:46:10.184000,-104.0,210.0,-515.0,-976.0,-290.0,4.0,0.0,0.0,0.0
19:46:10.188000,-87.0,229.0,-597.0,-976.0,-290.0,4.0,0.0,0.0,0.0
19:46:10.193000,-102.0,259.0,-662.0,-974.0,-297.0,-39.0,0.0,0.0,0.0
19:46:10.198000,-97.0,262.0,-691.0,-974.0,-297.0,-39.0,0.0,0.0,0.0
19:46:10.202000,-128.0,276.0,-665.0,-1084.0,-300.0,-58.0,0.0,0.0,0.0
19:46:10.207000,-132.0,268.0,-599.0,-1084.0,-300.0,-58.0,0.0,0.0,0.0
19:46:10.212000,-138.0,261.0,-599.0,-1161.0,-313.0,-43.0,0.0,0.0,0.0
19:46:10.217000,-119.0,232.0,-592.0,-1161.0,-313.0,-43.0,0.0,0.0,0.0
19:46:10.221000,-101.0,211.0,-576.0,-1084.0,-338.0,-37.0,0.0,0.0,0.0
19:46:10.226000,-65.0,183.0,-572.0,-1084.0,-338.0,-37.0,0.0,0.0,0.0
19:46:10.231000,-38.0,171.0,-576.0,-981.0,-312.0,-41.0,0.0,0.0,0.0
19:46:10.235000,-23.0,170.0,-596.0,-981.0,-312.0,-41.0,0.0,0.0,0.0
19:46:10.240000,-5.0,163.0,-627.0,-981.0,-312.0,-41.0,0.0,0.0,0.0
19:46:10.245000,-3.0,168.0,-676.0,-982.0,-248.0,-47.0,0.0,0.0,0.0
19:46:10.249000,3.0,168.0,-683.0,-982.0,-248.0,-47.0,0.0,0.0,0.0
19:46:10.254000,4.0,160.0,-672.0,-1038.0,-204.0,-47.0,0.0,0.0,0.0
19:46:10.259000,2.0,158.0,-658.0,-1038.0,-204.0,-47.0,0.0,0.0,0.0
19:46:10.264000,-14.0,157.0,-639.0,-1047.0,-190.0,-38.0,0.0,0.0,0.0
19:46:10.268000,-18.0,149.0,-619.0,-1047.0,-190.0,-38.0,0.0,0.0,0.0
19:46:10.273000,-39.0,153.0,-616.0,-1021.0,-183.0,-34.0,0.0,0.0,0.0
19:46:10.278000,-52.0,157.0,-643.0,-1021.0,-183.0,-34.0,0.0,0.0,0.0
19:46:10.282000,-52.0,157.0,-643.0,-1032.0,-128.0,-33.0,0.0,0.0,0.0
19:46:10.287000,-67.0,168.0,-699.0,-1032.0,-128.0,-33.0,0.0,0.0,0.0
19:46:10.292000,-65.0,165.0,-705.0,-1037.0,-79.0,-34.0,0.0,0.0,0.0
19:46:10.296000,-81.0,167.0,-672.0,-1037.0,-79.0,-34.0,0.0,0.0,0.0
19:46:10.301000,-88.0,165.0,-666.0,-1029.0,-86.0,-34.0,0.0,0.0,0.0
19:46:10.306000,-98.0,165.0,-695.0,-1029.0,-86.0,-34.0,0.0,0.0,0.0
19:46:10.311000,-86.0,164.0,-728.0,-1031.0,-112.0,-39.0,0.0,0.0,0.0
19:46:10.315000,-79.0,168.0,-746.0,-1031.0,-112.0,-39.0,0.0,0.0,0.0
19:46:10.320000,-78.0,166.0,-744.0,-1016.0,-121.0,-45.0,0.0,0.0,0.0
19:46:10.325000,-74.0,164.0,-735.0,-1016.0,-121.0,-45.0,0.0,0.0,0.0
19:46:10.329000,-74.0,155.0,-721.0,-1002.0,-61.0,-43.0,0.0,0.0,0.0
19:46:10.334000,-83.0,154.0,-704.0,-1002.0,-61.0,-43.0,0.0,0.0,0.0
19:46:10.339000,-82.0,149.0,-687.0,-1015.0,-34.0,-47.0,0.0,0.0,0.0
19:46:10.343000,-61.0,141.0,-685.0,-1015.0,-34.0,-47.0,0.0,0.0,0.0
19:46:10.348000,-50.0,132.0,-702.0,-1015.0,-34.0,-47.0,0.0,0.0,0.0
19:46:10.353000,-45.0,126.0,-681.0,-1029.0,-75.0,-50.0,0.0,0.0,0.0
19:46:10.358000,-42.0,123.0,-646.0,-1029.0,-75.0,-50.0,0.0,0.0,0.0
19:46:10.362000,-37.0,121.0,-622.0,-1035.0,-77.0,-49.0,0.0,0.0,0.0
19:46:10.366000,-30.0,121.0,-616.0,-1035.0,-77.0,-49.0,0.0,0.0,0.0
19:46:10.372000,-25.0,123.0,-625.0,-1038.0,-47.0,-55.0,0.0,0.0,0.0
19:46:10.376000,-13.0,127.0,-634.0,-1038.0,-47.0,-55.0,0.0,0.0,0.0
19:46:10.381000,-9.0,135.0,-637.0,-1052.0,-26.0,-62.0,0.0,0.0,0.0
19:46:10.386000,5.0,139.0,-624.0,-1052.0,-26.0,-62.0,0.0,0.0,0.0
19:46:10.390000,11.0,151.0,-639.0,-1052.0,-24.0,-70.0,0.0,0.0,0.0
19:46:10.395000,11.0,151.0,-639.0,-1052.0,-24.0,-70.0,0.0,0.0,0.0
19:46:10.400000,14.0,159.0,-648.0,-1047.0,-12.0,-74.0,0.0,0.0,0.0
19:46:10.405000,9.0,173.0,-623.0,-1047.0,-12.0,-74.0,0.0,0.0,0.0
19:46:10.409000,13.0,183.0,-588.0,-1058.0,0.0,-78.0,0.0,0.0,0.0
19:46:10.414000,9.0,202.0,-580.0,-1058.0,0.0,-78.0,0.0,0.0,0.0
19:46:10.419000,7.0,219.0,-586.0,-1091.0,19.0,-86.0,0.0,0.0,0.0
19:46:10.423000,4.0,245.0,-594.0,-1091.0,19.0,-86.0,0.0,0.0,0.0
19:46:10.428000,2.0,270.0,-602.0,-1121.0,51.0,-94.0,0.0,0.0,0.0
19:46:10.433000,-9.0,297.0,-590.0,-1121.0,51.0,-94.0,0.0,0.0,0.0
19:46:10.437000,-17.0,321.0,-575.0,-1121.0,75.0,-101.0,0.0,0.0,0.0
19:46:10.442000,-27.0,341.0,-574.0,-1121.0,75.0,-101.0,0.0,0.0,0.0
19:46:10.447000,-25.0,358.0,-562.0,-1108.0,78.0,-106.0,0.0,0.0,0.0
19:46:10.452000,-27.0,376.0,-561.0,-1108.0,78.0,-106.0,0.0,0.0,0.0
19:46:10.456000,-23.0,383.0,-557.0,-1108.0,78.0,-106.0,0.0,0.0,0.0
19:46:10.461000,-25.0,392.0,-543.0,-1090.0,69.0,-107.0,0.0,0.0,0.0
19:46:10.466000,-16.0,394.0,-526.0,-1090.0,69.0,-107.0,0.0,0.0,0.0
19:46:10.470000,-12.0,396.0,-520.0,-1067.0,55.0,-110.0,0.0,0.0,0.0
19:46:10.475000,-1.0,394.0,-518.0,-1067.0,55.0,-110.0,0.0,0.0,0.0
19:46:10.480000,14.0,387.0,-518.0,-1043.0,54.0,-122.0,0.0,0.0,0.0
19:46:10.484000,26.0,381.0,-518.0,-1043.0,54.0,-122.0,0.0,0.0,0.0
19:46:10.489000,30.0,375.0,-511.0,-1034.0,73.0,-133.0,0.0,0.0,0.0
19:46:10.494000,37.0,364.0,-495.0,-1034.0,73.0,-133.0,0.0,0.0,0.0
19:46:10.499000,47.0,353.0,-487.0,-1030.0,74.0,-142.0,0.0,0.0,0.0
19:46:10.503000,47.0,353.0,-487.0,-1030.0,74.0,-142.0,0.0,0.0,0.0
19:46:10.508000,63.0,338.0,-508.0,-1015.0,77.0,-153.0,0.0,0.0,0.0
19:46:10.513000,73.0,321.0,-539.0,-1015.0,77.0,-153.0,0.0,0.0,0.0
19:46:10.517000,83.0,303.0,-525.0,-990.0,97.0,-163.0,0.0,0.0,0.0
19:46:10.522000,89.0,284.0,-500.0,-990.0,97.0,-163.0,0.0,0.0,0.0
19:46:10.527000,100.0,265.0,-494.0,-995.0,96.0,-172.0,0.0,0.0,0.0
19:46:10.531000,111.0,246.0,-512.0,-995.0,96.0,-172.0,0.0,0.0,0.0
19:46:10.536000,121.0,224.0,-541.0,-1016.0,109.0,-179.0,0.0,0.0,0.0
19:46:10.541000,120.0,207.0,-571.0,-1016.0,109.0,-179.0,0.0,0.0,0.0
19:46:10.546000,119.0,186.0,-567.0,-994.0,134.0,-180.0,0.0,0.0,0.0
19:46:10.550000,114.0,170.0,-574.0,-994.0,134.0,-180.0,0.0,0.0,0.0
19:46:10.555000,114.0,151.0,-572.0,-973.0,141.0,-184.0,0.0,0.0,0.0
19:46:10.560000,112.0,130.0,-594.0,-973.0,141.0,-184.0,0.0,0.0,0.0
19:46:10.564000,106.0,117.0,-592.0,-973.0,141.0,-184.0,0.0,0.0,0.0
19:46:10.569000,95.0,104.0,-588.0,-959.0,158.0,-186.0,0.0,0.0,0.0
19:46:10.574000,85.0,91.0,-583.0,-959.0,158.0,-186.0,0.0,0.0,0.0
19:46:10.578000,74.0,81.0,-599.0,-940.0,196.0,-182.0,0.0,0.0,0.0
19:46:10.583000,65.0,77.0,-609.0,-940.0,196.0,-182.0,0.0,0.0,0.0
19:46:10.588000,66.0,70.0,-594.0,-932.0,214.0,-192.0,0.0,0.0,0.0
19:46:10.593000,60.0,59.0,-600.0,-932.0,214.0,-192.0,0.0,0.0,0.0
19:46:10.597000,51.0,62.0,-607.0,-929.0,207.0,-209.0,0.0,0.0,0.0
19:46:10.602000,56.0,58.0,-602.0,-929.0,207.0,-209.0,0.0,0.0,0.0
19:46:10.607000,58.0,53.0,-592.0,-924.0,215.0,-213.0,0.0,0.0,0.0
19:46:10.611000,58.0,53.0,-592.0,-924.0,215.0,-213.0,0.0,0.0,0.0
19:46:10.616000,58.0,53.0,-578.0,-909.0,223.0,-217.0,0.0,0.0,0.0
19:46:10.621000,59.0,46.0,-552.0,-909.0,223.0,-217.0,0.0,0.0,0.0
19:46:10.625000,62.0,49.0,-536.0,-907.0,235.0,-239.0,0.0,0.0,0.0
19:46:10.630000,79.0,46.0,-539.0,-907.0,235.0,-239.0,0.0,0.0,0.0
19:46:10.635000,96.0,37.0,-549.0,-892.0,256.0,-241.0,0.0,0.0,0.0
19:46:10.640000,108.0,28.0,-551.0,-892.0,256.0,-241.0,0.0,0.0,0.0
19:46:10.644000,115.0,20.0,-522.0,-836.0,280.0,-228.0,0.0,0.0,0.0
19:46:10.649000,120.0,25.0,-497.0,-836.0,280.0,-228.0,0.0,0.0,0.0
19:46:10.654000,131.0,25.0,-501.0,-816.0,289.0,-241.0,0.0,0.0,0.0
19:46:10.658000,154.0,14.0,-497.0,-816.0,289.0,-241.0,0.0,0.0,0.0
19:46:10.663000,168.0,2.0,-481.0,-815.0,289.0,-244.0,0.0,0.0,0.0
19:46:10.668000,165.0,0.0,-469.0,-815.0,289.0,-244.0,0.0,0.0,0.0
19:46:10.672000,163.0,-9.0,-473.0,-815.0,320.0,-244.0,0.0,0.0,0.0
19:46:10.677000,169.0,-23.0,-469.0,-805.0,316.0,-238.0,0.0,0.0,0.0
19:46:10.682000,175.0,-34.0,-451.0,-805.0,316.0,-238.0,0.0,0.0,0.0
19:46:10.687000,184.0,-46.0,-412.0,-792.0,332.0,-240.0,0.0,0.0,0.0
19:46:10.691000,182.0,-53.0,-381.0,-792.0,332.0,-240.0,0.0,0.0,0.0
19:46:10.696000,206.0,-78.0,-392.0,-795.0,324.0,-222.0,0.0,0.0,0.0
19:46:10.701000,224.0,-98.0,-416.0,-795.0,324.0,-222.0,0.0,0.0,0.0
19:46:10.705000,240.0,-105.0,-414.0,-853.0,352.0,-192.0,0.0,0.0,0.0
19:46:10.710000,251.0,-104.0,-394.0,-853.0,352.0,-192.0,0.0,0.0,0.0
19:46:10.715000,241.0,-109.0,-399.0,-958.0,406.0,-194.0,0.0,0.0,0.0
19:46:10.719000,241.0,-109.0,-399.0,-958.0,406.0,-194.0,0.0,0.0,0.0
19:46:10.724000,241.0,-116.0,-399.0,-1024.0,392.0,-196.0,0.0,0.0,0.0
19:46:10.729000,241.0,-121.0,-359.0,-1024.0,392.0,-196.0,0.0,0.0,0.0
19:46:10.734000,225.0,-116.0,-305.0,-1002.0,361.0,-183.0,0.0,0.0,0.0
19:46:10.738000,216.0,-109.0,-264.0,-1002.0,361.0,-183.0,0.0,0.0,0.0
19:46:10.743000,214.0,-105.0,-217.0,-996.0,388.0,-171.0,0.0,0.0,0.0
19:46:10.748000,206.0,-109.0,-149.0,-996.0,388.0,-171.0,0.0,0.0,0.0
19:46:10.752000,197.0,-106.0,-105.0,-980.0,423.0,-153.0,0.0,0.0,0.0
19:46:10.757000,185.0,-93.0,-108.0,-980.0,423.0,-153.0,0.0,0.0,0.0
19:46:10.762000,170.0,-80.0,-106.0,-917.0,441.0,-137.0,0.0,0.0,0.0
19:46:10.766000,162.0,-64.0,-119.0,-917.0,441.0,-137.0,0.0,0.0,0.0
19:46:10.771000,137.0,-48.0,-55.0,-876.0,447.0,-122.0,0.0,0.0,0.0
19:46:10.776000,105.0,-32.0,56.0,-876.0,447.0,-122.0,0.0,0.0,0.0
19:46:10.781000,83.0,-18.0,98.0,-888.0,456.0,-116.0,0.0,0.0,0.0
19:46:10.785000,67.0,-11.0,74.0,-888.0,456.0,-116.0,0.0,0.0,0.0
19:46:10.790000,49.0,-7.0,97.0,-920.0,453.0,-113.0,0.0,0.0,0.0
19:46:10.795000,20.0,-10.0,156.0,-920.0,453.0,-113.0,0.0,0.0,0.0
19:46:10.799000,-1.0,-18.0,204.0,-920.0,453.0,-113.0,0.0,0.0,0.0
19:46:10.804000,-14.0,-25.0,213.0,-918.0,450.0,-105.0,0.0,0.0,0.0
19:46:10.809000,-35.0,-31.0,226.0,-918.0,450.0,-105.0,0.0,0.0,0.0
19:46:10.813000,-52.0,-37.0,257.0,-905.0,466.0,-100.0,0.0,0.0,0.0
19:46:10.818000,-67.0,-39.0,291.0,-905.0,466.0,-100.0,0.0,0.0,0.0
19:46:10.823000,-77.0,-39.0,313.0,-890.0,454.0,-106.0,0.0,0.0,0.0
19:46:10.828000,-82.0,-35.0,330.0,-890.0,454.0,-106.0,0.0,0.0,0.0
19:46:10.832000,-82.0,-35.0,330.0,-884.0,428.0,-130.0,0.0,0.0,0.0
19:46:10.837000,-88.0,-35.0,357.0,-884.0,428.0,-130.0,0.0,0.0,0.0
19:46:10.842000,-86.0,-39.0,414.0,-888.0,402.0,-153.0,0.0,0.0,0.0
19:46:10.846000,-81.0,-46.0,461.0,-888.0,402.0,-153.0,0.0,0.0,0.0
19:46:10.851000,-70.0,-52.0,469.0,-888.0,373.0,-167.0,0.0,0.0,0.0
19:46:10.856000,-58.0,-52.0,456.0,-888.0,373.0,-167.0,0.0,0.0,0.0
19:46:10.860000,-37.0,-58.0,468.0,-846.0,343.0,-177.0,0.0,0.0,0.0
19:46:10.865000,-20.0,-70.0,502.0,-846.0,343.0,-177.0,0.0,0.0,0.0
19:46:10.870000,-2.0,-82.0,522.0,-785.0,310.0,-175.0,0.0,0.0,0.0
19:46:10.875000,11.0,-93.0,546.0,-785.0,310.0,-175.0,0.0,0.0,0.0
19:46:10.879000,27.0,-105.0,577.0,-745.0,282.0,-167.0,0.0,0.0,0.0
19:46:10.884000,39.0,-116.0,618.0,-745.0,282.0,-167.0,0.0,0.0,0.0
19:46:10.889000,53.0,-121.0,662.0,-706.0,245.0,-160.0,0.0,0.0,0.0
19:46:10.893000,60.0,-122.0,697.0,-706.0,245.0,-160.0,0.0,0.0,0.0
19:46:10.898000,63.0,-116.0,729.0,-706.0,245.0,-160.0,0.0,0.0,0.0
19:46:10.903000,66.0,-106.0,747.0,-671.0,204.0,-149.0,0.0,0.0,0.0
19:46:10.907000,65.0,-90.0,744.0,-671.0,204.0,-149.0,0.0,0.0,0.0
19:46:10.912000,62.0,-72.0,723.0,-662.0,176.0,-131.0,0.0,0.0,0.0
19:46:10.917000,59.0,-53.0,691.0,-662.0,176.0,-131.0,0.0,0.0,0.0
19:46:10.921000,60.0,-32.0,641.0,-692.0,150.0,-113.0,0.0,0.0,0.0
19:46:10.926000,66.0,-18.0,574.0,-692.0,150.0,-113.0,0.0,0.0,0.0
19:46:10.931000,74.0,-8.0,515.0,-738.0,112.0,-101.0,0.0,0.0,0.0
19:46:10.936000,86.0,-1.0,464.0,-738.0,112.0,-101.0,0.0,0.0,0.0
19:46:10.940000,86.0,-1.0,464.0,-773.0,75.0,-93.0,0.0,0.0,0.0
19:46:10.945000,93.0,4.0,409.0,-773.0,75.0,-93.0,0.0,0.0,0.0
19:46:10.950000,100.0,7.0,373.0,-780.0,68.0,-86.0,0.0,0.0,0.0
19:46:10.954000,104.0,11.0,348.0,-780.0,68.0,-86.0,0.0,0.0,0.0
19:46:10.959000,110.0,9.0,314.0,-751.0,81.0,-77.0,0.0,0.0,0.0
19:46:10.964000,111.0,8.0,294.0,-751.0,81.0,-77.0,0.0,0.0,0.0
19:46:10.968000,104.0,9.0,296.0,-700.0,102.0,-70.0,0.0,0.0,0.0
19:46:10.973000,100.0,9.0,296.0,-700.0,102.0,-70.0,0.0,0.0,0.0
19:46:10.977000,93.0,9.0,280.0,-674.0,143.0,-71.0,0.0,0.0,0.0
19:46:10.983000,82.0,11.0,277.0,-674.0,143.0,-71.0,0.0,0.0,0.0
19:46:10.987000,72.0,11.0,282.0,-674.0,143.0,-71.0,0.0,0.0,0.0
19:46:10.992000,62.0,10.0,291.0,-669.0,167.0,-74.0,0.0,0.0,0.0
19:46:10.997000,56.0,7.0,300.0,-656.0,158.0,-71.0,0.0,0.0,0.0
19:46:11.001000,48.0,4.0,317.0,-656.0,158.0,-71.0,0.0,0.0,0.0
19:46:11.006000,42.0,0.0,351.0,-656.0,158.0,-71.0,0.0,0.0,0.0
19:46:11.011000,36.0,-4.0,387.0,-636.0,133.0,-66.0,0.0,0.0,0.0
19:46:11.015000,26.0,-6.0,412.0,-636.0,133.0,-66.0,0.0,0.0,0.0
19:46:11.020000,16.0,-7.0,423.0,-634.0,105.0,-63.0,0.0,0.0,0.0
19:46:11.025000,5.0,-7.0,431.0,-634.0,105.0,-63.0,0.0,0.0,0.0
19:46:11.030000,-5.0,-5.0,436.0,-662.0,92.0,-65.0,0.0,0.0,0.0
19:46:11.034000,-18.0,-1.0,436.0,-662.0,92.0,-65.0,0.0,0.0,0.0
19:46:11.039000,-32.0,4.0,436.0,-693.0,84.0,-71.0,0.0,0.0,0.0
19:46:11.044000,-47.0,11.0,435.0,-693.0,84.0,-71.0,0.0,0.0,0.0
19:46:11.048000,-47.0,11.0,435.0,-705.0,73.0,-76.0,0.0,0.0,0.0
19:46:11.053000,-62.0,15.0,427.0,-705.0,73.0,-76.0,0.0,0.0,0.0
19:46:11.058000,-74.0,18.0,416.0,-687.0,49.0,-77.0,0.0,0.0,0.0
19:46:11.062000,-83.0,21.0,399.0,-687.0,49.0,-77.0,0.0,0.0,0.0
19:46:11.067000,-87.0,23.0,375.0,-643.0,25.0,-80.0,0.0,0.0,0.0
19:46:11.072000,-89.0,27.0,350.0,-643.0,25.0,-80.0,0.0,0.0,0.0
19:46:11.077000,-89.0,28.0,329.0,-609.0,10.0,-83.0,0.0,0.0,0.0
19:46:11.081000,-86.0,29.0,307.0,-609.0,10.0,-83.0,0.0,0.0,0.0
19:46:11.086000,-79.0,26.0,292.0,-593.0,-12.0,-87.0,0.0,0.0,0.0
19:46:11.091000,-67.0,22.0,281.0,-593.0,-12.0,-87.0,0.0,0.0,0.0
19:46:11.095000,-54.0,18.0,275.0,-576.0,-42.0,-91.0,0.0,0.0,0.0
19:46:11.100000,-41.0,13.0,264.0,-576.0,-42.0,-91.0,0.0,0.0,0.0
19:46:11.105000,-29.0,8.0,254.0,-568.0,-53.0,-95.0,0.0,0.0,0.0
19:46:11.109000,-17.0,1.0,244.0,-568.0,-53.0,-95.0,0.0,0.0,0.0
19:46:11.114000,-5.0,-3.0,234.0,-568.0,-53.0,-95.0,0.0,0.0,0.0
19:46:11.119000,4.0,-6.0,219.0,-576.0,-51.0,-101.0,0.0,0.0,0.0
19:46:11.124000,13.0,-7.0,197.0,-576.0,-51.0,-101.0,0.0,0.0,0.0
19:46:11.128000,19.0,-8.0,174.0,-599.0,-39.0,-110.0,0.0,0.0,0.0
19:46:11.133000,21.0,-6.0,158.0,-599.0,-39.0,-110.0,0.0,0.0,0.0
19:46:11.138000,21.0,-3.0,144.0,-623.0,-20.0,-122.0,0.0,0.0,0.0
19:46:11.142000,15.0,2.0,126.0,-623.0,-20.0,-122.0,0.0,0.0,0.0
19:46:11.147000,5.0,9.0,115.0,-645.0,4.0,-132.0,0.0,0.0,0.0
19:46:11.152000,-8.0,15.0,106.0,-645.0,4.0,-132.0,0.0,0.0,0.0
19:46:11.156000,-8.0,15.0,106.0,-671.0,35.0,-138.0,0.0,0.0,0.0
19:46:11.161000,-24.0,20.0,97.0,-671.0,35.0,-138.0,0.0,0.0,0.0
19:46:11.166000,-41.0,23.0,95.0,-683.0,45.0,-138.0,0.0,0.0,0.0
19:46:11.171000,-54.0,24.0,100.0,-683.0,45.0,-138.0,0.0,0.0,0.0
19:46:11.175000,-64.0,23.0,103.0,-682.0,29.0,-133.0,0.0,0.0,0.0
19:46:11.180000,-72.0,20.0,106.0,-682.0,29.0,-133.0,0.0,0.0,0.0
19:46:11.185000,-77.0,16.0,105.0,-691.0,15.0,-127.0,0.0,0.0,0.0
19:46:11.189000,-81.0,7.0,105.0,-691.0,15.0,-127.0,0.0,0.0,0.0
19:46:11.194000,-82.0,0.0,106.0,-696.0,-2.0,-120.0,0.0,0.0,0.0
19:46:11.199000,-81.0,-9.0,104.0,-696.0,-2.0,-120.0,0.0,0.0,0.0
19:46:11.203000,-79.0,-18.0,95.0,-689.0,-14.0,-114.0,0.0,0.0,0.0
19:46:11.208000,-78.0,-28.0,86.0,-689.0,-14.0,-114.0,0.0,0.0,0.0
19:46:11.213000,-77.0,-37.0,79.0,-696.0,-11.0,-109.0,0.0,0.0,0.0
19:46:11.218000,-76.0,-46.0,74.0,-696.0,-11.0,-109.0,0.0,0.0,0.0
19:46:11.222000,-76.0,-52.0,64.0,-696.0,-11.0,-109.0,0.0,0.0,0.0
19:46:11.227000,-76.0,-58.0,53.0,-720.0,-5.0,-105.0,0.0,0.0,0.0
19:46:11.232000,-79.0,-62.0,42.0,-720.0,-5.0,-105.0,0.0,0.0,0.0
19:46:11.236000,-82.0,-65.0,35.0,-741.0,5.0,-101.0,0.0,0.0,0.0
19:46:11.241000,-86.0,-67.0,28.0,-741.0,5.0,-101.0,0.0,0.0,0.0
19:46:11.246000,-86.0,-69.0,23.0,-748.0,11.0,-97.0,0.0,0.0,0.0
19:46:11.250000,-86.0,-68.0,16.0,-748.0,11.0,-97.0,0.0,0.0,0.0
19:46:11.255000,-84.0,-68.0,2.0,-748.0,9.0,-95.0,0.0,0.0,0.0
19:46:11.260000,-78.0,-67.0,-12.0,-748.0,9.0,-95.0,0.0,0.0,0.0
19:46:11.265000,-73.0,-65.0,-28.0,-759.0,11.0,-95.0,0.0,0.0,0.0
19:46:11.269000,-73.0,-65.0,-28.0,-759.0,11.0,-95.0,0.0,0.0,0.0
19:46:11.274000,-70.0,-62.0,-42.0,-772.0,22.0,-96.0,0.0,0.0,0.0
19:46:11.279000,-65.0,-59.0,-53.0,-772.0,22.0,-96.0,0.0,0.0,0.0
19:46:11.283000,-60.0,-58.0,-63.0,-761.0,40.0,-96.0,0.0,0.0,0.0
19:46:11.288000,-56.0,-55.0,-75.0,-761.0,40.0,-96.0,0.0,0.0,0.0
19:46:11.293000,-51.0,-53.0,-86.0,-748.0,71.0,-96.0,0.0,0.0,0.0
19:46:11.297000,-47.0,-53.0,-98.0,-748.0,71.0,-96.0,0.0,0.0,0.0
19:46:11.302000,-44.0,-53.0,-105.0,-751.0,106.0,-94.0,0.0,0.0,0.0
19:46:11.307000,-42.0,-54.0,-106.0,-751.0,106.0,-94.0,0.0,0.0,0.0
19:46:11.312000,-34.0,-52.0,-99.0,-744.0,119.0,-97.0,0.0,0.0,0.0
19:46:11.316000,-25.0,-46.0,-96.0,-744.0,119.0,-97.0,0.0,0.0,0.0
19:46:11.321000,-22.0,-39.0,-103.0,-765.0,166.0,-110.0,0.0,0.0,0.0
19:46:11.326000,-24.0,-33.0,-107.0,-765.0,166.0,-110.0,0.0,0.0,0.0
19:46:11.330000,-31.0,-32.0,-92.0,-765.0,166.0,-110.0,0.0,0.0,0.0
19:46:11.335000,-41.0,-33.0,-59.0,-821.0,247.0,-116.0,0.0,0.0,0.0
19:46:11.340000,-46.0,-33.0,-17.0,-821.0,247.0,-116.0,0.0,0.0,0.0
19:46:11.344000,-50.0,-34.0,25.0,-839.0,278.0,-118.0,0.0,0.0,0.0
19:46:11.349000,-57.0,-32.0,65.0,-839.0,278.0,-118.0,0.0,0.0,0.0
19:46:11.354000,-67.0,-29.0,106.0,-832.0,282.0,-126.0,0.0,0.0,0.0
19:46:11.359000,-83.0,-23.0,149.0,-832.0,282.0,-126.0,0.0,0.0,0.0
19:46:11.363000,-101.0,-18.0,184.0,-839.0,298.0,-135.0,0.0,0.0,0.0
19:46:11.368000,-120.0,-14.0,212.0,-839.0,298.0,-135.0,0.0,0.0,0.0
19:46:11.373000,-137.0,-10.0,235.0,-864.0,316.0,-142.0,0.0,0.0,0.0
19:46:11.377000,-137.0,-10.0,235.0,-864.0,316.0,-142.0,0.0,0.0,0.0
19:46:11.382000,-155.0,-9.0,257.0,-885.0,328.0,-147.0,0.0,0.0,0.0
19:46:11.387000,-169.0,-10.0,284.0,-885.0,328.0,-147.0,0.0,0.0,0.0
19:46:11.391000,-180.0,-13.0,316.0,-881.0,316.0,-150.0,0.0,0.0,0.0
19:46:11.396000,-189.0,-18.0,352.0,-881.0,316.0,-150.0,0.0,0.0,0.0
19:46:11.401000,-197.0,-21.0,389.0,-887.0,286.0,-154.0,0.0,0.0,0.0
19:46:11.406000,-203.0,-22.0,419.0,-887.0,286.0,-154.0,0.0,0.0,0.0
19:46:11.410000,-210.0,-24.0,448.0,-923.0,244.0,-156.0,0.0,0.0,0.0
19:46:11.415000,-214.0,-28.0,475.0,-923.0,244.0,-156.0,0.0,0.0,0.0
19:46:11.420000,-218.0,-31.0,483.0,-941.0,204.0,-155.0,0.0,0.0,0.0
19:46:11.424000,-223.0,-39.0,480.0,-941.0,204.0,-155.0,0.0,0.0,0.0
19:46:11.429000,-227.0,-45.0,485.0,-921.0,179.0,-150.0,0.0,0.0,0.0
19:46:11.434000,-229.0,-51.0,495.0,-921.0,179.0,-150.0,0.0,0.0,0.0
19:46:11.438000,-227.0,-56.0,497.0,-921.0,179.0,-150.0,0.0,0.0,0.0
19:46:11.443000,-219.0,-63.0,483.0,-902.0,150.0,-142.0,0.0,0.0,0.0
19:46:11.448000,-210.0,-70.0,462.0,-902.0,150.0,-142.0,0.0,0.0,0.0
19:46:11.453000,-202.0,-74.0,447.0,-900.0,129.0,-139.0,0.0,0.0,0.0
19:46:11.457000,-195.0,-73.0,438.0,-900.0,129.0,-139.0,0.0,0.0,0.0
19:46:11.462000,-192.0,-70.0,429.0,-912.0,134.0,-139.0,0.0,0.0,0.0
19:46:11.467000,-192.0,-63.0,418.0,-912.0,134.0,-139.0,0.0,0.0,0.0
19:46:11.471000,-195.0,-51.0,407.0,-945.0,152.0,-139.0,0.0,0.0,0.0
19:46:11.476000,-196.0,-36.0,401.0,-945.0,152.0,-139.0,0.0,0.0,0.0
19:46:11.480000,-196.0,-36.0,401.0,-985.0,150.0,-138.0,0.0,0.0,0.0
19:46:11.485000,-191.0,-25.0,391.0,-985.0,150.0,-138.0,0.0,0.0,0.0
19:46:11.490000,-179.0,-17.0,384.0,-1000.0,130.0,-138.0,0.0,0.0,0.0
19:46:11.495000,-165.0,-6.0,366.0,-1000.0,130.0,-138.0,0.0,0.0,0.0
19:46:11.500000,-149.0,3.0,331.0,-993.0,157.0,-135.0,0.0,0.0,0.0
19:46:11.504000,-135.0,9.0,295.0,-993.0,157.0,-135.0,0.0,0.0,0.0
19:46:11.509000,-116.0,14.0,282.0,-984.0,198.0,-131.0,0.0,0.0,0.0
19:46:11.514000,-94.0,20.0,270.0,-984.0,198.0,-131.0,0.0,0.0,0.0
19:46:11.518000,-73.0,25.0,261.0,-996.0,201.0,-138.0,0.0,0.0,0.0
19:46:11.523000,-52.0,32.0,260.0,-996.0,201.0,-138.0,0.0,0.0,0.0
19:46:11.528000,-35.0,39.0,250.0,-1021.0,228.0,-148.0,0.0,0.0,0.0
19:46:11.532000,-23.0,42.0,246.0,-1021.0,228.0,-148.0,0.0,0.0,0.0
19:46:11.537000,-18.0,44.0,237.0,-1010.0,299.0,-148.0,0.0,0.0,0.0
19:46:11.542000,-12.0,42.0,224.0,-1010.0,299.0,-148.0,0.0,0.0,0.0
19:46:11.547000,-11.0,38.0,212.0,-1010.0,366.0,-148.0,0.0,0.0,0.0
19:46:11.551000,-11.0,31.0,193.0,-976.0,366.0,-148.0,0.0,0.0,0.0
19:46:11.556000,-2.0,18.0,190.0,-976.0,366.0,-148.0,0.0,0.0,0.0
19:46:11.561000,16.0,17.0,164.0,-953.0,358.0,-154.0,0.0,0.0,0.0
19:46:11.565000,28.0,13.0,119.0,-953.0,358.0,-154.0,0.0,0.0,0.0
19:46:11.570000,35.0,14.0,116.0,-978.0,345.0,-164.0,0.0,0.0,0.0
19:46:11.575000,42.0,14.0,119.0,-978.0,345.0,-164.0,0.0,0.0,0.0
19:46:11.579000,65.0,22.0,86.0,-1064.0,368.0,-174.0,0.0,0.0,0.0
19:46:11.584000,79.0,25.0,43.0,-1064.0,368.0,-174.0,0.0,0.0,0.0
19:46:11.589000,84.0,23.0,0.0,-1203.0,375.0,-178.0,0.0,0.0,0.0
19:46:11.594000,84.0,23.0,0.0,-1203.0,375.0,-178.0,0.0,0.0,0.0
19:46:11.598000,117.0,30.0,83.0,-1208.0,357.0,-188.0,0.0,0.0,0.0
19:46:11.603000,140.0,39.0,220.0,-1208.0,357.0,-188.0,0.0,0.0,0.0
19:46:11.608000,155.0,40.0,219.0,-1136.0,415.0,-185.0,0.0,0.0,0.0
19:46:11.612000,160.0,43.0,153.0,-1136.0,415.0,-185.0,0.0,0.0,0.0
19:46:11.617000,181.0,46.0,120.0,-1148.0,442.0,-174.0,0.0,0.0,0.0
19:46:11.622000,222.0,33.0,88.0,-1148.0,442.0,-174.0,0.0,0.0,0.0
19:46:11.626000,237.0,35.0,61.0,-1175.0,420.0,-178.0,0.0,0.0,0.0
19:46:11.631000,233.0,44.0,46.0,-1175.0,420.0,-178.0,0.0,0.0,0.0
19:46:11.636000,226.0,47.0,36.0,-1209.0,479.0,-182.0,0.0,0.0,0.0
19:46:11.641000,201.0,53.0,53.0,-1209.0,479.0,-182.0,0.0,0.0,0.0
19:46:11.645000,173.0,60.0,56.0,-1227.0,485.0,-188.0,0.0,0.0,0.0
19:46:11.650000,147.0,71.0,35.0,-1227.0,485.0,-188.0,0.0,0.0,0.0
19:46:11.655000,125.0,86.0,22.0,-1249.0,459.0,-202.0,0.0,0.0,0.0
19:46:11.659000,96.0,93.0,18.0,-1249.0,459.0,-202.0,0.0,0.0,0.0
19:46:11.664000,64.0,104.0,-10.0,-1248.0,428.0,-217.0,0.0,0.0,0.0
19:46:11.669000,39.0,112.0,-29.0,-1248.0,428.0,-217.0,0.0,0.0,0.0
19:46:11.673000,23.0,115.0,-14.0,-1248.0,428.0,-217.0,0.0,0.0,0.0
19:46:11.678000,11.0,114.0,-38.0,-1184.0,372.0,-226.0,0.0,0.0,0.0
19:46:11.683000,-18.0,119.0,-50.0,-1184.0,372.0,-226.0,0.0,0.0,0.0
19:46:11.688000,-35.0,111.0,-55.0,-1105.0,305.0,-231.0,0.0,0.0,0.0
19:46:11.692000,-54.0,104.0,-66.0,-1105.0,305.0,-231.0,0.0,0.0,0.0
19:46:11.697000,-83.0,99.0,-60.0,-1060.0,236.0,-230.0,0.0,0.0,0.0
19:46:11.702000,-107.0,88.0,-34.0,-1060.0,236.0,-230.0,0.0,0.0,0.0
19:46:11.706000,-107.0,88.0,-34.0,-1006.0,150.0,-224.0,0.0,0.0,0.0
19:46:11.711000,-124.0,69.0,-11.0,-1006.0,150.0,-224.0,0.0,0.0,0.0
19:46:11.716000,-138.0,42.0,3.0,-911.0,55.0,-202.0,0.0,0.0,0.0
19:46:11.720000,-155.0,22.0,44.0,-911.0,55.0,-202.0,0.0,0.0,0.0
19:46:11.725000,-170.0,7.0,122.0,-809.0,-37.0,-181.0,0.0,0.0,0.0
19:46:11.730000,-178.0,-9.0,191.0,-809.0,-37.0,-181.0,0.0,0.0,0.0
19:46:11.735000,-183.0,-22.0,231.0,-778.0,-122.0,-168.0,0.0,0.0,0.0
19:46:11.739000,-181.0,-39.0,263.0,-778.0,-122.0,-168.0,0.0,0.0,0.0
19:46:11.744000,-173.0,-56.0,301.0,-788.0,-169.0,-160.0,0.0,0.0,0.0
19:46:11.749000,-165.0,-66.0,326.0,-788.0,-169.0,-160.0,0.0,0.0,0.0
19:46:11.753000,-149.0,-72.0,318.0,-828.0,-162.0,-155.0,0.0,0.0,0.0
19:46:11.758000,-130.0,-75.0,269.0,-828.0,-162.0,-155.0,0.0,0.0,0.0
19:46:11.763000,-119.0,-80.0,207.0,-890.0,-124.0,-150.0,0.0,0.0,0.0
19:46:11.767000,-109.0,-79.0,172.0,-890.0,-124.0,-150.0,0.0,0.0,0.0
19:46:11.772000,-91.0,-72.0,137.0,-890.0,-124.0,-150.0,0.0,0.0,0.0
19:46:11.777000,-71.0,-63.0,93.0,-929.0,-125.0,-146.0,0.0,0.0,0.0
19:46:11.782000,-55.0,-48.0,39.0,-973.0,-126.0,-152.0,0.0,0.0,0.0
19:46:11.786000,-42.0,-37.0,-6.0,-973.0,-126.0,-152.0,0.0,0.0,0.0
19:46:11.791000,-30.0,-23.0,-53.0,-973.0,-126.0,-152.0,0.0,0.0,0.0
19:46:11.796000,-25.0,-5.0,-97.0,-1027.0,-80.0,-168.0,0.0,0.0,0.0
19:46:11.800000,-27.0,15.0,-141.0,-1027.0,-80.0,-168.0,0.0,0.0,0.0
19:46:11.805000,-16.0,25.0,-211.0,-1094.0,-19.0,-187.0,0.0,0.0,0.0
19:46:11.810000,-11.0,32.0,-261.0,-1094.0,-19.0,-187.0,0.0,0.0,0.0
19:46:11.814000,-11.0,32.0,-261.0,-1142.0,13.0,-187.0,0.0,0.0,0.0
19:46:11.819000,-28.0,45.0,-287.0,-1142.0,13.0,-187.0,0.0,0.0,0.0
19:46:11.824000,-22.0,49.0,-314.0,-1121.0,0.0,-174.0,0.0,0.0,0.0
19:46:11.829000,-11.0,44.0,-298.0,-1121.0,0.0,-174.0,0.0,0.0,0.0
19:46:11.833000,-3.0,46.0,-277.0,-1044.0,-24.0,-167.0,0.0,0.0,0.0
19:46:11.838000,-7.0,57.0,-284.0,-1044.0,-24.0,-167.0,0.0,0.0,0.0
19:46:11.843000,-19.0,63.0,-274.0,-1010.0,-6.0,-166.0,0.0,0.0,0.0
19:46:11.847000,-21.0,59.0,-242.0,-1010.0,-6.0,-166.0,0.0,0.0,0.0
19:46:11.852000,-31.0,55.0,-227.0,-1018.0,23.0,-169.0,0.0,0.0,0.0
19:46:11.857000,-90.0,63.0,-232.0,-1018.0,23.0,-169.0,0.0,0.0,0.0
19:46:11.861000,-106.0,70.0,-247.0,-1018.0,3.0,-178.0,0.0,0.0,0.0
19:46:11.866000,-39.0,32.0,-262.0,-1018.0,3.0,-178.0,0.0,0.0,0.0
19:46:11.871000,-48.0,18.0,-221.0,-1018.0,-16.0,-177.0,0.0,0.0,0.0
19:46:11.876000,-38.0,-1.0,-150.0,-1018.0,-16.0,-177.0,0.0,0.0,0.0
19:46:11.880000,-52.0,-14.0,-150.0,-1018.0,-16.0,-177.0,0.0,0.0,0.0
19:46:11.885000,-62.0,-22.0,-175.0,-1012.0,-20.0,-163.0,0.0,0.0,0.0
19:46:11.890000,-30.0,-37.0,-145.0,-1012.0,-20.0,-163.0,0.0,0.0,0.0
19:46:11.894000,-15.0,-53.0,-123.0,-989.0,-31.0,-163.0,0.0,0.0,0.0
19:46:11.899000,2.0,-78.0,-102.0,-989.0,-31.0,-163.0,0.0,0.0,0.0
19:46:11.904000,-20.0,-90.0,-95.0,-996.0,42.0,-149.0,0.0,0.0,0.0
19:46:11.908000,-72.0,-86.0,-70.0,-996.0,42.0,-149.0,0.0,0.0,0.0
19:46:11.913000,-48.0,-100.0,-73.0,-994.0,-7.0,-130.0,0.0,0.0,0.0
19:46:11.918000,-43.0,-121.0,-122.0,-994.0,-7.0,-130.0,0.0,0.0,0.0
19:46:11.923000,-43.0,-121.0,-122.0,-1011.0,-59.0,-126.0,0.0,0.0,0.0
19:46:11.927000,-70.0,-133.0,-147.0,-1011.0,-59.0,-126.0,0.0,0.0,0.0
19:46:11.932000,-82.0,-142.0,-151.0,-1046.0,54.0,-118.0,0.0,0.0,0.0
19:46:11.937000,-115.0,-145.0,-126.0,-1046.0,54.0,-118.0,0.0,0.0,0.0
19:46:11.941000,-157.0,-151.0,-91.0,-1045.0,66.0,-116.0,0.0,0.0,0.0
19:46:11.946000,-182.0,-154.0,-98.0,-1045.0,66.0,-116.0,0.0,0.0,0.0
19:46:11.951000,-215.0,-156.0,-163.0,-1080.0,40.0,-124.0,0.0,0.0,0.0
19:46:11.955000,-242.0,-160.0,-223.0,-1080.0,40.0,-124.0,0.0,0.0,0.0
19:46:11.960000,-286.0,-170.0,-223.0,-1098.0,108.0,-128.0,0.0,0.0,0.0
19:46:11.965000,-273.0,-189.0,-199.0,-1098.0,108.0,-128.0,0.0,0.0,0.0
19:46:11.970000,-372.0,-186.0,-192.0,-1085.0,198.0,-105.0,0.0,0.0,0.0
19:46:11.974000,-460.0,-175.0,-145.0,-1085.0,198.0,-105.0,0.0,0.0,0.0
19:46:11.979000,-482.0,-186.0,-152.0,-1095.0,182.0,-102.0,0.0,0.0,0.0
19:46:11.984000,-567.0,-187.0,-182.0,-1095.0,182.0,-102.0,0.0,0.0,0.0
19:46:11.988000,-631.0,-185.0,-176.0,-1095.0,182.0,-102.0,0.0,0.0,0.0
19:46:11.993000,-648.0,-189.0,-162.0,-1119.0,138.0,-118.0,0.0,0.0,0.0
19:46:11.998000,-742.0,-184.0,-156.0,-1119.0,138.0,-118.0,0.0,0.0,0.0
19:46:12.002000,-793.0,-183.0,-136.0,-1129.0,135.0,-114.0,0.0,0.0,0.0
19:46:12.007000,-858.0,-189.0,-152.0,-1129.0,135.0,-114.0,0.0,0.0,0.0
19:46:12.012000,-908.0,-189.0,-148.0,-1108.0,166.0,-110.0,0.0,0.0,0.0
19:46:12.017000,-983.0,-186.0,-130.0,-1108.0,166.0,-110.0,0.0,0.0,0.0
19:46:12.021000,-1040.0,-184.0,-166.0,-1067.0,186.0,-104.0,0.0,0.0,0.0
19:46:12.026000,-1093.0,-193.0,-216.0,-1067.0,186.0,-104.0,0.0,0.0,0.0
19:46:12.031000,-1093.0,-193.0,-216.0,-1061.0,142.0,-98.0,0.0,0.0,0.0
19:46:12.035000,-1145.0,-203.0,-249.0,-1061.0,142.0,-98.0,0.0,0.0,0.0
19:46:12.040000,-1187.0,-213.0,-261.0,-1055.0,69.0,-90.0,0.0,0.0,0.0
19:46:12.045000,-1223.0,-235.0,-266.0,-1055.0,69.0,-90.0,0.0,0.0,0.0
19:46:12.049000,-1274.0,-258.0,-256.0,-1040.0,19.0,-77.0,0.0,0.0,0.0
19:46:12.054000,-1310.0,-280.0,-270.0,-1040.0,19.0,-77.0,0.0,0.0,0.0
19:46:12.059000,-1330.0,-311.0,-307.0,-1010.0,1.0,-57.0,0.0,0.0,0.0
19:46:12.064000,-1347.0,-346.0,-336.0,-1010.0,1.0,-57.0,0.0,0.0,0.0
19:46:12.068000,-1369.0,-383.0,-347.0,-959.0,-28.0,-41.0,0.0,0.0,0.0
19:46:12.073000,-1372.0,-424.0,-372.0,-959.0,-28.0,-41.0,0.0,0.0,0.0
19:46:12.078000,-1381.0,-469.0,-427.0,-926.0,-56.0,-27.0,0.0,0.0,0.0
19:46:12.082000,-1400.0,-510.0,-459.0,-926.0,-56.0,-27.0,0.0,0.0,0.0
19:46:12.087000,-1399.0,-550.0,-471.0,-919.0,-67.0,-28.0,0.0,0.0,0.0
19:46:12.092000,-1418.0,-591.0,-497.0,-919.0,-67.0,-28.0,0.0,0.0,0.0
19:46:12.096000,-1450.0,-632.0,-539.0,-919.0,-67.0,-28.0,0.0,0.0,0.0
19:46:12.101000,-1465.0,-674.0,-603.0,-965.0,-39.0,-15.0,0.0,0.0,0.0
19:46:12.106000,-1488.0,-720.0,-645.0,-965.0,-39.0,-15.0,0.0,0.0,0.0
19:46:12.111000,-1512.0,-763.0,-651.0,-981.0,-39.0,17.0,0.0,0.0,0.0
19:46:12.115000,-1543.0,-798.0,-655.0,-981.0,-39.0,17.0,0.0,0.0,0.0
19:46:12.120000,-1575.0,-829.0,-679.0,-977.0,-63.0,27.0,0.0,0.0,0.0
19:46:12.125000,-1621.0,-855.0,-723.0,-977.0,-63.0,27.0,0.0,0.0,0.0
19:46:12.129000,-1652.0,-884.0,-752.0,-1002.0,-21.0,44.0,0.0,0.0,0.0
19:46:12.134000,-1683.0,-912.0,-764.0,-1002.0,-21.0,44.0,0.0,0.0,0.0
19:46:12.139000,-1721.0,-931.0,-779.0,-1013.0,15.0,70.0,0.0,0.0,0.0
19:46:12.143000,-1721.0,-931.0,-779.0,-1013.0,15.0,70.0,0.0,0.0,0.0
19:46:12.148000,-1742.0,-952.0,-821.0,-1034.0,37.0,83.0,0.0,0.0,0.0
19:46:12.153000,-1765.0,-972.0,-875.0,-1034.0,37.0,83.0,0.0,0.0,0.0
19:46:12.158000,-1789.0,-986.0,-927.0,-1072.0,61.0,88.0,0.0,0.0,0.0
19:46:12.162000,-1805.0,-1000.0,-961.0,-1072.0,61.0,88.0,0.0,0.0,0.0
19:46:12.167000,-1822.0,-1015.0,-991.0,-1096.0,84.0,91.0,0.0,0.0,0.0
19:46:12.172000,-1827.0,-1031.0,-1018.0,-1096.0,84.0,91.0,0.0,0.0,0.0
19:46:12.176000,-1831.0,-1050.0,-1035.0,-1110.0,84.0,97.0,0.0,0.0,0.0
19:46:12.181000,-1826.0,-1071.0,-1057.0,-1110.0,84.0,97.0,0.0,0.0,0.0
19:46:12.186000,-1824.0,-1094.0,-1085.0,-1105.0,99.0,106.0,0.0,0.0,0.0
19:46:12.190000,-1820.0,-1120.0,-1099.0,-1105.0,99.0,106.0,0.0,0.0,0.0
19:46:12.195000,-1834.0,-1149.0,-1107.0,-1066.0,151.0,128.0,0.0,0.0,0.0
19:46:12.200000,-1854.0,-1183.0,-1105.0,-1066.0,151.0,128.0,0.0,0.0,0.0
19:46:12.205000,-1844.0,-1229.0,-1086.0,-1066.0,151.0,128.0,0.0,0.0,0.0
19:46:12.209000,-1836.0,-1280.0,-1075.0,-989.0,162.0,163.0,0.0,0.0,0.0
19:46:12.214000,-1833.0,-1316.0,-1076.0,-989.0,162.0,163.0,0.0,0.0,0.0
19:46:12.219000,-1822.0,-1347.0,-1089.0,-885.0,176.0,204.0,0.0,0.0,0.0
19:46:12.223000,-1802.0,-1380.0,-1099.0,-885.0,176.0,204.0,0.0,0.0,0.0
19:46:12.228000,-1810.0,-1399.0,-1110.0,-821.0,243.0,239.0,0.0,0.0,0.0
19:46:12.233000,-1827.0,-1413.0,-1134.0,-821.0,243.0,239.0,0.0,0.0,0.0
19:46:12.237000,-1841.0,-1423.0,-1157.0,-838.0,339.0,279.0,0.0,0.0,0.0
19:46:12.242000,-1853.0,-1431.0,-1168.0,-838.0,339.0,279.0,0.0,0.0,0.0
19:46:12.247000,-1871.0,-1447.0,-1177.0,-879.0,448.0,341.0,0.0,0.0,0.0
19:46:12.252000,-1871.0,-1447.0,-1177.0,-879.0,448.0,341.0,0.0,0.0,0.0
19:46:12.256000,-1897.0,-1482.0,-1190.0,-949.0,574.0,441.0,0.0,0.0,0.0
19:46:12.261000,-1963.0,-1523.0,-1197.0,-949.0,574.0,441.0,0.0,0.0,0.0
19:46:12.266000,-2024.0,-1518.0,-1205.0,-999.0,688.0,508.0,0.0,0.0,0.0
19:46:12.270000,-2072.0,-1530.0,-1185.0,-999.0,688.0,508.0,0.0,0.0,0.0
19:46:12.275000,-2111.0,-1537.0,-1115.0,-1036.0,680.0,516.0,0.0,0.0,0.0
19:46:12.280000,-2165.0,-1532.0,-1071.0,-1036.0,680.0,516.0,0.0,0.0,0.0
19:46:12.284000,-2215.0,-1519.0,-1046.0,-1139.0,597.0,536.0,0.0,0.0,0.0
19:46:12.289000,-2244.0,-1497.0,-1013.0,-1139.0,597.0,536.0,0.0,0.0,0.0
19:46:12.294000,-2259.0,-1454.0,-963.0,-1195.0,505.0,549.0,0.0,0.0,0.0
19:46:12.299000,-2268.0,-1403.0,-897.0,-1195.0,505.0,549.0,0.0,0.0,0.0
19:46:12.303000,-2269.0,-1354.0,-811.0,-1168.0,382.0,553.0,0.0,0.0,0.0
19:46:12.308000,-2265.0,-1315.0,-729.0,-1168.0,382.0,553.0,0.0,0.0,0.0
19:46:12.313000,-2253.0,-1257.0,-693.0,-1168.0,382.0,553.0,0.0,0.0,0.0
19:46:12.317000,-2230.0,-1192.0,-699.0,-1153.0,311.0,552.0,0.0,0.0,0.0
19:46:12.322000,-2204.0,-1128.0,-693.0,-1153.0,311.0,552.0,0.0,0.0,0.0
19:46:12.327000,-2152.0,-1065.0,-669.0,-1148.0,299.0,530.0,0.0,0.0,0.0
19:46:12.331000,-2109.0,-998.0,-696.0,-1148.0,299.0,530.0,0.0,0.0,0.0
19:46:12.336000,-2069.0,-933.0,-713.0,-1120.0,284.0,504.0,0.0,0.0,0.0
19:46:12.341000,-2019.0,-869.0,-673.0,-1120.0,284.0,504.0,0.0,0.0,0.0
19:46:12.346000,-1913.0,-805.0,-650.0,-1030.0,279.0,466.0,0.0,0.0,0.0
19:46:12.350000,-1827.0,-753.0,-673.0,-1030.0,279.0,466.0,0.0,0.0,0.0
19:46:12.355000,-1780.0,-725.0,-676.0,-938.0,376.0,430.0,0.0,0.0,0.0
19:46:12.360000,-1780.0,-725.0,-676.0,-938.0,376.0,430.0,0.0,0.0,0.0
19:46:12.364000,-1740.0,-696.0,-686.0,-951.0,459.0,422.0,0.0,0.0,0.0
19:46:12.369000,-1676.0,-690.0,-665.0,-951.0,459.0,422.0,0.0,0.0,0.0
19:46:12.374000,-1633.0,-683.0,-594.0,-967.0,473.0,422.0,0.0,0.0,0.0
