hh:mm:ss.ms,gyroX[mdps],gyroY[mdps],gyroZ[mdps],accX[mg],accY[mg],accZ[mg],magX[mG],magY[mG],magZ[mG]
19:34:55.369000,479.0,230.0,-400.0,475.0,737.0,-324.0,156.0,-63.0,87.0
19:34:55.374000,498.0,213.0,-433.0,532.0,761.0,-322.0,156.0,-63.0,87.0
19:34:55.379000,510.0,184.0,-434.0,622.0,828.0,-306.0,151.0,-58.0,78.0
19:34:55.383000,513.0,150.0,-423.0,622.0,828.0,-306.0,151.0,-58.0,78.0
19:34:55.388000,507.0,107.0,-378.0,634.0,851.0,-295.0,151.0,-58.0,78.0
19:34:55.393000,498.0,58.0,-294.0,648.0,865.0,-281.0,133.0,-64.0,79.0
19:34:55.398000,485.0,13.0,-204.0,638.0,857.0,-270.0,133.0,-64.0,79.0
19:34:55.402000,476.0,-29.0,-144.0,601.0,852.0,-261.0,145.0,-69.0,73.0
19:34:55.407000,459.0,-70.0,-98.0,577.0,890.0,-252.0,145.0,-69.0,73.0
19:34:55.411000,459.0,-70.0,-98.0,570.0,958.0,-231.0,145.0,-69.0,73.0
19:34:55.416000,419.0,-110.0,-39.0,558.0,1014.0,-205.0,145.0,-67.0,52.0
19:34:55.421000,359.0,-145.0,51.0,530.0,1027.0,-179.0,145.0,-67.0,52.0
19:34:55.426000,294.0,-179.0,156.0,500.0,1001.0,-163.0,139.0,-69.0,60.0
19:34:55.430000,247.0,-199.0,252.0,478.0,950.0,-149.0,139.0,-69.0,60.0
19:34:55.435000,200.0,-212.0,333.0,445.0,905.0,-137.0,139.0,-69.0,60.0
19:34:55.440000,160.0,-211.0,390.0,397.0,890.0,-132.0,144.0,-72.0,63.0
19:34:55.445000,128.0,-203.0,424.0,357.0,887.0,-121.0,144.0,-72.0,63.0
19:34:55.449000,101.0,-186.0,437.0,332.0,878.0,-115.0,151.0,-70.0,69.0
19:34:55.454000,78.0,-165.0,431.0,319.0,860.0,-112.0,151.0,-70.0,69.0
19:34:55.458000,56.0,-136.0,404.0,326.0,843.0,-110.0,151.0,-70.0,69.0
19:34:55.463000,35.0,-102.0,351.0,350.0,832.0,-104.0,142.0,-64.0,57.0
19:34:55.468000,3.0,-63.0,308.0,372.0,813.0,-98.0,142.0,-64.0,57.0
19:34:55.472000,-22.0,-24.0,294.0,380.0,774.0,-96.0,150.0,-70.0,87.0
19:34:55.477000,-41.0,9.0,290.0,380.0,740.0,-96.0,150.0,-70.0,87.0
19:34:55.482000,-67.0,42.0,250.0,368.0,740.0,-93.0,150.0,-70.0,87.0
19:34:55.487000,-91.0,73.0,204.0,353.0,733.0,-87.0,154.0,-63.0,64.0
19:34:55.492000,-121.0,98.0,185.0,365.0,720.0,-77.0,154.0,-63.0,64.0
19:34:55.496000,-136.0,122.0,183.0,405.0,694.0,-71.0,153.0,-64.0,61.0
19:34:55.501000,-148.0,145.0,195.0,440.0,667.0,-73.0,153.0,-64.0,61.0
19:34:55.505000,-172.0,163.0,188.0,445.0,641.0,-64.0,153.0,-64.0,61.0
19:34:55.510000,-188.0,183.0,148.0,441.0,627.0,-58.0,154.0,-57.0,66.0
19:34:55.515000,-198.0,200.0,136.0,468.0,602.0,-62.0,154.0,-57.0,66.0
19:34:55.519000,-198.0,200.0,136.0,513.0,564.0,-70.0,151.0,-58.0,66.0
19:34:55.524000,-206.0,212.0,186.0,519.0,585.0,-77.0,151.0,-58.0,66.0
19:34:55.529000,-237.0,219.0,216.0,477.0,681.0,-87.0,151.0,-58.0,66.0
19:34:55.533000,-272.0,222.0,200.0,437.0,762.0,-107.0,145.0,-57.0,67.0
19:34:55.539000,-302.0,226.0,218.0,412.0,780.0,-140.0,145.0,-57.0,67.0
19:34:55.543000,-320.0,232.0,250.0,396.0,777.0,-175.0,159.0,-61.0,70.0
19:34:55.548000,-344.0,236.0,255.0,404.0,801.0,-211.0,159.0,-61.0,70.0
19:34:55.552000,-360.0,240.0,263.0,430.0,839.0,-244.0,159.0,-61.0,70.0
19:34:55.557000,-387.0,243.0,297.0,444.0,877.0,-270.0,162.0,-63.0,72.0
19:34:55.562000,-412.0,238.0,326.0,442.0,919.0,-299.0,162.0,-63.0,72.0
19:34:55.566000,-420.0,225.0,322.0,443.0,940.0,-323.0,160.0,-63.0,76.0
19:34:55.571000,-427.0,207.0,287.0,458.0,935.0,-341.0,160.0,-63.0,76.0
19:34:55.576000,-422.0,184.0,261.0,480.0,891.0,-357.0,160.0,-63.0,76.0
19:34:55.581000,-398.0,156.0,257.0,507.0,829.0,-360.0,175.0,-55.0,87.0
19:34:55.586000,-368.0,124.0,247.0,538.0,807.0,-353.0,175.0,-55.0,87.0
19:34:55.590000,-330.0,93.0,233.0,538.0,807.0,-353.0,171.0,-58.0,84.0
19:34:55.595000,-299.0,64.0,207.0,567.0,812.0,-345.0,171.0,-58.0,84.0
19:34:55.599000,-280.0,34.0,178.0,577.0,823.0,-328.0,171.0,-58.0,84.0
19:34:55.604000,-256.0,15.0,142.0,569.0,863.0,-318.0,181.0,-54.0,82.0
19:34:55.609000,-232.0,-5.0,108.0,554.0,908.0,-311.0,181.0,-54.0,82.0
19:34:55.614000,-197.0,-22.0,63.0,532.0,937.0,-310.0,171.0,-49.0,87.0
19:34:55.618000,-172.0,-32.0,-4.0,514.0,966.0,-334.0,171.0,-49.0,87.0
19:34:55.623000,-172.0,-32.0,-4.0,499.0,990.0,-333.0,171.0,-49.0,87.0
19:34:55.628000,-169.0,-57.0,-16.0,491.0,994.0,-300.0,163.0,-51.0,82.0
19:34:55.633000,-156.0,-64.0,0.0,473.0,993.0,-287.0,163.0,-51.0,82.0
19:34:55.637000,-156.0,-64.0,0.0,428.0,1012.0,-290.0,166.0,-63.0,87.0
19:34:55.642000,-141.0,-67.0,-32.0,399.0,1026.0,-288.0,166.0,-63.0,87.0
19:34:55.646000,-120.0,-63.0,-42.0,403.0,1010.0,-274.0,166.0,-63.0,87.0
19:34:55.651000,-104.0,-69.0,19.0,388.0,1014.0,-271.0,171.0,-48.0,85.0
19:34:55.656000,-112.0,-65.0,56.0,350.0,1052.0,-285.0,171.0,-48.0,85.0
19:34:55.661000,-117.0,-52.0,51.0,357.0,1072.0,-286.0,175.0,-51.0,97.0
19:34:55.665000,-119.0,-60.0,45.0,393.0,1060.0,-278.0,175.0,-51.0,97.0
19:34:55.670000,-109.0,-64.0,34.0,421.0,1054.0,-278.0,175.0,-51.0,97.0
19:34:55.675000,-103.0,-64.0,28.0,436.0,1056.0,-270.0,172.0,-55.0,94.0
19:34:55.680000,-109.0,-66.0,42.0,433.0,1056.0,-265.0,172.0,-55.0,94.0
19:34:55.684000,-116.0,-66.0,66.0,433.0,1067.0,-269.0,169.0,-55.0,96.0
19:34:55.689000,-108.0,-61.0,67.0,396.0,1070.0,-272.0,169.0,-55.0,96.0
19:34:55.693000,-81.0,-60.0,46.0,393.0,1051.0,-262.0,169.0,-55.0,96.0
19:34:55.698000,-65.0,-58.0,24.0,393.0,1051.0,-262.0,166.0,-46.0,94.0
19:34:55.703000,-49.0,-53.0,14.0,387.0,1018.0,-246.0,166.0,-46.0,94.0
19:34:55.708000,-30.0,-39.0,15.0,391.0,979.0,-234.0,171.0,-48.0,96.0
19:34:55.712000,-14.0,-26.0,-9.0,385.0,917.0,-197.0,171.0,-48.0,96.0
19:34:55.717000,-1.0,-1.0,-73.0,385.0,917.0,-197.0,171.0,-48.0,96.0
19:34:55.722000,23.0,29.0,-91.0,406.0,873.0,-187.0,160.0,-48.0,111.0
19:34:55.727000,54.0,58.0,-53.0,437.0,836.0,-174.0,160.0,-48.0,111.0
19:34:55.731000,81.0,78.0,-25.0,425.0,847.0,-154.0,168.0,-49.0,97.0
19:34:55.736000,112.0,95.0,-55.0,385.0,844.0,-134.0,168.0,-49.0,97.0
19:34:55.740000,112.0,95.0,-55.0,372.0,818.0,-130.0,168.0,-49.0,97.0
19:34:55.745000,133.0,123.0,-125.0,408.0,789.0,-123.0,169.0,-52.0,100.0
19:34:55.750000,154.0,139.0,-149.0,464.0,755.0,-113.0,169.0,-52.0,100.0
19:34:55.755000,182.0,146.0,-148.0,516.0,750.0,-111.0,162.0,-51.0,91.0
19:34:55.759000,203.0,150.0,-144.0,552.0,762.0,-107.0,162.0,-51.0,91.0
19:34:55.764000,219.0,148.0,-153.0,576.0,778.0,-108.0,162.0,-51.0,91.0
19:34:55.768000,231.0,145.0,-179.0,620.0,793.0,-107.0,162.0,-49.0,87.0
19:34:55.774000,232.0,135.0,-191.0,668.0,798.0,-107.0,162.0,-49.0,87.0
19:34:55.778000,216.0,130.0,-182.0,697.0,812.0,-118.0,160.0,-45.0,78.0
19:34:55.783000,197.0,133.0,-139.0,689.0,842.0,-123.0,160.0,-45.0,78.0
19:34:55.787000,171.0,132.0,-103.0,638.0,891.0,-129.0,160.0,-45.0,78.0
19:34:55.792000,144.0,137.0,-144.0,602.0,935.0,-137.0,165.0,-54.0,78.0
19:34:55.797000,116.0,145.0,-211.0,647.0,966.0,-127.0,165.0,-54.0,78.0
19:34:55.802000,57.0,141.0,-178.0,647.0,966.0,-127.0,174.0,-54.0,90.0
19:34:55.806000,-11.0,117.0,-95.0,566.0,1033.0,-151.0,174.0,-54.0,90.0
19:34:55.811000,-26.0,100.0,-189.0,566.0,1033.0,-151.0,174.0,-54.0,90.0
19:34:55.816000,-81.0,92.0,-264.0,334.0,1140.0,-168.0,165.0,-51.0,87.0
19:34:55.821000,-120.0,109.0,-144.0,401.0,974.0,-167.0,165.0,-51.0,87.0
19:34:55.825000,-109.0,123.0,-22.0,580.0,823.0,-199.0,156.0,-49.0,84.0
19:34:55.830000,-109.0,94.0,24.0,613.0,823.0,-192.0,156.0,-49.0,84.0
19:34:55.834000,-98.0,95.0,6.0,558.0,850.0,-198.0,156.0,-49.0,84.0
19:34:55.839000,-100.0,81.0,47.0,547.0,864.0,-218.0,163.0,-54.0,88.0
19:34:55.844000,-102.0,61.0,123.0,601.0,833.0,-213.0,163.0,-54.0,88.0
19:34:55.849000,-87.0,29.0,154.0,610.0,829.0,-220.0,156.0,-55.0,85.0
19:34:55.853000,-87.0,29.0,154.0,568.0,842.0,-233.0,156.0,-55.0,85.0
19:34:55.858000,-48.0,2.0,139.0,568.0,838.0,-252.0,156.0,-55.0,85.0
19:34:55.863000,-2.0,-18.0,114.0,579.0,826.0,-257.0,147.0,-55.0,100.0
19:34:55.868000,20.0,-43.0,91.0,528.0,841.0,-261.0,147.0,-55.0,100.0
19:34:55.872000,38.0,-62.0,100.0,481.0,855.0,-264.0,162.0,-61.0,88.0
19:34:55.877000,41.0,-72.0,155.0,468.0,851.0,-259.0,162.0,-61.0,88.0
19:34:55.881000,35.0,-75.0,192.0,471.0,856.0,-256.0,162.0,-61.0,88.0
19:34:55.886000,27.0,-78.0,221.0,465.0,856.0,-257.0,163.0,-55.0,88.0
19:34:55.891000,11.0,-72.0,233.0,452.0,868.0,-258.0,163.0,-55.0,88.0
19:34:55.896000,-13.0,-64.0,252.0,446.0,896.0,-264.0,157.0,-54.0,96.0
19:34:55.900000,-9.0,-55.0,284.0,412.0,880.0,-272.0,157.0,-54.0,96.0
19:34:55.908000,-38.0,-30.0,184.0,383.0,849.0,-259.0,163.0,-48.0,109.0
19:34:55.910000,-38.0,-30.0,184.0,383.0,849.0,-259.0,163.0,-48.0,109.0
19:34:55.914000,-58.0,-32.0,154.0,450.0,853.0,-255.0,163.0,-48.0,109.0
19:34:55.919000,-84.0,-29.0,178.0,450.0,853.0,-255.0,165.0,-51.0,85.0
19:34:55.924000,-105.0,-29.0,199.0,489.0,812.0,-257.0,165.0,-51.0,85.0
19:34:55.929000,-115.0,-32.0,221.0,479.0,768.0,-262.0,165.0,-48.0,91.0
19:34:55.933000,-116.0,-35.0,214.0,438.0,753.0,-268.0,165.0,-48.0,91.0
19:34:55.937000,-113.0,-36.0,194.0,412.0,774.0,-272.0,165.0,-48.0,91.0
19:34:55.943000,-113.0,-35.0,231.0,448.0,747.0,-272.0,178.0,-46.0,93.0
19:34:55.947000,-114.0,-35.0,248.0,492.0,720.0,-273.0,178.0,-46.0,93.0
19:34:55.952000,-114.0,-35.0,248.0,485.0,772.0,-282.0,166.0,-51.0,97.0
19:34:55.957000,-133.0,-30.0,189.0,468.0,826.0,-293.0,166.0,-51.0,97.0
19:34:55.961000,-133.0,-30.0,189.0,466.0,814.0,-301.0,166.0,-51.0,97.0
19:34:55.966000,-142.0,-23.0,213.0,456.0,761.0,-316.0,171.0,-54.0,87.0
19:34:55.971000,-142.0,-12.0,266.0,399.0,770.0,-335.0,171.0,-54.0,87.0
19:34:55.976000,-127.0,-1.0,228.0,339.0,854.0,-342.0,162.0,-55.0,88.0
19:34:55.980000,-121.0,9.0,130.0,357.0,889.0,-345.0,162.0,-55.0,88.0
19:34:55.984000,-128.0,18.0,119.0,404.0,847.0,-350.0,162.0,-55.0,88.0
19:34:55.990000,-147.0,23.0,171.0,418.0,825.0,-353.0,172.0,-52.0,100.0
19:34:55.994000,-151.0,22.0,191.0,361.0,875.0,-366.0,172.0,-52.0,100.0
19:34:55.999000,-142.0,23.0,132.0,322.0,904.0,-364.0,175.0,-45.0,91.0
19:34:56.003000,-150.0,21.0,100.0,358.0,861.0,-364.0,175.0,-45.0,91.0
19:34:56.008000,-136.0,13.0,119.0,371.0,844.0,-381.0,175.0,-45.0,91.0
19:34:56.013000,-112.0,11.0,106.0,361.0,852.0,-375.0,184.0,-43.0,105.0
19:34:56.018000,-92.0,-1.0,61.0,381.0,819.0,-364.0,184.0,-43.0,105.0
19:34:56.023000,-77.0,-14.0,49.0,381.0,819.0,-364.0,166.0,-43.0,102.0
19:34:56.027000,-67.0,-25.0,86.0,454.0,768.0,-362.0,166.0,-43.0,102.0
19:34:56.031000,-34.0,-35.0,105.0,512.0,758.0,-363.0,166.0,-43.0,102.0
19:34:56.037000,-12.0,-48.0,98.0,506.0,795.0,-366.0,178.0,-40.0,109.0
19:34:56.041000,4.0,-61.0,84.0,464.0,836.0,-358.0,178.0,-40.0,109.0
19:34:56.046000,14.0,-67.0,56.0,406.0,887.0,-363.0,172.0,-48.0,120.0
19:34:56.051000,8.0,-73.0,33.0,355.0,957.0,-360.0,172.0,-48.0,120.0
19:34:56.055000,18.0,-88.0,39.0,363.0,1007.0,-344.0,172.0,-48.0,120.0
19:34:56.060000,2.0,-82.0,55.0,397.0,943.0,-347.0,183.0,-37.0,96.0
19:34:56.065000,-9.0,-84.0,30.0,379.0,885.0,-345.0,183.0,-37.0,96.0
19:34:56.070000,-3.0,-81.0,23.0,361.0,896.0,-342.0,180.0,-49.0,108.0
19:34:56.074000,-3.0,-81.0,23.0,381.0,892.0,-346.0,180.0,-49.0,108.0
19:34:56.078000,-11.0,-85.0,69.0,393.0,891.0,-332.0,180.0,-49.0,108.0
19:34:56.084000,-12.0,-94.0,107.0,400.0,895.0,-313.0,177.0,-51.0,102.0
19:34:56.088000,-23.0,-99.0,94.0,418.0,900.0,-308.0,177.0,-51.0,102.0
19:34:56.093000,-20.0,-106.0,59.0,446.0,883.0,-299.0,175.0,-42.0,94.0
19:34:56.098000,-22.0,-115.0,51.0,463.0,857.0,-289.0,175.0,-42.0,94.0
19:34:56.102000,-23.0,-124.0,70.0,452.0,835.0,-274.0,175.0,-42.0,94.0
19:34:56.107000,-32.0,-135.0,84.0,443.0,804.0,-265.0,175.0,-46.0,111.0
19:34:56.112000,-23.0,-147.0,102.0,452.0,770.0,-270.0,175.0,-46.0,111.0
19:34:56.117000,-6.0,-164.0,129.0,453.0,762.0,-271.0,172.0,-40.0,102.0
19:34:56.121000,19.0,-175.0,128.0,444.0,789.0,-272.0,172.0,-40.0,102.0
19:34:56.125000,35.0,-179.0,91.0,443.0,814.0,-269.0,172.0,-40.0,102.0
19:34:56.131000,46.0,-189.0,63.0,449.0,812.0,-267.0,169.0,-43.0,102.0
19:34:56.135000,53.0,-196.0,39.0,449.0,812.0,-267.0,169.0,-43.0,102.0
19:34:56.140000,64.0,-200.0,51.0,463.0,790.0,-271.0,177.0,-49.0,97.0
19:34:56.145000,73.0,-205.0,47.0,432.0,790.0,-266.0,177.0,-49.0,97.0
19:34:56.149000,80.0,-210.0,14.0,432.0,790.0,-266.0,177.0,-49.0,97.0
19:34:56.154000,81.0,-214.0,-35.0,425.0,812.0,-260.0,163.0,-45.0,106.0
19:34:56.159000,70.0,-224.0,-79.0,441.0,833.0,-249.0,163.0,-45.0,106.0
19:34:56.164000,60.0,-236.0,-115.0,479.0,830.0,-240.0,181.0,-39.0,100.0
19:34:56.168000,47.0,-252.0,-163.0,517.0,820.0,-238.0,181.0,-39.0,100.0
19:34:56.172000,47.0,-252.0,-163.0,536.0,810.0,-235.0,181.0,-39.0,100.0
19:34:56.178000,9.0,-285.0,-201.0,546.0,801.0,-231.0,181.0,-51.0,109.0
19:34:56.182000,9.0,-285.0,-201.0,552.0,803.0,-233.0,181.0,-51.0,109.0
19:34:56.187000,7.0,-304.0,-229.0,571.0,819.0,-236.0,160.0,-37.0,99.0
19:34:56.192000,8.0,-317.0,-288.0,588.0,851.0,-241.0,160.0,-37.0,99.0
19:34:56.196000,10.0,-324.0,-350.0,574.0,881.0,-248.0,160.0,-37.0,99.0
19:34:56.201000,8.0,-326.0,-387.0,530.0,904.0,-251.0,175.0,-36.0,105.0
19:34:56.206000,0.0,-328.0,-410.0,473.0,915.0,-259.0,175.0,-36.0,105.0
19:34:56.211000,-7.0,-326.0,-428.0,424.0,901.0,-272.0,163.0,-43.0,94.0
19:34:56.215000,1.0,-323.0,-422.0,396.0,871.0,-286.0,163.0,-43.0,94.0
19:34:56.219000,17.0,-319.0,-382.0,368.0,863.0,-300.0,163.0,-43.0,94.0
19:34:56.225000,39.0,-312.0,-339.0,328.0,898.0,-305.0,162.0,-43.0,112.0
19:34:56.229000,56.0,-304.0,-319.0,301.0,942.0,-302.0,162.0,-43.0,112.0
19:34:56.234000,65.0,-300.0,-315.0,301.0,942.0,-302.0,148.0,-51.0,106.0
19:34:56.238000,62.0,-299.0,-313.0,354.0,949.0,-292.0,148.0,-51.0,106.0
19:34:56.243000,58.0,-299.0,-297.0,354.0,921.0,-290.0,148.0,-51.0,106.0
19:34:56.248000,51.0,-303.0,-263.0,406.0,921.0,-290.0,153.0,-42.0,121.0
19:34:56.253000,37.0,-310.0,-224.0,442.0,905.0,-280.0,153.0,-42.0,121.0
19:34:56.258000,13.0,-321.0,-193.0,465.0,905.0,-273.0,136.0,-54.0,106.0
19:34:56.262000,-15.0,-334.0,-172.0,482.0,910.0,-267.0,136.0,-54.0,106.0
19:34:56.266000,-44.0,-345.0,-147.0,494.0,910.0,-261.0,136.0,-54.0,106.0
19:34:56.272000,-69.0,-358.0,-126.0,502.0,891.0,-257.0,151.0,-52.0,103.0
19:34:56.276000,-81.0,-362.0,-119.0,501.0,873.0,-255.0,151.0,-52.0,103.0
19:34:56.281000,-87.0,-364.0,-130.0,481.0,867.0,-254.0,139.0,-55.0,103.0
19:34:56.286000,-91.0,-357.0,-157.0,464.0,863.0,-248.0,139.0,-55.0,103.0
19:34:56.290000,-91.0,-357.0,-157.0,455.0,861.0,-245.0,139.0,-55.0,103.0
19:34:56.295000,-84.0,-346.0,-181.0,438.0,852.0,-247.0,123.0,-43.0,114.0
19:34:56.300000,-77.0,-327.0,-196.0,411.0,840.0,-249.0,123.0,-43.0,114.0
19:34:56.305000,-68.0,-303.0,-210.0,377.0,837.0,-253.0,139.0,-52.0,108.0
19:34:56.309000,-54.0,-273.0,-235.0,346.0,843.0,-257.0,139.0,-52.0,108.0
19:34:56.313000,-36.0,-240.0,-265.0,324.0,856.0,-260.0,139.0,-52.0,108.0
19:34:56.319000,-16.0,-203.0,-290.0,312.0,878.0,-262.0,141.0,-48.0,111.0
19:34:56.323000,-1.0,-167.0,-315.0,305.0,910.0,-258.0,141.0,-48.0,111.0
19:34:56.328000,5.0,-131.0,-347.0,307.0,937.0,-255.0,132.0,-48.0,136.0
19:34:56.333000,11.0,-95.0,-361.0,320.0,939.0,-255.0,132.0,-48.0,136.0
19:34:56.337000,17.0,-65.0,-346.0,330.0,943.0,-252.0,132.0,-48.0,136.0
19:34:56.342000,25.0,-37.0,-331.0,334.0,967.0,-253.0,127.0,-58.0,111.0
19:34:56.347000,33.0,-12.0,-329.0,335.0,998.0,-248.0,127.0,-58.0,111.0
19:34:56.352000,37.0,5.0,-314.0,335.0,998.0,-248.0,127.0,-55.0,120.0
19:34:56.356000,33.0,18.0,-299.0,339.0,1022.0,-237.0,127.0,-55.0,120.0
19:34:56.360000,32.0,23.0,-280.0,350.0,1036.0,-235.0,127.0,-55.0,120.0
19:34:56.366000,28.0,22.0,-249.0,373.0,1029.0,-230.0,130.0,-58.0,111.0
19:34:56.370000,31.0,16.0,-203.0,408.0,1006.0,-224.0,130.0,-58.0,111.0
19:34:56.375000,38.0,7.0,-153.0,443.0,978.0,-219.0,117.0,-52.0,117.0
19:34:56.380000,47.0,-8.0,-100.0,473.0,943.0,-209.0,117.0,-52.0,117.0
19:34:56.384000,60.0,-24.0,-53.0,505.0,907.0,-202.0,117.0,-52.0,117.0
19:34:56.389000,79.0,-42.0,-24.0,530.0,887.0,-193.0,109.0,-55.0,105.0
19:34:56.394000,99.0,-60.0,-3.0,544.0,885.0,-182.0,109.0,-55.0,105.0
19:34:56.399000,116.0,-79.0,7.0,557.0,891.0,-169.0,121.0,-48.0,108.0
19:34:56.403000,116.0,-79.0,7.0,569.0,907.0,-156.0,121.0,-48.0,108.0
19:34:56.407000,126.0,-91.0,1.0,576.0,924.0,-141.0,121.0,-48.0,108.0
19:34:56.413000,128.0,-98.0,-15.0,573.0,935.0,-125.0,120.0,-57.0,118.0
19:34:56.417000,126.0,-96.0,-44.0,559.0,949.0,-115.0,120.0,-57.0,118.0
19:34:56.422000,116.0,-81.0,-101.0,550.0,975.0,-103.0,121.0,-61.0,105.0
19:34:56.427000,87.0,-62.0,-175.0,556.0,993.0,-93.0,121.0,-61.0,105.0
19:34:56.431000,49.0,-42.0,-229.0,569.0,974.0,-95.0,121.0,-61.0,105.0
19:34:56.436000,11.0,-20.0,-262.0,585.0,934.0,-107.0,106.0,-61.0,120.0
19:34:56.441000,-14.0,5.0,-275.0,610.0,908.0,-125.0,106.0,-61.0,120.0
19:34:56.446000,-35.0,35.0,-277.0,649.0,899.0,-135.0,112.0,-54.0,115.0
19:34:56.450000,-72.0,64.0,-270.0,751.0,850.0,-36.0,112.0,-54.0,115.0
19:34:56.454000,-193.0,89.0,-250.0,826.0,807.0,-168.0,112.0,-54.0,115.0
19:34:56.460000,-121.0,159.0,-253.0,721.0,793.0,-333.0,115.0,-52.0,103.0
19:34:56.464000,-84.0,177.0,-245.0,721.0,793.0,-333.0,115.0,-52.0,103.0
19:34:56.469000,-147.0,200.0,-263.0,513.0,813.0,-207.0,114.0,-61.0,120.0
19:34:56.474000,-147.0,231.0,-275.0,364.0,976.0,-283.0,114.0,-61.0,120.0
19:34:56.478000,-172.0,226.0,-230.0,364.0,976.0,-283.0,114.0,-61.0,120.0
19:34:56.483000,-201.0,228.0,-106.0,386.0,876.0,-262.0,105.0,-61.0,109.0
19:34:56.488000,-192.0,198.0,-3.0,451.0,756.0,-263.0,105.0,-61.0,109.0
19:34:56.493000,-148.0,191.0,42.0,490.0,680.0,-293.0,114.0,-61.0,114.0
19:34:56.497000,-133.0,170.0,74.0,554.0,625.0,-301.0,114.0,-61.0,114.0
19:34:56.501000,-133.0,170.0,74.0,645.0,618.0,-293.0,114.0,-61.0,114.0
19:34:56.507000,-67.0,137.0,170.0,701.0,675.0,-290.0,96.0,-61.0,108.0
19:34:56.511000,-67.0,137.0,170.0,702.0,757.0,-282.0,96.0,-61.0,108.0
19:34:56.516000,-52.0,121.0,178.0,668.0,818.0,-273.0,105.0,-63.0,112.0
19:34:56.521000,-71.0,98.0,177.0,627.0,823.0,-262.0,105.0,-63.0,112.0
19:34:56.525000,-96.0,83.0,220.0,584.0,792.0,-273.0,105.0,-63.0,112.0
19:34:56.530000,-113.0,72.0,275.0,526.0,753.0,-288.0,109.0,-55.0,126.0
19:34:56.535000,-121.0,67.0,316.0,473.0,732.0,-303.0,109.0,-55.0,126.0
19:34:56.540000,-125.0,72.0,345.0,441.0,751.0,-314.0,111.0,-63.0,109.0
19:34:56.544000,-134.0,80.0,355.0,440.0,811.0,-327.0,111.0,-63.0,109.0
19:34:56.548000,-149.0,94.0,324.0,461.0,864.0,-331.0,111.0,-63.0,109.0
19:34:56.554000,-177.0,105.0,277.0,498.0,875.0,-335.0,108.0,-52.0,111.0
19:34:56.558000,-195.0,117.0,224.0,527.0,854.0,-345.0,108.0,-52.0,111.0
19:34:56.563000,-207.0,126.0,169.0,527.0,854.0,-345.0,123.0,-57.0,112.0
19:34:56.568000,-219.0,130.0,141.0,519.0,721.0,-355.0,123.0,-57.0,112.0
19:34:56.572000,-227.0,128.0,165.0,519.0,721.0,-355.0,123.0,-57.0,112.0
19:34:56.577000,-220.0,126.0,216.0,489.0,640.0,-365.0,105.0,-42.0,124.0
19:34:56.582000,-199.0,122.0,243.0,434.0,585.0,-375.0,105.0,-42.0,124.0
19:34:56.587000,-163.0,121.0,233.0,379.0,568.0,-384.0,123.0,-43.0,118.0
19:34:56.591000,-126.0,122.0,224.0,355.0,568.0,-388.0,123.0,-43.0,118.0
19:34:56.595000,-88.0,119.0,225.0,357.0,576.0,-382.0,123.0,-43.0,118.0
19:34:56.601000,-58.0,119.0,230.0,376.0,606.0,-379.0,120.0,-45.0,114.0
19:34:56.605000,-37.0,120.0,231.0,396.0,638.0,-376.0,120.0,-45.0,114.0
19:34:56.610000,-29.0,120.0,226.0,401.0,661.0,-370.0,127.0,-48.0,123.0
19:34:56.614000,-29.0,120.0,226.0,390.0,679.0,-359.0,127.0,-48.0,123.0
19:34:56.619000,-31.0,118.0,213.0,385.0,679.0,-350.0,127.0,-48.0,123.0
19:34:56.624000,-34.0,114.0,224.0,408.0,652.0,-345.0,129.0,-48.0,115.0
19:34:56.629000,-31.0,107.0,286.0,429.0,621.0,-339.0,129.0,-48.0,115.0
19:34:56.634000,-30.0,100.0,357.0,410.0,627.0,-335.0,136.0,-60.0,115.0
19:34:56.638000,-30.0,96.0,367.0,379.0,660.0,-334.0,136.0,-60.0,115.0
19:34:56.642000,-25.0,93.0,340.0,372.0,689.0,-328.0,136.0,-60.0,115.0
19:34:56.648000,-20.0,85.0,326.0,380.0,712.0,-316.0,135.0,-51.0,120.0
19:34:56.652000,-17.0,74.0,327.0,383.0,731.0,-301.0,135.0,-51.0,120.0
19:34:56.657000,-18.0,60.0,327.0,380.0,751.0,-283.0,132.0,-57.0,127.0
19:34:56.662000,-16.0,46.0,312.0,384.0,762.0,-269.0,132.0,-57.0,127.0
19:34:56.666000,-5.0,31.0,280.0,396.0,757.0,-261.0,132.0,-57.0,127.0
19:34:56.671000,9.0,23.0,240.0,397.0,763.0,-253.0,138.0,-48.0,124.0
19:34:56.676000,18.0,21.0,188.0,383.0,798.0,-249.0,138.0,-48.0,124.0
19:34:56.681000,22.0,26.0,123.0,383.0,798.0,-249.0,129.0,-46.0,132.0
19:34:56.685000,18.0,36.0,68.0,373.0,851.0,-250.0,129.0,-46.0,132.0
19:34:56.689000,10.0,46.0,46.0,373.0,884.0,-250.0,129.0,-46.0,132.0
19:34:56.695000,-1.0,57.0,30.0,359.0,896.0,-249.0,141.0,-34.0,121.0
19:34:56.699000,-7.0,67.0,-5.0,340.0,906.0,-252.0,141.0,-34.0,121.0
19:34:56.704000,-7.0,76.0,-39.0,339.0,892.0,-256.0,144.0,-39.0,115.0
19:34:56.709000,0.0,79.0,-59.0,354.0,843.0,-261.0,144.0,-39.0,115.0
19:34:56.713000,19.0,77.0,-77.0,381.0,810.0,-265.0,144.0,-39.0,115.0
19:34:56.718000,42.0,71.0,-97.0,416.0,799.0,-269.0,127.0,-34.0,132.0
19:34:56.723000,72.0,65.0,-126.0,459.0,797.0,-274.0,127.0,-34.0,132.0
19:34:56.728000,107.0,56.0,-165.0,501.0,815.0,-279.0,130.0,-51.0,123.0
19:34:56.732000,107.0,56.0,-165.0,528.0,829.0,-282.0,130.0,-51.0,123.0
19:34:56.736000,135.0,49.0,-198.0,552.0,859.0,-281.0,130.0,-51.0,123.0
19:34:56.742000,161.0,36.0,-219.0,562.0,903.0,-278.0,139.0,-49.0,114.0
19:34:56.746000,182.0,24.0,-224.0,555.0,905.0,-279.0,139.0,-49.0,114.0
19:34:56.751000,187.0,21.0,-225.0,537.0,888.0,-274.0,132.0,-46.0,127.0
19:34:56.756000,196.0,3.0,-228.0,507.0,892.0,-269.0,132.0,-46.0,127.0
19:34:56.760000,210.0,-14.0,-204.0,488.0,903.0,-265.0,132.0,-46.0,127.0
19:34:56.765000,210.0,-30.0,-142.0,498.0,927.0,-261.0,121.0,-45.0,108.0
19:34:56.770000,215.0,-49.0,-84.0,498.0,923.0,-264.0,121.0,-45.0,108.0
19:34:56.775000,224.0,-70.0,-50.0,476.0,892.0,-264.0,136.0,-51.0,114.0
19:34:56.779000,239.0,-84.0,-46.0,469.0,906.0,-263.0,136.0,-51.0,114.0
19:34:56.783000,251.0,-99.0,-61.0,477.0,959.0,-258.0,136.0,-51.0,114.0
19:34:56.789000,252.0,-111.0,-83.0,488.0,1012.0,-244.0,124.0,-51.0,111.0
19:34:56.793000,235.0,-119.0,-92.0,488.0,1012.0,-244.0,124.0,-51.0,111.0
19:34:56.798000,203.0,-118.0,-93.0,495.0,1041.0,-232.0,124.0,-49.0,115.0
19:34:56.803000,165.0,-117.0,-87.0,495.0,1000.0,-218.0,124.0,-49.0,115.0
19:34:56.807000,134.0,-110.0,-80.0,495.0,1000.0,-218.0,124.0,-49.0,115.0
19:34:56.812000,102.0,-103.0,-84.0,482.0,970.0,-219.0,130.0,-51.0,124.0
19:34:56.817000,67.0,-91.0,-100.0,464.0,965.0,-217.0,130.0,-51.0,124.0
19:34:56.822000,29.0,-74.0,-125.0,454.0,974.0,-211.0,124.0,-54.0,112.0
19:34:56.826000,-5.0,-59.0,-147.0,468.0,965.0,-211.0,124.0,-54.0,112.0
19:34:56.830000,-5.0,-59.0,-147.0,506.0,942.0,-212.0,124.0,-54.0,112.0
19:34:56.836000,-48.0,-37.0,-154.0,542.0,922.0,-206.0,120.0,-54.0,111.0
19:34:56.840000,-48.0,-37.0,-154.0,556.0,884.0,-202.0,120.0,-54.0,111.0
19:34:56.845000,-55.0,-23.0,-141.0,547.0,835.0,-207.0,126.0,-48.0,112.0
19:34:56.850000,-65.0,-6.0,-131.0,516.0,832.0,-215.0,126.0,-48.0,112.0
19:34:56.854000,-56.0,4.0,-160.0,498.0,862.0,-223.0,126.0,-48.0,112.0
19:34:56.859000,-44.0,10.0,-207.0,509.0,887.0,-228.0,108.0,-52.0,121.0
19:34:56.864000,-37.0,16.0,-258.0,530.0,896.0,-235.0,108.0,-52.0,121.0
19:34:56.869000,-31.0,16.0,-284.0,548.0,895.0,-245.0,108.0,-51.0,109.0
19:34:56.873000,-32.0,16.0,-290.0,550.0,917.0,-254.0,108.0,-51.0,109.0
19:34:56.877000,-28.0,9.0,-291.0,550.0,951.0,-258.0,108.0,-51.0,109.0
19:34:56.883000,-31.0,3.0,-273.0,552.0,977.0,-252.0,118.0,-67.0,108.0
19:34:56.887000,-59.0,-6.0,-242.0,557.0,1001.0,-251.0,118.0,-67.0,108.0
19:34:56.892000,-81.0,-19.0,-206.0,557.0,1001.0,-251.0,115.0,-54.0,115.0
19:34:56.897000,-98.0,-34.0,-169.0,558.0,986.0,-248.0,115.0,-54.0,115.0
19:34:56.901000,-108.0,-46.0,-129.0,558.0,986.0,-248.0,115.0,-54.0,115.0
19:34:56.906000,-110.0,-65.0,-67.0,565.0,940.0,-242.0,100.0,-43.0,105.0
19:34:56.911000,-110.0,-86.0,12.0,584.0,890.0,-234.0,100.0,-43.0,105.0
19:34:56.916000,-109.0,-105.0,88.0,602.0,862.0,-230.0,120.0,-57.0,111.0
19:34:56.920000,-114.0,-119.0,130.0,602.0,875.0,-228.0,120.0,-57.0,111.0
19:34:56.924000,-116.0,-135.0,137.0,591.0,912.0,-220.0,120.0,-57.0,111.0
19:34:56.930000,-104.0,-149.0,163.0,606.0,903.0,-219.0,114.0,-45.0,124.0
19:34:56.934000,-91.0,-156.0,224.0,639.0,830.0,-227.0,114.0,-45.0,124.0
19:34:56.939000,-70.0,-163.0,266.0,638.0,773.0,-236.0,115.0,-42.0,117.0
19:34:56.944000,-47.0,-165.0,293.0,609.0,757.0,-244.0,115.0,-42.0,117.0
19:34:56.948000,-47.0,-165.0,293.0,581.0,767.0,-247.0,115.0,-42.0,117.0
19:34:56.953000,-34.0,-159.0,294.0,582.0,793.0,-248.0,108.0,-55.0,127.0
19:34:56.958000,-26.0,-154.0,289.0,607.0,790.0,-255.0,108.0,-55.0,127.0
19:34:56.963000,-18.0,-142.0,306.0,603.0,789.0,-263.0,115.0,-48.0,120.0
19:34:56.967000,-8.0,-130.0,316.0,566.0,816.0,-267.0,115.0,-48.0,120.0
19:34:56.971000,0.0,-121.0,298.0,528.0,860.0,-272.0,115.0,-48.0,120.0
19:34:56.977000,9.0,-117.0,250.0,500.0,906.0,-272.0,121.0,-49.0,111.0
19:34:56.981000,9.0,-112.0,193.0,506.0,918.0,-270.0,121.0,-49.0,111.0
19:34:56.986000,7.0,-113.0,159.0,546.0,899.0,-276.0,118.0,-42.0,121.0
19:34:56.990000,7.0,-116.0,140.0,579.0,876.0,-284.0,118.0,-42.0,121.0
19:34:56.995000,17.0,-119.0,108.0,592.0,864.0,-292.0,118.0,-42.0,121.0
19:34:57.000000,35.0,-126.0,71.0,593.0,862.0,-292.0,117.0,-39.0,138.0
19:34:57.005000,58.0,-134.0,47.0,593.0,853.0,-287.0,117.0,-39.0,138.0
19:34:57.010000,84.0,-145.0,51.0,593.0,853.0,-287.0,114.0,-43.0,117.0
19:34:57.014000,107.0,-157.0,44.0,591.0,868.0,-288.0,114.0,-43.0,117.0
19:34:57.018000,113.0,-168.0,21.0,573.0,932.0,-286.0,114.0,-43.0,117.0
19:34:57.024000,110.0,-177.0,0.0,550.0,1004.0,-282.0,117.0,-46.0,121.0
19:34:57.028000,100.0,-183.0,-15.0,531.0,1052.0,-281.0,117.0,-46.0,121.0
19:34:57.033000,84.0,-187.0,-26.0,524.0,1065.0,-281.0,120.0,-51.0,121.0
19:34:57.038000,69.0,-192.0,-4.0,533.0,1061.0,-281.0,120.0,-51.0,121.0
19:34:57.042000,52.0,-192.0,42.0,532.0,1066.0,-275.0,120.0,-51.0,121.0
19:34:57.047000,40.0,-191.0,78.0,503.0,1073.0,-266.0,115.0,-40.0,127.0
19:34:57.052000,44.0,-189.0,99.0,467.0,1058.0,-261.0,115.0,-40.0,127.0
19:34:57.057000,58.0,-186.0,119.0,453.0,1015.0,-255.0,118.0,-43.0,117.0
19:34:57.061000,58.0,-186.0,119.0,460.0,983.0,-249.0,118.0,-43.0,117.0
19:34:57.065000,85.0,-182.0,121.0,472.0,979.0,-237.0,118.0,-43.0,117.0
19:34:57.071000,106.0,-173.0,118.0,477.0,993.0,-218.0,126.0,-39.0,118.0
19:34:57.075000,111.0,-159.0,123.0,469.0,1023.0,-203.0,126.0,-39.0,118.0
19:34:57.080000,108.0,-140.0,130.0,455.0,1060.0,-190.0,124.0,-55.0,121.0
19:34:57.085000,99.0,-115.0,116.0,442.0,1089.0,-182.0,124.0,-55.0,121.0
19:34:57.089000,84.0,-79.0,102.0,430.0,1089.0,-174.0,124.0,-55.0,121.0
19:34:57.094000,48.0,-39.0,110.0,401.0,1098.0,-171.0,120.0,-51.0,126.0
19:34:57.099000,14.0,9.0,96.0,358.0,1149.0,-176.0,120.0,-51.0,126.0
19:34:57.104000,-20.0,63.0,55.0,318.0,1185.0,-180.0,120.0,-40.0,120.0
19:34:57.108000,-60.0,127.0,43.0,279.0,1187.0,-187.0,120.0,-40.0,120.0
19:34:57.112000,-100.0,193.0,51.0,245.0,1177.0,-192.0,120.0,-40.0,120.0
19:34:57.118000,-146.0,263.0,21.0,239.0,1143.0,-210.0,117.0,-49.0,115.0
19:34:57.122000,-171.0,338.0,-3.0,239.0,1143.0,-210.0,117.0,-49.0,115.0
19:34:57.127000,-198.0,418.0,-18.0,254.0,1082.0,-231.0,121.0,-48.0,121.0
19:34:57.132000,-214.0,500.0,-49.0,265.0,1036.0,-264.0,121.0,-48.0,121.0
19:34:57.136000,-231.0,574.0,-65.0,265.0,1036.0,-264.0,121.0,-48.0,121.0
19:34:57.141000,-241.0,634.0,-50.0,256.0,1017.0,-276.0,117.0,-37.0,136.0
19:34:57.146000,-237.0,676.0,-68.0,245.0,989.0,-293.0,117.0,-37.0,136.0
19:34:57.151000,-223.0,695.0,-112.0,268.0,928.0,-311.0,120.0,-45.0,124.0
19:34:57.155000,-191.0,690.0,-154.0,346.0,843.0,-328.0,120.0,-45.0,124.0
19:34:57.159000,-191.0,690.0,-154.0,457.0,759.0,-348.0,120.0,-45.0,124.0
19:34:57.165000,-129.0,664.0,-196.0,565.0,725.0,-364.0,123.0,-37.0,115.0
19:34:57.169000,-129.0,664.0,-196.0,659.0,768.0,-382.0,123.0,-37.0,115.0
19:34:57.174000,-95.0,648.0,-252.0,733.0,784.0,-400.0,120.0,-39.0,126.0
19:34:57.179000,-66.0,625.0,-285.0,770.0,774.0,-409.0,120.0,-39.0,126.0
19:34:57.183000,-45.0,596.0,-314.0,786.0,823.0,-407.0,120.0,-39.0,126.0
19:34:57.188000,-16.0,556.0,-329.0,806.0,840.0,-407.0,115.0,-37.0,120.0
19:34:57.193000,0.0,529.0,-347.0,803.0,860.0,-417.0,115.0,-37.0,120.0
19:34:57.198000,16.0,507.0,-364.0,788.0,880.0,-413.0,121.0,-43.0,123.0
19:34:57.202000,37.0,483.0,-311.0,773.0,835.0,-408.0,121.0,-43.0,123.0
19:34:57.206000,46.0,471.0,-251.0,735.0,818.0,-401.0,121.0,-43.0,123.0
19:34:57.212000,44.0,465.0,-179.0,680.0,834.0,-376.0,114.0,-40.0,127.0
19:34:57.216000,43.0,450.0,-127.0,654.0,851.0,-360.0,114.0,-40.0,127.0
19:34:57.221000,37.0,447.0,-82.0,654.0,851.0,-360.0,112.0,-49.0,126.0
19:34:57.226000,25.0,455.0,23.0,674.0,805.0,-338.0,112.0,-49.0,126.0
19:34:57.230000,21.0,457.0,125.0,674.0,805.0,-338.0,112.0,-49.0,126.0
19:34:57.235000,40.0,461.0,157.0,621.0,843.0,-330.0,114.0,-43.0,132.0
19:34:57.240000,56.0,463.0,135.0,569.0,890.0,-324.0,114.0,-43.0,132.0
19:34:57.245000,70.0,464.0,126.0,545.0,893.0,-312.0,121.0,-45.0,118.0
19:34:57.249000,86.0,459.0,169.0,543.0,848.0,-299.0,121.0,-45.0,118.0
19:34:57.253000,114.0,457.0,215.0,530.0,786.0,-292.0,121.0,-45.0,118.0
19:34:57.259000,148.0,459.0,236.0,497.0,731.0,-288.0,115.0,-36.0,109.0
19:34:57.263000,180.0,464.0,216.0,470.0,696.0,-284.0,115.0,-36.0,109.0
19:34:57.268000,216.0,476.0,144.0,462.0,707.0,-283.0,123.0,-37.0,109.0
19:34:57.273000,242.0,490.0,57.0,486.0,751.0,-285.0,123.0,-37.0,109.0
19:34:57.277000,242.0,490.0,57.0,534.0,780.0,-282.0,123.0,-37.0,109.0
19:34:57.282000,259.0,503.0,10.0,559.0,797.0,-277.0,111.0,-43.0,120.0
19:34:57.287000,266.0,517.0,-14.0,534.0,833.0,-269.0,111.0,-43.0,120.0
19:34:57.292000,265.0,527.0,-60.0,499.0,856.0,-256.0,121.0,-37.0,105.0
19:34:57.296000,259.0,532.0,-113.0,493.0,841.0,-239.0,121.0,-37.0,105.0
19:34:57.300000,251.0,528.0,-140.0,508.0,813.0,-219.0,121.0,-37.0,105.0
19:34:57.306000,245.0,515.0,-147.0,534.0,785.0,-202.0,121.0,-39.0,96.0
19:34:57.310000,243.0,497.0,-142.0,569.0,740.0,-186.0,121.0,-39.0,96.0
19:34:57.315000,249.0,473.0,-103.0,596.0,692.0,-175.0,126.0,-37.0,96.0
19:34:57.320000,271.0,440.0,-51.0,607.0,671.0,-164.0,126.0,-37.0,96.0
19:34:57.324000,294.0,406.0,-23.0,624.0,686.0,-149.0,126.0,-37.0,96.0
19:34:57.329000,309.0,366.0,0.0,644.0,713.0,-130.0,124.0,-33.0,93.0
19:34:57.334000,315.0,324.0,52.0,640.0,737.0,-108.0,124.0,-33.0,93.0
19:34:57.339000,312.0,277.0,105.0,640.0,737.0,-108.0,135.0,-42.0,88.0
19:34:57.343000,309.0,236.0,147.0,613.0,764.0,-90.0,135.0,-42.0,88.0
19:34:57.347000,301.0,198.0,212.0,590.0,772.0,-76.0,135.0,-42.0,88.0
19:34:57.353000,287.0,161.0,319.0,569.0,761.0,-59.0,121.0,-45.0,96.0
19:34:57.357000,261.0,130.0,438.0,533.0,761.0,-45.0,121.0,-45.0,96.0
19:34:57.362000,228.0,102.0,543.0,480.0,773.0,-32.0,133.0,-43.0,96.0
19:34:57.366000,203.0,75.0,640.0,426.0,767.0,-13.0,133.0,-43.0,96.0
19:34:57.371000,184.0,50.0,756.0,392.0,767.0,-13.0,133.0,-43.0,96.0
19:34:57.376000,169.0,34.0,878.0,369.0,731.0,-12.0,136.0,-46.0,96.0
19:34:57.381000,156.0,22.0,947.0,327.0,713.0,-15.0,136.0,-46.0,96.0
19:34:57.386000,156.0,22.0,947.0,271.0,731.0,-14.0,147.0,-34.0,88.0
19:34:57.390000,142.0,12.0,961.0,237.0,756.0,-3.0,147.0,-34.0,88.0
19:34:57.394000,128.0,0.0,970.0,232.0,748.0,15.0,147.0,-34.0,88.0
19:34:57.400000,108.0,-11.0,998.0,234.0,701.0,31.0,147.0,-36.0,85.0
19:34:57.404000,88.0,-14.0,1043.0,230.0,640.0,43.0,147.0,-36.0,85.0
19:34:57.409000,70.0,-8.0,1078.0,213.0,604.0,49.0,160.0,-31.0,84.0
19:34:57.413000,55.0,4.0,1057.0,190.0,599.0,47.0,160.0,-31.0,84.0
19:34:57.418000,43.0,25.0,991.0,172.0,601.0,40.0,160.0,-31.0,84.0
19:34:57.423000,40.0,48.0,903.0,160.0,599.0,35.0,169.0,-25.0,93.0
19:34:57.428000,42.0,69.0,813.0,153.0,583.0,27.0,169.0,-25.0,93.0
19:34:57.433000,44.0,91.0,742.0,145.0,563.0,14.0,171.0,-18.0,90.0
19:34:57.437000,49.0,112.0,677.0,134.0,560.0,0.0,171.0,-18.0,90.0
19:34:57.441000,56.0,133.0,580.0,128.0,587.0,-15.0,171.0,-18.0,90.0
19:34:57.447000,54.0,154.0,448.0,152.0,644.0,-24.0,192.0,-22.0,84.0
19:34:57.451000,39.0,168.0,328.0,152.0,644.0,-24.0,192.0,-22.0,84.0
19:34:57.456000,4.0,177.0,277.0,199.0,701.0,-36.0,181.0,-30.0,88.0
19:34:57.461000,-25.0,170.0,256.0,232.0,727.0,-52.0,181.0,-30.0,88.0
19:34:57.465000,-53.0,178.0,168.0,242.0,759.0,-86.0,181.0,-30.0,88.0
19:34:57.470000,-98.0,178.0,87.0,262.0,834.0,-125.0,180.0,-22.0,87.0
19:34:57.475000,-155.0,163.0,44.0,319.0,909.0,-145.0,180.0,-22.0,87.0
19:34:57.480000,-226.0,137.0,7.0,366.0,969.0,-162.0,187.0,-18.0,87.0
19:34:57.484000,-293.0,97.0,-4.0,388.0,1003.0,-176.0,187.0,-18.0,87.0
19:34:57.488000,-293.0,97.0,-4.0,433.0,975.0,-192.0,187.0,-18.0,87.0
19:34:57.494000,-384.0,14.0,89.0,486.0,908.0,-209.0,196.0,-19.0,88.0
19:34:57.498000,-384.0,14.0,89.0,525.0,846.0,-222.0,196.0,-19.0,88.0
19:34:57.503000,-410.0,-30.0,158.0,548.0,825.0,-227.0,187.0,-21.0,103.0
19:34:57.508000,-426.0,-75.0,228.0,555.0,843.0,-230.0,187.0,-21.0,103.0
19:34:57.512000,-426.0,-115.0,274.0,555.0,855.0,-227.0,187.0,-21.0,103.0
19:34:57.517000,-415.0,-149.0,303.0,559.0,856.0,-222.0,180.0,-30.0,118.0
19:34:57.522000,-410.0,-170.0,319.0,549.0,876.0,-218.0,180.0,-30.0,118.0
19:34:57.527000,-399.0,-182.0,322.0,516.0,906.0,-214.0,180.0,-30.0,118.0
19:34:57.531000,-392.0,-184.0,310.0,461.0,965.0,-210.0,180.0,-30.0,118.0
19:34:57.535000,-389.0,-182.0,274.0,395.0,1031.0,-209.0,180.0,-30.0,118.0
19:34:57.541000,-383.0,-175.0,225.0,345.0,1046.0,-213.0,186.0,-19.0,102.0
19:34:57.545000,-373.0,-167.0,182.0,316.0,1030.0,-210.0,186.0,-19.0,102.0
19:34:57.550000,-355.0,-162.0,135.0,316.0,1030.0,-210.0,190.0,-4.0,105.0
19:34:57.555000,-327.0,-157.0,96.0,332.0,1006.0,-207.0,190.0,-4.0,105.0
19:34:57.559000,-284.0,-147.0,42.0,332.0,1006.0,-207.0,190.0,-4.0,105.0
19:34:57.564000,-238.0,-133.0,-23.0,354.0,991.0,-209.0,193.0,-7.0,112.0
19:34:57.569000,-182.0,-123.0,-48.0,391.0,967.0,-209.0,193.0,-7.0,112.0
19:34:57.574000,-130.0,-112.0,-51.0,412.0,971.0,-210.0,184.0,-15.0,108.0
19:34:57.578000,-100.0,-100.0,-70.0,382.0,1025.0,-203.0,184.0,-15.0,108.0
19:34:57.582000,-79.0,-92.0,-111.0,332.0,1108.0,-195.0,184.0,-15.0,108.0
19:34:57.588000,-78.0,-89.0,-162.0,291.0,1201.0,-184.0,196.0,-16.0,112.0
19:34:57.592000,-87.0,-91.0,-200.0,269.0,1279.0,-171.0,196.0,-16.0,112.0
19:34:57.597000,-112.0,-95.0,-205.0,275.0,1320.0,-158.0,190.0,-15.0,106.0
19:34:57.602000,-139.0,-102.0,-196.0,311.0,1308.0,-143.0,190.0,-15.0,106.0
19:34:57.606000,-139.0,-102.0,-196.0,353.0,1264.0,-136.0,190.0,-15.0,106.0
19:34:57.611000,-170.0,-102.0,-198.0,401.0,1209.0,-135.0,181.0,-12.0,120.0
19:34:57.616000,-198.0,-104.0,-194.0,441.0,1168.0,-140.0,181.0,-12.0,120.0
19:34:57.621000,-219.0,-100.0,-190.0,457.0,1158.0,-146.0,193.0,-9.0,117.0
19:34:57.625000,-230.0,-98.0,-200.0,458.0,1170.0,-150.0,193.0,-9.0,117.0
19:34:57.629000,-240.0,-99.0,-233.0,460.0,1184.0,-151.0,193.0,-9.0,117.0
19:34:57.635000,-250.0,-105.0,-254.0,462.0,1191.0,-152.0,183.0,0.0,112.0
19:34:57.639000,-265.0,-111.0,-274.0,460.0,1180.0,-153.0,183.0,0.0,112.0
19:34:57.644000,-294.0,-117.0,-277.0,476.0,1168.0,-155.0,175.0,-1.0,120.0
19:34:57.649000,-315.0,-132.0,-243.0,482.0,1180.0,-173.0,175.0,-1.0,120.0
19:34:57.656000,-344.0,-162.0,-249.0,456.0,1225.0,-190.0,177.0,-9.0,121.0
19:34:57.658000,-344.0,-162.0,-249.0,456.0,1225.0,-190.0,177.0,-9.0,121.0
19:34:57.662000,-350.0,-181.0,-235.0,458.0,1164.0,-199.0,177.0,-9.0,121.0
19:34:57.668000,-347.0,-198.0,-204.0,458.0,1164.0,-199.0,175.0,-12.0,123.0
19:34:57.672000,-339.0,-217.0,-156.0,454.0,1100.0,-200.0,175.0,-12.0,123.0
19:34:57.677000,-316.0,-225.0,-142.0,440.0,1061.0,-206.0,166.0,-12.0,133.0
19:34:57.682000,-298.0,-231.0,-142.0,434.0,1021.0,-210.0,166.0,-12.0,133.0
19:34:57.686000,-268.0,-233.0,-130.0,432.0,982.0,-211.0,166.0,-12.0,133.0
19:34:57.691000,-226.0,-230.0,-123.0,416.0,957.0,-222.0,169.0,-7.0,129.0
19:34:57.696000,-182.0,-233.0,-109.0,403.0,950.0,-220.0,169.0,-7.0,129.0
19:34:57.700000,-146.0,-231.0,-86.0,377.0,922.0,-212.0,163.0,-15.0,148.0
19:34:57.705000,-104.0,-226.0,-102.0,321.0,883.0,-211.0,163.0,-15.0,148.0
19:34:57.709000,-104.0,-226.0,-102.0,286.0,875.0,-206.0,163.0,-15.0,148.0
19:34:57.715000,-64.0,-213.0,-142.0,308.0,868.0,-199.0,174.0,-1.0,135.0
19:34:57.719000,-25.0,-200.0,-177.0,358.0,848.0,-189.0,174.0,-1.0,135.0
19:34:57.724000,4.0,-190.0,-173.0,385.0,827.0,-185.0,166.0,-6.0,130.0
19:34:57.729000,39.0,-181.0,-163.0,383.0,817.0,-182.0,166.0,-6.0,130.0
19:34:57.733000,68.0,-175.0,-158.0,388.0,792.0,-177.0,166.0,-6.0,130.0
19:34:57.738000,102.0,-174.0,-123.0,408.0,766.0,-174.0,175.0,-3.0,138.0
19:34:57.742000,138.0,-181.0,-89.0,423.0,765.0,-168.0,175.0,-3.0,138.0
19:34:57.747000,172.0,-183.0,-89.0,429.0,779.0,-165.0,162.0,-10.0,133.0
19:34:57.752000,193.0,-178.0,-94.0,435.0,806.0,-167.0,162.0,-10.0,133.0
19:34:57.756000,207.0,-169.0,-107.0,452.0,830.0,-169.0,162.0,-10.0,133.0
19:34:57.762000,214.0,-158.0,-123.0,473.0,820.0,-166.0,163.0,-13.0,145.0
19:34:57.766000,212.0,-147.0,-105.0,470.0,808.0,-171.0,163.0,-13.0,145.0
19:34:57.771000,209.0,-135.0,-77.0,470.0,808.0,-171.0,165.0,-9.0,135.0
19:34:57.776000,191.0,-129.0,-76.0,434.0,853.0,-169.0,165.0,-9.0,135.0
19:34:57.780000,174.0,-125.0,-86.0,399.0,853.0,-169.0,165.0,-9.0,135.0
19:34:57.785000,159.0,-124.0,-100.0,392.0,863.0,-170.0,156.0,-4.0,132.0
19:34:57.790000,160.0,-120.0,-102.0,449.0,773.0,-183.0,156.0,-4.0,132.0
