hh:mm:ss.ms,gyroX[mdps],gyroY[mdps],gyroZ[mdps],accX[mg],accY[mg],accZ[mg],magX[mG],magY[mG],magZ[mG]
19:35:19.027000,-550.0,-287.0,855.0,561.0,657.0,-179.0,9.0,-225.0,544.0
19:35:19.032000,-581.0,-299.0,891.0,562.0,600.0,-159.0,10.0,-220.0,547.0
19:35:19.037000,-606.0,-304.0,916.0,536.0,561.0,-136.0,10.0,-220.0,547.0
19:35:19.042000,-627.0,-301.0,929.0,499.0,528.0,-118.0,21.0,-223.0,538.0
19:35:19.046000,-643.0,-288.0,928.0,466.0,495.0,-110.0,21.0,-223.0,538.0
19:35:19.051000,-643.0,-288.0,928.0,442.0,480.0,-106.0,21.0,-223.0,538.0
19:35:19.056000,-681.0,-255.0,893.0,424.0,484.0,-99.0,21.0,-222.0,561.0
19:35:19.061000,-681.0,-255.0,893.0,412.0,489.0,-92.0,21.0,-222.0,561.0
19:35:19.065000,-700.0,-237.0,861.0,407.0,494.0,-87.0,25.0,-229.0,556.0
19:35:19.070000,-726.0,-220.0,816.0,412.0,502.0,-81.0,25.0,-229.0,556.0
19:35:19.074000,-750.0,-206.0,758.0,434.0,497.0,-81.0,25.0,-229.0,556.0
19:35:19.079000,-761.0,-196.0,690.0,467.0,471.0,-92.0,36.0,-231.0,562.0
19:35:19.084000,-758.0,-189.0,623.0,491.0,468.0,-107.0,36.0,-231.0,562.0
19:35:19.088000,-748.0,-190.0,549.0,499.0,508.0,-115.0,33.0,-225.0,567.0
19:35:19.093000,-741.0,-196.0,473.0,504.0,545.0,-124.0,33.0,-225.0,567.0
19:35:19.098000,-725.0,-202.0,406.0,509.0,546.0,-143.0,33.0,-225.0,567.0
19:35:19.103000,-697.0,-211.0,350.0,510.0,536.0,-166.0,42.0,-232.0,562.0
19:35:19.108000,-658.0,-216.0,310.0,496.0,565.0,-183.0,42.0,-232.0,562.0
19:35:19.112000,-623.0,-221.0,269.0,496.0,565.0,-183.0,42.0,-226.0,571.0
19:35:19.117000,-604.0,-226.0,226.0,419.0,698.0,-186.0,42.0,-226.0,571.0
19:35:19.121000,-588.0,-226.0,198.0,419.0,698.0,-186.0,42.0,-226.0,571.0
19:35:19.126000,-580.0,-221.0,189.0,387.0,719.0,-185.0,42.0,-238.0,573.0
19:35:19.131000,-576.0,-212.0,188.0,364.0,716.0,-186.0,42.0,-238.0,573.0
19:35:19.135000,-567.0,-195.0,184.0,319.0,769.0,-202.0,51.0,-246.0,594.0
19:35:19.140000,-556.0,-171.0,177.0,319.0,769.0,-202.0,51.0,-246.0,594.0
19:35:19.145000,-549.0,-137.0,157.0,278.0,806.0,-212.0,51.0,-246.0,594.0
19:35:19.150000,-541.0,-98.0,123.0,225.0,853.0,-228.0,52.0,-246.0,585.0
19:35:19.155000,-525.0,-54.0,77.0,174.0,882.0,-249.0,52.0,-246.0,585.0
19:35:19.159000,-503.0,-13.0,28.0,143.0,877.0,-274.0,52.0,-253.0,586.0
19:35:19.164000,-474.0,26.0,-17.0,143.0,854.0,-296.0,52.0,-253.0,586.0
19:35:19.168000,-474.0,26.0,-17.0,181.0,833.0,-321.0,52.0,-253.0,586.0
19:35:19.173000,-439.0,61.0,-63.0,256.0,824.0,-351.0,49.0,-259.0,594.0
19:35:19.178000,-399.0,89.0,-108.0,338.0,837.0,-382.0,49.0,-259.0,594.0
19:35:19.183000,-359.0,111.0,-158.0,401.0,889.0,-411.0,52.0,-258.0,583.0
19:35:19.187000,-325.0,123.0,-227.0,446.0,975.0,-440.0,52.0,-258.0,583.0
19:35:19.192000,-293.0,126.0,-305.0,483.0,1053.0,-472.0,52.0,-258.0,583.0
19:35:19.197000,-263.0,121.0,-373.0,515.0,1096.0,-489.0,48.0,-268.0,594.0
19:35:19.202000,-239.0,107.0,-427.0,543.0,1115.0,-502.0,48.0,-268.0,594.0
19:35:19.206000,-217.0,91.0,-467.0,567.0,1125.0,-526.0,40.0,-274.0,585.0
19:35:19.211000,-197.0,81.0,-480.0,585.0,1140.0,-540.0,40.0,-274.0,585.0
19:35:19.215000,-181.0,71.0,-464.0,591.0,1162.0,-542.0,40.0,-274.0,585.0
19:35:19.220000,-165.0,65.0,-431.0,574.0,1178.0,-538.0,54.0,-273.0,595.0
19:35:19.225000,-156.0,60.0,-383.0,531.0,1190.0,-531.0,54.0,-273.0,595.0
19:35:19.230000,-148.0,63.0,-333.0,481.0,1204.0,-536.0,37.0,-279.0,585.0
19:35:19.234000,-140.0,73.0,-290.0,481.0,1204.0,-536.0,37.0,-279.0,585.0
19:35:19.239000,-129.0,88.0,-237.0,437.0,1222.0,-544.0,37.0,-279.0,585.0
19:35:19.244000,-123.0,109.0,-184.0,391.0,1244.0,-539.0,36.0,-280.0,585.0
19:35:19.249000,-115.0,130.0,-146.0,331.0,1272.0,-527.0,36.0,-280.0,585.0
19:35:19.253000,-99.0,153.0,-125.0,276.0,1271.0,-520.0,48.0,-277.0,588.0
19:35:19.258000,-79.0,172.0,-97.0,253.0,1209.0,-507.0,48.0,-277.0,588.0
19:35:19.262000,-79.0,172.0,-97.0,282.0,1127.0,-487.0,48.0,-277.0,588.0
19:35:19.267000,-42.0,207.0,-11.0,352.0,1050.0,-469.0,33.0,-274.0,586.0
19:35:19.272000,-18.0,214.0,21.0,432.0,961.0,-449.0,33.0,-274.0,586.0
19:35:19.277000,-18.0,214.0,21.0,506.0,879.0,-435.0,33.0,-288.0,583.0
19:35:19.281000,23.0,216.0,30.0,574.0,816.0,-425.0,33.0,-288.0,583.0
19:35:19.286000,53.0,218.0,46.0,640.0,762.0,-407.0,33.0,-288.0,583.0
19:35:19.291000,88.0,204.0,72.0,671.0,774.0,-396.0,34.0,-277.0,585.0
19:35:19.296000,121.0,184.0,84.0,670.0,833.0,-382.0,34.0,-277.0,585.0
19:35:19.300000,141.0,171.0,90.0,682.0,853.0,-359.0,36.0,-285.0,585.0
19:35:19.305000,144.0,155.0,87.0,702.0,842.0,-340.0,36.0,-285.0,585.0
19:35:19.309000,128.0,138.0,93.0,706.0,847.0,-323.0,36.0,-285.0,585.0
19:35:19.314000,104.0,123.0,97.0,700.0,849.0,-310.0,36.0,-273.0,585.0
19:35:19.328000,41.0,96.0,116.0,729.0,867.0,-293.0,39.0,-280.0,591.0
19:35:19.333000,25.0,93.0,91.0,729.0,867.0,-293.0,22.0,-274.0,597.0
19:35:19.338000,0.0,91.0,70.0,667.0,867.0,-290.0,22.0,-274.0,597.0
19:35:19.342000,-26.0,95.0,41.0,667.0,867.0,-290.0,22.0,-274.0,597.0
19:35:19.347000,-51.0,100.0,2.0,619.0,857.0,-297.0,28.0,-285.0,582.0
19:35:19.352000,-65.0,99.0,-12.0,601.0,846.0,-299.0,28.0,-285.0,582.0
19:35:19.357000,-65.0,94.0,-9.0,607.0,813.0,-302.0,33.0,-279.0,576.0
19:35:19.361000,-74.0,88.0,6.0,614.0,777.0,-300.0,33.0,-279.0,576.0
19:35:19.365000,-80.0,79.0,12.0,606.0,757.0,-298.0,33.0,-279.0,576.0
19:35:19.371000,-86.0,67.0,18.0,599.0,750.0,-301.0,28.0,-279.0,591.0
19:35:19.375000,-98.0,57.0,35.0,612.0,734.0,-304.0,28.0,-279.0,591.0
19:35:19.380000,-98.0,57.0,35.0,639.0,710.0,-309.0,33.0,-277.0,589.0
19:35:19.385000,-91.0,21.0,110.0,667.0,664.0,-319.0,33.0,-277.0,589.0
19:35:19.389000,-91.0,21.0,110.0,676.0,628.0,-331.0,33.0,-277.0,589.0
19:35:19.394000,-76.0,4.0,149.0,662.0,640.0,-342.0,40.0,-274.0,573.0
19:35:19.399000,-51.0,-11.0,163.0,631.0,685.0,-353.0,40.0,-274.0,573.0
19:35:19.404000,-22.0,-30.0,154.0,587.0,708.0,-365.0,36.0,-273.0,576.0
19:35:19.408000,3.0,-45.0,138.0,546.0,699.0,-378.0,36.0,-273.0,576.0
19:35:19.412000,38.0,-55.0,132.0,506.0,693.0,-389.0,36.0,-273.0,576.0
19:35:19.418000,72.0,-58.0,127.0,449.0,706.0,-397.0,28.0,-276.0,588.0
19:35:19.422000,103.0,-58.0,123.0,396.0,728.0,-404.0,28.0,-276.0,588.0
19:35:19.427000,125.0,-50.0,123.0,363.0,761.0,-401.0,36.0,-265.0,597.0
19:35:19.432000,127.0,-45.0,119.0,340.0,801.0,-399.0,36.0,-265.0,597.0
19:35:19.436000,133.0,-32.0,105.0,323.0,811.0,-398.0,36.0,-265.0,597.0
19:35:19.441000,130.0,-21.0,70.0,320.0,799.0,-400.0,33.0,-270.0,585.0
19:35:19.446000,123.0,-4.0,30.0,339.0,795.0,-406.0,33.0,-270.0,585.0
19:35:19.451000,117.0,7.0,-9.0,339.0,795.0,-406.0,27.0,-268.0,582.0
19:35:19.455000,102.0,17.0,-50.0,373.0,808.0,-403.0,27.0,-268.0,582.0
19:35:19.459000,91.0,21.0,-83.0,406.0,827.0,-400.0,27.0,-268.0,582.0
19:35:19.465000,79.0,22.0,-118.0,431.0,822.0,-402.0,42.0,-274.0,586.0
19:35:19.469000,70.0,23.0,-141.0,454.0,794.0,-410.0,42.0,-274.0,586.0
19:35:19.474000,67.0,24.0,-153.0,471.0,785.0,-423.0,42.0,-268.0,576.0
19:35:19.479000,65.0,25.0,-166.0,466.0,813.0,-434.0,42.0,-268.0,576.0
19:35:19.483000,65.0,25.0,-166.0,428.0,858.0,-442.0,42.0,-268.0,576.0
19:35:19.488000,45.0,30.0,-178.0,411.0,902.0,-461.0,36.0,-270.0,579.0
19:35:19.493000,18.0,26.0,-220.0,343.0,948.0,-447.0,36.0,-270.0,579.0
19:35:19.498000,18.0,26.0,-220.0,304.0,937.0,-457.0,33.0,-277.0,576.0
19:35:19.502000,6.0,36.0,-189.0,326.0,888.0,-482.0,33.0,-277.0,576.0
19:35:19.506000,-3.0,35.0,-156.0,301.0,873.0,-481.0,33.0,-277.0,576.0
19:35:19.512000,0.0,41.0,-144.0,297.0,887.0,-494.0,24.0,-271.0,576.0
19:35:19.516000,11.0,39.0,-146.0,308.0,921.0,-491.0,24.0,-271.0,576.0
19:35:19.521000,14.0,31.0,-151.0,335.0,942.0,-482.0,25.0,-273.0,583.0
19:35:19.525000,7.0,24.0,-156.0,346.0,951.0,-479.0,25.0,-273.0,583.0
19:35:19.530000,9.0,15.0,-179.0,364.0,928.0,-473.0,25.0,-273.0,583.0
19:35:19.535000,8.0,2.0,-177.0,404.0,886.0,-476.0,24.0,-264.0,592.0
19:35:19.540000,9.0,-11.0,-165.0,424.0,874.0,-491.0,24.0,-264.0,592.0
19:35:19.545000,23.0,-30.0,-164.0,467.0,843.0,-488.0,33.0,-276.0,580.0
19:35:19.549000,19.0,-56.0,-140.0,483.0,837.0,-468.0,33.0,-276.0,580.0
19:35:19.553000,21.0,-73.0,-162.0,441.0,889.0,-455.0,33.0,-276.0,580.0
19:35:19.559000,31.0,-79.0,-211.0,441.0,889.0,-455.0,36.0,-267.0,573.0
19:35:19.563000,33.0,-89.0,-205.0,441.0,892.0,-438.0,36.0,-267.0,573.0
19:35:19.568000,42.0,-100.0,-170.0,480.0,848.0,-421.0,27.0,-280.0,583.0
19:35:19.573000,49.0,-114.0,-123.0,496.0,773.0,-397.0,27.0,-280.0,583.0
19:35:19.577000,56.0,-128.0,-93.0,496.0,773.0,-397.0,27.0,-280.0,583.0
19:35:19.582000,44.0,-137.0,-58.0,447.0,774.0,-385.0,39.0,-273.0,583.0
19:35:19.587000,48.0,-147.0,-2.0,436.0,759.0,-379.0,39.0,-273.0,583.0
19:35:19.592000,50.0,-156.0,21.0,413.0,761.0,-375.0,31.0,-276.0,574.0
19:35:19.596000,43.0,-158.0,28.0,376.0,771.0,-368.0,31.0,-276.0,574.0
19:35:19.600000,43.0,-158.0,28.0,379.0,756.0,-363.0,31.0,-276.0,574.0
19:35:19.606000,37.0,-155.0,37.0,413.0,723.0,-355.0,33.0,-274.0,580.0
19:35:19.610000,33.0,-156.0,57.0,456.0,688.0,-347.0,33.0,-274.0,580.0
19:35:19.615000,32.0,-156.0,71.0,497.0,660.0,-338.0,30.0,-274.0,579.0
19:35:19.620000,28.0,-156.0,81.0,519.0,660.0,-327.0,30.0,-274.0,579.0
19:35:19.624000,28.0,-158.0,72.0,524.0,693.0,-316.0,30.0,-274.0,579.0
19:35:19.629000,16.0,-158.0,46.0,529.0,733.0,-312.0,37.0,-282.0,580.0
19:35:19.634000,-3.0,-152.0,11.0,524.0,749.0,-304.0,37.0,-282.0,580.0
19:35:19.639000,-22.0,-158.0,-32.0,522.0,736.0,-299.0,34.0,-273.0,582.0
19:35:19.643000,-32.0,-163.0,-71.0,524.0,705.0,-305.0,34.0,-273.0,582.0
19:35:19.647000,-42.0,-169.0,-103.0,530.0,672.0,-303.0,34.0,-273.0,582.0
19:35:19.653000,-39.0,-177.0,-135.0,555.0,640.0,-297.0,37.0,-276.0,589.0
19:35:19.657000,-34.0,-182.0,-163.0,586.0,617.0,-302.0,37.0,-276.0,589.0
19:35:19.662000,-9.0,-191.0,-196.0,586.0,617.0,-302.0,33.0,-279.0,585.0
19:35:19.667000,12.0,-205.0,-226.0,592.0,593.0,-308.0,33.0,-279.0,585.0
19:35:19.671000,39.0,-222.0,-246.0,592.0,593.0,-308.0,33.0,-279.0,585.0
19:35:19.676000,68.0,-240.0,-258.0,563.0,607.0,-310.0,21.0,-273.0,597.0
19:35:19.681000,96.0,-264.0,-288.0,523.0,645.0,-311.0,21.0,-273.0,597.0
19:35:19.686000,130.0,-277.0,-308.0,530.0,665.0,-316.0,48.0,-276.0,589.0
19:35:19.690000,125.0,-279.0,-331.0,577.0,658.0,-310.0,48.0,-276.0,589.0
19:35:19.694000,145.0,-313.0,-310.0,619.0,677.0,-289.0,48.0,-276.0,589.0
19:35:19.700000,98.0,-334.0,-255.0,673.0,686.0,-267.0,48.0,-279.0,592.0
19:35:19.704000,113.0,-358.0,-223.0,697.0,684.0,-269.0,48.0,-279.0,592.0
19:35:19.709000,121.0,-372.0,-228.0,666.0,699.0,-283.0,40.0,-271.0,588.0
19:35:19.714000,140.0,-372.0,-224.0,646.0,713.0,-291.0,40.0,-271.0,588.0
19:35:19.718000,140.0,-389.0,-224.0,634.0,734.0,-298.0,40.0,-271.0,588.0
19:35:19.723000,134.0,-402.0,-215.0,605.0,763.0,-298.0,58.0,-276.0,591.0
19:35:19.728000,143.0,-422.0,-217.0,578.0,779.0,-289.0,58.0,-276.0,591.0
19:35:19.733000,142.0,-452.0,-224.0,539.0,785.0,-314.0,54.0,-280.0,580.0
19:35:19.737000,156.0,-428.0,-214.0,541.0,773.0,-308.0,54.0,-280.0,580.0
19:35:19.741000,160.0,-471.0,-151.0,569.0,779.0,-310.0,54.0,-280.0,580.0
19:35:19.747000,158.0,-469.0,-89.0,561.0,818.0,-311.0,51.0,-271.0,588.0
19:35:19.751000,150.0,-509.0,-53.0,561.0,864.0,-306.0,51.0,-271.0,588.0
19:35:19.756000,141.0,-501.0,-30.0,587.0,895.0,-311.0,51.0,-282.0,592.0
19:35:19.761000,119.0,-533.0,2.0,612.0,912.0,-312.0,51.0,-282.0,592.0
19:35:19.765000,106.0,-537.0,34.0,607.0,934.0,-323.0,51.0,-282.0,592.0
19:35:19.770000,66.0,-560.0,61.0,587.0,967.0,-323.0,58.0,-273.0,595.0
19:35:19.775000,42.0,-565.0,73.0,571.0,995.0,-336.0,58.0,-273.0,595.0
19:35:19.780000,-7.0,-578.0,80.0,571.0,995.0,-336.0,72.0,-268.0,594.0
19:35:19.784000,-29.0,-580.0,95.0,559.0,1001.0,-340.0,72.0,-268.0,594.0
19:35:19.788000,-65.0,-573.0,105.0,539.0,993.0,-357.0,72.0,-268.0,594.0
19:35:19.794000,-79.0,-562.0,98.0,505.0,981.0,-366.0,76.0,-274.0,592.0
19:35:19.798000,-90.0,-536.0,67.0,473.0,981.0,-386.0,76.0,-274.0,592.0
19:35:19.803000,-90.0,-512.0,32.0,460.0,973.0,-399.0,78.0,-277.0,601.0
19:35:19.808000,-105.0,-478.0,4.0,459.0,951.0,-410.0,78.0,-277.0,601.0
19:35:19.812000,-105.0,-478.0,4.0,449.0,935.0,-428.0,78.0,-277.0,601.0
19:35:19.817000,-57.0,-416.0,-52.0,427.0,936.0,-440.0,70.0,-268.0,609.0
19:35:19.822000,-43.0,-387.0,-89.0,412.0,959.0,-448.0,70.0,-268.0,609.0
19:35:19.827000,-43.0,-387.0,-89.0,412.0,999.0,-457.0,84.0,-271.0,607.0
19:35:19.831000,-17.0,-355.0,-132.0,403.0,1026.0,-462.0,84.0,-271.0,607.0
19:35:19.835000,-7.0,-321.0,-173.0,387.0,1043.0,-465.0,84.0,-271.0,607.0
19:35:19.841000,16.0,-289.0,-199.0,390.0,1050.0,-464.0,85.0,-268.0,609.0
19:35:19.845000,30.0,-265.0,-212.0,401.0,1065.0,-472.0,85.0,-268.0,609.0
19:35:19.850000,54.0,-237.0,-220.0,391.0,1088.0,-475.0,93.0,-274.0,613.0
19:35:19.855000,67.0,-210.0,-228.0,393.0,1090.0,-469.0,93.0,-274.0,613.0
19:35:19.859000,77.0,-191.0,-212.0,418.0,1074.0,-472.0,93.0,-274.0,613.0
19:35:19.864000,88.0,-169.0,-179.0,436.0,1049.0,-476.0,90.0,-270.0,606.0
19:35:19.869000,102.0,-150.0,-134.0,446.0,1027.0,-478.0,90.0,-270.0,606.0
19:35:19.874000,128.0,-132.0,-87.0,446.0,1021.0,-478.0,87.0,-270.0,598.0
19:35:19.878000,147.0,-116.0,-44.0,447.0,1036.0,-475.0,87.0,-270.0,598.0
19:35:19.882000,164.0,-102.0,-14.0,435.0,1058.0,-474.0,87.0,-270.0,598.0
19:35:19.888000,172.0,-86.0,3.0,435.0,1058.0,-474.0,94.0,-271.0,604.0
19:35:19.892000,181.0,-67.0,38.0,438.0,1046.0,-473.0,94.0,-271.0,604.0
19:35:19.897000,186.0,-49.0,77.0,448.0,959.0,-457.0,94.0,-267.0,603.0
19:35:19.902000,189.0,-32.0,123.0,448.0,959.0,-457.0,94.0,-267.0,603.0
19:35:19.907000,188.0,-16.0,185.0,465.0,912.0,-446.0,85.0,-267.0,615.0
19:35:19.911000,181.0,-4.0,256.0,483.0,873.0,-432.0,85.0,-267.0,615.0
19:35:19.915000,174.0,9.0,313.0,494.0,845.0,-418.0,85.0,-267.0,615.0
19:35:19.921000,160.0,24.0,342.0,502.0,824.0,-400.0,94.0,-267.0,603.0
19:35:19.925000,143.0,41.0,357.0,524.0,798.0,-382.0,94.0,-267.0,603.0
19:35:19.930000,119.0,57.0,371.0,564.0,769.0,-364.0,99.0,-273.0,607.0
19:35:19.935000,119.0,57.0,371.0,610.0,729.0,-344.0,99.0,-273.0,607.0
19:35:19.939000,94.0,72.0,392.0,653.0,682.0,-331.0,99.0,-273.0,607.0
19:35:19.944000,80.0,88.0,410.0,680.0,644.0,-322.0,91.0,-255.0,601.0
19:35:19.949000,65.0,103.0,424.0,715.0,598.0,-278.0,91.0,-255.0,601.0
19:35:19.954000,-18.0,96.0,476.0,823.0,534.0,-310.0,91.0,-261.0,598.0
19:35:19.958000,9.0,139.0,526.0,810.0,541.0,-327.0,91.0,-261.0,598.0
19:35:19.962000,91.0,101.0,480.0,670.0,608.0,-262.0,91.0,-261.0,598.0
19:35:19.968000,24.0,126.0,382.0,615.0,664.0,-302.0,91.0,-267.0,601.0
19:35:19.972000,41.0,136.0,312.0,568.0,671.0,-321.0,91.0,-267.0,601.0
19:35:19.977000,56.0,130.0,248.0,500.0,645.0,-315.0,100.0,-255.0,600.0
19:35:19.982000,35.0,158.0,159.0,441.0,642.0,-343.0,100.0,-255.0,600.0
19:35:19.986000,74.0,156.0,72.0,380.0,633.0,-365.0,100.0,-255.0,600.0
19:35:19.991000,94.0,183.0,0.0,328.0,615.0,-374.0,96.0,-250.0,595.0
19:35:20.005000,137.0,242.0,-74.0,275.0,653.0,-389.0,87.0,-249.0,613.0
19:35:20.010000,130.0,263.0,-133.0,283.0,675.0,-386.0,87.0,-249.0,613.0
19:35:20.015000,133.0,284.0,-197.0,318.0,697.0,-395.0,87.0,-249.0,613.0
19:35:20.019000,113.0,311.0,-242.0,357.0,708.0,-400.0,87.0,-249.0,613.0
19:35:20.024000,97.0,339.0,-282.0,395.0,717.0,-408.0,88.0,-247.0,597.0
19:35:20.029000,72.0,360.0,-333.0,432.0,732.0,-414.0,88.0,-247.0,597.0
19:35:20.033000,38.0,377.0,-398.0,478.0,748.0,-413.0,84.0,-253.0,588.0
19:35:20.038000,2.0,380.0,-448.0,538.0,775.0,-413.0,84.0,-253.0,588.0
19:35:20.042000,2.0,380.0,-448.0,587.0,797.0,-430.0,84.0,-253.0,588.0
19:35:20.048000,-30.0,391.0,-464.0,592.0,801.0,-455.0,93.0,-246.0,588.0
19:35:20.052000,-32.0,392.0,-446.0,530.0,801.0,-470.0,93.0,-246.0,588.0
19:35:20.057000,-9.0,388.0,-447.0,412.0,802.0,-479.0,85.0,-255.0,597.0
19:35:20.062000,0.0,383.0,-469.0,307.0,762.0,-480.0,85.0,-255.0,597.0
19:35:20.066000,13.0,379.0,-448.0,234.0,659.0,-484.0,85.0,-255.0,597.0
19:35:20.071000,48.0,377.0,-369.0,182.0,557.0,-488.0,82.0,-256.0,594.0
19:35:20.076000,109.0,380.0,-256.0,165.0,510.0,-481.0,82.0,-256.0,594.0
19:35:20.080000,186.0,380.0,-154.0,192.0,508.0,-459.0,67.0,-256.0,592.0
19:35:20.085000,271.0,369.0,-82.0,259.0,509.0,-428.0,67.0,-256.0,592.0
19:35:20.089000,348.0,352.0,-18.0,327.0,506.0,-398.0,67.0,-256.0,592.0
19:35:20.095000,428.0,332.0,62.0,357.0,522.0,-370.0,64.0,-258.0,586.0
19:35:20.099000,508.0,305.0,150.0,342.0,549.0,-340.0,64.0,-258.0,586.0
19:35:20.104000,576.0,271.0,224.0,342.0,549.0,-340.0,52.0,-252.0,600.0
19:35:20.109000,640.0,235.0,273.0,310.0,577.0,-315.0,52.0,-252.0,600.0
19:35:20.113000,696.0,203.0,305.0,288.0,603.0,-299.0,52.0,-252.0,600.0
19:35:20.118000,732.0,171.0,317.0,274.0,644.0,-287.0,63.0,-256.0,582.0
19:35:20.123000,745.0,142.0,303.0,259.0,740.0,-277.0,63.0,-256.0,582.0
19:35:20.127000,730.0,121.0,260.0,246.0,872.0,-267.0,58.0,-241.0,583.0
19:35:20.132000,673.0,101.0,215.0,245.0,991.0,-249.0,58.0,-241.0,583.0
19:35:20.136000,590.0,81.0,171.0,251.0,1083.0,-231.0,58.0,-241.0,583.0
19:35:20.142000,503.0,52.0,102.0,253.0,1145.0,-221.0,61.0,-238.0,567.0
19:35:20.146000,422.0,21.0,31.0,271.0,1169.0,-215.0,61.0,-238.0,567.0
19:35:20.151000,340.0,-11.0,-4.0,317.0,1140.0,-213.0,61.0,-231.0,570.0
19:35:20.156000,340.0,-11.0,-4.0,363.0,1087.0,-211.0,61.0,-231.0,570.0
19:35:20.160000,261.0,-48.0,-39.0,392.0,1030.0,-223.0,61.0,-231.0,570.0
19:35:20.165000,204.0,-74.0,-107.0,421.0,1011.0,-240.0,61.0,-225.0,573.0
19:35:20.170000,159.0,-91.0,-201.0,451.0,1060.0,-239.0,61.0,-225.0,573.0
19:35:20.174000,116.0,-102.0,-277.0,458.0,1107.0,-228.0,54.0,-219.0,574.0
19:35:20.179000,70.0,-112.0,-329.0,438.0,1107.0,-218.0,54.0,-219.0,574.0
19:35:20.183000,25.0,-112.0,-371.0,417.0,1048.0,-211.0,54.0,-219.0,574.0
19:35:20.189000,-7.0,-110.0,-396.0,422.0,950.0,-212.0,67.0,-225.0,570.0
19:35:20.193000,-2.0,-103.0,-398.0,440.0,834.0,-220.0,67.0,-225.0,570.0
19:35:20.198000,33.0,-83.0,-382.0,448.0,726.0,-224.0,54.0,-231.0,574.0
19:35:20.203000,75.0,-63.0,-342.0,434.0,677.0,-214.0,54.0,-231.0,574.0
19:35:20.207000,128.0,-50.0,-273.0,406.0,649.0,-218.0,54.0,-231.0,574.0
19:35:20.212000,216.0,-25.0,-208.0,417.0,631.0,-229.0,67.0,-216.0,561.0
19:35:20.217000,294.0,2.0,-182.0,417.0,631.0,-229.0,67.0,-216.0,561.0
19:35:20.221000,345.0,17.0,-193.0,444.0,654.0,-217.0,54.0,-231.0,562.0
19:35:20.226000,384.0,28.0,-169.0,483.0,748.0,-212.0,54.0,-231.0,562.0
19:35:20.230000,354.0,9.0,-144.0,514.0,958.0,-184.0,54.0,-231.0,562.0
19:35:20.236000,378.0,-11.0,-177.0,483.0,1057.0,-156.0,45.0,-231.0,570.0
19:35:20.240000,384.0,0.0,-174.0,481.0,899.0,-162.0,45.0,-231.0,570.0
19:35:20.245000,385.0,4.0,-125.0,516.0,777.0,-159.0,45.0,-228.0,579.0
19:35:20.250000,371.0,10.0,-92.0,522.0,842.0,-154.0,45.0,-228.0,579.0
19:35:20.254000,371.0,10.0,-92.0,511.0,964.0,-140.0,45.0,-228.0,579.0
19:35:20.259000,249.0,18.0,-116.0,498.0,1060.0,-128.0,52.0,-223.0,561.0
19:35:20.264000,249.0,18.0,-116.0,508.0,1062.0,-128.0,52.0,-223.0,561.0
19:35:20.268000,190.0,25.0,-119.0,537.0,988.0,-131.0,54.0,-216.0,568.0
19:35:20.273000,144.0,35.0,-106.0,555.0,949.0,-137.0,54.0,-216.0,568.0
19:35:20.277000,119.0,46.0,-98.0,553.0,971.0,-139.0,54.0,-216.0,568.0
19:35:20.283000,97.0,55.0,-120.0,532.0,987.0,-141.0,54.0,-220.0,562.0
19:35:20.287000,79.0,60.0,-167.0,521.0,947.0,-147.0,54.0,-220.0,562.0
19:35:20.292000,58.0,67.0,-179.0,527.0,890.0,-154.0,55.0,-217.0,561.0
19:35:20.297000,43.0,72.0,-163.0,526.0,854.0,-156.0,55.0,-217.0,561.0
19:35:20.301000,28.0,76.0,-148.0,518.0,836.0,-157.0,55.0,-217.0,561.0
19:35:20.306000,25.0,79.0,-133.0,518.0,824.0,-156.0,54.0,-222.0,565.0
19:35:20.311000,24.0,78.0,-121.0,531.0,797.0,-156.0,54.0,-222.0,565.0
19:35:20.315000,47.0,79.0,-104.0,531.0,797.0,-156.0,51.0,-228.0,553.0
19:35:20.320000,81.0,88.0,-100.0,544.0,768.0,-163.0,51.0,-228.0,553.0
19:35:20.324000,104.0,92.0,-114.0,544.0,768.0,-163.0,51.0,-228.0,553.0
19:35:20.330000,130.0,93.0,-138.0,553.0,816.0,-161.0,51.0,-219.0,565.0
19:35:20.334000,144.0,93.0,-148.0,555.0,882.0,-141.0,51.0,-219.0,565.0
19:35:20.339000,151.0,88.0,-165.0,555.0,882.0,-141.0,51.0,-228.0,559.0
19:35:20.344000,149.0,84.0,-176.0,547.0,877.0,-129.0,51.0,-228.0,559.0
19:35:20.348000,166.0,91.0,-177.0,552.0,856.0,-132.0,51.0,-228.0,559.0
19:35:20.353000,160.0,95.0,-212.0,561.0,947.0,-122.0,45.0,-220.0,558.0
19:35:20.358000,155.0,95.0,-217.0,573.0,998.0,-104.0,45.0,-220.0,558.0
19:35:20.362000,133.0,98.0,-176.0,561.0,940.0,-91.0,45.0,-219.0,565.0
19:35:20.367000,115.0,102.0,-109.0,485.0,930.0,-82.0,45.0,-219.0,565.0
19:35:20.371000,115.0,102.0,-109.0,399.0,974.0,-76.0,45.0,-219.0,565.0
19:35:20.377000,91.0,104.0,-48.0,389.0,983.0,-68.0,48.0,-222.0,555.0
19:35:20.381000,63.0,112.0,-38.0,442.0,961.0,-67.0,48.0,-222.0,555.0
19:35:20.386000,51.0,121.0,-40.0,512.0,917.0,-65.0,28.0,-220.0,573.0
19:35:20.391000,46.0,130.0,-4.0,541.0,875.0,-56.0,28.0,-220.0,573.0
19:35:20.395000,33.0,140.0,54.0,512.0,871.0,-45.0,28.0,-220.0,573.0
19:35:20.400000,14.0,148.0,86.0,482.0,891.0,-33.0,48.0,-219.0,543.0
19:35:20.405000,-3.0,155.0,76.0,496.0,875.0,-31.0,48.0,-219.0,543.0
19:35:20.409000,-2.0,160.0,69.0,536.0,799.0,-35.0,37.0,-213.0,549.0
19:35:20.414000,-4.0,168.0,80.0,563.0,754.0,-34.0,37.0,-213.0,549.0
19:35:20.418000,0.0,175.0,86.0,562.0,742.0,-43.0,37.0,-213.0,549.0
19:35:20.424000,12.0,184.0,67.0,544.0,733.0,-60.0,49.0,-222.0,549.0
19:35:20.428000,24.0,197.0,25.0,530.0,773.0,-73.0,49.0,-222.0,549.0
19:35:20.433000,22.0,204.0,-30.0,531.0,845.0,-80.0,42.0,-213.0,574.0
19:35:20.438000,15.0,208.0,-91.0,531.0,845.0,-80.0,42.0,-213.0,574.0
19:35:20.442000,10.0,213.0,-143.0,536.0,879.0,-93.0,42.0,-213.0,574.0
19:35:20.447000,9.0,212.0,-191.0,529.0,869.0,-111.0,30.0,-211.0,544.0
19:35:20.452000,11.0,214.0,-226.0,523.0,866.0,-125.0,30.0,-211.0,544.0
19:35:20.456000,11.0,216.0,-261.0,519.0,885.0,-136.0,25.0,-217.0,550.0
19:35:20.461000,11.0,214.0,-302.0,514.0,911.0,-147.0,25.0,-217.0,550.0
19:35:20.465000,4.0,205.0,-320.0,522.0,918.0,-148.0,25.0,-217.0,550.0
19:35:20.471000,-3.0,189.0,-287.0,538.0,888.0,-142.0,45.0,-217.0,547.0
19:35:20.475000,-8.0,173.0,-249.0,563.0,842.0,-137.0,45.0,-217.0,547.0
19:35:20.479000,-8.0,173.0,-249.0,607.0,803.0,-141.0,19.0,-220.0,547.0
19:35:20.485000,1.0,163.0,-216.0,639.0,773.0,-151.0,19.0,-220.0,547.0
19:35:20.489000,16.0,157.0,-178.0,639.0,784.0,-160.0,19.0,-220.0,547.0
19:35:20.494000,26.0,154.0,-159.0,624.0,845.0,-164.0,19.0,-225.0,544.0
19:35:20.499000,18.0,153.0,-153.0,607.0,898.0,-167.0,19.0,-225.0,544.0
19:35:20.503000,-5.0,156.0,-145.0,592.0,900.0,-171.0,22.0,-226.0,547.0
19:35:20.508000,-33.0,162.0,-129.0,586.0,869.0,-177.0,22.0,-226.0,547.0
19:35:20.512000,-56.0,172.0,-107.0,591.0,846.0,-185.0,22.0,-226.0,547.0
19:35:20.518000,-72.0,188.0,-92.0,604.0,850.0,-194.0,19.0,-235.0,534.0
19:35:20.522000,-79.0,212.0,-93.0,600.0,886.0,-199.0,19.0,-235.0,534.0
19:35:20.526000,-81.0,229.0,-128.0,584.0,938.0,-195.0,25.0,-220.0,537.0
19:35:20.532000,-85.0,240.0,-157.0,586.0,975.0,-188.0,25.0,-220.0,537.0
19:35:20.536000,-98.0,253.0,-170.0,578.0,987.0,-178.0,25.0,-220.0,537.0
19:35:20.541000,-113.0,266.0,-203.0,576.0,970.0,-171.0,31.0,-229.0,546.0
19:35:20.546000,-123.0,277.0,-238.0,576.0,970.0,-171.0,31.0,-229.0,546.0
19:35:20.550000,-123.0,284.0,-247.0,613.0,929.0,-170.0,18.0,-225.0,546.0
19:35:20.554000,-125.0,287.0,-235.0,654.0,893.0,-169.0,18.0,-225.0,546.0
19:35:20.559000,-130.0,287.0,-214.0,675.0,878.0,-166.0,18.0,-225.0,546.0
19:35:20.565000,-133.0,285.0,-202.0,683.0,877.0,-162.0,16.0,-241.0,541.0
19:35:20.569000,-128.0,283.0,-198.0,698.0,864.0,-162.0,16.0,-241.0,541.0
19:35:20.573000,-119.0,281.0,-182.0,732.0,830.0,-162.0,-3.0,-243.0,561.0
19:35:20.579000,-102.0,277.0,-152.0,769.0,793.0,-162.0,-3.0,-243.0,561.0
19:35:20.583000,-102.0,277.0,-152.0,787.0,775.0,-164.0,-3.0,-243.0,561.0
19:35:20.588000,-65.0,259.0,-121.0,790.0,782.0,-162.0,4.0,-237.0,535.0
19:35:20.593000,-65.0,259.0,-121.0,786.0,805.0,-157.0,4.0,-237.0,535.0
19:35:20.597000,-49.0,242.0,-127.0,789.0,834.0,-150.0,1.0,-234.0,529.0
19:35:20.602000,-35.0,222.0,-139.0,807.0,858.0,-138.0,1.0,-234.0,529.0
19:35:20.606000,-26.0,200.0,-149.0,823.0,867.0,-129.0,1.0,-234.0,529.0
19:35:20.611000,-13.0,177.0,-168.0,826.0,866.0,-123.0,6.0,-232.0,537.0
19:35:20.616000,4.0,155.0,-196.0,824.0,867.0,-118.0,6.0,-232.0,537.0
19:35:20.621000,26.0,131.0,-226.0,821.0,874.0,-112.0,0.0,-237.0,537.0
19:35:20.626000,44.0,107.0,-242.0,805.0,892.0,-105.0,0.0,-237.0,537.0
19:35:20.630000,61.0,86.0,-254.0,768.0,913.0,-100.0,0.0,-237.0,537.0
19:35:20.635000,74.0,71.0,-266.0,728.0,921.0,-97.0,1.0,-232.0,535.0
19:35:20.640000,82.0,61.0,-263.0,691.0,915.0,-96.0,1.0,-232.0,535.0
19:35:20.644000,87.0,57.0,-246.0,691.0,915.0,-96.0,-1.0,-247.0,540.0
19:35:20.649000,85.0,56.0,-221.0,629.0,898.0,-91.0,-1.0,-247.0,540.0
19:35:20.653000,86.0,61.0,-193.0,629.0,898.0,-91.0,-1.0,-247.0,540.0
19:35:20.658000,86.0,74.0,-164.0,605.0,879.0,-95.0,-1.0,-244.0,528.0
19:35:20.663000,89.0,91.0,-135.0,582.0,862.0,-97.0,-1.0,-244.0,528.0
19:35:20.677000,119.0,146.0,-93.0,547.0,796.0,-98.0,-21.0,-240.0,553.0
19:35:20.682000,130.0,163.0,-83.0,565.0,781.0,-95.0,-21.0,-240.0,553.0
19:35:20.687000,143.0,179.0,-70.0,581.0,742.0,-95.0,-21.0,-240.0,553.0
19:35:20.691000,156.0,198.0,-65.0,589.0,704.0,-95.0,-12.0,-247.0,529.0
19:35:20.696000,168.0,210.0,-70.0,601.0,703.0,-93.0,-12.0,-247.0,529.0
19:35:20.700000,168.0,210.0,-70.0,622.0,709.0,-93.0,-12.0,-247.0,529.0
19:35:20.705000,180.0,217.0,-77.0,640.0,699.0,-94.0,-6.0,-244.0,528.0
19:35:20.710000,188.0,219.0,-71.0,642.0,693.0,-93.0,-6.0,-244.0,528.0
19:35:20.715000,197.0,220.0,-53.0,630.0,694.0,-91.0,-15.0,-244.0,526.0
19:35:20.720000,205.0,215.0,-36.0,619.0,698.0,-92.0,-15.0,-244.0,526.0
19:35:20.724000,217.0,210.0,-35.0,620.0,705.0,-96.0,-27.0,-231.0,549.0
19:35:20.729000,236.0,203.0,-37.0,629.0,702.0,-96.0,-27.0,-231.0,549.0
19:35:20.733000,255.0,193.0,-28.0,636.0,693.0,-97.0,-27.0,-231.0,549.0
19:35:20.738000,269.0,184.0,-9.0,635.0,691.0,-99.0,-7.0,-235.0,528.0
19:35:20.743000,273.0,179.0,19.0,622.0,701.0,-101.0,-7.0,-235.0,528.0
19:35:20.748000,275.0,177.0,50.0,622.0,715.0,-108.0,-22.0,-232.0,520.0
19:35:20.752000,275.0,176.0,59.0,575.0,720.0,-117.0,-22.0,-232.0,520.0
19:35:20.757000,285.0,177.0,63.0,569.0,705.0,-129.0,-22.0,-232.0,520.0
19:35:20.762000,297.0,182.0,76.0,569.0,705.0,-129.0,-18.0,-238.0,517.0
19:35:20.767000,305.0,186.0,94.0,573.0,694.0,-136.0,-18.0,-238.0,517.0
19:35:20.771000,306.0,186.0,102.0,555.0,738.0,-141.0,-9.0,-234.0,516.0
19:35:20.776000,299.0,183.0,78.0,555.0,738.0,-141.0,-9.0,-234.0,516.0
19:35:20.780000,281.0,177.0,58.0,576.0,748.0,-147.0,-9.0,-234.0,516.0
19:35:20.785000,261.0,165.0,66.0,626.0,771.0,-156.0,-21.0,-229.0,516.0
19:35:20.790000,233.0,143.0,54.0,652.0,846.0,-157.0,-21.0,-229.0,516.0
19:35:20.795000,181.0,112.0,23.0,638.0,927.0,-145.0,-24.0,-223.0,514.0
19:35:20.799000,124.0,84.0,-18.0,615.0,987.0,-134.0,-24.0,-223.0,514.0
19:35:20.804000,124.0,84.0,-18.0,610.0,990.0,-135.0,-24.0,-223.0,514.0
19:35:20.809000,78.0,58.0,-37.0,627.0,934.0,-142.0,-18.0,-223.0,517.0
19:35:20.814000,47.0,35.0,-25.0,635.0,900.0,-148.0,-18.0,-223.0,517.0
19:35:20.818000,21.0,18.0,-13.0,611.0,902.0,-156.0,-18.0,-226.0,508.0
19:35:20.823000,5.0,5.0,-4.0,574.0,900.0,-166.0,-18.0,-226.0,508.0
19:35:20.827000,-11.0,-1.0,0.0,550.0,898.0,-178.0,-18.0,-226.0,508.0
19:35:20.832000,-33.0,-4.0,14.0,545.0,908.0,-191.0,-22.0,-222.0,517.0
19:35:20.837000,-44.0,-2.0,51.0,538.0,917.0,-196.0,-22.0,-222.0,517.0
19:35:20.842000,-71.0,0.0,88.0,520.0,922.0,-198.0,-16.0,-225.0,508.0
19:35:20.846000,-107.0,5.0,126.0,505.0,930.0,-208.0,-16.0,-225.0,508.0
19:35:20.851000,-143.0,5.0,169.0,499.0,938.0,-219.0,-16.0,-225.0,508.0
19:35:20.856000,-179.0,2.0,210.0,502.0,943.0,-220.0,-21.0,-222.0,514.0
19:35:20.861000,-214.0,-2.0,269.0,499.0,924.0,-198.0,-21.0,-222.0,514.0
19:35:20.865000,-249.0,-9.0,345.0,495.0,931.0,-189.0,-19.0,-228.0,529.0
19:35:20.870000,-283.0,-20.0,422.0,489.0,958.0,-189.0,-19.0,-228.0,529.0
19:35:20.874000,-334.0,-39.0,491.0,489.0,958.0,-189.0,-19.0,-228.0,529.0
19:35:20.879000,-381.0,-56.0,564.0,480.0,937.0,-183.0,-19.0,-223.0,519.0
19:35:20.884000,-424.0,-74.0,647.0,491.0,895.0,-175.0,-19.0,-223.0,519.0
19:35:20.889000,-458.0,-98.0,730.0,521.0,882.0,-154.0,-9.0,-211.0,522.0
19:35:20.893000,-501.0,-115.0,821.0,553.0,826.0,-130.0,-9.0,-211.0,522.0
19:35:20.898000,-529.0,-132.0,899.0,563.0,746.0,-104.0,-9.0,-211.0,522.0
19:35:20.903000,-556.0,-142.0,938.0,539.0,737.0,-79.0,-12.0,-220.0,523.0
19:35:20.908000,-580.0,-150.0,942.0,506.0,721.0,-62.0,-12.0,-220.0,523.0
19:35:20.912000,-580.0,-150.0,942.0,495.0,679.0,-43.0,-10.0,-225.0,525.0
19:35:20.917000,-613.0,-160.0,956.0,508.0,610.0,-20.0,-10.0,-225.0,525.0
19:35:20.921000,-613.0,-160.0,956.0,528.0,537.0,-9.0,-10.0,-225.0,525.0
19:35:20.926000,-621.0,-154.0,958.0,532.0,499.0,-6.0,-13.0,-208.0,526.0
19:35:20.931000,-623.0,-143.0,944.0,512.0,478.0,-5.0,-13.0,-208.0,526.0
19:35:20.936000,-624.0,-130.0,917.0,486.0,467.0,-13.0,-1.0,-225.0,535.0
19:35:20.940000,-619.0,-112.0,859.0,465.0,484.0,-20.0,-1.0,-225.0,535.0
19:35:20.945000,-616.0,-96.0,767.0,448.0,518.0,-22.0,-1.0,-225.0,535.0
19:35:20.950000,-618.0,-84.0,652.0,451.0,522.0,-27.0,10.0,-217.0,531.0
19:35:20.955000,-618.0,-74.0,539.0,490.0,479.0,-46.0,10.0,-217.0,531.0
19:35:20.959000,-609.0,-63.0,452.0,545.0,423.0,-78.0,9.0,-220.0,534.0
19:35:20.963000,-586.0,-56.0,389.0,565.0,406.0,-106.0,9.0,-220.0,534.0
19:35:20.968000,-557.0,-52.0,334.0,540.0,451.0,-127.0,9.0,-220.0,534.0
19:35:20.973000,-531.0,-51.0,253.0,513.0,516.0,-143.0,6.0,-223.0,538.0
19:35:20.978000,-497.0,-57.0,168.0,517.0,531.0,-154.0,6.0,-223.0,538.0
19:35:20.983000,-464.0,-62.0,104.0,517.0,531.0,-154.0,13.0,-220.0,535.0
19:35:20.987000,-428.0,-72.0,67.0,543.0,503.0,-162.0,13.0,-220.0,535.0
19:35:20.992000,-371.0,-88.0,45.0,571.0,473.0,-170.0,13.0,-220.0,535.0
19:35:20.997000,-310.0,-105.0,6.0,592.0,482.0,-175.0,15.0,-223.0,543.0
19:35:21.002000,-275.0,-119.0,-37.0,602.0,518.0,-169.0,15.0,-223.0,543.0
19:35:21.006000,-235.0,-131.0,-71.0,604.0,593.0,-163.0,9.0,-223.0,559.0
19:35:21.011000,-219.0,-142.0,-103.0,604.0,661.0,-152.0,9.0,-223.0,559.0
19:35:21.015000,-219.0,-142.0,-103.0,599.0,695.0,-138.0,9.0,-223.0,559.0
19:35:21.020000,-189.0,-153.0,-164.0,579.0,761.0,-134.0,15.0,-232.0,540.0
19:35:21.025000,-180.0,-149.0,-190.0,512.0,820.0,-139.0,15.0,-232.0,540.0
19:35:21.030000,-180.0,-149.0,-190.0,512.0,820.0,-139.0,18.0,-225.0,543.0
19:35:21.034000,-165.0,-139.0,-217.0,471.0,852.0,-145.0,18.0,-225.0,543.0
19:35:21.039000,-149.0,-125.0,-249.0,429.0,884.0,-147.0,18.0,-225.0,543.0
19:35:21.044000,-135.0,-107.0,-286.0,396.0,922.0,-140.0,18.0,-238.0,553.0
19:35:21.049000,-133.0,-87.0,-335.0,384.0,963.0,-122.0,18.0,-238.0,553.0
19:35:21.053000,-144.0,-67.0,-381.0,409.0,980.0,-118.0,16.0,-234.0,549.0
19:35:21.058000,-155.0,-49.0,-391.0,448.0,991.0,-120.0,16.0,-234.0,549.0
19:35:21.062000,-159.0,-39.0,-383.0,483.0,990.0,-128.0,16.0,-234.0,549.0
19:35:21.067000,-160.0,-31.0,-375.0,514.0,975.0,-145.0,10.0,-235.0,547.0
19:35:21.072000,-145.0,-25.0,-381.0,549.0,977.0,-154.0,10.0,-235.0,547.0
19:35:21.077000,-135.0,-19.0,-408.0,601.0,1002.0,-168.0,15.0,-238.0,543.0
19:35:21.081000,-132.0,-21.0,-439.0,652.0,1035.0,-189.0,15.0,-238.0,543.0
19:35:21.086000,-122.0,-23.0,-474.0,679.0,1042.0,-212.0,15.0,-238.0,543.0
19:35:21.091000,-107.0,-21.0,-508.0,679.0,1042.0,-212.0,6.0,-246.0,543.0
19:35:21.095000,-91.0,-23.0,-516.0,683.0,1078.0,-257.0,6.0,-246.0,543.0
19:35:21.100000,-86.0,-23.0,-506.0,683.0,1078.0,-257.0,-4.0,-252.0,562.0
19:35:21.105000,-89.0,-20.0,-504.0,646.0,1121.0,-258.0,-4.0,-252.0,562.0
19:35:21.110000,-99.0,-23.0,-515.0,613.0,1171.0,-261.0,13.0,-262.0,549.0
19:35:21.114000,-112.0,-16.0,-522.0,611.0,1210.0,-272.0,13.0,-262.0,549.0
19:35:21.118000,-123.0,-9.0,-520.0,604.0,1218.0,-286.0,13.0,-262.0,549.0
19:35:21.124000,-129.0,-12.0,-497.0,573.0,1213.0,-286.0,-3.0,-256.0,550.0
19:35:21.128000,-147.0,7.0,-448.0,554.0,1185.0,-293.0,-3.0,-256.0,550.0
19:35:21.133000,-158.0,19.0,-418.0,519.0,1180.0,-295.0,12.0,-256.0,555.0
19:35:21.138000,-158.0,19.0,-418.0,498.0,1203.0,-305.0,12.0,-256.0,555.0
19:35:21.142000,-166.0,40.0,-396.0,558.0,1138.0,-290.0,12.0,-256.0,555.0
19:35:21.147000,-203.0,53.0,-354.0,649.0,1058.0,-278.0,-1.0,-267.0,552.0
19:35:21.152000,-198.0,63.0,-309.0,683.0,1012.0,-298.0,-1.0,-267.0,552.0
19:35:21.157000,-205.0,75.0,-294.0,687.0,952.0,-304.0,4.0,-261.0,555.0
19:35:21.161000,-207.0,94.0,-282.0,719.0,910.0,-312.0,4.0,-261.0,555.0
19:35:21.165000,-195.0,108.0,-231.0,746.0,899.0,-315.0,4.0,-261.0,555.0
19:35:21.171000,-178.0,116.0,-162.0,726.0,909.0,-314.0,0.0,-277.0,555.0
19:35:21.175000,-159.0,130.0,-140.0,684.0,916.0,-311.0,0.0,-277.0,555.0
19:35:21.180000,-154.0,137.0,-148.0,674.0,893.0,-309.0,1.0,-276.0,561.0
19:35:21.185000,-153.0,145.0,-153.0,695.0,859.0,-307.0,1.0,-276.0,561.0
19:35:21.192000,-150.0,149.0,-122.0,761.0,749.0,-294.0,-7.0,-273.0,562.0
19:35:21.194000,-150.0,149.0,-122.0,761.0,749.0,-294.0,-7.0,-273.0,562.0
19:35:21.198000,-147.0,142.0,-81.0,761.0,683.0,-286.0,-7.0,-273.0,562.0
19:35:21.204000,-139.0,130.0,-25.0,800.0,683.0,-286.0,-9.0,-276.0,552.0
19:35:21.208000,-113.0,108.0,18.0,827.0,654.0,-280.0,-9.0,-276.0,552.0
19:35:21.213000,-82.0,94.0,32.0,850.0,619.0,-271.0,3.0,-276.0,556.0
19:35:21.218000,-65.0,75.0,33.0,874.0,584.0,-263.0,3.0,-276.0,556.0
19:35:21.222000,-39.0,55.0,27.0,886.0,606.0,-266.0,3.0,-276.0,556.0
19:35:21.227000,-30.0,31.0,20.0,884.0,644.0,-264.0,-4.0,-280.0,558.0
19:35:21.232000,-26.0,7.0,7.0,872.0,672.0,-258.0,-4.0,-280.0,558.0
19:35:21.236000,-26.0,7.0,7.0,862.0,693.0,-267.0,-6.0,-280.0,553.0
19:35:21.241000,-23.0,-35.0,9.0,841.0,702.0,-264.0,-6.0,-280.0,553.0
19:35:21.245000,-23.0,-35.0,9.0,816.0,713.0,-260.0,-6.0,-280.0,553.0
19:35:21.251000,-39.0,-47.0,25.0,796.0,721.0,-264.0,-15.0,-279.0,564.0
19:35:21.255000,-59.0,-57.0,38.0,778.0,700.0,-264.0,-15.0,-279.0,564.0
19:35:21.260000,-88.0,-65.0,60.0,771.0,650.0,-263.0,-10.0,-285.0,556.0
19:35:21.265000,-108.0,-72.0,112.0,785.0,593.0,-265.0,-10.0,-285.0,556.0
19:35:21.269000,-133.0,-70.0,168.0,764.0,593.0,-277.0,-10.0,-285.0,556.0
19:35:21.274000,-142.0,-74.0,188.0,696.0,662.0,-292.0,0.0,-283.0,558.0
19:35:21.279000,-152.0,-77.0,175.0,643.0,696.0,-301.0,0.0,-283.0,558.0
19:35:21.284000,-171.0,-81.0,156.0,610.0,692.0,-299.0,-9.0,-280.0,562.0
19:35:21.288000,-189.0,-84.0,132.0,599.0,769.0,-322.0,-9.0,-280.0,562.0
19:35:21.292000,-184.0,-98.0,95.0,596.0,789.0,-330.0,-9.0,-280.0,562.0
19:35:21.298000,-193.0,-113.0,50.0,604.0,652.0,-303.0,-4.0,-279.0,547.0
19:35:21.302000,-225.0,-120.0,43.0,615.0,586.0,-317.0,-4.0,-279.0,547.0
19:35:21.307000,-182.0,-136.0,66.0,615.0,586.0,-317.0,-6.0,-279.0,556.0
19:35:21.312000,-167.0,-148.0,63.0,614.0,616.0,-322.0,-6.0,-279.0,556.0
19:35:21.316000,-150.0,-158.0,37.0,601.0,656.0,-312.0,-6.0,-279.0,556.0
19:35:21.321000,-148.0,-161.0,9.0,566.0,689.0,-320.0,1.0,-283.0,553.0
19:35:21.326000,-144.0,-156.0,-20.0,516.0,762.0,-328.0,1.0,-283.0,553.0
19:35:21.340000,-182.0,-97.0,-27.0,387.0,695.0,-374.0,-3.0,-285.0,576.0
19:35:21.345000,-202.0,-81.0,-30.0,375.0,723.0,-369.0,-3.0,-285.0,576.0
19:35:21.349000,-200.0,-74.0,-42.0,376.0,711.0,-372.0,-3.0,-285.0,576.0
19:35:21.354000,-186.0,-69.0,-60.0,400.0,653.0,-381.0,1.0,-289.0,562.0
19:35:21.359000,-186.0,-69.0,-60.0,440.0,647.0,-386.0,1.0,-289.0,562.0
19:35:21.363000,-154.0,-70.0,-92.0,482.0,679.0,-393.0,1.0,-289.0,562.0
19:35:21.368000,-116.0,-75.0,-134.0,521.0,687.0,-396.0,13.0,-288.0,558.0
19:35:21.373000,-80.0,-83.0,-175.0,535.0,709.0,-401.0,13.0,-288.0,558.0
19:35:21.378000,-44.0,-91.0,-204.0,515.0,744.0,-409.0,7.0,-292.0,555.0
19:35:21.382000,-20.0,-91.0,-219.0,491.0,750.0,-411.0,7.0,-292.0,555.0
19:35:21.386000,0.0,-88.0,-216.0,486.0,779.0,-420.0,0.0,-294.0,570.0
19:35:21.392000,22.0,-74.0,-217.0,443.0,823.0,-424.0,0.0,-294.0,570.0
19:35:21.396000,31.0,-62.0,-233.0,399.0,832.0,-432.0,0.0,-294.0,570.0
19:35:21.401000,36.0,-41.0,-221.0,390.0,837.0,-444.0,-6.0,-289.0,567.0
19:35:21.406000,40.0,-20.0,-192.0,379.0,857.0,-447.0,-6.0,-289.0,567.0
19:35:21.410000,45.0,-11.0,-155.0,379.0,857.0,-447.0,9.0,-294.0,561.0
19:35:21.415000,42.0,-4.0,-92.0,413.0,857.0,-429.0,9.0,-294.0,561.0
19:35:21.419000,40.0,-2.0,-46.0,413.0,857.0,-429.0,9.0,-294.0,561.0
19:35:21.425000,22.0,-14.0,-7.0,410.0,907.0,-407.0,10.0,-292.0,559.0
19:35:21.429000,30.0,-26.0,-17.0,410.0,971.0,-391.0,10.0,-292.0,559.0
19:35:21.433000,28.0,-37.0,-44.0,466.0,971.0,-374.0,4.0,-297.0,553.0
19:35:21.439000,28.0,-44.0,4.0,466.0,971.0,-374.0,4.0,-297.0,553.0
19:35:21.443000,32.0,-46.0,81.0,553.0,880.0,-371.0,4.0,-297.0,553.0
19:35:21.448000,26.0,-42.0,123.0,590.0,835.0,-359.0,4.0,-289.0,567.0
19:35:21.453000,25.0,-32.0,126.0,593.0,847.0,-353.0,4.0,-289.0,567.0
19:35:21.457000,11.0,-18.0,121.0,581.0,873.0,-343.0,3.0,-291.0,561.0
19:35:21.462000,-7.0,0.0,123.0,568.0,872.0,-330.0,3.0,-291.0,561.0
19:35:21.466000,-7.0,0.0,123.0,560.0,835.0,-327.0,3.0,-291.0,561.0
19:35:21.472000,-21.0,23.0,122.0,555.0,772.0,-325.0,10.0,-295.0,559.0
19:35:21.476000,-35.0,52.0,115.0,551.0,714.0,-330.0,10.0,-295.0,559.0
19:35:21.481000,-49.0,85.0,112.0,543.0,678.0,-313.0,0.0,-301.0,564.0
19:35:21.486000,-50.0,105.0,127.0,564.0,653.0,-324.0,0.0,-301.0,564.0
