hh:mm:ss.ms,gyroX[mdps],gyroY[mdps],gyroZ[mdps],accX[mg],accY[mg],accZ[mg],magX[mG],magY[mG],magZ[mG]
19:35:17.143000,-344.0,-203.0,538.0,658.0,622.0,-102.0,42.0,-211.0,564.0
19:35:17.148000,-361.0,-213.0,539.0,557.0,665.0,-90.0,42.0,-211.0,564.0
19:35:17.152000,-376.0,-219.0,540.0,557.0,665.0,-90.0,42.0,-211.0,564.0
19:35:17.157000,-398.0,-222.0,544.0,487.0,674.0,-89.0,54.0,-208.0,553.0
19:35:17.162000,-421.0,-221.0,546.0,438.0,664.0,-83.0,54.0,-208.0,553.0
19:35:17.167000,-436.0,-221.0,538.0,423.0,625.0,-79.0,64.0,-214.0,552.0
19:35:17.171000,-444.0,-219.0,529.0,441.0,574.0,-83.0,64.0,-214.0,552.0
19:35:17.175000,-437.0,-217.0,519.0,476.0,522.0,-92.0,64.0,-214.0,552.0
19:35:17.181000,-422.0,-218.0,485.0,510.0,510.0,-97.0,72.0,-213.0,556.0
19:35:17.185000,-403.0,-228.0,441.0,527.0,548.0,-93.0,72.0,-213.0,556.0
19:35:17.190000,-373.0,-236.0,392.0,534.0,582.0,-93.0,61.0,-213.0,561.0
19:35:17.195000,-335.0,-237.0,354.0,536.0,579.0,-106.0,61.0,-213.0,561.0
19:35:17.199000,-335.0,-237.0,354.0,519.0,582.0,-122.0,61.0,-213.0,561.0
19:35:17.204000,-298.0,-228.0,321.0,461.0,665.0,-136.0,73.0,-220.0,565.0
19:35:17.209000,-272.0,-213.0,275.0,381.0,779.0,-147.0,73.0,-220.0,565.0
19:35:17.214000,-267.0,-193.0,210.0,315.0,859.0,-158.0,79.0,-216.0,568.0
19:35:17.218000,-270.0,-175.0,150.0,271.0,896.0,-167.0,79.0,-216.0,568.0
19:35:17.222000,-272.0,-161.0,123.0,254.0,894.0,-176.0,79.0,-216.0,568.0
19:35:17.228000,-279.0,-144.0,119.0,244.0,890.0,-196.0,63.0,-216.0,565.0
19:35:17.232000,-268.0,-122.0,96.0,229.0,917.0,-219.0,63.0,-216.0,565.0
19:35:17.237000,-261.0,-93.0,56.0,236.0,954.0,-229.0,70.0,-217.0,573.0
19:35:17.242000,-264.0,-69.0,21.0,265.0,974.0,-238.0,70.0,-217.0,573.0
19:35:17.246000,-263.0,-49.0,4.0,288.0,985.0,-251.0,70.0,-217.0,573.0
19:35:17.251000,-259.0,-32.0,-12.0,304.0,1003.0,-263.0,78.0,-220.0,573.0
19:35:17.256000,-249.0,-20.0,-49.0,316.0,1038.0,-278.0,78.0,-220.0,573.0
19:35:17.261000,-241.0,-11.0,-102.0,316.0,1038.0,-278.0,78.0,-225.0,568.0
19:35:17.265000,-232.0,-5.0,-154.0,330.0,1078.0,-293.0,78.0,-225.0,568.0
19:35:17.269000,-214.0,-4.0,-200.0,354.0,1106.0,-307.0,78.0,-225.0,568.0
19:35:17.275000,-199.0,0.0,-227.0,379.0,1117.0,-316.0,78.0,-228.0,574.0
19:35:17.279000,-191.0,7.0,-224.0,398.0,1107.0,-318.0,78.0,-228.0,574.0
19:35:17.284000,-176.0,10.0,-202.0,414.0,1097.0,-322.0,70.0,-225.0,570.0
19:35:17.289000,-160.0,14.0,-196.0,420.0,1125.0,-319.0,70.0,-225.0,570.0
19:35:17.293000,-160.0,14.0,-196.0,406.0,1148.0,-311.0,70.0,-225.0,570.0
19:35:17.298000,-159.0,17.0,-168.0,408.0,1170.0,-325.0,72.0,-234.0,571.0
19:35:17.303000,-171.0,18.0,-127.0,427.0,1185.0,-324.0,72.0,-234.0,571.0
19:35:17.308000,-171.0,18.0,-127.0,431.0,1181.0,-313.0,69.0,-235.0,567.0
19:35:17.312000,-171.0,22.0,-93.0,421.0,1182.0,-316.0,69.0,-235.0,567.0
19:35:17.316000,-172.0,29.0,-68.0,398.0,1171.0,-322.0,69.0,-235.0,567.0
19:35:17.322000,-165.0,44.0,-60.0,364.0,1175.0,-329.0,70.0,-241.0,603.0
19:35:17.326000,-144.0,60.0,-60.0,337.0,1172.0,-324.0,70.0,-241.0,603.0
19:35:17.331000,-137.0,78.0,-57.0,326.0,1151.0,-327.0,60.0,-241.0,603.0
19:35:17.336000,-106.0,97.0,-39.0,319.0,1128.0,-332.0,60.0,-241.0,603.0
19:35:17.340000,-79.0,120.0,-16.0,308.0,1125.0,-338.0,60.0,-241.0,603.0
19:35:17.345000,-43.0,141.0,-23.0,297.0,1143.0,-333.0,70.0,-238.0,579.0
19:35:17.350000,-14.0,167.0,-51.0,288.0,1159.0,-320.0,70.0,-238.0,579.0
19:35:17.355000,11.0,189.0,-94.0,288.0,1166.0,-315.0,70.0,-232.0,577.0
19:35:17.359000,41.0,203.0,-111.0,303.0,1158.0,-307.0,70.0,-232.0,577.0
19:35:17.363000,53.0,214.0,-120.0,329.0,1141.0,-288.0,70.0,-232.0,577.0
19:35:17.369000,58.0,213.0,-126.0,383.0,1094.0,-283.0,63.0,-237.0,573.0
19:35:17.373000,77.0,220.0,-113.0,383.0,1094.0,-283.0,63.0,-237.0,573.0
19:35:17.378000,82.0,205.0,-90.0,453.0,1037.0,-277.0,60.0,-235.0,577.0
19:35:17.383000,76.0,184.0,-58.0,505.0,988.0,-254.0,60.0,-235.0,577.0
19:35:17.387000,74.0,167.0,-14.0,559.0,929.0,-246.0,60.0,-235.0,577.0
19:35:17.392000,72.0,143.0,54.0,633.0,867.0,-240.0,69.0,-238.0,576.0
19:35:17.397000,73.0,103.0,128.0,692.0,813.0,-230.0,69.0,-238.0,576.0
19:35:17.402000,86.0,66.0,170.0,706.0,783.0,-231.0,70.0,-241.0,571.0
19:35:17.406000,102.0,27.0,184.0,700.0,790.0,-238.0,70.0,-241.0,571.0
19:35:17.410000,102.0,27.0,184.0,698.0,799.0,-243.0,70.0,-241.0,571.0
19:35:17.416000,121.0,-2.0,184.0,686.0,786.0,-247.0,70.0,-234.0,571.0
19:35:17.420000,127.0,-32.0,174.0,666.0,758.0,-240.0,70.0,-234.0,571.0
19:35:17.425000,126.0,-60.0,180.0,651.0,732.0,-248.0,61.0,-231.0,573.0
19:35:17.430000,133.0,-80.0,198.0,636.0,725.0,-252.0,61.0,-231.0,573.0
19:35:17.434000,123.0,-95.0,202.0,614.0,743.0,-251.0,61.0,-231.0,573.0
19:35:17.439000,109.0,-112.0,189.0,585.0,796.0,-265.0,60.0,-232.0,565.0
19:35:17.444000,99.0,-116.0,167.0,540.0,866.0,-277.0,60.0,-232.0,565.0
19:35:17.449000,72.0,-108.0,126.0,479.0,929.0,-284.0,63.0,-234.0,570.0
19:35:17.453000,29.0,-97.0,64.0,433.0,956.0,-285.0,63.0,-234.0,570.0
19:35:17.457000,-14.0,-91.0,11.0,405.0,945.0,-295.0,63.0,-234.0,570.0
19:35:17.463000,-37.0,-73.0,-37.0,373.0,919.0,-305.0,69.0,-223.0,585.0
19:35:17.467000,-60.0,-56.0,-92.0,339.0,878.0,-305.0,69.0,-223.0,585.0
19:35:17.472000,-60.0,-42.0,-124.0,339.0,878.0,-305.0,61.0,-223.0,585.0
19:35:17.477000,-43.0,-25.0,-133.0,341.0,728.0,-311.0,61.0,-223.0,585.0
19:35:17.481000,-23.0,-10.0,-136.0,341.0,728.0,-311.0,61.0,-223.0,585.0
19:35:17.486000,0.0,2.0,-126.0,385.0,645.0,-305.0,67.0,-237.0,568.0
19:35:17.491000,28.0,17.0,-121.0,432.0,608.0,-303.0,67.0,-237.0,568.0
19:35:17.496000,63.0,26.0,-130.0,451.0,635.0,-299.0,72.0,-234.0,573.0
19:35:17.500000,75.0,40.0,-160.0,447.0,680.0,-293.0,72.0,-234.0,573.0
19:35:17.504000,98.0,50.0,-188.0,445.0,718.0,-293.0,72.0,-234.0,573.0
19:35:17.510000,116.0,61.0,-230.0,448.0,766.0,-295.0,63.0,-232.0,562.0
19:35:17.514000,121.0,67.0,-273.0,400.0,849.0,-286.0,63.0,-232.0,562.0
19:35:17.519000,139.0,72.0,-300.0,400.0,849.0,-286.0,67.0,-231.0,570.0
19:35:17.524000,159.0,74.0,-322.0,350.0,868.0,-290.0,67.0,-231.0,570.0
19:35:17.528000,159.0,74.0,-322.0,328.0,843.0,-293.0,67.0,-231.0,570.0
19:35:17.533000,168.0,86.0,-331.0,325.0,822.0,-298.0,55.0,-237.0,559.0
19:35:17.538000,193.0,91.0,-324.0,315.0,850.0,-297.0,55.0,-237.0,559.0
19:35:17.543000,200.0,98.0,-315.0,296.0,905.0,-294.0,54.0,-229.0,570.0
19:35:17.547000,198.0,98.0,-310.0,280.0,942.0,-294.0,54.0,-229.0,570.0
19:35:17.551000,186.0,97.0,-301.0,281.0,941.0,-295.0,54.0,-229.0,570.0
19:35:17.557000,180.0,102.0,-288.0,295.0,934.0,-298.0,57.0,-220.0,561.0
19:35:17.561000,173.0,105.0,-277.0,300.0,944.0,-296.0,57.0,-220.0,561.0
19:35:17.566000,165.0,107.0,-286.0,296.0,949.0,-292.0,52.0,-228.0,564.0
19:35:17.571000,144.0,112.0,-306.0,293.0,945.0,-298.0,52.0,-228.0,564.0
19:35:17.575000,140.0,116.0,-317.0,290.0,930.0,-304.0,52.0,-228.0,564.0
19:35:17.580000,132.0,123.0,-332.0,292.0,910.0,-304.0,45.0,-228.0,565.0
19:35:17.585000,120.0,135.0,-348.0,309.0,896.0,-305.0,45.0,-228.0,565.0
19:35:17.590000,106.0,143.0,-365.0,309.0,896.0,-305.0,52.0,-226.0,561.0
19:35:17.594000,94.0,154.0,-390.0,333.0,874.0,-303.0,52.0,-226.0,561.0
19:35:17.598000,84.0,168.0,-424.0,362.0,843.0,-307.0,52.0,-226.0,561.0
19:35:17.604000,69.0,177.0,-449.0,401.0,805.0,-307.0,30.0,-240.0,589.0
19:35:17.608000,60.0,181.0,-471.0,433.0,789.0,-306.0,30.0,-240.0,589.0
19:35:17.613000,47.0,182.0,-508.0,448.0,813.0,-306.0,30.0,-240.0,589.0
19:35:17.618000,39.0,182.0,-563.0,445.0,861.0,-308.0,30.0,-240.0,589.0
19:35:17.622000,39.0,182.0,-563.0,428.0,913.0,-310.0,30.0,-240.0,589.0
19:35:17.627000,25.0,177.0,-681.0,413.0,951.0,-307.0,39.0,-234.0,564.0
19:35:17.632000,23.0,173.0,-703.0,406.0,959.0,-304.0,39.0,-234.0,564.0
19:35:17.637000,23.0,173.0,-703.0,396.0,944.0,-300.0,40.0,-232.0,559.0
19:35:17.641000,25.0,168.0,-696.0,380.0,937.0,-295.0,40.0,-232.0,559.0
19:35:17.645000,30.0,160.0,-677.0,368.0,934.0,-284.0,40.0,-232.0,559.0
19:35:17.651000,34.0,147.0,-644.0,369.0,945.0,-273.0,33.0,-235.0,558.0
19:35:17.655000,38.0,128.0,-600.0,389.0,942.0,-261.0,33.0,-235.0,558.0
19:35:17.660000,37.0,109.0,-545.0,419.0,905.0,-254.0,25.0,-243.0,559.0
19:35:17.665000,49.0,88.0,-471.0,441.0,880.0,-248.0,25.0,-243.0,559.0
19:35:17.669000,56.0,68.0,-387.0,451.0,880.0,-236.0,25.0,-243.0,559.0
19:35:17.674000,65.0,44.0,-303.0,465.0,864.0,-229.0,37.0,-244.0,558.0
19:35:17.679000,74.0,26.0,-224.0,481.0,832.0,-229.0,37.0,-244.0,558.0
19:35:17.684000,83.0,8.0,-140.0,481.0,823.0,-229.0,27.0,-247.0,556.0
19:35:17.688000,91.0,-4.0,-63.0,471.0,827.0,-225.0,27.0,-247.0,556.0
19:35:17.692000,92.0,-14.0,-11.0,460.0,848.0,-218.0,27.0,-247.0,556.0
19:35:17.698000,83.0,-21.0,16.0,464.0,871.0,-206.0,28.0,-246.0,558.0
19:35:17.702000,70.0,-30.0,37.0,464.0,871.0,-206.0,28.0,-246.0,558.0
19:35:17.707000,51.0,-36.0,57.0,482.0,847.0,-195.0,30.0,-250.0,558.0
19:35:17.712000,37.0,-37.0,69.0,510.0,799.0,-189.0,30.0,-250.0,558.0
19:35:17.716000,23.0,-39.0,74.0,542.0,757.0,-187.0,30.0,-250.0,558.0
19:35:17.721000,13.0,-41.0,77.0,569.0,733.0,-189.0,27.0,-240.0,567.0
19:35:17.726000,-4.0,-46.0,68.0,582.0,749.0,-192.0,27.0,-240.0,567.0
19:35:17.731000,-26.0,-53.0,36.0,582.0,779.0,-195.0,15.0,-246.0,556.0
19:35:17.735000,-47.0,-65.0,-3.0,598.0,789.0,-200.0,15.0,-246.0,556.0
19:35:17.739000,-47.0,-65.0,-3.0,629.0,765.0,-208.0,15.0,-246.0,556.0
19:35:17.745000,-66.0,-79.0,-30.0,660.0,726.0,-216.0,30.0,-234.0,553.0
19:35:17.749000,-72.0,-97.0,-44.0,675.0,689.0,-224.0,30.0,-234.0,553.0
19:35:17.754000,-66.0,-113.0,-62.0,673.0,677.0,-233.0,18.0,-243.0,559.0
19:35:17.759000,-60.0,-127.0,-82.0,666.0,683.0,-238.0,18.0,-243.0,559.0
19:35:17.763000,-52.0,-140.0,-98.0,661.0,687.0,-235.0,18.0,-243.0,559.0
19:35:17.768000,-51.0,-154.0,-99.0,646.0,679.0,-232.0,33.0,-253.0,561.0
19:35:17.773000,-46.0,-167.0,-84.0,629.0,668.0,-230.0,33.0,-253.0,561.0
19:35:17.778000,-44.0,-179.0,-69.0,630.0,668.0,-224.0,34.0,-243.0,553.0
19:35:17.782000,-47.0,-192.0,-63.0,640.0,681.0,-218.0,34.0,-243.0,553.0
19:35:17.786000,-53.0,-208.0,-60.0,654.0,693.0,-212.0,34.0,-243.0,553.0
19:35:17.792000,-60.0,-230.0,-35.0,677.0,686.0,-206.0,34.0,-246.0,555.0
19:35:17.796000,-70.0,-254.0,16.0,695.0,673.0,-202.0,34.0,-246.0,555.0
19:35:17.801000,-78.0,-281.0,52.0,695.0,673.0,-202.0,36.0,-252.0,567.0
19:35:17.806000,-77.0,-302.0,52.0,697.0,670.0,-214.0,36.0,-252.0,567.0
19:35:17.810000,-76.0,-316.0,49.0,697.0,670.0,-214.0,36.0,-252.0,567.0
19:35:17.815000,-63.0,-331.0,64.0,711.0,647.0,-219.0,37.0,-253.0,570.0
19:35:17.820000,-53.0,-341.0,89.0,703.0,626.0,-225.0,37.0,-253.0,570.0
19:35:17.825000,-39.0,-350.0,104.0,668.0,630.0,-230.0,30.0,-252.0,571.0
19:35:17.829000,-26.0,-361.0,86.0,621.0,676.0,-236.0,30.0,-252.0,571.0
19:35:17.833000,-41.0,-359.0,50.0,582.0,732.0,-243.0,30.0,-252.0,571.0
19:35:17.839000,-62.0,-366.0,6.0,563.0,783.0,-246.0,39.0,-253.0,562.0
19:35:17.843000,-81.0,-369.0,-37.0,568.0,821.0,-250.0,39.0,-253.0,562.0
19:35:17.848000,-93.0,-372.0,-72.0,580.0,835.0,-258.0,30.0,-241.0,579.0
19:35:17.853000,-108.0,-375.0,-93.0,591.0,838.0,-265.0,30.0,-241.0,579.0
19:35:17.857000,-108.0,-375.0,-93.0,596.0,848.0,-271.0,30.0,-241.0,579.0
19:35:17.862000,-119.0,-375.0,-117.0,588.0,854.0,-270.0,45.0,-250.0,573.0
19:35:17.867000,-128.0,-384.0,-140.0,589.0,838.0,-266.0,45.0,-250.0,573.0
19:35:17.872000,-133.0,-387.0,-140.0,592.0,821.0,-271.0,39.0,-241.0,574.0
19:35:17.876000,-141.0,-392.0,-123.0,576.0,807.0,-261.0,39.0,-241.0,574.0
19:35:17.880000,-161.0,-396.0,-105.0,545.0,809.0,-249.0,39.0,-241.0,574.0
19:35:17.886000,-169.0,-399.0,-84.0,520.0,837.0,-288.0,42.0,-250.0,595.0
19:35:17.890000,-138.0,-359.0,-68.0,487.0,861.0,-274.0,42.0,-250.0,595.0
19:35:17.895000,-139.0,-380.0,-73.0,448.0,853.0,-248.0,42.0,-250.0,595.0
19:35:17.900000,-161.0,-353.0,-71.0,443.0,824.0,-278.0,42.0,-250.0,595.0
19:35:17.904000,-158.0,-337.0,-56.0,440.0,804.0,-274.0,42.0,-250.0,595.0
19:35:17.909000,-153.0,-316.0,-57.0,434.0,809.0,-263.0,60.0,-256.0,579.0
19:35:17.914000,-154.0,-293.0,-95.0,411.0,841.0,-268.0,60.0,-256.0,579.0
19:35:17.919000,-149.0,-261.0,-151.0,411.0,841.0,-268.0,57.0,-259.0,573.0
19:35:17.923000,-143.0,-227.0,-165.0,427.0,863.0,-277.0,57.0,-259.0,573.0
19:35:17.927000,-149.0,-207.0,-193.0,496.0,865.0,-261.0,57.0,-259.0,573.0
19:35:17.933000,-141.0,-175.0,-254.0,527.0,876.0,-259.0,55.0,-259.0,580.0
19:35:17.937000,-135.0,-148.0,-298.0,539.0,887.0,-268.0,55.0,-259.0,580.0
19:35:17.942000,-132.0,-121.0,-325.0,544.0,909.0,-265.0,61.0,-262.0,577.0
19:35:17.947000,-135.0,-109.0,-361.0,526.0,968.0,-260.0,61.0,-262.0,577.0
19:35:17.951000,-135.0,-109.0,-361.0,492.0,1040.0,-258.0,61.0,-262.0,577.0
19:35:17.956000,-138.0,-79.0,-462.0,476.0,1085.0,-260.0,69.0,-262.0,580.0
19:35:17.961000,-130.0,-70.0,-469.0,490.0,1100.0,-259.0,69.0,-262.0,580.0
19:35:17.966000,-130.0,-70.0,-469.0,503.0,1113.0,-257.0,55.0,-267.0,573.0
19:35:17.970000,-131.0,-66.0,-450.0,503.0,1133.0,-254.0,55.0,-267.0,573.0
19:35:17.988000,-124.0,-46.0,-227.0,511.0,1075.0,-261.0,46.0,-276.0,591.0
19:35:17.994000,-112.0,-37.0,-155.0,506.0,1073.0,-260.0,46.0,-276.0,591.0
19:35:17.998000,-107.0,-37.0,-87.0,503.0,1077.0,-257.0,60.0,-271.0,589.0
19:35:18.003000,-102.0,-39.0,-25.0,508.0,1064.0,-258.0,60.0,-271.0,589.0
19:35:18.007000,-98.0,-43.0,34.0,523.0,1038.0,-257.0,60.0,-271.0,589.0
19:35:18.013000,-99.0,-44.0,91.0,541.0,1010.0,-257.0,55.0,-274.0,577.0
19:35:18.017000,-100.0,-51.0,135.0,567.0,987.0,-256.0,55.0,-274.0,577.0
19:35:18.022000,-105.0,-55.0,160.0,567.0,987.0,-256.0,69.0,-271.0,586.0
19:35:18.027000,-112.0,-60.0,177.0,604.0,966.0,-256.0,69.0,-271.0,586.0
19:35:18.031000,-125.0,-69.0,200.0,650.0,939.0,-252.0,69.0,-271.0,586.0
19:35:18.036000,-150.0,-81.0,219.0,697.0,881.0,-244.0,55.0,-276.0,586.0
19:35:18.041000,-175.0,-94.0,229.0,734.0,889.0,-235.0,55.0,-276.0,586.0
19:35:18.045000,-201.0,-109.0,235.0,773.0,853.0,-226.0,48.0,-279.0,601.0
19:35:18.050000,-226.0,-123.0,249.0,827.0,805.0,-215.0,48.0,-279.0,601.0
19:35:18.054000,-256.0,-138.0,273.0,890.0,765.0,-204.0,48.0,-279.0,601.0
19:35:18.060000,-286.0,-153.0,301.0,938.0,738.0,-192.0,60.0,-271.0,588.0
19:35:18.064000,-312.0,-158.0,329.0,969.0,721.0,-189.0,60.0,-271.0,588.0
19:35:18.069000,-336.0,-156.0,358.0,986.0,706.0,-192.0,63.0,-276.0,586.0
19:35:18.074000,-336.0,-156.0,358.0,970.0,682.0,-201.0,63.0,-276.0,586.0
19:35:18.078000,-364.0,-142.0,382.0,924.0,647.0,-214.0,63.0,-276.0,586.0
19:35:18.083000,-394.0,-121.0,417.0,829.0,624.0,-238.0,70.0,-274.0,592.0
19:35:18.088000,-401.0,-100.0,441.0,670.0,630.0,-265.0,70.0,-274.0,592.0
19:35:18.092000,-404.0,-85.0,444.0,507.0,646.0,-287.0,70.0,-279.0,582.0
19:35:18.097000,-395.0,-77.0,434.0,379.0,677.0,-317.0,70.0,-279.0,582.0
19:35:18.101000,-368.0,-74.0,425.0,269.0,731.0,-347.0,70.0,-279.0,582.0
19:35:18.107000,-335.0,-79.0,406.0,152.0,745.0,-353.0,70.0,-282.0,589.0
19:35:18.111000,-318.0,-89.0,371.0,96.0,693.0,-392.0,70.0,-282.0,589.0
19:35:18.116000,-255.0,-68.0,389.0,144.0,642.0,-426.0,67.0,-276.0,583.0
19:35:18.121000,-204.0,-56.0,416.0,238.0,582.0,-405.0,67.0,-276.0,583.0
19:35:18.125000,-172.0,-63.0,395.0,390.0,485.0,-409.0,67.0,-276.0,583.0
19:35:18.130000,-105.0,-51.0,375.0,611.0,404.0,-435.0,78.0,-273.0,598.0
19:35:18.135000,-4.0,-30.0,401.0,611.0,374.0,-430.0,78.0,-273.0,598.0
19:35:18.139000,72.0,-29.0,427.0,805.0,374.0,-430.0,72.0,-279.0,589.0
19:35:18.144000,121.0,-40.0,413.0,909.0,393.0,-402.0,72.0,-279.0,589.0
19:35:18.148000,175.0,-52.0,285.0,923.0,474.0,-392.0,72.0,-279.0,589.0
19:35:18.154000,217.0,-64.0,98.0,849.0,541.0,-390.0,69.0,-273.0,594.0
19:35:18.158000,221.0,-67.0,-69.0,770.0,632.0,-374.0,69.0,-273.0,594.0
19:35:18.163000,202.0,-46.0,-88.0,784.0,700.0,-380.0,72.0,-277.0,597.0
19:35:18.168000,164.0,-81.0,-35.0,798.0,698.0,-374.0,72.0,-277.0,597.0
19:35:18.172000,164.0,-81.0,-35.0,686.0,786.0,-380.0,72.0,-277.0,597.0
19:35:18.177000,160.0,-58.0,-234.0,464.0,919.0,-429.0,85.0,-271.0,594.0
19:35:18.182000,160.0,-58.0,-234.0,290.0,917.0,-431.0,85.0,-271.0,594.0
19:35:18.186000,132.0,-58.0,-291.0,273.0,781.0,-435.0,64.0,-273.0,601.0
19:35:18.191000,137.0,-35.0,-218.0,250.0,701.0,-450.0,64.0,-273.0,601.0
19:35:18.195000,156.0,-7.0,-196.0,177.0,711.0,-441.0,64.0,-273.0,601.0
19:35:18.201000,173.0,20.0,-239.0,198.0,705.0,-431.0,76.0,-268.0,591.0
19:35:18.205000,204.0,43.0,-214.0,302.0,649.0,-423.0,76.0,-268.0,591.0
19:35:18.210000,245.0,68.0,-111.0,380.0,585.0,-412.0,69.0,-273.0,582.0
19:35:18.214000,310.0,83.0,-15.0,380.0,547.0,-392.0,69.0,-273.0,582.0
19:35:18.219000,387.0,95.0,30.0,331.0,529.0,-368.0,69.0,-273.0,582.0
19:35:18.224000,468.0,102.0,65.0,286.0,526.0,-354.0,76.0,-267.0,586.0
19:35:18.229000,557.0,113.0,98.0,262.0,534.0,-337.0,76.0,-267.0,586.0
19:35:18.233000,625.0,119.0,130.0,262.0,534.0,-337.0,76.0,-261.0,580.0
19:35:18.238000,679.0,126.0,144.0,210.0,739.0,-300.0,76.0,-261.0,580.0
19:35:18.242000,718.0,135.0,121.0,176.0,885.0,-287.0,76.0,-261.0,580.0
19:35:18.248000,735.0,147.0,84.0,176.0,885.0,-287.0,70.0,-261.0,582.0
19:35:18.252000,710.0,169.0,60.0,157.0,992.0,-277.0,70.0,-261.0,582.0
19:35:18.257000,648.0,188.0,60.0,149.0,1078.0,-265.0,70.0,-256.0,577.0
19:35:18.262000,578.0,208.0,65.0,139.0,1169.0,-264.0,70.0,-256.0,577.0
19:35:18.266000,486.0,222.0,47.0,120.0,1264.0,-269.0,70.0,-256.0,577.0
19:35:18.271000,398.0,231.0,8.0,100.0,1330.0,-274.0,78.0,-241.0,576.0
19:35:18.276000,303.0,233.0,-40.0,95.0,1332.0,-293.0,78.0,-241.0,576.0
19:35:18.280000,203.0,221.0,-90.0,126.0,1325.0,-303.0,57.0,-241.0,579.0
19:35:18.285000,119.0,211.0,-139.0,206.0,1242.0,-311.0,57.0,-241.0,579.0
19:35:18.289000,119.0,211.0,-139.0,315.0,1089.0,-324.0,57.0,-241.0,579.0
19:35:18.295000,56.0,203.0,-196.0,410.0,1007.0,-328.0,63.0,-249.0,568.0
19:35:18.299000,21.0,195.0,-250.0,470.0,987.0,-327.0,63.0,-249.0,568.0
19:35:18.304000,14.0,187.0,-307.0,504.0,987.0,-317.0,69.0,-241.0,570.0
19:35:18.309000,20.0,176.0,-375.0,541.0,955.0,-304.0,69.0,-241.0,570.0
19:35:18.313000,39.0,167.0,-445.0,588.0,854.0,-284.0,69.0,-241.0,570.0
19:35:18.318000,44.0,158.0,-456.0,593.0,715.0,-271.0,60.0,-250.0,568.0
19:35:18.323000,60.0,156.0,-390.0,520.0,651.0,-284.0,60.0,-250.0,568.0
19:35:18.327000,114.0,163.0,-319.0,437.0,678.0,-300.0,42.0,-253.0,597.0
19:35:18.332000,193.0,176.0,-289.0,410.0,745.0,-301.0,42.0,-253.0,597.0
19:35:18.336000,268.0,188.0,-301.0,427.0,863.0,-286.0,42.0,-253.0,597.0
19:35:18.342000,313.0,189.0,-300.0,452.0,936.0,-261.0,51.0,-246.0,574.0
19:35:18.346000,341.0,176.0,-245.0,452.0,914.0,-242.0,51.0,-246.0,574.0
19:35:18.351000,354.0,169.0,-170.0,452.0,914.0,-242.0,48.0,-247.0,567.0
19:35:18.356000,361.0,163.0,-91.0,436.0,895.0,-228.0,48.0,-247.0,567.0
19:35:18.360000,366.0,151.0,-9.0,428.0,907.0,-215.0,48.0,-247.0,567.0
19:35:18.365000,354.0,139.0,68.0,463.0,983.0,-183.0,46.0,-238.0,561.0
19:35:18.370000,328.0,126.0,129.0,463.0,983.0,-183.0,46.0,-238.0,561.0
19:35:18.374000,303.0,119.0,176.0,469.0,1018.0,-168.0,52.0,-240.0,562.0
19:35:18.379000,273.0,114.0,209.0,458.0,1011.0,-155.0,52.0,-240.0,562.0
19:35:18.383000,238.0,112.0,234.0,448.0,981.0,-143.0,52.0,-240.0,562.0
19:35:18.389000,200.0,110.0,254.0,456.0,952.0,-135.0,48.0,-238.0,564.0
19:35:18.393000,170.0,105.0,281.0,472.0,926.0,-129.0,48.0,-238.0,564.0
19:35:18.398000,151.0,105.0,284.0,481.0,880.0,-132.0,45.0,-238.0,555.0
19:35:18.403000,151.0,105.0,284.0,494.0,816.0,-141.0,45.0,-238.0,555.0
19:35:18.407000,140.0,112.0,266.0,509.0,775.0,-151.0,45.0,-238.0,555.0
19:35:18.412000,125.0,123.0,240.0,519.0,796.0,-159.0,46.0,-222.0,565.0
19:35:18.417000,103.0,133.0,210.0,519.0,869.0,-159.0,46.0,-222.0,565.0
19:35:18.421000,73.0,139.0,173.0,492.0,940.0,-161.0,39.0,-222.0,553.0
19:35:18.426000,37.0,147.0,110.0,454.0,971.0,-166.0,39.0,-222.0,553.0
19:35:18.430000,7.0,149.0,58.0,439.0,936.0,-171.0,39.0,-222.0,553.0
19:35:18.436000,-14.0,156.0,39.0,433.0,876.0,-178.0,43.0,-231.0,552.0
19:35:18.440000,-28.0,165.0,20.0,431.0,842.0,-181.0,43.0,-231.0,552.0
19:35:18.445000,-42.0,170.0,4.0,449.0,826.0,-186.0,43.0,-231.0,561.0
19:35:18.449000,-43.0,172.0,-20.0,473.0,795.0,-186.0,43.0,-231.0,561.0
19:35:18.454000,-48.0,177.0,-37.0,482.0,769.0,-189.0,43.0,-231.0,561.0
19:35:18.459000,-45.0,183.0,-46.0,480.0,833.0,-189.0,42.0,-229.0,559.0
19:35:18.464000,-51.0,182.0,-72.0,480.0,833.0,-189.0,42.0,-229.0,559.0
19:35:18.468000,-49.0,175.0,-116.0,481.0,927.0,-180.0,22.0,-228.0,568.0
19:35:18.473000,-67.0,170.0,-108.0,485.0,862.0,-170.0,22.0,-228.0,568.0
19:35:18.477000,-62.0,170.0,-71.0,475.0,767.0,-174.0,22.0,-228.0,568.0
19:35:18.483000,-60.0,170.0,-48.0,451.0,792.0,-183.0,37.0,-228.0,562.0
19:35:18.487000,-53.0,172.0,-44.0,434.0,823.0,-185.0,37.0,-228.0,562.0
19:35:18.492000,-56.0,172.0,-52.0,427.0,844.0,-186.0,33.0,-231.0,544.0
19:35:18.497000,-55.0,168.0,-51.0,432.0,853.0,-183.0,33.0,-231.0,544.0
19:35:18.501000,-55.0,168.0,-51.0,449.0,832.0,-184.0,33.0,-231.0,544.0
19:35:18.506000,-51.0,158.0,-40.0,468.0,800.0,-182.0,33.0,-235.0,558.0
19:35:18.511000,-51.0,158.0,-40.0,481.0,785.0,-179.0,33.0,-235.0,558.0
19:35:18.515000,-38.0,155.0,-54.0,498.0,792.0,-176.0,31.0,-232.0,556.0
19:35:18.520000,-29.0,148.0,-70.0,532.0,812.0,-162.0,31.0,-232.0,556.0
19:35:18.524000,-30.0,138.0,-67.0,560.0,828.0,-145.0,31.0,-232.0,556.0
19:35:18.530000,-42.0,125.0,-49.0,558.0,841.0,-133.0,36.0,-234.0,546.0
19:35:18.534000,-53.0,112.0,-40.0,552.0,852.0,-127.0,36.0,-234.0,546.0
19:35:18.539000,-60.0,102.0,-42.0,564.0,832.0,-118.0,37.0,-238.0,552.0
19:35:18.544000,-69.0,91.0,-44.0,602.0,793.0,-116.0,37.0,-238.0,552.0
19:35:18.548000,-66.0,84.0,-42.0,634.0,755.0,-117.0,37.0,-238.0,552.0
19:35:18.553000,-65.0,79.0,-17.0,640.0,737.0,-120.0,33.0,-231.0,553.0
19:35:18.558000,-58.0,77.0,-9.0,605.0,767.0,-127.0,33.0,-231.0,553.0
19:35:18.562000,-53.0,73.0,-33.0,605.0,767.0,-127.0,27.0,-243.0,553.0
19:35:18.567000,-48.0,79.0,-46.0,583.0,799.0,-160.0,27.0,-243.0,553.0
19:35:18.571000,-43.0,86.0,-45.0,596.0,777.0,-177.0,27.0,-243.0,553.0
19:35:18.577000,-39.0,96.0,-37.0,596.0,777.0,-177.0,28.0,-235.0,547.0
19:35:18.581000,-24.0,100.0,-44.0,596.0,771.0,-196.0,28.0,-235.0,547.0
19:35:18.586000,-5.0,100.0,-76.0,560.0,802.0,-211.0,25.0,-235.0,550.0
19:35:18.591000,7.0,95.0,-91.0,528.0,835.0,-223.0,25.0,-235.0,550.0
19:35:18.595000,12.0,86.0,-88.0,536.0,848.0,-231.0,25.0,-235.0,550.0
19:35:18.600000,20.0,79.0,-103.0,552.0,869.0,-236.0,28.0,-229.0,546.0
19:35:18.605000,24.0,67.0,-109.0,575.0,886.0,-236.0,28.0,-229.0,546.0
19:35:18.609000,28.0,53.0,-88.0,617.0,873.0,-226.0,19.0,-234.0,564.0
19:35:18.614000,31.0,35.0,-58.0,665.0,857.0,-211.0,19.0,-234.0,564.0
19:35:18.618000,31.0,35.0,-58.0,700.0,868.0,-196.0,19.0,-234.0,564.0
19:35:18.624000,28.0,23.0,-44.0,718.0,896.0,-180.0,30.0,-238.0,543.0
19:35:18.628000,18.0,11.0,-23.0,710.0,931.0,-161.0,30.0,-238.0,543.0
19:35:18.633000,0.0,3.0,2.0,671.0,966.0,-144.0,24.0,-240.0,543.0
19:35:18.638000,-25.0,-1.0,28.0,633.0,981.0,-130.0,24.0,-240.0,543.0
19:35:18.642000,-60.0,2.0,61.0,602.0,971.0,-117.0,24.0,-240.0,543.0
19:35:18.647000,-92.0,13.0,93.0,575.0,945.0,-110.0,19.0,-238.0,552.0
19:35:18.661000,-157.0,78.0,172.0,567.0,883.0,-105.0,27.0,-235.0,559.0
19:35:18.666000,-168.0,100.0,146.0,552.0,887.0,-108.0,25.0,-237.0,546.0
19:35:18.671000,-172.0,117.0,116.0,556.0,865.0,-113.0,25.0,-237.0,546.0
19:35:18.675000,-169.0,134.0,98.0,577.0,831.0,-121.0,25.0,-237.0,546.0
19:35:18.680000,-159.0,147.0,78.0,600.0,821.0,-131.0,19.0,-237.0,543.0
19:35:18.685000,-144.0,158.0,37.0,613.0,847.0,-138.0,19.0,-237.0,543.0
19:35:18.689000,-130.0,164.0,-35.0,613.0,847.0,-138.0,22.0,-235.0,546.0
19:35:18.694000,-120.0,163.0,-110.0,620.0,875.0,-140.0,22.0,-235.0,546.0
19:35:18.698000,-116.0,158.0,-160.0,644.0,879.0,-140.0,22.0,-235.0,546.0
19:35:18.703000,-113.0,149.0,-190.0,689.0,859.0,-139.0,18.0,-244.0,544.0
19:35:18.708000,-99.0,137.0,-212.0,762.0,833.0,-143.0,18.0,-244.0,544.0
19:35:18.713000,-83.0,125.0,-240.0,762.0,833.0,-143.0,1.0,-244.0,546.0
19:35:18.718000,-65.0,110.0,-292.0,745.0,886.0,-146.0,1.0,-244.0,546.0
19:35:18.722000,-65.0,110.0,-292.0,698.0,968.0,-145.0,1.0,-244.0,546.0
19:35:18.727000,-50.0,89.0,-411.0,661.0,1009.0,-141.0,18.0,-240.0,550.0
19:35:18.732000,-50.0,89.0,-411.0,659.0,991.0,-140.0,18.0,-240.0,550.0
19:35:18.736000,-46.0,84.0,-403.0,668.0,945.0,-144.0,9.0,-246.0,546.0
19:35:18.741000,-36.0,84.0,-357.0,654.0,916.0,-148.0,9.0,-246.0,546.0
19:35:18.745000,-21.0,88.0,-318.0,623.0,922.0,-154.0,9.0,-246.0,546.0
19:35:18.750000,-7.0,98.0,-301.0,603.0,944.0,-163.0,15.0,-253.0,555.0
19:35:18.755000,4.0,114.0,-282.0,581.0,958.0,-176.0,15.0,-253.0,555.0
19:35:18.760000,20.0,136.0,-259.0,565.0,956.0,-179.0,6.0,-252.0,547.0
19:35:18.765000,27.0,147.0,-212.0,578.0,932.0,-179.0,6.0,-252.0,547.0
19:35:18.769000,37.0,161.0,-148.0,592.0,893.0,-189.0,6.0,-252.0,547.0
19:35:18.774000,58.0,178.0,-108.0,602.0,838.0,-194.0,10.0,-255.0,547.0
19:35:18.779000,80.0,196.0,-72.0,626.0,783.0,-181.0,10.0,-255.0,547.0
19:35:18.783000,115.0,188.0,-25.0,626.0,783.0,-181.0,0.0,-250.0,544.0
19:35:18.788000,149.0,181.0,-17.0,698.0,760.0,-163.0,0.0,-250.0,544.0
19:35:18.792000,171.0,183.0,-26.0,698.0,760.0,-163.0,0.0,-250.0,544.0
19:35:18.797000,190.0,170.0,14.0,771.0,684.0,-144.0,6.0,-243.0,538.0
19:35:18.802000,239.0,160.0,46.0,817.0,660.0,-121.0,6.0,-243.0,538.0
19:35:18.807000,270.0,142.0,53.0,817.0,660.0,-121.0,-1.0,-252.0,552.0
19:35:18.812000,289.0,129.0,44.0,803.0,684.0,-96.0,-1.0,-252.0,552.0
19:35:18.816000,300.0,106.0,27.0,797.0,770.0,-85.0,-1.0,-252.0,552.0
19:35:18.821000,301.0,91.0,18.0,781.0,824.0,-76.0,-3.0,-241.0,535.0
19:35:18.826000,287.0,74.0,26.0,746.0,845.0,-71.0,-3.0,-241.0,535.0
19:35:18.830000,277.0,63.0,30.0,695.0,876.0,-66.0,9.0,-247.0,543.0
19:35:18.835000,241.0,51.0,46.0,646.0,892.0,-63.0,9.0,-247.0,543.0
19:35:18.839000,241.0,51.0,46.0,591.0,916.0,-60.0,9.0,-247.0,543.0
19:35:18.844000,219.0,35.0,67.0,539.0,916.0,-61.0,1.0,-246.0,535.0
19:35:18.849000,196.0,28.0,79.0,523.0,875.0,-63.0,1.0,-246.0,535.0
19:35:18.853000,177.0,25.0,111.0,520.0,871.0,-68.0,-4.0,-238.0,547.0
19:35:18.859000,163.0,18.0,135.0,507.0,867.0,-72.0,-4.0,-238.0,547.0
19:35:18.863000,147.0,16.0,146.0,504.0,832.0,-77.0,-4.0,-238.0,547.0
19:35:18.868000,136.0,18.0,160.0,503.0,796.0,-77.0,1.0,-240.0,546.0
19:35:18.873000,130.0,21.0,167.0,490.0,775.0,-80.0,1.0,-240.0,546.0
19:35:18.877000,134.0,28.0,150.0,486.0,747.0,-86.0,3.0,-229.0,534.0
19:35:18.882000,140.0,38.0,133.0,489.0,726.0,-95.0,3.0,-229.0,534.0
19:35:18.886000,143.0,53.0,114.0,479.0,735.0,-107.0,3.0,-229.0,534.0
19:35:18.891000,141.0,70.0,88.0,468.0,771.0,-118.0,-3.0,-229.0,535.0
19:35:18.896000,133.0,84.0,47.0,460.0,815.0,-127.0,-3.0,-229.0,535.0
19:35:18.900000,119.0,95.0,0.0,452.0,843.0,-139.0,1.0,-243.0,534.0
19:35:18.906000,102.0,109.0,-44.0,452.0,843.0,-139.0,1.0,-243.0,534.0
19:35:18.910000,86.0,119.0,-67.0,455.0,842.0,-155.0,1.0,-243.0,534.0
19:35:18.915000,77.0,122.0,-72.0,475.0,817.0,-177.0,-15.0,-229.0,537.0
19:35:18.920000,71.0,121.0,-79.0,496.0,813.0,-207.0,-15.0,-229.0,537.0
19:35:18.924000,63.0,107.0,-91.0,501.0,855.0,-227.0,-4.0,-234.0,535.0
19:35:18.929000,51.0,84.0,-102.0,487.0,925.0,-232.0,-4.0,-234.0,535.0
19:35:18.933000,35.0,52.0,-105.0,466.0,974.0,-231.0,-4.0,-234.0,535.0
19:35:18.938000,23.0,18.0,-98.0,466.0,975.0,-231.0,-6.0,-234.0,532.0
19:35:18.943000,26.0,-13.0,-68.0,494.0,936.0,-241.0,-6.0,-234.0,532.0
19:35:18.948000,26.0,-13.0,-68.0,524.0,875.0,-254.0,0.0,-229.0,541.0
19:35:18.953000,33.0,-41.0,-10.0,531.0,850.0,-262.0,0.0,-229.0,541.0
19:35:18.957000,33.0,-64.0,45.0,516.0,875.0,-269.0,0.0,-229.0,541.0
19:35:18.962000,28.0,-82.0,86.0,496.0,899.0,-279.0,-7.0,-234.0,549.0
19:35:18.967000,16.0,-95.0,126.0,476.0,894.0,-286.0,-7.0,-234.0,549.0
19:35:18.971000,-1.0,-105.0,173.0,474.0,866.0,-294.0,3.0,-214.0,537.0
19:35:18.976000,-27.0,-108.0,236.0,482.0,840.0,-306.0,3.0,-214.0,537.0
19:35:18.980000,-65.0,-109.0,315.0,479.0,854.0,-317.0,3.0,-214.0,537.0
19:35:18.985000,-112.0,-114.0,390.0,464.0,896.0,-319.0,1.0,-226.0,534.0
19:35:18.990000,-163.0,-125.0,445.0,442.0,925.0,-319.0,1.0,-226.0,534.0
19:35:18.995000,-217.0,-137.0,490.0,423.0,922.0,-308.0,7.0,-222.0,538.0
19:35:19.000000,-272.0,-158.0,545.0,419.0,888.0,-283.0,7.0,-222.0,538.0
19:35:19.004000,-322.0,-183.0,604.0,438.0,838.0,-260.0,7.0,-222.0,538.0
19:35:19.009000,-371.0,-204.0,662.0,470.0,791.0,-237.0,15.0,-220.0,543.0
19:35:19.014000,-421.0,-227.0,718.0,470.0,791.0,-237.0,15.0,-220.0,543.0
19:35:19.018000,-471.0,-252.0,767.0,501.0,753.0,-212.0,9.0,-225.0,544.0
19:35:19.023000,-513.0,-272.0,812.0,534.0,712.0,-193.0,9.0,-225.0,544.0
19:35:19.027000,-550.0,-287.0,855.0,561.0,657.0,-179.0,9.0,-225.0,544.0
19:35:19.032000,-581.0,-299.0,891.0,562.0,600.0,-159.0,10.0,-220.0,547.0
19:35:19.037000,-606.0,-304.0,916.0,536.0,561.0,-136.0,10.0,-220.0,547.0
19:35:19.042000,-627.0,-301.0,929.0,499.0,528.0,-118.0,21.0,-223.0,538.0
19:35:19.046000,-643.0,-288.0,928.0,466.0,495.0,-110.0,21.0,-223.0,538.0
19:35:19.051000,-643.0,-288.0,928.0,442.0,480.0,-106.0,21.0,-223.0,538.0
19:35:19.056000,-681.0,-255.0,893.0,424.0,484.0,-99.0,21.0,-222.0,561.0
19:35:19.061000,-681.0,-255.0,893.0,412.0,489.0,-92.0,21.0,-222.0,561.0
19:35:19.065000,-700.0,-237.0,861.0,407.0,494.0,-87.0,25.0,-229.0,556.0
19:35:19.070000,-726.0,-220.0,816.0,412.0,502.0,-81.0,25.0,-229.0,556.0
19:35:19.074000,-750.0,-206.0,758.0,434.0,497.0,-81.0,25.0,-229.0,556.0
19:35:19.079000,-761.0,-196.0,690.0,467.0,471.0,-92.0,36.0,-231.0,562.0
19:35:19.084000,-758.0,-189.0,623.0,491.0,468.0,-107.0,36.0,-231.0,562.0
19:35:19.088000,-748.0,-190.0,549.0,499.0,508.0,-115.0,33.0,-225.0,567.0
19:35:19.093000,-741.0,-196.0,473.0,504.0,545.0,-124.0,33.0,-225.0,567.0
19:35:19.098000,-725.0,-202.0,406.0,509.0,546.0,-143.0,33.0,-225.0,567.0
19:35:19.103000,-697.0,-211.0,350.0,510.0,536.0,-166.0,42.0,-232.0,562.0
19:35:19.108000,-658.0,-216.0,310.0,496.0,565.0,-183.0,42.0,-232.0,562.0
19:35:19.112000,-623.0,-221.0,269.0,496.0,565.0,-183.0,42.0,-226.0,571.0
19:35:19.117000,-604.0,-226.0,226.0,419.0,698.0,-186.0,42.0,-226.0,571.0
19:35:19.121000,-588.0,-226.0,198.0,419.0,698.0,-186.0,42.0,-226.0,571.0
19:35:19.126000,-580.0,-221.0,189.0,387.0,719.0,-185.0,42.0,-238.0,573.0
19:35:19.131000,-576.0,-212.0,188.0,364.0,716.0,-186.0,42.0,-238.0,573.0
19:35:19.135000,-567.0,-195.0,184.0,319.0,769.0,-202.0,51.0,-246.0,594.0
19:35:19.140000,-556.0,-171.0,177.0,319.0,769.0,-202.0,51.0,-246.0,594.0
19:35:19.145000,-549.0,-137.0,157.0,278.0,806.0,-212.0,51.0,-246.0,594.0
19:35:19.150000,-541.0,-98.0,123.0,225.0,853.0,-228.0,52.0,-246.0,585.0
19:35:19.155000,-525.0,-54.0,77.0,174.0,882.0,-249.0,52.0,-246.0,585.0
19:35:19.159000,-503.0,-13.0,28.0,143.0,877.0,-274.0,52.0,-253.0,586.0
19:35:19.164000,-474.0,26.0,-17.0,143.0,854.0,-296.0,52.0,-253.0,586.0
19:35:19.168000,-474.0,26.0,-17.0,181.0,833.0,-321.0,52.0,-253.0,586.0
19:35:19.173000,-439.0,61.0,-63.0,256.0,824.0,-351.0,49.0,-259.0,594.0
19:35:19.178000,-399.0,89.0,-108.0,338.0,837.0,-382.0,49.0,-259.0,594.0
19:35:19.183000,-359.0,111.0,-158.0,401.0,889.0,-411.0,52.0,-258.0,583.0
19:35:19.187000,-325.0,123.0,-227.0,446.0,975.0,-440.0,52.0,-258.0,583.0
19:35:19.192000,-293.0,126.0,-305.0,483.0,1053.0,-472.0,52.0,-258.0,583.0
19:35:19.197000,-263.0,121.0,-373.0,515.0,1096.0,-489.0,48.0,-268.0,594.0
19:35:19.202000,-239.0,107.0,-427.0,543.0,1115.0,-502.0,48.0,-268.0,594.0
19:35:19.206000,-217.0,91.0,-467.0,567.0,1125.0,-526.0,40.0,-274.0,585.0
19:35:19.211000,-197.0,81.0,-480.0,585.0,1140.0,-540.0,40.0,-274.0,585.0
19:35:19.215000,-181.0,71.0,-464.0,591.0,1162.0,-542.0,40.0,-274.0,585.0
19:35:19.220000,-165.0,65.0,-431.0,574.0,1178.0,-538.0,54.0,-273.0,595.0
19:35:19.225000,-156.0,60.0,-383.0,531.0,1190.0,-531.0,54.0,-273.0,595.0
19:35:19.230000,-148.0,63.0,-333.0,481.0,1204.0,-536.0,37.0,-279.0,585.0
19:35:19.234000,-140.0,73.0,-290.0,481.0,1204.0,-536.0,37.0,-279.0,585.0
19:35:19.239000,-129.0,88.0,-237.0,437.0,1222.0,-544.0,37.0,-279.0,585.0
19:35:19.244000,-123.0,109.0,-184.0,391.0,1244.0,-539.0,36.0,-280.0,585.0
19:35:19.249000,-115.0,130.0,-146.0,331.0,1272.0,-527.0,36.0,-280.0,585.0
19:35:19.253000,-99.0,153.0,-125.0,276.0,1271.0,-520.0,48.0,-277.0,588.0
19:35:19.258000,-79.0,172.0,-97.0,253.0,1209.0,-507.0,48.0,-277.0,588.0
19:35:19.262000,-79.0,172.0,-97.0,282.0,1127.0,-487.0,48.0,-277.0,588.0
19:35:19.267000,-42.0,207.0,-11.0,352.0,1050.0,-469.0,33.0,-274.0,586.0
19:35:19.272000,-18.0,214.0,21.0,432.0,961.0,-449.0,33.0,-274.0,586.0
19:35:19.277000,-18.0,214.0,21.0,506.0,879.0,-435.0,33.0,-288.0,583.0
19:35:19.281000,23.0,216.0,30.0,574.0,816.0,-425.0,33.0,-288.0,583.0
19:35:19.286000,53.0,218.0,46.0,640.0,762.0,-407.0,33.0,-288.0,583.0
19:35:19.291000,88.0,204.0,72.0,671.0,774.0,-396.0,34.0,-277.0,585.0
19:35:19.296000,121.0,184.0,84.0,670.0,833.0,-382.0,34.0,-277.0,585.0
19:35:19.300000,141.0,171.0,90.0,682.0,853.0,-359.0,36.0,-285.0,585.0
19:35:19.305000,144.0,155.0,87.0,702.0,842.0,-340.0,36.0,-285.0,585.0
19:35:19.309000,128.0,138.0,93.0,706.0,847.0,-323.0,36.0,-285.0,585.0
19:35:19.314000,104.0,123.0,97.0,700.0,849.0,-310.0,36.0,-273.0,585.0
19:35:19.328000,41.0,96.0,116.0,729.0,867.0,-293.0,39.0,-280.0,591.0
19:35:19.333000,25.0,93.0,91.0,729.0,867.0,-293.0,22.0,-274.0,597.0
19:35:19.338000,0.0,91.0,70.0,667.0,867.0,-290.0,22.0,-274.0,597.0
19:35:19.342000,-26.0,95.0,41.0,667.0,867.0,-290.0,22.0,-274.0,597.0
19:35:19.347000,-51.0,100.0,2.0,619.0,857.0,-297.0,28.0,-285.0,582.0
19:35:19.352000,-65.0,99.0,-12.0,601.0,846.0,-299.0,28.0,-285.0,582.0
19:35:19.357000,-65.0,94.0,-9.0,607.0,813.0,-302.0,33.0,-279.0,576.0
19:35:19.361000,-74.0,88.0,6.0,614.0,777.0,-300.0,33.0,-279.0,576.0
19:35:19.365000,-80.0,79.0,12.0,606.0,757.0,-298.0,33.0,-279.0,576.0
19:35:19.371000,-86.0,67.0,18.0,599.0,750.0,-301.0,28.0,-279.0,591.0
19:35:19.375000,-98.0,57.0,35.0,612.0,734.0,-304.0,28.0,-279.0,591.0
19:35:19.380000,-98.0,57.0,35.0,639.0,710.0,-309.0,33.0,-277.0,589.0
19:35:19.385000,-91.0,21.0,110.0,667.0,664.0,-319.0,33.0,-277.0,589.0
19:35:19.389000,-91.0,21.0,110.0,676.0,628.0,-331.0,33.0,-277.0,589.0
19:35:19.394000,-76.0,4.0,149.0,662.0,640.0,-342.0,40.0,-274.0,573.0
19:35:19.399000,-51.0,-11.0,163.0,631.0,685.0,-353.0,40.0,-274.0,573.0
19:35:19.404000,-22.0,-30.0,154.0,587.0,708.0,-365.0,36.0,-273.0,576.0
19:35:19.408000,3.0,-45.0,138.0,546.0,699.0,-378.0,36.0,-273.0,576.0
19:35:19.412000,38.0,-55.0,132.0,506.0,693.0,-389.0,36.0,-273.0,576.0
19:35:19.418000,72.0,-58.0,127.0,449.0,706.0,-397.0,28.0,-276.0,588.0
19:35:19.422000,103.0,-58.0,123.0,396.0,728.0,-404.0,28.0,-276.0,588.0
19:35:19.427000,125.0,-50.0,123.0,363.0,761.0,-401.0,36.0,-265.0,597.0
19:35:19.432000,127.0,-45.0,119.0,340.0,801.0,-399.0,36.0,-265.0,597.0
19:35:19.436000,133.0,-32.0,105.0,323.0,811.0,-398.0,36.0,-265.0,597.0
19:35:19.441000,130.0,-21.0,70.0,320.0,799.0,-400.0,33.0,-270.0,585.0
19:35:19.446000,123.0,-4.0,30.0,339.0,795.0,-406.0,33.0,-270.0,585.0
19:35:19.451000,117.0,7.0,-9.0,339.0,795.0,-406.0,27.0,-268.0,582.0
19:35:19.455000,102.0,17.0,-50.0,373.0,808.0,-403.0,27.0,-268.0,582.0
19:35:19.459000,91.0,21.0,-83.0,406.0,827.0,-400.0,27.0,-268.0,582.0
19:35:19.465000,79.0,22.0,-118.0,431.0,822.0,-402.0,42.0,-274.0,586.0
19:35:19.469000,70.0,23.0,-141.0,454.0,794.0,-410.0,42.0,-274.0,586.0
19:35:19.474000,67.0,24.0,-153.0,471.0,785.0,-423.0,42.0,-268.0,576.0
19:35:19.479000,65.0,25.0,-166.0,466.0,813.0,-434.0,42.0,-268.0,576.0
19:35:19.483000,65.0,25.0,-166.0,428.0,858.0,-442.0,42.0,-268.0,576.0
19:35:19.488000,45.0,30.0,-178.0,411.0,902.0,-461.0,36.0,-270.0,579.0
19:35:19.493000,18.0,26.0,-220.0,343.0,948.0,-447.0,36.0,-270.0,579.0
19:35:19.498000,18.0,26.0,-220.0,304.0,937.0,-457.0,33.0,-277.0,576.0
19:35:19.502000,6.0,36.0,-189.0,326.0,888.0,-482.0,33.0,-277.0,576.0
19:35:19.506000,-3.0,35.0,-156.0,301.0,873.0,-481.0,33.0,-277.0,576.0
19:35:19.512000,0.0,41.0,-144.0,297.0,887.0,-494.0,24.0,-271.0,576.0
19:35:19.516000,11.0,39.0,-146.0,308.0,921.0,-491.0,24.0,-271.0,576.0
19:35:19.521000,14.0,31.0,-151.0,335.0,942.0,-482.0,25.0,-273.0,583.0
19:35:19.525000,7.0,24.0,-156.0,346.0,951.0,-479.0,25.0,-273.0,583.0
19:35:19.530000,9.0,15.0,-179.0,364.0,928.0,-473.0,25.0,-273.0,583.0
19:35:19.535000,8.0,2.0,-177.0,404.0,886.0,-476.0,24.0,-264.0,592.0
19:35:19.540000,9.0,-11.0,-165.0,424.0,874.0,-491.0,24.0,-264.0,592.0
19:35:19.545000,23.0,-30.0,-164.0,467.0,843.0,-488.0,33.0,-276.0,580.0
19:35:19.549000,19.0,-56.0,-140.0,483.0,837.0,-468.0,33.0,-276.0,580.0
19:35:19.553000,21.0,-73.0,-162.0,441.0,889.0,-455.0,33.0,-276.0,580.0
19:35:19.559000,31.0,-79.0,-211.0,441.0,889.0,-455.0,36.0,-267.0,573.0
19:35:19.563000,33.0,-89.0,-205.0,441.0,892.0,-438.0,36.0,-267.0,573.0
19:35:19.568000,42.0,-100.0,-170.0,480.0,848.0,-421.0,27.0,-280.0,583.0
19:35:19.573000,49.0,-114.0,-123.0,496.0,773.0,-397.0,27.0,-280.0,583.0
19:35:19.577000,56.0,-128.0,-93.0,496.0,773.0,-397.0,27.0,-280.0,583.0
19:35:19.582000,44.0,-137.0,-58.0,447.0,774.0,-385.0,39.0,-273.0,583.0
19:35:19.587000,48.0,-147.0,-2.0,436.0,759.0,-379.0,39.0,-273.0,583.0
19:35:19.592000,50.0,-156.0,21.0,413.0,761.0,-375.0,31.0,-276.0,574.0
19:35:19.596000,43.0,-158.0,28.0,376.0,771.0,-368.0,31.0,-276.0,574.0
