hh:mm:ss.ms,gyroX[mdps],gyroY[mdps],gyroZ[mdps],accX[mg],accY[mg],accZ[mg],magX[mG],magY[mG],magZ[mG]
19:34:28.840000,-263.0,-19.0,310.0,429.0,519.0,-120.0,55.0,-133.0,444.0
19:34:28.844000,-231.0,-26.0,263.0,424.0,537.0,-115.0,55.0,-133.0,444.0
19:34:28.849000,-203.0,-37.0,223.0,421.0,564.0,-111.0,76.0,-127.0,439.0
19:34:28.854000,-184.0,-52.0,200.0,423.0,586.0,-108.0,76.0,-127.0,439.0
19:34:28.858000,-177.0,-70.0,197.0,416.0,628.0,-103.0,76.0,-127.0,439.0
19:34:28.863000,-184.0,-90.0,221.0,378.0,696.0,-96.0,61.0,-124.0,439.0
19:34:28.868000,-205.0,-105.0,247.0,318.0,783.0,-97.0,61.0,-124.0,439.0
19:34:28.872000,-244.0,-114.0,248.0,318.0,783.0,-97.0,63.0,-135.0,441.0
19:34:28.877000,-284.0,-123.0,240.0,261.0,859.0,-96.0,63.0,-135.0,441.0
19:34:28.881000,-325.0,-128.0,253.0,223.0,901.0,-95.0,63.0,-135.0,441.0
19:34:28.887000,-364.0,-131.0,289.0,189.0,919.0,-95.0,69.0,-133.0,442.0
19:34:28.891000,-397.0,-133.0,320.0,141.0,931.0,-97.0,69.0,-133.0,442.0
19:34:28.896000,-428.0,-134.0,327.0,93.0,938.0,-99.0,54.0,-126.0,442.0
19:34:28.900000,-455.0,-136.0,323.0,83.0,920.0,-100.0,54.0,-126.0,442.0
19:34:28.905000,-476.0,-137.0,312.0,119.0,881.0,-106.0,54.0,-126.0,442.0
19:34:28.910000,-497.0,-139.0,320.0,170.0,849.0,-115.0,69.0,-132.0,436.0
19:34:28.915000,-509.0,-142.0,345.0,215.0,828.0,-125.0,69.0,-132.0,436.0
19:34:28.919000,-509.0,-145.0,348.0,242.0,809.0,-140.0,72.0,-139.0,454.0
19:34:28.924000,-509.0,-145.0,348.0,257.0,798.0,-161.0,72.0,-139.0,454.0
19:34:28.928000,-489.0,-144.0,292.0,267.0,800.0,-181.0,72.0,-139.0,454.0
19:34:28.934000,-455.0,-148.0,228.0,268.0,807.0,-196.0,75.0,-138.0,453.0
19:34:28.938000,-419.0,-152.0,191.0,247.0,837.0,-213.0,75.0,-138.0,453.0
19:34:28.943000,-388.0,-151.0,151.0,210.0,880.0,-230.0,78.0,-147.0,457.0
19:34:28.948000,-370.0,-142.0,87.0,179.0,918.0,-245.0,78.0,-147.0,457.0
19:34:28.952000,-357.0,-130.0,20.0,176.0,935.0,-255.0,78.0,-147.0,457.0
19:34:28.957000,-350.0,-116.0,-8.0,193.0,940.0,-261.0,84.0,-139.0,465.0
19:34:28.962000,-350.0,-101.0,-15.0,203.0,969.0,-270.0,84.0,-139.0,465.0
19:34:28.966000,-338.0,-88.0,-37.0,201.0,1025.0,-291.0,78.0,-138.0,462.0
19:34:28.971000,-323.0,-77.0,-87.0,202.0,1089.0,-318.0,78.0,-138.0,462.0
19:34:28.975000,-313.0,-65.0,-139.0,215.0,1155.0,-328.0,78.0,-138.0,462.0
19:34:28.981000,-316.0,-59.0,-168.0,236.0,1213.0,-333.0,79.0,-159.0,480.0
19:34:28.985000,-319.0,-56.0,-182.0,236.0,1213.0,-333.0,79.0,-159.0,480.0
19:34:28.990000,-331.0,-58.0,-180.0,248.0,1237.0,-337.0,87.0,-145.0,474.0
19:34:28.995000,-351.0,-60.0,-165.0,245.0,1232.0,-335.0,87.0,-145.0,474.0
19:34:28.999000,-364.0,-63.0,-149.0,239.0,1217.0,-346.0,87.0,-145.0,474.0
19:34:29.004000,-370.0,-65.0,-118.0,249.0,1189.0,-357.0,81.0,-151.0,478.0
19:34:29.009000,-372.0,-72.0,-79.0,265.0,1169.0,-351.0,81.0,-151.0,478.0
19:34:29.013000,-379.0,-72.0,-51.0,271.0,1168.0,-349.0,75.0,-150.0,460.0
19:34:29.018000,-387.0,-77.0,-13.0,265.0,1160.0,-344.0,75.0,-150.0,460.0
19:34:29.022000,-387.0,-77.0,-13.0,261.0,1116.0,-328.0,75.0,-150.0,460.0
19:34:29.028000,-403.0,-80.0,90.0,266.0,1055.0,-321.0,84.0,-163.0,471.0
19:34:29.032000,-403.0,-80.0,90.0,288.0,985.0,-317.0,84.0,-163.0,471.0
19:34:29.037000,-403.0,-76.0,154.0,325.0,905.0,-313.0,91.0,-157.0,469.0
19:34:29.042000,-392.0,-70.0,203.0,350.0,852.0,-318.0,91.0,-157.0,469.0
19:34:29.046000,-366.0,-67.0,212.0,359.0,844.0,-319.0,91.0,-157.0,469.0
19:34:29.051000,-345.0,-63.0,189.0,351.0,875.0,-320.0,85.0,-168.0,468.0
19:34:29.056000,-326.0,-58.0,132.0,323.0,904.0,-321.0,85.0,-168.0,468.0
19:34:29.060000,-303.0,-60.0,73.0,302.0,896.0,-317.0,87.0,-160.0,474.0
19:34:29.065000,-279.0,-65.0,25.0,301.0,869.0,-314.0,87.0,-160.0,474.0
19:34:29.072000,-222.0,-70.0,-96.0,362.0,817.0,-287.0,81.0,-174.0,493.0
19:34:29.075000,-222.0,-70.0,-96.0,362.0,817.0,-287.0,81.0,-174.0,493.0
19:34:29.079000,-203.0,-68.0,-146.0,428.0,793.0,-273.0,81.0,-174.0,493.0
19:34:29.084000,-175.0,-74.0,-178.0,488.0,758.0,-259.0,84.0,-168.0,483.0
19:34:29.089000,-145.0,-81.0,-201.0,530.0,731.0,-254.0,84.0,-168.0,483.0
19:34:29.093000,-130.0,-79.0,-210.0,530.0,731.0,-254.0,87.0,-168.0,472.0
19:34:29.098000,-123.0,-81.0,-230.0,534.0,756.0,-247.0,87.0,-168.0,472.0
19:34:29.102000,-116.0,-101.0,-238.0,501.0,825.0,-232.0,87.0,-168.0,472.0
19:34:29.107000,-108.0,-103.0,-242.0,450.0,872.0,-241.0,91.0,-166.0,480.0
19:34:29.112000,-120.0,-97.0,-280.0,363.0,906.0,-256.0,91.0,-166.0,480.0
19:34:29.116000,-132.0,-73.0,-331.0,277.0,980.0,-265.0,87.0,-174.0,484.0
19:34:29.122000,-166.0,-53.0,-331.0,259.0,1049.0,-273.0,87.0,-174.0,484.0
19:34:29.126000,-205.0,-37.0,-287.0,300.0,1054.0,-273.0,87.0,-174.0,484.0
19:34:29.131000,-232.0,-25.0,-245.0,334.0,1013.0,-283.0,87.0,-172.0,483.0
19:34:29.136000,-237.0,-16.0,-219.0,352.0,944.0,-298.0,87.0,-172.0,483.0
19:34:29.140000,-205.0,-11.0,-200.0,379.0,872.0,-321.0,88.0,-171.0,489.0
19:34:29.145000,-205.0,-11.0,-200.0,401.0,823.0,-343.0,88.0,-171.0,489.0
19:34:29.149000,-155.0,-14.0,-170.0,400.0,831.0,-354.0,88.0,-171.0,489.0
19:34:29.154000,-98.0,-19.0,-151.0,399.0,840.0,-349.0,84.0,-174.0,489.0
19:34:29.159000,-61.0,-32.0,-144.0,419.0,785.0,-347.0,84.0,-174.0,489.0
19:34:29.164000,-25.0,-39.0,-112.0,428.0,745.0,-355.0,76.0,-183.0,499.0
19:34:29.169000,35.0,-44.0,-67.0,421.0,786.0,-359.0,76.0,-183.0,499.0
19:34:29.173000,72.0,-42.0,-22.0,406.0,856.0,-342.0,76.0,-183.0,499.0
19:34:29.178000,71.0,-54.0,21.0,379.0,898.0,-324.0,81.0,-175.0,486.0
19:34:29.183000,78.0,-62.0,38.0,375.0,896.0,-323.0,81.0,-175.0,486.0
19:34:29.187000,63.0,-53.0,32.0,377.0,947.0,-320.0,85.0,-180.0,498.0
19:34:29.192000,51.0,-47.0,11.0,371.0,1039.0,-308.0,85.0,-180.0,498.0
19:34:29.196000,23.0,-43.0,-14.0,363.0,1022.0,-290.0,85.0,-180.0,498.0
19:34:29.201000,0.0,-51.0,-54.0,377.0,989.0,-322.0,90.0,-175.0,483.0
19:34:29.206000,25.0,-35.0,-102.0,377.0,989.0,-322.0,90.0,-175.0,483.0
19:34:29.210000,14.0,-36.0,-134.0,427.0,873.0,-334.0,85.0,-187.0,510.0
19:34:29.216000,35.0,-14.0,-141.0,427.0,873.0,-334.0,85.0,-187.0,510.0
19:34:29.220000,37.0,-21.0,-130.0,479.0,887.0,-338.0,85.0,-187.0,510.0
19:34:29.225000,23.0,-37.0,-148.0,500.0,946.0,-313.0,90.0,-178.0,483.0
19:34:29.230000,51.0,-39.0,-166.0,476.0,923.0,-328.0,90.0,-178.0,483.0
19:34:29.234000,76.0,-36.0,-162.0,452.0,891.0,-356.0,100.0,-181.0,474.0
19:34:29.239000,91.0,-58.0,-100.0,427.0,943.0,-351.0,100.0,-181.0,474.0
19:34:29.243000,91.0,-58.0,-100.0,375.0,1013.0,-343.0,100.0,-181.0,474.0
19:34:29.248000,114.0,-90.0,-182.0,198.0,1117.0,-356.0,90.0,-186.0,490.0
19:34:29.253000,114.0,-90.0,-182.0,156.0,1113.0,-348.0,90.0,-186.0,490.0
19:34:29.257000,88.0,-88.0,-144.0,260.0,1030.0,-335.0,90.0,-184.0,489.0
19:34:29.263000,71.0,-106.0,-26.0,244.0,1072.0,-320.0,90.0,-184.0,489.0
19:34:29.267000,49.0,-127.0,52.0,188.0,1123.0,-335.0,90.0,-184.0,489.0
19:34:29.272000,60.0,-120.0,67.0,150.0,1127.0,-339.0,76.0,-187.0,490.0
19:34:29.277000,39.0,-119.0,30.0,175.0,1103.0,-310.0,76.0,-187.0,490.0
19:34:29.281000,17.0,-122.0,54.0,207.0,1097.0,-309.0,84.0,-187.0,490.0
19:34:29.286000,8.0,-123.0,109.0,219.0,1096.0,-308.0,84.0,-187.0,490.0
19:34:29.290000,28.0,-130.0,74.0,254.0,1051.0,-319.0,84.0,-187.0,490.0
19:34:29.295000,24.0,-120.0,65.0,281.0,998.0,-320.0,88.0,-183.0,490.0
19:34:29.300000,-14.0,-107.0,88.0,279.0,1011.0,-329.0,88.0,-183.0,490.0
19:34:29.304000,-5.0,-97.0,65.0,265.0,1042.0,-334.0,85.0,-178.0,484.0
19:34:29.309000,-35.0,-88.0,17.0,262.0,1062.0,-339.0,85.0,-178.0,484.0
19:34:29.314000,-20.0,-84.0,-19.0,262.0,1062.0,-339.0,85.0,-178.0,484.0
19:34:29.319000,-27.0,-79.0,-35.0,271.0,1061.0,-352.0,88.0,-184.0,496.0
19:34:29.324000,-36.0,-75.0,-45.0,285.0,1016.0,-346.0,88.0,-184.0,496.0
19:34:29.328000,-24.0,-72.0,-74.0,304.0,955.0,-352.0,94.0,-184.0,490.0
19:34:29.333000,-8.0,-71.0,-112.0,338.0,893.0,-356.0,94.0,-184.0,490.0
19:34:29.337000,6.0,-70.0,-107.0,405.0,853.0,-353.0,94.0,-184.0,490.0
19:34:29.342000,6.0,-87.0,-64.0,484.0,826.0,-339.0,91.0,-184.0,504.0
19:34:29.347000,14.0,-98.0,-59.0,492.0,837.0,-331.0,91.0,-184.0,504.0
19:34:29.351000,14.0,-98.0,-59.0,459.0,863.0,-325.0,88.0,-189.0,507.0
19:34:29.356000,-26.0,-110.0,-40.0,456.0,856.0,-318.0,88.0,-189.0,507.0
19:34:29.361000,-26.0,-110.0,-40.0,455.0,852.0,-320.0,88.0,-189.0,507.0
19:34:29.366000,-46.0,-116.0,-39.0,428.0,876.0,-320.0,88.0,-192.0,495.0
19:34:29.371000,-57.0,-124.0,-53.0,389.0,893.0,-320.0,88.0,-192.0,495.0
19:34:29.375000,-77.0,-127.0,-77.0,374.0,919.0,-316.0,93.0,-178.0,490.0
19:34:29.380000,-93.0,-123.0,-116.0,399.0,921.0,-308.0,93.0,-178.0,490.0
19:34:29.384000,-109.0,-127.0,-129.0,437.0,845.0,-294.0,93.0,-178.0,490.0
19:34:29.389000,-119.0,-136.0,-108.0,454.0,752.0,-285.0,102.0,-196.0,490.0
19:34:29.394000,-114.0,-142.0,-89.0,468.0,707.0,-288.0,102.0,-196.0,490.0
19:34:29.399000,-90.0,-144.0,-108.0,479.0,714.0,-294.0,100.0,-187.0,504.0
19:34:29.403000,-56.0,-147.0,-151.0,488.0,708.0,-299.0,100.0,-187.0,504.0
19:34:29.408000,-21.0,-143.0,-183.0,500.0,693.0,-304.0,100.0,-187.0,504.0
19:34:29.413000,11.0,-136.0,-210.0,497.0,713.0,-307.0,96.0,-195.0,502.0
19:34:29.418000,43.0,-128.0,-244.0,482.0,750.0,-305.0,96.0,-195.0,502.0
19:34:29.422000,70.0,-121.0,-269.0,482.0,750.0,-305.0,97.0,-198.0,498.0
19:34:29.426000,93.0,-111.0,-270.0,465.0,752.0,-301.0,97.0,-198.0,498.0
19:34:29.431000,108.0,-101.0,-272.0,445.0,765.0,-302.0,97.0,-198.0,498.0
19:34:29.436000,109.0,-88.0,-275.0,432.0,792.0,-304.0,93.0,-189.0,495.0
19:34:29.441000,108.0,-76.0,-263.0,435.0,831.0,-316.0,93.0,-189.0,495.0
19:34:29.446000,107.0,-73.0,-239.0,435.0,831.0,-316.0,85.0,-195.0,508.0
19:34:29.450000,100.0,-80.0,-228.0,421.0,856.0,-317.0,85.0,-195.0,508.0
19:34:29.455000,90.0,-85.0,-232.0,393.0,877.0,-314.0,85.0,-195.0,508.0
19:34:29.460000,83.0,-93.0,-240.0,387.0,905.0,-314.0,85.0,-195.0,505.0
19:34:29.465000,76.0,-106.0,-242.0,403.0,925.0,-311.0,85.0,-195.0,505.0
19:34:29.469000,83.0,-106.0,-233.0,435.0,914.0,-308.0,91.0,-187.0,502.0
19:34:29.474000,83.0,-119.0,-233.0,473.0,882.0,-292.0,91.0,-187.0,502.0
19:34:29.478000,83.0,-140.0,-217.0,469.0,861.0,-284.0,91.0,-187.0,502.0
19:34:29.483000,97.0,-158.0,-206.0,459.0,821.0,-283.0,81.0,-187.0,496.0
19:34:29.488000,45.0,-164.0,-188.0,431.0,847.0,-266.0,81.0,-187.0,496.0
19:34:29.493000,52.0,-180.0,-217.0,413.0,915.0,-278.0,91.0,-196.0,505.0
19:34:29.497000,59.0,-172.0,-251.0,425.0,913.0,-280.0,91.0,-196.0,505.0
19:34:29.502000,68.0,-194.0,-283.0,415.0,895.0,-296.0,91.0,-196.0,505.0
19:34:29.507000,68.0,-189.0,-317.0,408.0,891.0,-305.0,96.0,-207.0,490.0
19:34:29.512000,69.0,-189.0,-377.0,428.0,895.0,-278.0,96.0,-207.0,490.0
19:34:29.516000,100.0,-186.0,-384.0,468.0,901.0,-292.0,84.0,-196.0,498.0
19:34:29.521000,106.0,-177.0,-361.0,458.0,960.0,-306.0,84.0,-196.0,498.0
19:34:29.525000,98.0,-163.0,-375.0,395.0,1046.0,-298.0,84.0,-196.0,498.0
19:34:29.530000,107.0,-163.0,-429.0,345.0,1097.0,-308.0,96.0,-195.0,505.0
19:34:29.535000,120.0,-154.0,-469.0,336.0,1087.0,-316.0,96.0,-195.0,505.0
19:34:29.540000,90.0,-149.0,-469.0,336.0,1087.0,-316.0,82.0,-199.0,507.0
19:34:29.544000,97.0,-141.0,-459.0,330.0,1082.0,-324.0,82.0,-199.0,507.0
19:34:29.549000,74.0,-137.0,-455.0,312.0,1117.0,-330.0,82.0,-199.0,507.0
19:34:29.554000,76.0,-137.0,-457.0,285.0,1180.0,-336.0,93.0,-204.0,496.0
19:34:29.559000,54.0,-138.0,-468.0,266.0,1244.0,-335.0,93.0,-204.0,496.0
19:34:29.563000,40.0,-135.0,-474.0,281.0,1257.0,-324.0,81.0,-202.0,508.0
19:34:29.568000,10.0,-142.0,-454.0,310.0,1233.0,-321.0,81.0,-202.0,508.0
19:34:29.572000,10.0,-142.0,-454.0,343.0,1189.0,-309.0,81.0,-202.0,508.0
19:34:29.577000,-25.0,-165.0,-336.0,386.0,1146.0,-300.0,78.0,-204.0,492.0
19:34:29.582000,-25.0,-165.0,-336.0,420.0,1119.0,-291.0,78.0,-204.0,492.0
19:34:29.587000,-35.0,-180.0,-273.0,447.0,1111.0,-277.0,90.0,-208.0,504.0
19:34:29.591000,-37.0,-203.0,-216.0,473.0,1090.0,-254.0,90.0,-208.0,504.0
19:34:29.596000,-64.0,-221.0,-156.0,504.0,1062.0,-242.0,90.0,-208.0,504.0
19:34:29.601000,-65.0,-238.0,-90.0,539.0,1052.0,-225.0,84.0,-210.0,505.0
19:34:29.606000,-65.0,-256.0,-43.0,575.0,1053.0,-205.0,84.0,-210.0,505.0
19:34:29.610000,-77.0,-259.0,-4.0,643.0,1053.0,-175.0,85.0,-207.0,511.0
19:34:29.615000,-156.0,-273.0,60.0,878.0,1006.0,-151.0,85.0,-207.0,511.0
19:34:29.619000,-193.0,-238.0,110.0,845.0,1003.0,-169.0,85.0,-207.0,511.0
19:34:29.624000,-74.0,-235.0,35.0,693.0,971.0,-137.0,94.0,-211.0,520.0
19:34:29.629000,-240.0,-147.0,177.0,665.0,1027.0,-137.0,94.0,-211.0,520.0
19:34:29.634000,-268.0,-149.0,284.0,665.0,1027.0,-137.0,102.0,-213.0,511.0
19:34:29.638000,-313.0,2.0,345.0,646.0,973.0,-164.0,102.0,-213.0,511.0
19:34:29.643000,-459.0,-33.0,394.0,646.0,973.0,-164.0,102.0,-213.0,511.0
19:34:29.648000,-436.0,0.0,396.0,498.0,872.0,-133.0,87.0,-216.0,504.0
19:34:29.653000,-420.0,15.0,466.0,355.0,897.0,-239.0,87.0,-216.0,504.0
19:34:29.657000,-420.0,-43.0,564.0,332.0,856.0,-220.0,103.0,-216.0,520.0
19:34:29.662000,-369.0,-93.0,563.0,273.0,823.0,-225.0,103.0,-216.0,520.0
19:34:29.666000,-347.0,-177.0,541.0,208.0,793.0,-234.0,103.0,-216.0,520.0
19:34:29.671000,-335.0,-245.0,614.0,227.0,741.0,-243.0,105.0,-207.0,525.0
19:34:29.676000,-303.0,-320.0,763.0,261.0,690.0,-297.0,105.0,-207.0,525.0
19:34:29.681000,-302.0,-366.0,931.0,254.0,628.0,-337.0,99.0,-213.0,519.0
19:34:29.685000,-301.0,-362.0,1040.0,266.0,576.0,-394.0,99.0,-213.0,519.0
19:34:29.690000,-301.0,-362.0,1040.0,345.0,654.0,-453.0,99.0,-213.0,519.0
19:34:29.695000,-269.0,-349.0,1026.0,555.0,786.0,-452.0,108.0,-216.0,517.0
19:34:29.700000,-334.0,-340.0,987.0,767.0,923.0,-444.0,108.0,-216.0,517.0
19:34:29.704000,-386.0,-343.0,865.0,833.0,1045.0,-446.0,120.0,-205.0,526.0
19:34:29.709000,-418.0,-361.0,716.0,821.0,1031.0,-435.0,120.0,-205.0,526.0
19:34:29.713000,-447.0,-391.0,618.0,796.0,929.0,-430.0,120.0,-205.0,526.0
19:34:29.718000,-476.0,-421.0,578.0,703.0,879.0,-417.0,111.0,-213.0,549.0
19:34:29.723000,-516.0,-458.0,452.0,548.0,885.0,-405.0,111.0,-213.0,549.0
19:34:29.728000,-535.0,-484.0,289.0,491.0,845.0,-414.0,127.0,-210.0,531.0
19:34:29.732000,-516.0,-502.0,278.0,466.0,764.0,-412.0,127.0,-210.0,531.0
19:34:29.737000,-508.0,-535.0,331.0,301.0,732.0,-396.0,127.0,-210.0,531.0
19:34:29.742000,-478.0,-553.0,273.0,123.0,710.0,-397.0,135.0,-220.0,529.0
19:34:29.747000,-428.0,-548.0,196.0,91.0,612.0,-389.0,135.0,-220.0,529.0
19:34:29.751000,-393.0,-534.0,252.0,91.0,612.0,-389.0,142.0,-223.0,537.0
19:34:29.756000,-351.0,-514.0,407.0,131.0,528.0,-368.0,142.0,-223.0,537.0
19:34:29.763000,-307.0,-485.0,459.0,10.0,666.0,-347.0,136.0,-226.0,537.0
19:34:29.765000,-266.0,-445.0,392.0,10.0,666.0,-347.0,136.0,-226.0,537.0
19:34:29.769000,-228.0,-408.0,411.0,72.0,700.0,-328.0,136.0,-226.0,537.0
19:34:29.775000,-223.0,-382.0,486.0,183.0,703.0,-305.0,145.0,-225.0,541.0
19:34:29.779000,-216.0,-335.0,497.0,147.0,706.0,-302.0,145.0,-225.0,541.0
19:34:29.784000,-199.0,-281.0,462.0,47.0,702.0,-316.0,154.0,-226.0,546.0
19:34:29.789000,-189.0,-217.0,469.0,-14.0,700.0,-331.0,154.0,-226.0,546.0
19:34:29.793000,-189.0,-217.0,469.0,-51.0,733.0,-341.0,154.0,-226.0,546.0
19:34:29.798000,-198.0,-161.0,509.0,-93.0,803.0,-350.0,154.0,-220.0,544.0
19:34:29.803000,-210.0,-114.0,536.0,-151.0,866.0,-368.0,154.0,-220.0,544.0
19:34:29.808000,-226.0,-73.0,527.0,-179.0,879.0,-384.0,148.0,-226.0,556.0
19:34:29.812000,-273.0,-23.0,533.0,-160.0,874.0,-396.0,148.0,-226.0,556.0
19:34:29.816000,-319.0,25.0,541.0,-176.0,950.0,-411.0,148.0,-226.0,556.0
19:34:29.822000,-354.0,60.0,471.0,-181.0,1043.0,-421.0,163.0,-225.0,544.0
19:34:29.826000,-398.0,77.0,408.0,-151.0,1094.0,-420.0,163.0,-225.0,544.0
19:34:29.831000,-466.0,87.0,350.0,-109.0,1122.0,-424.0,166.0,-235.0,555.0
19:34:29.835000,-546.0,102.0,280.0,-13.0,1087.0,-428.0,166.0,-235.0,555.0
19:34:29.840000,-609.0,105.0,235.0,90.0,1003.0,-439.0,166.0,-235.0,555.0
19:34:29.845000,-644.0,109.0,226.0,152.0,913.0,-446.0,166.0,-234.0,552.0
19:34:29.850000,-673.0,114.0,235.0,181.0,793.0,-454.0,166.0,-234.0,552.0
19:34:29.855000,-648.0,122.0,233.0,181.0,793.0,-454.0,159.0,-235.0,550.0
19:34:29.859000,-591.0,130.0,221.0,201.0,559.0,-467.0,159.0,-235.0,550.0
19:34:29.863000,-555.0,141.0,231.0,201.0,559.0,-467.0,159.0,-235.0,550.0
19:34:29.869000,-478.0,137.0,273.0,199.0,508.0,-462.0,151.0,-240.0,562.0
19:34:29.873000,-379.0,135.0,298.0,158.0,527.0,-474.0,151.0,-240.0,562.0
19:34:29.878000,-304.0,135.0,339.0,109.0,561.0,-475.0,163.0,-249.0,549.0
19:34:29.883000,-239.0,135.0,371.0,71.0,623.0,-469.0,163.0,-249.0,549.0
19:34:29.887000,-175.0,136.0,359.0,39.0,691.0,-470.0,163.0,-249.0,549.0
19:34:29.892000,-130.0,139.0,357.0,29.0,733.0,-468.0,163.0,-249.0,559.0
19:34:29.897000,-86.0,144.0,380.0,35.0,774.0,-471.0,163.0,-249.0,559.0
19:34:29.902000,-79.0,152.0,409.0,39.0,803.0,-468.0,153.0,-250.0,562.0
19:34:29.906000,-69.0,160.0,413.0,45.0,827.0,-465.0,153.0,-250.0,562.0
19:34:29.910000,-69.0,160.0,413.0,59.0,878.0,-465.0,153.0,-250.0,562.0
19:34:29.916000,-78.0,163.0,408.0,77.0,941.0,-461.0,159.0,-241.0,561.0
19:34:29.920000,-92.0,160.0,418.0,93.0,992.0,-456.0,159.0,-241.0,561.0
19:34:29.925000,-123.0,153.0,421.0,116.0,999.0,-453.0,159.0,-256.0,552.0
19:34:29.930000,-146.0,144.0,398.0,150.0,946.0,-457.0,159.0,-256.0,552.0
19:34:29.934000,-158.0,133.0,378.0,171.0,879.0,-458.0,159.0,-256.0,552.0
19:34:29.939000,-171.0,127.0,355.0,174.0,845.0,-459.0,162.0,-253.0,567.0
19:34:29.944000,-177.0,119.0,348.0,180.0,826.0,-462.0,162.0,-253.0,567.0
19:34:29.949000,-178.0,112.0,357.0,186.0,820.0,-465.0,165.0,-252.0,564.0
19:34:29.953000,-182.0,105.0,330.0,198.0,830.0,-461.0,165.0,-252.0,564.0
19:34:29.957000,-189.0,97.0,289.0,224.0,835.0,-456.0,165.0,-252.0,564.0
19:34:29.963000,-194.0,92.0,263.0,236.0,836.0,-449.0,156.0,-246.0,555.0
19:34:29.967000,-198.0,90.0,256.0,210.0,839.0,-432.0,156.0,-246.0,555.0
19:34:29.972000,-210.0,90.0,256.0,210.0,839.0,-432.0,153.0,-250.0,562.0
19:34:29.977000,-221.0,97.0,278.0,159.0,819.0,-418.0,153.0,-250.0,562.0
19:34:29.981000,-217.0,112.0,312.0,110.0,769.0,-415.0,153.0,-250.0,562.0
19:34:29.986000,-195.0,121.0,326.0,81.0,713.0,-419.0,150.0,-256.0,574.0
19:34:29.991000,-167.0,123.0,333.0,87.0,654.0,-421.0,150.0,-256.0,574.0
19:34:29.996000,-130.0,130.0,326.0,115.0,608.0,-430.0,150.0,-256.0,574.0
19:34:30.000000,-82.0,135.0,289.0,141.0,605.0,-446.0,150.0,-256.0,574.0
19:34:30.004000,-82.0,135.0,289.0,160.0,636.0,-457.0,150.0,-256.0,574.0
19:34:30.010000,-12.0,142.0,165.0,167.0,694.0,-463.0,154.0,-259.0,564.0
19:34:30.014000,4.0,140.0,105.0,166.0,758.0,-468.0,154.0,-259.0,564.0
19:34:30.019000,4.0,140.0,105.0,167.0,799.0,-480.0,160.0,-249.0,559.0
19:34:30.024000,16.0,137.0,52.0,168.0,811.0,-495.0,160.0,-249.0,559.0
19:34:30.028000,25.0,133.0,4.0,172.0,821.0,-509.0,160.0,-249.0,559.0
19:34:30.033000,29.0,123.0,-39.0,180.0,838.0,-523.0,159.0,-252.0,567.0
19:34:30.038000,32.0,112.0,-67.0,185.0,845.0,-538.0,159.0,-252.0,567.0
19:34:30.043000,38.0,98.0,-79.0,184.0,846.0,-551.0,141.0,-258.0,549.0
19:34:30.047000,48.0,80.0,-79.0,172.0,846.0,-559.0,141.0,-258.0,549.0
19:34:30.051000,56.0,62.0,-70.0,155.0,836.0,-561.0,141.0,-258.0,549.0
19:34:30.057000,65.0,47.0,-46.0,144.0,814.0,-567.0,156.0,-253.0,558.0
19:34:30.061000,80.0,35.0,-10.0,137.0,776.0,-571.0,156.0,-253.0,558.0
19:34:30.066000,97.0,30.0,41.0,137.0,740.0,-571.0,153.0,-252.0,549.0
19:34:30.070000,116.0,28.0,95.0,125.0,715.0,-572.0,153.0,-252.0,549.0
19:34:30.075000,137.0,30.0,149.0,124.0,687.0,-570.0,153.0,-252.0,549.0
19:34:30.080000,158.0,34.0,200.0,129.0,647.0,-567.0,156.0,-250.0,558.0
19:34:30.085000,189.0,37.0,247.0,129.0,647.0,-567.0,156.0,-250.0,558.0
19:34:30.090000,220.0,43.0,282.0,142.0,601.0,-569.0,151.0,-256.0,562.0
19:34:30.094000,261.0,52.0,271.0,162.0,580.0,-574.0,151.0,-256.0,562.0
19:34:30.098000,301.0,66.0,217.0,184.0,584.0,-578.0,151.0,-256.0,562.0
19:34:30.104000,340.0,80.0,147.0,209.0,593.0,-580.0,151.0,-252.0,562.0
19:34:30.108000,380.0,91.0,94.0,233.0,604.0,-585.0,151.0,-252.0,562.0
19:34:30.113000,418.0,99.0,37.0,238.0,616.0,-591.0,145.0,-240.0,562.0
19:34:30.118000,456.0,106.0,-54.0,216.0,658.0,-598.0,145.0,-240.0,562.0
19:34:30.122000,456.0,106.0,-54.0,183.0,715.0,-602.0,145.0,-240.0,562.0
19:34:30.127000,491.0,109.0,-163.0,164.0,747.0,-600.0,148.0,-247.0,574.0
19:34:30.132000,526.0,108.0,-259.0,169.0,757.0,-594.0,148.0,-247.0,574.0
19:34:30.137000,560.0,103.0,-321.0,186.0,763.0,-588.0,148.0,-247.0,574.0
19:34:30.141000,594.0,101.0,-371.0,198.0,789.0,-583.0,148.0,-247.0,574.0
19:34:30.145000,625.0,100.0,-436.0,210.0,837.0,-578.0,148.0,-247.0,574.0
19:34:30.151000,651.0,98.0,-495.0,212.0,884.0,-571.0,141.0,-238.0,553.0
19:34:30.155000,662.0,100.0,-520.0,169.0,929.0,-566.0,141.0,-238.0,553.0
19:34:30.160000,665.0,103.0,-528.0,112.0,974.0,-560.0,147.0,-238.0,550.0
19:34:30.165000,655.0,108.0,-519.0,83.0,992.0,-552.0,147.0,-238.0,550.0
19:34:30.169000,647.0,119.0,-514.0,78.0,997.0,-549.0,147.0,-238.0,550.0
19:34:30.174000,644.0,138.0,-536.0,91.0,1013.0,-542.0,150.0,-223.0,546.0
19:34:30.179000,637.0,161.0,-564.0,118.0,1026.0,-528.0,150.0,-223.0,546.0
19:34:30.184000,630.0,186.0,-560.0,118.0,1026.0,-528.0,126.0,-238.0,549.0
19:34:30.188000,626.0,212.0,-534.0,144.0,990.0,-507.0,126.0,-238.0,549.0
19:34:30.192000,632.0,242.0,-524.0,156.0,990.0,-507.0,126.0,-238.0,549.0
19:34:30.198000,644.0,279.0,-534.0,159.0,977.0,-503.0,139.0,-231.0,543.0
19:34:30.202000,660.0,326.0,-569.0,157.0,972.0,-503.0,139.0,-231.0,543.0
19:34:30.207000,672.0,358.0,-599.0,175.0,968.0,-493.0,127.0,-229.0,547.0
19:34:30.212000,688.0,389.0,-576.0,223.0,960.0,-483.0,127.0,-229.0,547.0
19:34:30.216000,702.0,426.0,-580.0,197.0,977.0,-486.0,127.0,-229.0,547.0
19:34:30.221000,701.0,469.0,-627.0,133.0,1016.0,-487.0,123.0,-223.0,537.0
19:34:30.226000,687.0,507.0,-648.0,154.0,1055.0,-482.0,123.0,-223.0,537.0
19:34:30.231000,660.0,532.0,-623.0,226.0,1091.0,-472.0,120.0,-216.0,538.0
19:34:30.235000,618.0,543.0,-572.0,297.0,1108.0,-462.0,120.0,-216.0,538.0
19:34:30.239000,618.0,543.0,-572.0,349.0,1127.0,-458.0,120.0,-216.0,538.0
19:34:30.245000,583.0,550.0,-546.0,392.0,1139.0,-456.0,120.0,-223.0,537.0
19:34:30.249000,548.0,547.0,-543.0,455.0,1115.0,-454.0,120.0,-223.0,537.0
19:34:30.254000,516.0,539.0,-540.0,528.0,1074.0,-459.0,111.0,-211.0,531.0
19:34:30.259000,498.0,519.0,-514.0,580.0,1041.0,-464.0,111.0,-211.0,531.0
19:34:30.263000,498.0,495.0,-481.0,601.0,1026.0,-463.0,111.0,-211.0,531.0
19:34:30.268000,497.0,466.0,-466.0,596.0,1024.0,-459.0,96.0,-217.0,522.0
19:34:30.273000,501.0,438.0,-452.0,565.0,1029.0,-455.0,96.0,-217.0,522.0
19:34:30.278000,501.0,413.0,-432.0,522.0,1055.0,-447.0,97.0,-214.0,532.0
19:34:30.282000,503.0,392.0,-436.0,495.0,1101.0,-431.0,97.0,-214.0,532.0
19:34:30.286000,498.0,373.0,-455.0,494.0,1118.0,-404.0,97.0,-214.0,532.0
19:34:30.292000,483.0,353.0,-469.0,507.0,1097.0,-371.0,90.0,-213.0,525.0
19:34:30.296000,463.0,334.0,-466.0,526.0,1061.0,-337.0,90.0,-213.0,525.0
19:34:30.301000,449.0,315.0,-451.0,526.0,1061.0,-337.0,82.0,-207.0,517.0
19:34:30.306000,443.0,301.0,-451.0,547.0,1022.0,-312.0,82.0,-207.0,517.0
19:34:30.319000,421.0,284.0,-551.0,584.0,1023.0,-272.0,75.0,-213.0,531.0
19:34:30.325000,413.0,289.0,-581.0,569.0,1035.0,-266.0,75.0,-213.0,531.0
19:34:30.329000,405.0,301.0,-609.0,533.0,1017.0,-267.0,75.0,-213.0,531.0
19:34:30.334000,399.0,322.0,-616.0,500.0,971.0,-276.0,81.0,-210.0,510.0
19:34:30.339000,396.0,343.0,-602.0,484.0,919.0,-288.0,81.0,-210.0,510.0
19:34:30.343000,396.0,343.0,-602.0,472.0,893.0,-296.0,81.0,-210.0,510.0
19:34:30.348000,395.0,361.0,-591.0,457.0,895.0,-299.0,75.0,-202.0,504.0
19:34:30.353000,390.0,374.0,-595.0,463.0,900.0,-300.0,75.0,-202.0,504.0
19:34:30.358000,384.0,378.0,-583.0,498.0,883.0,-301.0,67.0,-214.0,507.0
19:34:30.362000,380.0,372.0,-528.0,528.0,853.0,-303.0,67.0,-214.0,507.0
19:34:30.370000,387.0,350.0,-424.0,538.0,832.0,-299.0,57.0,-204.0,501.0
19:34:30.372000,387.0,350.0,-424.0,538.0,832.0,-299.0,57.0,-204.0,501.0
19:34:30.376000,389.0,336.0,-400.0,548.0,843.0,-285.0,57.0,-204.0,501.0
19:34:30.381000,391.0,320.0,-366.0,552.0,847.0,-264.0,54.0,-202.0,507.0
19:34:30.386000,384.0,303.0,-319.0,538.0,844.0,-238.0,54.0,-202.0,507.0
19:34:30.390000,375.0,285.0,-275.0,519.0,834.0,-212.0,52.0,-216.0,495.0
19:34:30.395000,361.0,270.0,-234.0,509.0,805.0,-187.0,52.0,-216.0,495.0
19:34:30.399000,350.0,254.0,-199.0,513.0,760.0,-166.0,52.0,-216.0,495.0
19:34:30.405000,350.0,233.0,-162.0,523.0,719.0,-149.0,46.0,-208.0,489.0
19:34:30.409000,359.0,215.0,-137.0,526.0,695.0,-134.0,46.0,-208.0,489.0
19:34:30.414000,375.0,197.0,-127.0,526.0,695.0,-134.0,49.0,-201.0,502.0
19:34:30.419000,392.0,182.0,-126.0,512.0,687.0,-119.0,49.0,-201.0,502.0
19:34:30.423000,403.0,168.0,-133.0,483.0,690.0,-105.0,49.0,-201.0,502.0
19:34:30.428000,406.0,153.0,-146.0,455.0,699.0,-94.0,52.0,-202.0,493.0
19:34:30.433000,424.0,135.0,-157.0,438.0,701.0,-90.0,52.0,-202.0,493.0
19:34:30.437000,436.0,121.0,-154.0,433.0,686.0,-87.0,45.0,-199.0,486.0
19:34:30.442000,440.0,110.0,-136.0,435.0,680.0,-85.0,45.0,-199.0,486.0
19:34:30.446000,440.0,110.0,-136.0,427.0,708.0,-88.0,45.0,-199.0,486.0
19:34:30.452000,442.0,91.0,-145.0,409.0,746.0,-91.0,43.0,-198.0,495.0
19:34:30.456000,442.0,91.0,-145.0,385.0,788.0,-93.0,43.0,-198.0,495.0
19:34:30.461000,442.0,82.0,-170.0,365.0,833.0,-97.0,22.0,-201.0,490.0
19:34:30.466000,424.0,60.0,-192.0,329.0,846.0,-107.0,22.0,-201.0,490.0
19:34:30.470000,413.0,42.0,-181.0,289.0,871.0,-115.0,22.0,-201.0,490.0
19:34:30.475000,403.0,23.0,-183.0,288.0,925.0,-110.0,43.0,-180.0,474.0
19:34:30.480000,369.0,0.0,-203.0,325.0,939.0,-107.0,43.0,-180.0,474.0
19:34:30.484000,352.0,-30.0,-201.0,371.0,883.0,-104.0,39.0,-196.0,469.0
19:34:30.489000,336.0,-68.0,-158.0,409.0,831.0,-96.0,39.0,-196.0,469.0
19:34:30.493000,336.0,-104.0,-126.0,422.0,840.0,-88.0,39.0,-196.0,469.0
19:34:30.499000,338.0,-137.0,-107.0,409.0,864.0,-78.0,42.0,-198.0,477.0
19:34:30.503000,330.0,-165.0,-105.0,388.0,885.0,-71.0,42.0,-198.0,477.0
19:34:30.508000,306.0,-182.0,-98.0,388.0,885.0,-71.0,40.0,-192.0,483.0
19:34:30.513000,286.0,-193.0,-68.0,368.0,883.0,-80.0,40.0,-192.0,483.0
19:34:30.517000,266.0,-194.0,-35.0,368.0,874.0,-92.0,40.0,-192.0,483.0
19:34:30.522000,245.0,-193.0,-19.0,350.0,874.0,-92.0,54.0,-193.0,469.0
19:34:30.527000,221.0,-189.0,-2.0,325.0,881.0,-99.0,54.0,-193.0,469.0
19:34:30.531000,200.0,-184.0,44.0,307.0,875.0,-105.0,37.0,-183.0,477.0
19:34:30.536000,164.0,-180.0,75.0,279.0,865.0,-104.0,37.0,-183.0,477.0
19:34:30.540000,127.0,-172.0,95.0,257.0,865.0,-95.0,37.0,-183.0,477.0
19:34:30.546000,94.0,-167.0,161.0,274.0,843.0,-89.0,49.0,-190.0,478.0
19:34:30.550000,55.0,-160.0,255.0,303.0,787.0,-86.0,49.0,-190.0,478.0
19:34:30.554000,55.0,-160.0,255.0,298.0,766.0,-82.0,52.0,-186.0,474.0
19:34:30.560000,-32.0,-167.0,340.0,294.0,777.0,-71.0,52.0,-186.0,474.0
19:34:30.564000,-32.0,-167.0,340.0,318.0,767.0,-54.0,52.0,-186.0,474.0
19:34:30.569000,-90.0,-184.0,424.0,343.0,762.0,-38.0,52.0,-183.0,478.0
19:34:30.574000,-147.0,-198.0,517.0,364.0,734.0,-30.0,52.0,-183.0,478.0
19:34:30.578000,-210.0,-212.0,593.0,390.0,682.0,-37.0,51.0,-184.0,474.0
19:34:30.583000,-255.0,-220.0,642.0,401.0,664.0,-50.0,51.0,-184.0,474.0
19:34:30.587000,-303.0,-222.0,665.0,391.0,686.0,-62.0,51.0,-184.0,474.0
19:34:30.593000,-357.0,-220.0,680.0,356.0,743.0,-77.0,63.0,-189.0,477.0
19:34:30.597000,-420.0,-218.0,676.0,303.0,798.0,-95.0,63.0,-189.0,477.0
19:34:30.602000,-470.0,-215.0,627.0,282.0,795.0,-115.0,49.0,-183.0,486.0
19:34:30.607000,-510.0,-217.0,579.0,310.0,733.0,-135.0,49.0,-183.0,486.0
19:34:30.611000,-515.0,-224.0,562.0,339.0,647.0,-158.0,49.0,-183.0,486.0
19:34:30.616000,-492.0,-232.0,525.0,345.0,591.0,-176.0,63.0,-190.0,486.0
19:34:30.621000,-455.0,-236.0,439.0,342.0,598.0,-186.0,63.0,-190.0,486.0
19:34:30.625000,-408.0,-235.0,306.0,342.0,598.0,-186.0,72.0,-190.0,495.0
19:34:30.630000,-343.0,-241.0,174.0,354.0,628.0,-194.0,72.0,-190.0,495.0
19:34:30.634000,-275.0,-242.0,54.0,377.0,645.0,-200.0,72.0,-190.0,495.0
19:34:30.640000,-208.0,-241.0,-80.0,374.0,663.0,-201.0,67.0,-187.0,495.0
19:34:30.644000,-131.0,-238.0,-191.0,285.0,731.0,-185.0,67.0,-187.0,495.0
19:34:30.649000,-56.0,-231.0,-301.0,285.0,731.0,-185.0,64.0,-178.0,493.0
19:34:30.654000,7.0,-219.0,-411.0,229.0,759.0,-168.0,64.0,-178.0,493.0
19:34:30.658000,70.0,-212.0,-485.0,211.0,772.0,-154.0,64.0,-178.0,493.0
19:34:30.663000,123.0,-202.0,-520.0,230.0,773.0,-142.0,70.0,-196.0,504.0
19:34:30.668000,161.0,-189.0,-542.0,267.0,798.0,-131.0,70.0,-196.0,504.0
19:34:30.672000,186.0,-175.0,-559.0,299.0,849.0,-126.0,64.0,-199.0,501.0
19:34:30.677000,186.0,-175.0,-559.0,326.0,917.0,-119.0,64.0,-199.0,501.0
19:34:30.681000,177.0,-156.0,-568.0,346.0,1009.0,-112.0,64.0,-199.0,501.0
19:34:30.687000,153.0,-141.0,-561.0,359.0,1086.0,-110.0,58.0,-193.0,501.0
19:34:30.691000,121.0,-132.0,-550.0,396.0,1096.0,-113.0,58.0,-193.0,501.0
19:34:30.696000,78.0,-126.0,-516.0,462.0,1052.0,-121.0,67.0,-211.0,514.0
19:34:30.701000,47.0,-125.0,-461.0,533.0,990.0,-140.0,67.0,-211.0,514.0
19:34:30.705000,34.0,-127.0,-394.0,586.0,943.0,-170.0,67.0,-211.0,514.0
19:34:30.710000,31.0,-127.0,-333.0,596.0,962.0,-194.0,61.0,-199.0,499.0
19:34:30.715000,32.0,-125.0,-288.0,560.0,1026.0,-203.0,61.0,-199.0,499.0
19:34:30.719000,16.0,-116.0,-254.0,502.0,1106.0,-205.0,60.0,-198.0,493.0
19:34:30.724000,-9.0,-98.0,-249.0,450.0,1173.0,-215.0,60.0,-198.0,493.0
19:34:30.728000,-37.0,-79.0,-247.0,413.0,1191.0,-224.0,60.0,-198.0,493.0
19:34:30.734000,-71.0,-58.0,-231.0,397.0,1192.0,-229.0,67.0,-204.0,508.0
19:34:30.738000,-95.0,-39.0,-210.0,391.0,1184.0,-241.0,67.0,-204.0,508.0
19:34:30.743000,-126.0,-17.0,-205.0,391.0,1184.0,-241.0,55.0,-211.0,508.0
19:34:30.748000,-151.0,2.0,-200.0,399.0,1192.0,-251.0,55.0,-211.0,508.0
19:34:30.752000,-178.0,30.0,-191.0,413.0,1191.0,-255.0,55.0,-211.0,508.0
19:34:30.757000,-195.0,53.0,-186.0,417.0,1146.0,-265.0,58.0,-210.0,507.0
19:34:30.762000,-196.0,74.0,-214.0,421.0,1103.0,-280.0,58.0,-210.0,507.0
19:34:30.766000,-190.0,92.0,-262.0,442.0,1066.0,-289.0,61.0,-207.0,501.0
19:34:30.770000,-190.0,92.0,-262.0,476.0,1039.0,-291.0,61.0,-207.0,501.0
19:34:30.775000,-175.0,103.0,-308.0,509.0,1018.0,-294.0,61.0,-207.0,501.0
19:34:30.781000,-105.0,105.0,-340.0,538.0,977.0,-294.0,55.0,-217.0,501.0
19:34:30.785000,-105.0,105.0,-340.0,563.0,930.0,-291.0,55.0,-217.0,501.0
19:34:30.790000,-70.0,103.0,-330.0,576.0,915.0,-293.0,49.0,-213.0,517.0
19:34:30.795000,-14.0,94.0,-346.0,589.0,901.0,-288.0,49.0,-213.0,517.0
19:34:30.799000,31.0,76.0,-352.0,614.0,880.0,-276.0,49.0,-213.0,517.0
19:34:30.804000,74.0,44.0,-297.0,627.0,883.0,-267.0,60.0,-216.0,508.0
19:34:30.809000,124.0,11.0,-198.0,616.0,902.0,-249.0,60.0,-216.0,508.0
19:34:30.813000,116.0,-9.0,-137.0,595.0,952.0,-241.0,48.0,-211.0,501.0
19:34:30.818000,133.0,-42.0,-109.0,608.0,976.0,-232.0,48.0,-211.0,501.0
19:34:30.822000,119.0,-65.0,-51.0,660.0,960.0,-224.0,48.0,-211.0,501.0
19:34:30.828000,111.0,-84.0,31.0,689.0,961.0,-196.0,52.0,-217.0,501.0
19:34:30.832000,112.0,-124.0,104.0,684.0,938.0,-195.0,52.0,-217.0,501.0
19:34:30.837000,92.0,-153.0,146.0,684.0,938.0,-195.0,51.0,-217.0,492.0
19:34:30.842000,77.0,-163.0,210.0,694.0,832.0,-192.0,51.0,-217.0,492.0
19:34:30.846000,65.0,-173.0,268.0,694.0,863.0,-192.0,51.0,-217.0,492.0
19:34:30.851000,53.0,-168.0,279.0,651.0,864.0,-196.0,55.0,-216.0,499.0
19:34:30.856000,22.0,-168.0,297.0,620.0,893.0,-217.0,55.0,-216.0,499.0
19:34:30.860000,-8.0,-169.0,306.0,600.0,887.0,-208.0,52.0,-217.0,505.0
19:34:30.865000,-33.0,-171.0,303.0,570.0,902.0,-201.0,52.0,-217.0,505.0
19:34:30.869000,-51.0,-172.0,282.0,534.0,923.0,-221.0,52.0,-217.0,505.0
19:34:30.875000,-69.0,-177.0,261.0,486.0,937.0,-224.0,64.0,-210.0,508.0
19:34:30.879000,-73.0,-184.0,258.0,448.0,935.0,-205.0,64.0,-210.0,508.0
19:34:30.884000,-93.0,-181.0,280.0,458.0,864.0,-204.0,55.0,-211.0,504.0
19:34:30.889000,-95.0,-192.0,299.0,497.0,775.0,-200.0,55.0,-211.0,504.0
19:34:30.893000,-95.0,-192.0,299.0,525.0,697.0,-191.0,55.0,-211.0,504.0
19:34:30.898000,-99.0,-202.0,331.0,541.0,626.0,-196.0,58.0,-208.0,508.0
19:34:30.903000,-85.0,-200.0,371.0,557.0,604.0,-211.0,58.0,-208.0,508.0
19:34:30.907000,-43.0,-203.0,389.0,549.0,636.0,-218.0,75.0,-220.0,505.0
19:34:30.912000,-17.0,-205.0,382.0,514.0,687.0,-225.0,75.0,-220.0,505.0
19:34:30.916000,-11.0,-199.0,367.0,472.0,750.0,-236.0,75.0,-220.0,505.0
19:34:30.921000,-19.0,-189.0,359.0,443.0,798.0,-244.0,73.0,-205.0,507.0
19:34:30.926000,-21.0,-185.0,343.0,455.0,775.0,-253.0,73.0,-205.0,507.0
19:34:30.931000,-41.0,-169.0,307.0,504.0,721.0,-265.0,54.0,-211.0,526.0
19:34:30.936000,-54.0,-153.0,319.0,522.0,725.0,-282.0,54.0,-211.0,526.0
19:34:30.940000,-44.0,-147.0,338.0,478.0,787.0,-298.0,54.0,-211.0,526.0
19:34:30.945000,-43.0,-141.0,327.0,402.0,884.0,-309.0,81.0,-210.0,516.0
19:34:30.950000,-44.0,-137.0,273.0,335.0,956.0,-320.0,81.0,-210.0,516.0
19:34:30.954000,-47.0,-133.0,209.0,335.0,956.0,-320.0,73.0,-211.0,505.0
19:34:30.959000,-45.0,-130.0,163.0,299.0,972.0,-330.0,73.0,-211.0,505.0
19:34:30.963000,-32.0,-130.0,141.0,296.0,947.0,-338.0,73.0,-211.0,505.0
19:34:30.968000,-23.0,-132.0,157.0,332.0,866.0,-341.0,73.0,-210.0,520.0
19:34:30.973000,-16.0,-133.0,196.0,372.0,797.0,-342.0,73.0,-210.0,520.0
19:34:30.978000,0.0,-138.0,231.0,385.0,793.0,-349.0,82.0,-205.0,511.0
19:34:30.983000,5.0,-144.0,238.0,385.0,831.0,-354.0,82.0,-205.0,511.0
19:34:30.987000,9.0,-152.0,214.0,382.0,898.0,-354.0,82.0,-205.0,511.0
19:34:30.992000,-4.0,-158.0,188.0,386.0,956.0,-351.0,87.0,-208.0,517.0
19:34:30.997000,-23.0,-171.0,201.0,407.0,950.0,-338.0,87.0,-208.0,517.0
19:34:31.001000,-27.0,-177.0,241.0,432.0,894.0,-340.0,81.0,-211.0,528.0
19:34:31.005000,-27.0,-177.0,241.0,448.0,850.0,-350.0,81.0,-211.0,528.0
19:34:31.010000,-23.0,-186.0,250.0,453.0,851.0,-351.0,81.0,-211.0,528.0
19:34:31.015000,-20.0,-193.0,226.0,452.0,887.0,-354.0,85.0,-207.0,514.0
19:34:31.020000,-18.0,-203.0,202.0,430.0,930.0,-355.0,85.0,-207.0,514.0
19:34:31.025000,-23.0,-209.0,187.0,374.0,964.0,-366.0,84.0,-207.0,522.0
19:34:31.030000,-28.0,-213.0,153.0,336.0,983.0,-379.0,84.0,-207.0,522.0
19:34:31.034000,-33.0,-217.0,130.0,324.0,982.0,-370.0,84.0,-207.0,522.0
19:34:31.039000,-44.0,-231.0,145.0,290.0,983.0,-366.0,91.0,-207.0,522.0
19:34:31.044000,-52.0,-243.0,135.0,258.0,991.0,-371.0,91.0,-207.0,522.0
19:34:31.048000,-39.0,-254.0,95.0,273.0,974.0,-366.0,91.0,-204.0,520.0
19:34:31.053000,-29.0,-261.0,81.0,308.0,954.0,-365.0,91.0,-204.0,520.0
19:34:31.057000,-23.0,-267.0,108.0,301.0,981.0,-367.0,91.0,-204.0,520.0
19:34:31.062000,-13.0,-271.0,107.0,272.0,1037.0,-368.0,90.0,-211.0,540.0
19:34:31.067000,-6.0,-271.0,59.0,272.0,1037.0,-368.0,90.0,-211.0,540.0
19:34:31.072000,4.0,-274.0,5.0,262.0,1080.0,-371.0,90.0,-211.0,540.0
19:34:31.077000,10.0,-278.0,-23.0,267.0,1092.0,-370.0,90.0,-211.0,540.0
19:34:31.081000,15.0,-282.0,-40.0,270.0,1076.0,-365.0,90.0,-211.0,540.0
19:34:31.086000,24.0,-282.0,-60.0,274.0,1044.0,-364.0,109.0,-205.0,525.0
19:34:31.091000,42.0,-288.0,-77.0,283.0,1008.0,-361.0,109.0,-205.0,525.0
19:34:31.095000,55.0,-301.0,-114.0,304.0,990.0,-345.0,100.0,-220.0,526.0
19:34:31.100000,61.0,-308.0,-160.0,352.0,984.0,-330.0,100.0,-220.0,526.0
19:34:31.104000,61.0,-308.0,-160.0,415.0,977.0,-323.0,100.0,-220.0,526.0
19:34:31.109000,72.0,-328.0,-128.0,454.0,975.0,-318.0,97.0,-201.0,529.0
19:34:31.114000,72.0,-328.0,-128.0,445.0,989.0,-312.0,97.0,-201.0,529.0
19:34:31.119000,71.0,-336.0,-129.0,411.0,1013.0,-304.0,111.0,-205.0,526.0
19:34:31.124000,54.0,-340.0,-179.0,400.0,1014.0,-302.0,111.0,-205.0,526.0
19:34:31.128000,47.0,-343.0,-215.0,416.0,978.0,-304.0,111.0,-205.0,526.0
19:34:31.133000,44.0,-342.0,-198.0,423.0,925.0,-311.0,118.0,-210.0,522.0
19:34:31.138000,52.0,-334.0,-175.0,393.0,915.0,-318.0,118.0,-210.0,522.0
19:34:31.142000,67.0,-326.0,-198.0,372.0,927.0,-317.0,111.0,-208.0,520.0
19:34:31.147000,56.0,-315.0,-229.0,400.0,921.0,-326.0,111.0,-208.0,520.0
19:34:31.151000,56.0,-302.0,-212.0,441.0,919.0,-335.0,111.0,-208.0,520.0
19:34:31.156000,58.0,-293.0,-184.0,462.0,932.0,-336.0,100.0,-211.0,531.0
19:34:31.161000,55.0,-290.0,-182.0,460.0,917.0,-339.0,100.0,-211.0,531.0
19:34:31.166000,18.0,-282.0,-192.0,460.0,917.0,-339.0,114.0,-214.0,532.0
19:34:31.171000,16.0,-281.0,-189.0,414.0,892.0,-343.0,114.0,-214.0,532.0
19:34:31.175000,-1.0,-280.0,-182.0,414.0,892.0,-343.0,114.0,-214.0,532.0
19:34:31.180000,-13.0,-284.0,-205.0,422.0,914.0,-338.0,103.0,-208.0,520.0
19:34:31.185000,-18.0,-292.0,-266.0,436.0,951.0,-338.0,103.0,-208.0,520.0
19:34:31.189000,-28.0,-294.0,-324.0,454.0,956.0,-338.0,111.0,-208.0,531.0
19:34:31.194000,-35.0,-303.0,-336.0,493.0,922.0,-334.0,111.0,-208.0,531.0
19:34:31.201000,-33.0,-319.0,-322.0,544.0,832.0,-320.0,103.0,-208.0,532.0
19:34:31.203000,-37.0,-322.0,-310.0,544.0,832.0,-320.0,103.0,-208.0,532.0
19:34:31.208000,-37.0,-322.0,-310.0,511.0,809.0,-336.0,103.0,-208.0,532.0
19:34:31.213000,-5.0,-322.0,-369.0,489.0,835.0,-320.0,106.0,-210.0,526.0
19:34:31.218000,-11.0,-324.0,-402.0,500.0,855.0,-303.0,106.0,-210.0,526.0
19:34:31.222000,-11.0,-324.0,-402.0,526.0,863.0,-296.0,105.0,-205.0,522.0
19:34:31.227000,-9.0,-331.0,-406.0,547.0,863.0,-298.0,105.0,-205.0,522.0
19:34:31.231000,-19.0,-330.0,-380.0,556.0,851.0,-285.0,105.0,-205.0,522.0
19:34:31.236000,-18.0,-331.0,-357.0,567.0,865.0,-271.0,118.0,-214.0,543.0
19:34:31.241000,-16.0,-336.0,-361.0,575.0,892.0,-271.0,118.0,-214.0,543.0
19:34:31.246000,-22.0,-329.0,-363.0,552.0,923.0,-265.0,105.0,-204.0,543.0
19:34:31.250000,-31.0,-327.0,-348.0,512.0,963.0,-252.0,105.0,-204.0,543.0
19:34:31.255000,-58.0,-318.0,-364.0,471.0,991.0,-262.0,105.0,-204.0,543.0
19:34:31.260000,-65.0,-305.0,-381.0,436.0,977.0,-269.0,120.0,-222.0,540.0
19:34:31.265000,-74.0,-289.0,-380.0,428.0,928.0,-270.0,120.0,-222.0,540.0
19:34:31.269000,-65.0,-270.0,-354.0,420.0,884.0,-273.0,117.0,-219.0,531.0
