hh:mm:ss.ms,gyroX[mdps],gyroY[mdps],gyroZ[mdps],accX[mg],accY[mg],accZ[mg],magX[mG],magY[mG],magZ[mG]
19:35:11.343000,-546.0,-104.0,399.0,256.0,713.0,-217.0,42.0,-153.0,421.0
19:35:11.348000,-560.0,-93.0,377.0,256.0,730.0,-243.0,52.0,-148.0,418.0
19:35:11.353000,-564.0,-82.0,349.0,248.0,730.0,-243.0,52.0,-148.0,418.0
19:35:11.357000,-563.0,-72.0,306.0,269.0,749.0,-290.0,52.0,-151.0,436.0
19:35:11.362000,-550.0,-60.0,244.0,269.0,749.0,-290.0,52.0,-151.0,436.0
19:35:11.367000,-525.0,-54.0,179.0,298.0,746.0,-310.0,52.0,-151.0,436.0
19:35:11.372000,-492.0,-46.0,116.0,333.0,732.0,-328.0,30.0,-153.0,435.0
19:35:11.377000,-451.0,-33.0,57.0,364.0,720.0,-349.0,30.0,-153.0,435.0
19:35:11.381000,-402.0,-22.0,0.0,381.0,725.0,-365.0,48.0,-162.0,436.0
19:35:11.386000,-352.0,-14.0,-59.0,380.0,741.0,-371.0,48.0,-162.0,436.0
19:35:11.390000,-352.0,-14.0,-59.0,368.0,761.0,-371.0,48.0,-162.0,436.0
19:35:11.395000,-265.0,16.0,-156.0,345.0,788.0,-369.0,51.0,-154.0,438.0
19:35:11.400000,-265.0,16.0,-156.0,310.0,835.0,-368.0,51.0,-154.0,438.0
19:35:11.404000,-224.0,42.0,-214.0,273.0,886.0,-358.0,42.0,-159.0,445.0
19:35:11.409000,-191.0,63.0,-265.0,251.0,917.0,-342.0,42.0,-159.0,445.0
19:35:11.414000,-163.0,86.0,-294.0,258.0,928.0,-333.0,42.0,-159.0,445.0
19:35:11.419000,-135.0,107.0,-301.0,285.0,922.0,-320.0,45.0,-172.0,442.0
19:35:11.424000,-107.0,122.0,-306.0,334.0,915.0,-306.0,45.0,-172.0,442.0
19:35:11.428000,-78.0,130.0,-315.0,405.0,909.0,-294.0,52.0,-159.0,433.0
19:35:11.433000,-50.0,130.0,-330.0,476.0,918.0,-280.0,52.0,-159.0,433.0
19:35:11.437000,-30.0,121.0,-346.0,539.0,924.0,-277.0,52.0,-159.0,433.0
19:35:11.442000,-15.0,118.0,-353.0,592.0,926.0,-276.0,43.0,-165.0,432.0
19:35:11.446000,-11.0,113.0,-352.0,631.0,958.0,-278.0,43.0,-165.0,432.0
19:35:11.452000,-17.0,107.0,-337.0,655.0,1016.0,-302.0,42.0,-174.0,436.0
19:35:11.456000,-19.0,105.0,-327.0,643.0,1097.0,-313.0,42.0,-174.0,436.0
19:35:11.461000,-25.0,96.0,-326.0,643.0,1097.0,-313.0,39.0,-183.0,441.0
19:35:11.466000,-37.0,94.0,-349.0,593.0,1178.0,-313.0,39.0,-183.0,441.0
19:35:11.470000,-56.0,94.0,-377.0,533.0,1224.0,-328.0,39.0,-183.0,441.0
19:35:11.475000,-67.0,81.0,-375.0,494.0,1256.0,-335.0,36.0,-177.0,436.0
19:35:11.480000,-85.0,70.0,-343.0,474.0,1273.0,-338.0,36.0,-177.0,436.0
19:35:11.485000,-94.0,65.0,-300.0,442.0,1267.0,-351.0,31.0,-174.0,430.0
19:35:11.489000,-103.0,65.0,-246.0,396.0,1238.0,-355.0,31.0,-174.0,430.0
19:35:11.493000,-103.0,65.0,-246.0,378.0,1214.0,-346.0,31.0,-174.0,430.0
19:35:11.499000,-116.0,51.0,-157.0,415.0,1194.0,-322.0,33.0,-180.0,433.0
19:35:11.503000,-94.0,65.0,-152.0,464.0,1202.0,-331.0,33.0,-180.0,433.0
19:35:11.508000,-94.0,65.0,-152.0,504.0,1217.0,-327.0,30.0,-168.0,436.0
19:35:11.513000,-97.0,63.0,-151.0,525.0,1168.0,-284.0,30.0,-168.0,436.0
19:35:11.517000,-91.0,51.0,-142.0,551.0,1122.0,-286.0,30.0,-168.0,436.0
19:35:11.522000,-74.0,49.0,-102.0,549.0,1090.0,-260.0,36.0,-181.0,441.0
19:35:11.527000,-81.0,42.0,-81.0,477.0,1090.0,-255.0,36.0,-181.0,441.0
19:35:11.532000,-35.0,56.0,-102.0,389.0,1160.0,-256.0,33.0,-190.0,445.0
19:35:11.536000,-8.0,48.0,-137.0,345.0,1225.0,-223.0,33.0,-190.0,445.0
19:35:11.544000,-14.0,81.0,-146.0,283.0,1262.0,-199.0,15.0,-183.0,454.0
19:35:11.546000,-14.0,81.0,-146.0,283.0,1262.0,-199.0,15.0,-183.0,454.0
19:35:11.550000,-13.0,100.0,-172.0,314.0,1246.0,-175.0,15.0,-183.0,454.0
19:35:11.555000,-30.0,100.0,-160.0,366.0,1164.0,-160.0,30.0,-190.0,438.0
19:35:11.560000,-11.0,100.0,-107.0,388.0,1108.0,-165.0,30.0,-190.0,438.0
19:35:11.565000,16.0,101.0,-60.0,388.0,1108.0,-165.0,31.0,-181.0,429.0
19:35:11.569000,23.0,85.0,-98.0,368.0,1103.0,-156.0,31.0,-181.0,429.0
19:35:11.573000,18.0,77.0,-156.0,342.0,1129.0,-149.0,31.0,-181.0,429.0
19:35:11.579000,25.0,69.0,-189.0,363.0,1180.0,-159.0,16.0,-189.0,436.0
19:35:11.583000,29.0,37.0,-207.0,407.0,1210.0,-158.0,16.0,-189.0,436.0
19:35:11.587000,36.0,3.0,-211.0,437.0,1199.0,-163.0,22.0,-183.0,439.0
19:35:11.593000,19.0,-15.0,-194.0,437.0,1199.0,-163.0,22.0,-183.0,439.0
19:35:11.597000,31.0,-40.0,-198.0,414.0,1185.0,-161.0,22.0,-183.0,439.0
19:35:11.602000,36.0,-57.0,-208.0,413.0,1140.0,-161.0,24.0,-187.0,439.0
19:35:11.607000,16.0,-70.0,-198.0,457.0,1098.0,-152.0,24.0,-187.0,439.0
19:35:11.612000,11.0,-90.0,-171.0,501.0,1085.0,-139.0,15.0,-193.0,442.0
19:35:11.616000,11.0,-90.0,-171.0,518.0,1057.0,-129.0,15.0,-193.0,442.0
19:35:11.620000,8.0,-116.0,-128.0,522.0,1011.0,-129.0,15.0,-193.0,442.0
19:35:11.626000,-3.0,-123.0,-102.0,509.0,979.0,-138.0,21.0,-184.0,444.0
19:35:11.630000,-18.0,-128.0,-86.0,483.0,975.0,-134.0,21.0,-184.0,444.0
19:35:11.635000,-27.0,-137.0,-49.0,453.0,952.0,-131.0,19.0,-186.0,444.0
19:35:11.640000,-32.0,-147.0,-8.0,423.0,894.0,-135.0,19.0,-186.0,444.0
19:35:11.644000,-43.0,-151.0,20.0,422.0,867.0,-139.0,19.0,-186.0,444.0
19:35:11.649000,-60.0,-156.0,28.0,440.0,872.0,-147.0,21.0,-196.0,438.0
19:35:11.654000,-70.0,-165.0,32.0,467.0,887.0,-159.0,21.0,-196.0,438.0
19:35:11.659000,-85.0,-170.0,9.0,508.0,842.0,-170.0,22.0,-195.0,441.0
19:35:11.663000,-90.0,-175.0,9.0,508.0,720.0,-164.0,22.0,-195.0,441.0
19:35:11.667000,-97.0,-191.0,70.0,591.0,691.0,-166.0,22.0,-195.0,441.0
19:35:11.673000,-80.0,-210.0,37.0,456.0,819.0,-177.0,28.0,-190.0,444.0
19:35:11.677000,-98.0,-211.0,-81.0,456.0,830.0,-177.0,28.0,-190.0,444.0
19:35:11.681000,-133.0,-215.0,-61.0,535.0,707.0,-170.0,16.0,-180.0,459.0
19:35:11.687000,-129.0,-210.0,23.0,535.0,707.0,-170.0,16.0,-180.0,459.0
19:35:11.691000,-110.0,-210.0,68.0,605.0,607.0,-174.0,16.0,-180.0,459.0
19:35:11.696000,-91.0,-196.0,6.0,611.0,562.0,-179.0,27.0,-189.0,442.0
19:35:11.701000,-77.0,-184.0,-73.0,559.0,596.0,-186.0,27.0,-189.0,442.0
19:35:11.706000,-62.0,-189.0,-81.0,537.0,635.0,-183.0,24.0,-187.0,451.0
19:35:11.710000,-42.0,-193.0,-69.0,507.0,635.0,-190.0,24.0,-187.0,451.0
19:35:11.714000,-42.0,-193.0,-69.0,429.0,668.0,-207.0,24.0,-187.0,451.0
19:35:11.720000,-16.0,-176.0,-114.0,408.0,696.0,-220.0,22.0,-189.0,442.0
19:35:11.724000,-16.0,-176.0,-114.0,460.0,672.0,-229.0,22.0,-189.0,442.0
19:35:11.728000,-11.0,-168.0,-114.0,488.0,670.0,-235.0,27.0,-190.0,457.0
19:35:11.734000,-8.0,-166.0,-102.0,484.0,690.0,-243.0,27.0,-190.0,457.0
19:35:11.738000,-4.0,-163.0,-93.0,483.0,740.0,-255.0,27.0,-190.0,457.0
19:35:11.743000,14.0,-162.0,-101.0,502.0,755.0,-248.0,18.0,-186.0,450.0
19:35:11.748000,3.0,-161.0,-100.0,522.0,742.0,-245.0,18.0,-186.0,450.0
19:35:11.753000,10.0,-170.0,-79.0,507.0,772.0,-258.0,34.0,-189.0,453.0
19:35:11.757000,26.0,-171.0,-77.0,467.0,825.0,-270.0,34.0,-189.0,453.0
19:35:11.761000,37.0,-176.0,-93.0,425.0,876.0,-270.0,34.0,-189.0,453.0
19:35:11.767000,28.0,-181.0,-85.0,379.0,907.0,-270.0,24.0,-190.0,459.0
19:35:11.771000,33.0,-181.0,-62.0,335.0,913.0,-277.0,24.0,-190.0,459.0
19:35:11.775000,31.0,-181.0,-41.0,316.0,876.0,-276.0,39.0,-192.0,457.0
19:35:11.781000,28.0,-182.0,-9.0,331.0,813.0,-274.0,39.0,-192.0,457.0
19:35:11.785000,29.0,-182.0,48.0,363.0,762.0,-275.0,39.0,-192.0,457.0
19:35:11.790000,29.0,-179.0,112.0,363.0,762.0,-275.0,21.0,-190.0,456.0
19:35:11.795000,27.0,-175.0,152.0,383.0,756.0,-280.0,21.0,-190.0,456.0
19:35:11.800000,16.0,-165.0,156.0,379.0,798.0,-287.0,30.0,-190.0,453.0
19:35:11.804000,-4.0,-156.0,140.0,369.0,859.0,-290.0,30.0,-190.0,453.0
19:35:11.808000,-33.0,-144.0,123.0,361.0,898.0,-293.0,30.0,-190.0,453.0
19:35:11.814000,-59.0,-130.0,102.0,350.0,898.0,-299.0,30.0,-192.0,447.0
19:35:11.818000,-66.0,-107.0,65.0,342.0,872.0,-313.0,30.0,-192.0,447.0
19:35:11.822000,-66.0,-107.0,65.0,336.0,837.0,-329.0,18.0,-186.0,480.0
19:35:11.828000,-53.0,-45.0,-43.0,320.0,818.0,-340.0,18.0,-186.0,480.0
19:35:11.832000,-53.0,-45.0,-43.0,301.0,815.0,-348.0,18.0,-186.0,480.0
19:35:11.837000,-44.0,-15.0,-87.0,289.0,807.0,-356.0,31.0,-192.0,453.0
19:35:11.842000,-35.0,18.0,-123.0,284.0,794.0,-363.0,31.0,-192.0,453.0
19:35:11.847000,-19.0,45.0,-154.0,292.0,779.0,-365.0,37.0,-192.0,459.0
19:35:11.851000,7.0,64.0,-184.0,317.0,770.0,-366.0,37.0,-192.0,459.0
19:35:11.855000,41.0,73.0,-212.0,343.0,777.0,-365.0,37.0,-192.0,459.0
19:35:11.861000,74.0,73.0,-246.0,361.0,803.0,-364.0,31.0,-196.0,462.0
19:35:11.865000,105.0,70.0,-284.0,373.0,835.0,-366.0,31.0,-196.0,462.0
19:35:11.869000,130.0,65.0,-317.0,382.0,868.0,-370.0,27.0,-190.0,460.0
19:35:11.875000,153.0,63.0,-354.0,389.0,911.0,-368.0,27.0,-190.0,460.0
19:35:11.879000,163.0,54.0,-385.0,386.0,951.0,-365.0,27.0,-190.0,460.0
19:35:11.884000,156.0,48.0,-385.0,365.0,985.0,-364.0,28.0,-193.0,451.0
19:35:11.889000,142.0,49.0,-389.0,339.0,1009.0,-364.0,28.0,-193.0,451.0
19:35:11.894000,120.0,58.0,-393.0,339.0,1009.0,-364.0,22.0,-189.0,456.0
19:35:11.898000,101.0,65.0,-381.0,331.0,1009.0,-362.0,22.0,-189.0,456.0
19:35:11.902000,88.0,74.0,-353.0,336.0,981.0,-358.0,22.0,-189.0,456.0
19:35:11.908000,84.0,84.0,-329.0,344.0,948.0,-355.0,25.0,-192.0,457.0
19:35:11.912000,84.0,93.0,-320.0,354.0,942.0,-350.0,25.0,-192.0,457.0
19:35:11.916000,85.0,98.0,-314.0,365.0,931.0,-339.0,22.0,-201.0,454.0
19:35:11.922000,86.0,100.0,-303.0,394.0,931.0,-328.0,22.0,-201.0,454.0
19:35:11.926000,89.0,98.0,-298.0,437.0,899.0,-318.0,22.0,-201.0,454.0
19:35:11.931000,100.0,88.0,-294.0,478.0,860.0,-310.0,21.0,-202.0,463.0
19:35:11.936000,113.0,76.0,-284.0,511.0,820.0,-304.0,21.0,-202.0,463.0
19:35:11.941000,120.0,63.0,-274.0,530.0,799.0,-299.0,21.0,-204.0,457.0
19:35:11.945000,120.0,63.0,-274.0,544.0,799.0,-294.0,21.0,-204.0,457.0
19:35:11.949000,122.0,52.0,-280.0,560.0,799.0,-287.0,21.0,-204.0,457.0
19:35:11.955000,123.0,37.0,-305.0,583.0,775.0,-277.0,25.0,-198.0,442.0
19:35:11.959000,128.0,21.0,-315.0,612.0,726.0,-269.0,25.0,-198.0,442.0
19:35:11.963000,136.0,1.0,-304.0,629.0,697.0,-261.0,3.0,-198.0,471.0
19:35:11.969000,144.0,-16.0,-292.0,629.0,707.0,-255.0,3.0,-198.0,471.0
19:35:11.973000,150.0,-32.0,-295.0,620.0,732.0,-246.0,3.0,-198.0,471.0
19:35:11.978000,152.0,-49.0,-308.0,609.0,756.0,-237.0,15.0,-205.0,453.0
19:35:11.983000,147.0,-65.0,-324.0,590.0,782.0,-233.0,15.0,-205.0,453.0
19:35:11.988000,138.0,-79.0,-340.0,568.0,804.0,-229.0,22.0,-195.0,451.0
19:35:11.992000,126.0,-97.0,-357.0,550.0,809.0,-228.0,22.0,-195.0,451.0
19:35:11.996000,111.0,-109.0,-375.0,543.0,800.0,-229.0,22.0,-195.0,451.0
19:35:12.002000,100.0,-123.0,-383.0,555.0,770.0,-227.0,12.0,-204.0,456.0
19:35:12.006000,92.0,-136.0,-381.0,555.0,770.0,-227.0,12.0,-204.0,456.0
19:35:12.010000,95.0,-150.0,-367.0,628.0,668.0,-221.0,18.0,-193.0,453.0
19:35:12.016000,102.0,-165.0,-340.0,628.0,668.0,-221.0,18.0,-193.0,453.0
19:35:12.020000,109.0,-178.0,-301.0,669.0,636.0,-216.0,4.0,-199.0,450.0
19:35:12.025000,113.0,-188.0,-270.0,691.0,636.0,-208.0,4.0,-199.0,450.0
19:35:12.029000,116.0,-199.0,-266.0,689.0,666.0,-201.0,4.0,-199.0,450.0
19:35:12.035000,129.0,-220.0,-264.0,679.0,697.0,-196.0,7.0,-201.0,450.0
19:35:12.039000,110.0,-214.0,-263.0,678.0,723.0,-198.0,7.0,-201.0,450.0
19:35:12.044000,91.0,-236.0,-264.0,662.0,750.0,-185.0,13.0,-204.0,447.0
19:35:12.049000,41.0,-234.0,-272.0,646.0,762.0,-171.0,13.0,-204.0,447.0
19:35:12.053000,41.0,-234.0,-272.0,655.0,789.0,-179.0,13.0,-204.0,447.0
19:35:12.058000,9.0,-245.0,-285.0,625.0,831.0,-191.0,18.0,-204.0,459.0
19:35:12.063000,-27.0,-240.0,-295.0,592.0,825.0,-180.0,18.0,-204.0,459.0
19:35:12.067000,-79.0,-258.0,-249.0,613.0,790.0,-193.0,13.0,-213.0,454.0
19:35:12.072000,-106.0,-258.0,-214.0,627.0,767.0,-226.0,13.0,-213.0,454.0
19:35:12.076000,-121.0,-266.0,-217.0,625.0,748.0,-234.0,13.0,-213.0,454.0
19:35:12.082000,-126.0,-273.0,-218.0,605.0,729.0,-235.0,16.0,-210.0,459.0
19:35:12.086000,-107.0,-286.0,-202.0,573.0,701.0,-269.0,16.0,-210.0,459.0
19:35:12.091000,-112.0,-256.0,-193.0,549.0,684.0,-297.0,18.0,-208.0,456.0
19:35:12.096000,-86.0,-266.0,-182.0,531.0,673.0,-294.0,18.0,-208.0,456.0
19:35:12.100000,-81.0,-256.0,-175.0,524.0,678.0,-311.0,18.0,-208.0,456.0
19:35:12.105000,-52.0,-257.0,-179.0,536.0,694.0,-318.0,15.0,-223.0,462.0
19:35:12.110000,-40.0,-254.0,-178.0,552.0,715.0,-320.0,15.0,-223.0,462.0
19:35:12.114000,-27.0,-250.0,-180.0,552.0,715.0,-320.0,7.0,-205.0,465.0
19:35:12.119000,-31.0,-243.0,-205.0,562.0,762.0,-325.0,7.0,-205.0,465.0
19:35:12.123000,-10.0,-235.0,-249.0,575.0,827.0,-332.0,7.0,-205.0,465.0
19:35:12.128000,-60.0,-241.0,-298.0,584.0,862.0,-300.0,15.0,-219.0,463.0
19:35:12.133000,-58.0,-230.0,-310.0,604.0,875.0,-310.0,15.0,-219.0,463.0
19:35:12.138000,-88.0,-231.0,-306.0,611.0,874.0,-313.0,13.0,-219.0,469.0
19:35:12.143000,-81.0,-228.0,-301.0,589.0,871.0,-285.0,13.0,-219.0,469.0
19:35:12.150000,-90.0,-214.0,-303.0,524.0,908.0,-312.0,19.0,-225.0,472.0
19:35:12.152000,-84.0,-212.0,-303.0,524.0,908.0,-312.0,19.0,-225.0,472.0
19:35:12.156000,-84.0,-212.0,-303.0,508.0,940.0,-313.0,19.0,-225.0,472.0
19:35:12.161000,-89.0,-194.0,-280.0,493.0,976.0,-310.0,22.0,-216.0,471.0
19:35:12.166000,-89.0,-194.0,-280.0,467.0,1015.0,-301.0,22.0,-216.0,471.0
19:35:12.171000,-94.0,-179.0,-275.0,444.0,1055.0,-302.0,15.0,-222.0,468.0
19:35:12.176000,-95.0,-166.0,-275.0,433.0,1095.0,-303.0,15.0,-222.0,468.0
19:35:12.180000,-87.0,-149.0,-271.0,421.0,1133.0,-300.0,15.0,-222.0,468.0
19:35:12.185000,-77.0,-137.0,-261.0,409.0,1156.0,-288.0,9.0,-225.0,472.0
19:35:12.190000,-79.0,-138.0,-241.0,404.0,1141.0,-279.0,9.0,-225.0,472.0
19:35:12.194000,-119.0,-109.0,-211.0,409.0,1121.0,-279.0,19.0,-226.0,463.0
19:35:12.199000,-103.0,-105.0,-175.0,414.0,1102.0,-279.0,19.0,-226.0,463.0
19:35:12.203000,-93.0,-90.0,-145.0,433.0,1048.0,-280.0,19.0,-226.0,463.0
19:35:12.208000,-86.0,-81.0,-115.0,467.0,991.0,-284.0,0.0,-231.0,484.0
19:35:12.213000,-53.0,-74.0,-71.0,493.0,948.0,-279.0,0.0,-231.0,484.0
19:35:12.218000,-41.0,-68.0,-29.0,493.0,948.0,-279.0,13.0,-234.0,474.0
19:35:12.223000,-3.0,-71.0,6.0,544.0,919.0,-269.0,13.0,-234.0,474.0
19:35:12.227000,21.0,-70.0,34.0,544.0,919.0,-269.0,13.0,-234.0,474.0
19:35:12.232000,41.0,-76.0,59.0,581.0,898.0,-249.0,25.0,-229.0,465.0
19:35:12.237000,67.0,-91.0,93.0,618.0,871.0,-232.0,25.0,-229.0,465.0
19:35:12.241000,86.0,-102.0,132.0,674.0,818.0,-208.0,18.0,-226.0,481.0
19:35:12.246000,102.0,-116.0,171.0,674.0,818.0,-208.0,18.0,-226.0,481.0
19:35:12.250000,107.0,-134.0,203.0,698.0,810.0,-189.0,18.0,-226.0,481.0
19:35:12.255000,90.0,-152.0,223.0,723.0,817.0,-163.0,16.0,-223.0,465.0
19:35:12.260000,53.0,-173.0,235.0,762.0,824.0,-133.0,16.0,-223.0,465.0
19:35:12.265000,-11.0,-186.0,240.0,818.0,810.0,-96.0,22.0,-231.0,475.0
19:35:12.270000,-35.0,-168.0,248.0,895.0,784.0,-94.0,22.0,-231.0,475.0
19:35:12.274000,-35.0,-168.0,248.0,982.0,760.0,-92.0,22.0,-231.0,475.0
19:35:12.279000,-82.0,-156.0,244.0,1070.0,724.0,-81.0,19.0,-232.0,478.0
19:35:12.284000,-129.0,-119.0,240.0,1151.0,666.0,-103.0,19.0,-232.0,478.0
19:35:12.288000,-153.0,-65.0,255.0,1182.0,611.0,-142.0,25.0,-226.0,487.0
19:35:12.293000,-175.0,28.0,287.0,1115.0,605.0,-189.0,25.0,-226.0,487.0
19:35:12.297000,-187.0,103.0,336.0,875.0,627.0,-122.0,25.0,-226.0,487.0
19:35:12.302000,-240.0,24.0,359.0,495.0,615.0,-148.0,25.0,-220.0,484.0
19:35:12.307000,-220.0,69.0,394.0,128.0,694.0,-251.0,25.0,-220.0,484.0
19:35:12.312000,-120.0,57.0,448.0,-152.0,887.0,-192.0,28.0,-228.0,484.0
19:35:12.317000,-247.0,-5.0,488.0,-247.0,963.0,-142.0,28.0,-228.0,484.0
19:35:12.321000,-290.0,-114.0,526.0,-206.0,976.0,-255.0,28.0,-228.0,484.0
19:35:12.326000,-82.0,-168.0,320.0,-129.0,1062.0,-356.0,28.0,-225.0,487.0
19:35:12.331000,3.0,-121.0,15.0,47.0,896.0,-333.0,28.0,-225.0,487.0
19:35:12.335000,-30.0,-81.0,-93.0,47.0,896.0,-333.0,33.0,-216.0,477.0
19:35:12.340000,-146.0,-42.0,-14.0,406.0,606.0,-308.0,33.0,-216.0,477.0
19:35:12.344000,-205.0,12.0,201.0,865.0,481.0,-300.0,33.0,-216.0,477.0
19:35:12.349000,-131.0,25.0,401.0,1110.0,356.0,-349.0,27.0,-223.0,484.0
19:35:12.354000,-179.0,-2.0,417.0,1048.0,328.0,-338.0,27.0,-223.0,484.0
19:35:12.359000,-164.0,-11.0,380.0,955.0,488.0,-332.0,34.0,-222.0,483.0
19:35:12.363000,-116.0,-40.0,296.0,990.0,720.0,-382.0,34.0,-222.0,483.0
19:35:12.368000,-116.0,-40.0,296.0,1015.0,908.0,-375.0,34.0,-222.0,483.0
19:35:12.373000,-128.0,-132.0,-32.0,962.0,977.0,-368.0,37.0,-223.0,481.0
19:35:12.378000,-151.0,-188.0,-19.0,899.0,880.0,-367.0,37.0,-223.0,481.0
19:35:12.382000,-151.0,-188.0,-19.0,770.0,692.0,-373.0,34.0,-219.0,505.0
19:35:12.387000,-156.0,-226.0,61.0,580.0,512.0,-391.0,34.0,-219.0,505.0
19:35:12.391000,-144.0,-242.0,95.0,442.0,412.0,-414.0,34.0,-219.0,505.0
19:35:12.396000,-92.0,-247.0,79.0,365.0,427.0,-413.0,40.0,-217.0,483.0
19:35:12.401000,-55.0,-248.0,51.0,344.0,520.0,-403.0,40.0,-217.0,483.0
19:35:12.406000,-4.0,-240.0,66.0,344.0,615.0,-389.0,42.0,-226.0,495.0
19:35:12.411000,29.0,-240.0,100.0,346.0,661.0,-359.0,42.0,-226.0,495.0
19:35:12.415000,62.0,-239.0,113.0,346.0,659.0,-335.0,42.0,-226.0,495.0
19:35:12.420000,101.0,-239.0,96.0,363.0,592.0,-312.0,36.0,-220.0,489.0
19:35:12.425000,141.0,-229.0,121.0,407.0,483.0,-285.0,36.0,-220.0,489.0
19:35:12.429000,190.0,-224.0,217.0,407.0,427.0,-267.0,30.0,-222.0,484.0
19:35:12.434000,259.0,-210.0,303.0,385.0,444.0,-252.0,30.0,-222.0,484.0
19:35:12.438000,320.0,-199.0,340.0,318.0,510.0,-231.0,30.0,-222.0,484.0
19:35:12.443000,373.0,-182.0,345.0,318.0,604.0,-231.0,45.0,-217.0,487.0
19:35:12.448000,418.0,-162.0,347.0,260.0,604.0,-222.0,45.0,-217.0,487.0
19:35:12.453000,447.0,-142.0,353.0,220.0,676.0,-215.0,42.0,-216.0,495.0
19:35:12.458000,463.0,-113.0,357.0,200.0,739.0,-211.0,42.0,-216.0,495.0
19:35:12.462000,454.0,-83.0,352.0,168.0,825.0,-211.0,42.0,-216.0,495.0
19:35:12.467000,423.0,-47.0,315.0,123.0,935.0,-212.0,51.0,-216.0,490.0
19:35:12.472000,373.0,-13.0,263.0,99.0,1058.0,-215.0,51.0,-216.0,490.0
19:35:12.476000,304.0,13.0,217.0,98.0,1156.0,-213.0,58.0,-211.0,492.0
19:35:12.481000,228.0,37.0,190.0,118.0,1212.0,-214.0,58.0,-211.0,492.0
19:35:12.485000,228.0,37.0,190.0,156.0,1226.0,-220.0,58.0,-211.0,492.0
19:35:12.490000,156.0,56.0,191.0,193.0,1165.0,-225.0,55.0,-216.0,493.0
19:35:12.495000,88.0,70.0,225.0,212.0,1100.0,-234.0,55.0,-216.0,493.0
19:35:12.500000,39.0,83.0,233.0,224.0,1070.0,-248.0,69.0,-196.0,489.0
19:35:12.505000,4.0,90.0,201.0,253.0,1033.0,-264.0,69.0,-196.0,489.0
19:35:12.509000,-31.0,89.0,162.0,312.0,1024.0,-279.0,69.0,-196.0,489.0
19:35:12.514000,-70.0,86.0,114.0,374.0,1041.0,-298.0,60.0,-202.0,489.0
19:35:12.519000,-81.0,82.0,35.0,413.0,1038.0,-319.0,60.0,-202.0,489.0
19:35:12.523000,-86.0,84.0,-53.0,446.0,1017.0,-331.0,63.0,-190.0,505.0
19:35:12.528000,-81.0,81.0,-115.0,457.0,987.0,-340.0,63.0,-190.0,505.0
19:35:12.532000,-73.0,76.0,-166.0,444.0,929.0,-347.0,63.0,-190.0,505.0
19:35:12.537000,-56.0,77.0,-198.0,439.0,826.0,-351.0,55.0,-205.0,487.0
19:35:12.542000,-42.0,82.0,-183.0,398.0,675.0,-319.0,55.0,-205.0,487.0
19:35:12.547000,-26.0,77.0,-149.0,398.0,675.0,-319.0,55.0,-205.0,477.0
19:35:12.552000,100.0,127.0,-95.0,460.0,826.0,-377.0,55.0,-205.0,477.0
19:35:12.556000,126.0,111.0,-105.0,460.0,826.0,-377.0,55.0,-205.0,477.0
19:35:12.561000,127.0,105.0,-123.0,433.0,908.0,-305.0,52.0,-205.0,484.0
19:35:12.566000,165.0,109.0,-89.0,380.0,873.0,-296.0,52.0,-205.0,484.0
19:35:12.570000,156.0,106.0,-88.0,380.0,873.0,-296.0,46.0,-199.0,490.0
19:35:12.575000,156.0,103.0,-73.0,345.0,904.0,-269.0,46.0,-199.0,490.0
19:35:12.579000,117.0,104.0,11.0,414.0,911.0,-249.0,46.0,-199.0,490.0
19:35:12.584000,121.0,105.0,95.0,489.0,976.0,-246.0,49.0,-207.0,487.0
19:35:12.589000,119.0,107.0,147.0,514.0,1054.0,-228.0,49.0,-207.0,487.0
19:35:12.594000,67.0,102.0,160.0,503.0,1118.0,-179.0,52.0,-196.0,478.0
19:35:12.598000,67.0,102.0,160.0,484.0,1096.0,-151.0,52.0,-196.0,478.0
19:35:12.603000,43.0,96.0,235.0,439.0,843.0,-160.0,52.0,-196.0,478.0
19:35:12.608000,54.0,116.0,331.0,367.0,687.0,-176.0,51.0,-192.0,483.0
19:35:12.613000,54.0,142.0,389.0,321.0,734.0,-179.0,51.0,-192.0,483.0
19:35:12.617000,49.0,175.0,435.0,341.0,818.0,-178.0,60.0,-199.0,478.0
19:35:12.622000,16.0,207.0,421.0,423.0,916.0,-174.0,60.0,-199.0,478.0
19:35:12.626000,0.0,219.0,386.0,516.0,889.0,-172.0,60.0,-199.0,478.0
19:35:12.631000,-21.0,224.0,400.0,564.0,784.0,-180.0,49.0,-195.0,486.0
19:35:12.636000,-25.0,233.0,434.0,550.0,755.0,-195.0,49.0,-195.0,486.0
19:35:12.641000,-21.0,235.0,431.0,501.0,797.0,-205.0,51.0,-189.0,480.0
19:35:12.645000,-12.0,235.0,378.0,464.0,850.0,-211.0,51.0,-189.0,480.0
19:35:12.650000,-11.0,231.0,315.0,463.0,926.0,-214.0,51.0,-189.0,480.0
19:35:12.655000,-11.0,229.0,247.0,489.0,964.0,-210.0,63.0,-189.0,474.0
19:35:12.660000,-24.0,220.0,207.0,519.0,927.0,-205.0,63.0,-189.0,474.0
19:35:12.664000,-42.0,207.0,200.0,519.0,927.0,-205.0,49.0,-183.0,496.0
19:35:12.669000,-54.0,202.0,208.0,512.0,885.0,-207.0,49.0,-183.0,496.0
19:35:12.673000,-69.0,198.0,200.0,469.0,868.0,-208.0,49.0,-183.0,496.0
19:35:12.678000,-81.0,194.0,203.0,451.0,872.0,-210.0,51.0,-187.0,472.0
19:35:12.683000,-91.0,189.0,192.0,439.0,885.0,-211.0,51.0,-187.0,472.0
19:35:12.688000,-105.0,189.0,171.0,405.0,924.0,-211.0,57.0,-184.0,480.0
19:35:12.692000,-119.0,189.0,147.0,379.0,958.0,-205.0,57.0,-184.0,480.0
19:35:12.697000,-119.0,189.0,147.0,369.0,955.0,-198.0,57.0,-184.0,480.0
19:35:12.702000,-140.0,186.0,137.0,370.0,922.0,-193.0,54.0,-190.0,478.0
19:35:12.707000,-134.0,181.0,163.0,389.0,868.0,-191.0,54.0,-190.0,478.0
19:35:12.711000,-134.0,181.0,163.0,420.0,794.0,-190.0,49.0,-198.0,480.0
19:35:12.716000,-128.0,177.0,189.0,446.0,761.0,-190.0,49.0,-198.0,480.0
19:35:12.720000,-120.0,175.0,199.0,462.0,795.0,-191.0,49.0,-198.0,480.0
19:35:12.725000,-102.0,170.0,205.0,480.0,836.0,-193.0,58.0,-184.0,474.0
19:35:12.730000,-95.0,163.0,214.0,490.0,866.0,-193.0,58.0,-184.0,474.0
19:35:12.735000,-89.0,156.0,222.0,478.0,841.0,-199.0,57.0,-186.0,480.0
19:35:12.739000,-68.0,151.0,212.0,474.0,814.0,-211.0,57.0,-186.0,480.0
19:35:12.744000,-65.0,153.0,205.0,488.0,861.0,-213.0,57.0,-186.0,480.0
19:35:12.749000,-77.0,156.0,209.0,491.0,918.0,-209.0,58.0,-195.0,480.0
19:35:12.753000,-102.0,160.0,201.0,476.0,933.0,-209.0,58.0,-195.0,480.0
19:35:12.758000,-130.0,163.0,193.0,476.0,898.0,-209.0,54.0,-196.0,487.0
19:35:12.763000,-142.0,168.0,205.0,472.0,847.0,-217.0,54.0,-196.0,487.0
19:35:12.767000,-140.0,174.0,217.0,500.0,812.0,-225.0,54.0,-196.0,487.0
19:35:12.772000,-126.0,175.0,210.0,500.0,812.0,-225.0,52.0,-193.0,478.0
19:35:12.777000,-106.0,176.0,175.0,520.0,821.0,-232.0,52.0,-193.0,478.0
19:35:12.782000,-84.0,172.0,137.0,520.0,846.0,-240.0,63.0,-187.0,474.0
19:35:12.786000,-70.0,165.0,100.0,509.0,876.0,-245.0,63.0,-187.0,474.0
19:35:12.791000,-50.0,156.0,65.0,491.0,922.0,-250.0,63.0,-187.0,474.0
19:35:12.796000,-40.0,148.0,36.0,486.0,948.0,-253.0,58.0,-189.0,475.0
19:35:12.801000,-19.0,135.0,4.0,496.0,972.0,-250.0,58.0,-189.0,475.0
19:35:12.805000,11.0,120.0,-5.0,503.0,960.0,-249.0,61.0,-184.0,493.0
19:35:12.810000,41.0,111.0,25.0,508.0,891.0,-251.0,61.0,-184.0,493.0
19:35:12.814000,41.0,111.0,25.0,502.0,862.0,-249.0,61.0,-184.0,493.0
19:35:12.819000,70.0,104.0,72.0,476.0,886.0,-243.0,55.0,-195.0,472.0
19:35:12.824000,90.0,103.0,96.0,466.0,946.0,-233.0,55.0,-195.0,472.0
19:35:12.829000,94.0,108.0,103.0,483.0,1002.0,-218.0,55.0,-190.0,478.0
19:35:12.833000,79.0,109.0,120.0,497.0,1019.0,-215.0,55.0,-190.0,478.0
19:35:12.838000,56.0,128.0,141.0,499.0,1016.0,-224.0,55.0,-190.0,478.0
19:35:12.843000,54.0,142.0,142.0,501.0,1008.0,-226.0,49.0,-186.0,477.0
19:35:12.848000,58.0,151.0,118.0,513.0,998.0,-225.0,49.0,-186.0,477.0
19:35:12.852000,58.0,157.0,94.0,526.0,981.0,-230.0,51.0,-186.0,468.0
19:35:12.857000,71.0,162.0,71.0,550.0,968.0,-236.0,51.0,-186.0,468.0
19:35:12.861000,87.0,160.0,36.0,589.0,960.0,-238.0,51.0,-186.0,468.0
19:35:12.866000,103.0,157.0,2.0,625.0,944.0,-243.0,64.0,-192.0,475.0
19:35:12.871000,121.0,156.0,-18.0,645.0,932.0,-246.0,64.0,-192.0,475.0
19:35:12.876000,130.0,155.0,-27.0,645.0,932.0,-246.0,52.0,-183.0,471.0
19:35:12.880000,141.0,156.0,-34.0,609.0,1004.0,-254.0,52.0,-183.0,471.0
19:35:12.885000,137.0,161.0,-47.0,617.0,1004.0,-254.0,52.0,-183.0,471.0
19:35:12.890000,131.0,166.0,-65.0,589.0,1036.0,-258.0,51.0,-190.0,483.0
19:35:12.895000,120.0,168.0,-81.0,562.0,1092.0,-260.0,51.0,-190.0,483.0
19:35:12.899000,100.0,170.0,-84.0,544.0,1122.0,-253.0,58.0,-189.0,463.0
19:35:12.904000,76.0,175.0,-88.0,545.0,1126.0,-245.0,58.0,-189.0,463.0
19:35:12.908000,50.0,171.0,-95.0,553.0,1142.0,-237.0,58.0,-189.0,463.0
19:35:12.913000,25.0,173.0,-103.0,562.0,1158.0,-235.0,34.0,-184.0,469.0
19:35:12.918000,-4.0,180.0,-132.0,553.0,1119.0,-233.0,34.0,-184.0,469.0
19:35:12.923000,-11.0,171.0,-130.0,540.0,1078.0,-237.0,49.0,-195.0,474.0
19:35:12.927000,-20.0,173.0,-87.0,539.0,1060.0,-268.0,49.0,-195.0,474.0
19:35:12.932000,-20.0,173.0,-87.0,545.0,1034.0,-257.0,49.0,-195.0,474.0
19:35:12.937000,4.0,182.0,-112.0,561.0,1035.0,-229.0,52.0,-196.0,465.0
19:35:12.942000,30.0,163.0,-188.0,574.0,1046.0,-266.0,52.0,-196.0,465.0
19:35:12.946000,44.0,168.0,-262.0,608.0,1020.0,-284.0,46.0,-192.0,471.0
19:35:12.951000,65.0,149.0,-280.0,650.0,985.0,-281.0,46.0,-192.0,471.0
19:35:12.955000,81.0,141.0,-287.0,660.0,993.0,-292.0,46.0,-192.0,471.0
19:35:12.960000,98.0,130.0,-341.0,664.0,1027.0,-297.0,46.0,-192.0,472.0
19:35:12.965000,121.0,118.0,-396.0,670.0,1060.0,-303.0,46.0,-192.0,472.0
19:35:12.970000,134.0,105.0,-422.0,684.0,1062.0,-295.0,43.0,-196.0,465.0
19:35:12.974000,146.0,86.0,-411.0,699.0,1043.0,-278.0,43.0,-196.0,465.0
19:35:12.979000,156.0,56.0,-364.0,670.0,1055.0,-272.0,43.0,-196.0,465.0
19:35:12.984000,151.0,37.0,-340.0,623.0,1089.0,-270.0,43.0,-196.0,474.0
19:35:12.989000,137.0,22.0,-310.0,599.0,1099.0,-257.0,43.0,-196.0,474.0
19:35:12.993000,123.0,13.0,-260.0,577.0,1110.0,-257.0,37.0,-199.0,481.0
19:35:12.998000,102.0,21.0,-210.0,577.0,1110.0,-257.0,37.0,-199.0,481.0
19:35:13.002000,63.0,32.0,-151.0,537.0,1124.0,-251.0,37.0,-199.0,481.0
19:35:13.007000,28.0,53.0,-91.0,493.0,1135.0,-241.0,34.0,-202.0,460.0
19:35:13.012000,-21.0,73.0,-60.0,461.0,1143.0,-229.0,34.0,-202.0,460.0
19:35:13.017000,-61.0,98.0,-35.0,433.0,1137.0,-217.0,45.0,-201.0,460.0
19:35:13.021000,-79.0,126.0,-15.0,411.0,1115.0,-218.0,45.0,-201.0,460.0
19:35:13.026000,-79.0,126.0,-15.0,395.0,1045.0,-215.0,45.0,-201.0,460.0
19:35:13.031000,-105.0,174.0,45.0,380.0,937.0,-216.0,28.0,-193.0,471.0
19:35:13.036000,-87.0,197.0,51.0,384.0,855.0,-227.0,28.0,-193.0,471.0
19:35:13.040000,-87.0,197.0,51.0,395.0,804.0,-240.0,27.0,-201.0,466.0
19:35:13.045000,-60.0,217.0,58.0,399.0,759.0,-247.0,27.0,-201.0,466.0
19:35:13.049000,-32.0,233.0,60.0,412.0,711.0,-249.0,27.0,-201.0,466.0
19:35:13.054000,10.0,242.0,77.0,434.0,665.0,-257.0,37.0,-195.0,477.0
19:35:13.059000,64.0,247.0,79.0,459.0,643.0,-273.0,37.0,-195.0,477.0
19:35:13.064000,110.0,257.0,55.0,479.0,654.0,-280.0,27.0,-201.0,474.0
19:35:13.068000,149.0,257.0,21.0,491.0,667.0,-280.0,27.0,-201.0,474.0
19:35:13.073000,178.0,253.0,2.0,507.0,645.0,-285.0,27.0,-201.0,474.0
19:35:13.078000,207.0,245.0,8.0,522.0,607.0,-292.0,31.0,-192.0,457.0
19:35:13.083000,238.0,236.0,36.0,533.0,563.0,-294.0,31.0,-192.0,457.0
19:35:13.087000,262.0,225.0,55.0,551.0,536.0,-299.0,25.0,-195.0,462.0
19:35:13.092000,289.0,219.0,52.0,578.0,544.0,-306.0,25.0,-195.0,462.0
19:35:13.096000,318.0,211.0,37.0,589.0,581.0,-304.0,25.0,-195.0,462.0
19:35:13.101000,347.0,201.0,16.0,589.0,581.0,-304.0,30.0,-201.0,462.0
19:35:13.106000,359.0,182.0,0.0,574.0,643.0,-294.0,30.0,-201.0,462.0
19:35:13.111000,347.0,156.0,-10.0,550.0,703.0,-266.0,19.0,-193.0,459.0
19:35:13.115000,326.0,123.0,-22.0,530.0,748.0,-234.0,19.0,-193.0,459.0
19:35:13.120000,301.0,84.0,-28.0,528.0,759.0,-201.0,19.0,-193.0,459.0
19:35:13.125000,275.0,44.0,-8.0,553.0,741.0,-171.0,22.0,-192.0,459.0
19:35:13.130000,243.0,-2.0,30.0,584.0,728.0,-144.0,22.0,-192.0,459.0
19:35:13.134000,243.0,-2.0,30.0,593.0,735.0,-120.0,27.0,-195.0,466.0
19:35:13.139000,184.0,-95.0,100.0,575.0,755.0,-102.0,27.0,-195.0,466.0
19:35:13.143000,184.0,-95.0,100.0,550.0,761.0,-88.0,27.0,-195.0,466.0
19:35:13.148000,161.0,-135.0,130.0,521.0,749.0,-84.0,28.0,-189.0,465.0
19:35:13.153000,148.0,-165.0,165.0,475.0,736.0,-80.0,28.0,-189.0,465.0
19:35:13.158000,148.0,-189.0,186.0,418.0,730.0,-75.0,30.0,-189.0,456.0
19:35:13.162000,140.0,-193.0,176.0,367.0,745.0,-74.0,30.0,-189.0,456.0
19:35:13.167000,135.0,-193.0,173.0,325.0,768.0,-67.0,30.0,-189.0,456.0
19:35:13.172000,124.0,-188.0,186.0,290.0,783.0,-67.0,22.0,-187.0,457.0
19:35:13.177000,109.0,-168.0,184.0,262.0,800.0,-70.0,22.0,-187.0,457.0
19:35:13.181000,91.0,-145.0,174.0,239.0,812.0,-76.0,33.0,-184.0,454.0
19:35:13.186000,68.0,-116.0,157.0,230.0,810.0,-94.0,33.0,-184.0,454.0
19:35:13.190000,47.0,-81.0,140.0,230.0,807.0,-107.0,33.0,-184.0,454.0
19:35:13.195000,18.0,-45.0,138.0,227.0,804.0,-112.0,27.0,-183.0,463.0
19:35:13.200000,-12.0,-13.0,162.0,223.0,796.0,-117.0,27.0,-183.0,463.0
19:35:13.205000,-41.0,15.0,196.0,223.0,796.0,-117.0,43.0,-180.0,462.0
19:35:13.209000,-70.0,39.0,225.0,221.0,767.0,-115.0,43.0,-180.0,462.0
19:35:13.214000,-100.0,61.0,257.0,228.0,767.0,-115.0,43.0,-180.0,462.0
19:35:13.219000,-128.0,75.0,294.0,245.0,751.0,-111.0,24.0,-177.0,460.0
19:35:13.224000,-160.0,86.0,328.0,266.0,737.0,-105.0,24.0,-177.0,460.0
19:35:13.228000,-193.0,96.0,364.0,283.0,721.0,-98.0,34.0,-186.0,457.0
19:35:13.233000,-228.0,102.0,410.0,291.0,715.0,-94.0,34.0,-186.0,457.0
19:35:13.237000,-270.0,105.0,452.0,287.0,725.0,-89.0,34.0,-186.0,457.0
19:35:13.242000,-316.0,110.0,471.0,274.0,744.0,-88.0,40.0,-178.0,466.0
19:35:13.247000,-365.0,117.0,466.0,265.0,766.0,-95.0,40.0,-178.0,466.0
19:35:13.252000,-417.0,124.0,452.0,264.0,784.0,-107.0,39.0,-186.0,462.0
19:35:13.256000,-417.0,124.0,452.0,265.0,804.0,-122.0,39.0,-186.0,462.0
19:35:13.261000,-460.0,129.0,424.0,263.0,818.0,-146.0,39.0,-186.0,462.0
19:35:13.266000,-508.0,140.0,403.0,249.0,817.0,-161.0,42.0,-181.0,469.0
19:35:13.271000,-546.0,146.0,364.0,242.0,797.0,-176.0,42.0,-181.0,469.0
19:35:13.275000,-564.0,151.0,305.0,263.0,751.0,-200.0,34.0,-190.0,474.0
19:35:13.280000,-561.0,151.0,256.0,296.0,707.0,-225.0,34.0,-190.0,474.0
19:35:13.284000,-544.0,148.0,205.0,320.0,688.0,-245.0,34.0,-190.0,474.0
19:35:13.289000,-523.0,142.0,139.0,340.0,684.0,-260.0,43.0,-192.0,468.0
19:35:13.294000,-483.0,128.0,58.0,363.0,689.0,-277.0,43.0,-192.0,468.0
19:35:13.299000,-429.0,111.0,-31.0,384.0,701.0,-281.0,39.0,-196.0,469.0
19:35:13.303000,-385.0,85.0,-133.0,410.0,710.0,-277.0,39.0,-196.0,469.0
19:35:13.308000,-333.0,54.0,-224.0,436.0,718.0,-274.0,39.0,-196.0,469.0
19:35:13.313000,-278.0,20.0,-288.0,456.0,722.0,-265.0,40.0,-196.0,474.0
19:35:13.318000,-226.0,-11.0,-337.0,473.0,723.0,-255.0,40.0,-196.0,474.0
19:35:13.322000,-177.0,-44.0,-383.0,491.0,737.0,-248.0,37.0,-190.0,474.0
19:35:13.327000,-123.0,-76.0,-426.0,491.0,737.0,-248.0,37.0,-190.0,474.0
19:35:13.331000,-79.0,-105.0,-459.0,513.0,759.0,-240.0,37.0,-190.0,474.0
19:35:13.336000,-51.0,-133.0,-471.0,533.0,776.0,-228.0,36.0,-198.0,474.0
19:35:13.341000,-33.0,-158.0,-459.0,559.0,782.0,-213.0,36.0,-198.0,474.0
19:35:13.346000,-25.0,-179.0,-431.0,590.0,781.0,-205.0,27.0,-195.0,478.0
19:35:13.350000,-19.0,-191.0,-386.0,622.0,784.0,-204.0,27.0,-195.0,478.0
19:35:13.355000,-19.0,-191.0,-386.0,636.0,805.0,-208.0,27.0,-195.0,478.0
19:35:13.360000,-34.0,-214.0,-288.0,623.0,862.0,-212.0,37.0,-210.0,471.0
19:35:13.365000,-58.0,-226.0,-249.0,595.0,921.0,-210.0,37.0,-210.0,471.0
19:35:13.369000,-58.0,-226.0,-249.0,563.0,941.0,-212.0,31.0,-202.0,480.0
19:35:13.374000,-84.0,-226.0,-207.0,542.0,943.0,-226.0,31.0,-202.0,480.0
19:35:13.378000,-99.0,-226.0,-154.0,527.0,944.0,-238.0,31.0,-202.0,480.0
19:35:13.383000,-119.0,-220.0,-109.0,526.0,963.0,-248.0,24.0,-198.0,475.0
19:35:13.388000,-135.0,-214.0,-77.0,532.0,975.0,-255.0,24.0,-198.0,475.0
19:35:13.393000,-153.0,-208.0,-48.0,537.0,974.0,-259.0,28.0,-211.0,483.0
19:35:13.397000,-177.0,-196.0,-11.0,531.0,1008.0,-264.0,28.0,-211.0,483.0
19:35:13.402000,-196.0,-187.0,21.0,514.0,1061.0,-287.0,28.0,-211.0,483.0
19:35:13.407000,-213.0,-174.0,37.0,498.0,1096.0,-298.0,40.0,-217.0,480.0
19:35:13.412000,-240.0,-163.0,46.0,476.0,1101.0,-281.0,40.0,-217.0,480.0
19:35:13.416000,-256.0,-155.0,46.0,476.0,1101.0,-281.0,21.0,-213.0,492.0
19:35:13.421000,-269.0,-143.0,44.0,451.0,1022.0,-286.0,21.0,-213.0,492.0
19:35:13.425000,-275.0,-138.0,47.0,459.0,978.0,-272.0,21.0,-213.0,492.0
19:35:13.430000,-273.0,-133.0,45.0,459.0,978.0,-272.0,51.0,-222.0,493.0
19:35:13.435000,-263.0,-133.0,38.0,491.0,934.0,-270.0,51.0,-222.0,493.0
19:35:13.440000,-240.0,-133.0,28.0,537.0,893.0,-273.0,42.0,-217.0,495.0
19:35:13.444000,-207.0,-138.0,14.0,569.0,863.0,-276.0,42.0,-217.0,495.0
19:35:13.449000,-171.0,-145.0,-3.0,567.0,856.0,-273.0,42.0,-217.0,495.0
19:35:13.454000,-134.0,-151.0,-30.0,544.0,861.0,-274.0,36.0,-216.0,492.0
19:35:13.459000,-96.0,-158.0,-42.0,523.0,859.0,-270.0,36.0,-216.0,492.0
19:35:13.463000,-63.0,-162.0,-40.0,506.0,862.0,-267.0,49.0,-220.0,495.0
19:35:13.468000,-21.0,-171.0,-39.0,488.0,876.0,-260.0,49.0,-220.0,495.0
19:35:13.472000,-21.0,-171.0,-39.0,473.0,882.0,-254.0,49.0,-220.0,495.0
19:35:13.477000,18.0,-173.0,-31.0,469.0,879.0,-252.0,45.0,-225.0,498.0
19:35:13.482000,44.0,-173.0,-14.0,468.0,901.0,-240.0,45.0,-225.0,498.0
19:35:13.487000,59.0,-176.0,12.0,457.0,943.0,-232.0,45.0,-222.0,496.0
19:35:13.491000,74.0,-172.0,43.0,437.0,982.0,-227.0,45.0,-222.0,496.0
19:35:13.496000,87.0,-175.0,64.0,425.0,998.0,-217.0,45.0,-222.0,496.0
19:35:13.501000,79.0,-169.0,75.0,421.0,1028.0,-213.0,46.0,-223.0,499.0
19:35:13.505000,71.0,-161.0,74.0,414.0,1071.0,-212.0,46.0,-223.0,499.0
19:35:13.510000,50.0,-149.0,84.0,404.0,1086.0,-214.0,46.0,-225.0,508.0
19:35:13.515000,23.0,-138.0,108.0,388.0,1082.0,-218.0,46.0,-225.0,508.0
19:35:13.519000,-2.0,-128.0,144.0,378.0,1062.0,-221.0,46.0,-225.0,508.0
19:35:13.524000,-22.0,-116.0,170.0,372.0,1047.0,-224.0,48.0,-232.0,495.0
19:35:13.529000,-32.0,-107.0,177.0,370.0,1044.0,-224.0,48.0,-232.0,495.0
19:35:13.534000,-51.0,-95.0,170.0,370.0,1044.0,-224.0,49.0,-219.0,498.0
19:35:13.538000,-74.0,-84.0,170.0,385.0,1026.0,-225.0,49.0,-219.0,498.0
19:35:13.543000,-85.0,-76.0,189.0,415.0,982.0,-229.0,49.0,-219.0,498.0
19:35:13.548000,-91.0,-66.0,203.0,440.0,923.0,-238.0,52.0,-213.0,492.0
19:35:13.553000,-86.0,-58.0,205.0,420.0,921.0,-261.0,52.0,-213.0,492.0
19:35:13.557000,-98.0,-45.0,193.0,420.0,921.0,-261.0,43.0,-226.0,499.0
19:35:13.562000,-104.0,-32.0,187.0,396.0,943.0,-267.0,43.0,-226.0,499.0
19:35:13.566000,-116.0,-21.0,191.0,381.0,948.0,-276.0,43.0,-226.0,499.0
19:35:13.571000,-128.0,-14.0,184.0,384.0,921.0,-280.0,52.0,-225.0,495.0
19:35:13.576000,-130.0,-10.0,159.0,404.0,885.0,-286.0,52.0,-225.0,495.0
19:35:13.581000,-130.0,-9.0,146.0,447.0,832.0,-289.0,58.0,-222.0,502.0
19:35:13.585000,-130.0,-9.0,146.0,507.0,772.0,-295.0,58.0,-222.0,502.0
19:35:13.590000,-126.0,-7.0,153.0,541.0,741.0,-303.0,58.0,-222.0,502.0
19:35:13.595000,-126.0,-7.0,170.0,545.0,740.0,-302.0,51.0,-223.0,495.0
19:35:13.600000,-130.0,-8.0,177.0,540.0,750.0,-303.0,51.0,-223.0,495.0
19:35:13.604000,-126.0,-8.0,163.0,535.0,753.0,-307.0,51.0,-214.0,504.0
19:35:13.609000,-121.0,-3.0,135.0,539.0,749.0,-312.0,51.0,-214.0,504.0
19:35:13.613000,-114.0,3.0,115.0,538.0,732.0,-312.0,51.0,-214.0,504.0
19:35:13.618000,-112.0,12.0,109.0,525.0,712.0,-312.0,55.0,-222.0,504.0
19:35:13.623000,-105.0,22.0,114.0,507.0,691.0,-308.0,55.0,-222.0,504.0
19:35:13.628000,-97.0,28.0,107.0,496.0,670.0,-306.0,54.0,-222.0,501.0
19:35:13.632000,-81.0,35.0,88.0,506.0,658.0,-304.0,54.0,-222.0,501.0
19:35:13.637000,-58.0,35.0,74.0,526.0,641.0,-295.0,54.0,-222.0,501.0
19:35:13.642000,-40.0,41.0,89.0,530.0,625.0,-295.0,54.0,-228.0,496.0
19:35:13.647000,-18.0,44.0,115.0,521.0,625.0,-299.0,54.0,-228.0,496.0
19:35:13.651000,3.0,53.0,116.0,521.0,625.0,-299.0,58.0,-225.0,519.0
19:35:13.656000,22.0,63.0,97.0,511.0,644.0,-304.0,58.0,-225.0,519.0
19:35:13.660000,37.0,65.0,85.0,488.0,690.0,-306.0,58.0,-225.0,519.0
19:35:13.665000,53.0,67.0,81.0,460.0,742.0,-307.0,55.0,-220.0,514.0
19:35:13.670000,60.0,74.0,70.0,440.0,759.0,-310.0,55.0,-220.0,514.0
19:35:13.675000,70.0,81.0,53.0,443.0,746.0,-312.0,63.0,-220.0,501.0
19:35:13.679000,84.0,85.0,51.0,462.0,724.0,-314.0,63.0,-220.0,501.0
19:35:13.684000,84.0,85.0,51.0,478.0,719.0,-321.0,63.0,-220.0,501.0
19:35:13.689000,119.0,83.0,59.0,482.0,742.0,-325.0,54.0,-231.0,504.0
19:35:13.694000,135.0,71.0,49.0,467.0,782.0,-322.0,54.0,-231.0,504.0
19:35:13.698000,135.0,71.0,49.0,458.0,815.0,-322.0,61.0,-225.0,508.0
19:35:13.703000,143.0,55.0,39.0,467.0,824.0,-320.0,61.0,-225.0,508.0
19:35:13.707000,152.0,31.0,45.0,482.0,807.0,-316.0,61.0,-225.0,508.0
19:35:13.712000,165.0,7.0,58.0,512.0,780.0,-317.0,61.0,-217.0,508.0
19:35:13.717000,175.0,-16.0,70.0,554.0,766.0,-319.0,61.0,-217.0,508.0
19:35:13.722000,170.0,-37.0,89.0,571.0,786.0,-318.0,60.0,-228.0,517.0
19:35:13.726000,169.0,-63.0,104.0,556.0,826.0,-314.0,60.0,-228.0,517.0
19:35:13.731000,155.0,-86.0,110.0,542.0,846.0,-311.0,60.0,-228.0,517.0
19:35:13.736000,137.0,-110.0,121.0,543.0,847.0,-319.0,49.0,-228.0,493.0
19:35:13.741000,127.0,-136.0,140.0,540.0,852.0,-332.0,49.0,-228.0,493.0
19:35:13.745000,128.0,-158.0,156.0,524.0,850.0,-327.0,64.0,-219.0,499.0
19:35:13.750000,82.0,-175.0,157.0,508.0,850.0,-333.0,64.0,-219.0,499.0
19:35:13.754000,74.0,-195.0,156.0,510.0,847.0,-350.0,64.0,-219.0,499.0
19:35:13.759000,58.0,-210.0,157.0,510.0,847.0,-350.0,66.0,-216.0,505.0
19:35:13.764000,42.0,-226.0,151.0,523.0,841.0,-354.0,66.0,-216.0,505.0
