hh:mm:ss.ms,gyroX[mdps],gyroY[mdps],gyroZ[mdps],accX[mg],accY[mg],accZ[mg],magX[mG],magY[mG],magZ[mG]
19:35:26.853000,19.0,193.0,-504.0,942.0,621.0,-119.0,-28.0,-352.0,471.0
19:35:26.857000,11.0,196.0,-454.0,924.0,638.0,-136.0,-28.0,-352.0,471.0
19:35:26.861000,22.0,188.0,-398.0,921.0,645.0,-150.0,-28.0,-352.0,471.0
19:35:26.867000,20.0,182.0,-338.0,892.0,601.0,-167.0,-27.0,-351.0,474.0
19:35:26.872000,44.0,181.0,-276.0,865.0,567.0,-182.0,-27.0,-351.0,474.0
19:35:26.876000,67.0,179.0,-211.0,874.0,569.0,-187.0,-34.0,-357.0,478.0
19:35:26.881000,99.0,171.0,-147.0,872.0,551.0,-193.0,-34.0,-357.0,478.0
19:35:26.885000,99.0,178.0,-122.0,867.0,527.0,-196.0,-34.0,-357.0,478.0
19:35:26.890000,123.0,170.0,-92.0,867.0,517.0,-193.0,-37.0,-361.0,468.0
19:35:26.895000,133.0,164.0,-55.0,877.0,517.0,-193.0,-37.0,-361.0,468.0
19:35:26.900000,141.0,150.0,-32.0,883.0,512.0,-192.0,-43.0,-360.0,466.0
19:35:26.904000,150.0,137.0,-41.0,872.0,508.0,-186.0,-43.0,-360.0,466.0
19:35:26.908000,165.0,127.0,-67.0,871.0,484.0,-186.0,-43.0,-360.0,466.0
19:35:26.914000,176.0,111.0,-84.0,902.0,459.0,-182.0,-28.0,-349.0,465.0
19:35:26.919000,183.0,93.0,-97.0,933.0,455.0,-171.0,-28.0,-349.0,465.0
19:35:26.923000,185.0,79.0,-132.0,935.0,471.0,-173.0,-36.0,-361.0,463.0
19:35:26.928000,191.0,62.0,-179.0,918.0,490.0,-172.0,-36.0,-361.0,463.0
19:35:26.932000,191.0,62.0,-179.0,910.0,512.0,-171.0,-36.0,-361.0,463.0
19:35:26.937000,186.0,38.0,-245.0,906.0,540.0,-174.0,-39.0,-355.0,463.0
19:35:26.942000,186.0,38.0,-245.0,882.0,554.0,-170.0,-39.0,-355.0,463.0
19:35:26.947000,174.0,27.0,-268.0,864.0,552.0,-171.0,-46.0,-358.0,460.0
19:35:26.951000,168.0,19.0,-282.0,855.0,530.0,-166.0,-46.0,-358.0,460.0
19:35:26.955000,162.0,8.0,-277.0,849.0,494.0,-161.0,-46.0,-358.0,460.0
19:35:26.961000,168.0,4.0,-254.0,846.0,478.0,-170.0,-51.0,-360.0,469.0
19:35:26.966000,177.0,-1.0,-236.0,832.0,496.0,-166.0,-51.0,-360.0,469.0
19:35:26.970000,182.0,-11.0,-238.0,815.0,506.0,-161.0,-36.0,-351.0,456.0
19:35:26.975000,179.0,-17.0,-229.0,809.0,501.0,-157.0,-36.0,-351.0,456.0
19:35:26.979000,182.0,-25.0,-210.0,816.0,488.0,-148.0,-36.0,-351.0,456.0
19:35:26.984000,182.0,-30.0,-192.0,829.0,467.0,-141.0,-39.0,-360.0,450.0
19:35:26.989000,188.0,-35.0,-176.0,843.0,458.0,-141.0,-39.0,-360.0,450.0
19:35:26.994000,198.0,-39.0,-163.0,843.0,458.0,-141.0,-33.0,-364.0,457.0
19:35:26.998000,198.0,-41.0,-140.0,866.0,459.0,-122.0,-33.0,-364.0,457.0
19:35:27.002000,190.0,-46.0,-113.0,866.0,459.0,-122.0,-33.0,-364.0,457.0
19:35:27.008000,184.0,-39.0,-93.0,850.0,444.0,-128.0,-40.0,-355.0,456.0
19:35:27.013000,188.0,-30.0,-84.0,808.0,418.0,-127.0,-40.0,-355.0,456.0
19:35:27.017000,189.0,-16.0,-73.0,813.0,428.0,-127.0,-55.0,-364.0,466.0
19:35:27.022000,191.0,-6.0,-69.0,837.0,441.0,-132.0,-55.0,-364.0,466.0
19:35:27.026000,191.0,7.0,-63.0,846.0,426.0,-136.0,-55.0,-364.0,466.0
19:35:27.031000,199.0,21.0,-51.0,856.0,409.0,-150.0,-45.0,-357.0,450.0
19:35:27.036000,203.0,34.0,-35.0,860.0,406.0,-161.0,-45.0,-357.0,450.0
19:35:27.041000,204.0,46.0,-23.0,851.0,402.0,-165.0,-42.0,-355.0,459.0
19:35:27.045000,207.0,57.0,-14.0,844.0,401.0,-173.0,-42.0,-355.0,459.0
19:35:27.049000,207.0,57.0,-14.0,835.0,406.0,-181.0,-42.0,-355.0,459.0
19:35:27.055000,221.0,64.0,-9.0,837.0,418.0,-185.0,-40.0,-363.0,454.0
19:35:27.059000,236.0,69.0,-7.0,848.0,426.0,-186.0,-40.0,-363.0,454.0
19:35:27.064000,249.0,69.0,-2.0,851.0,427.0,-183.0,-36.0,-357.0,454.0
19:35:27.069000,257.0,65.0,14.0,859.0,432.0,-182.0,-36.0,-357.0,454.0
19:35:27.073000,259.0,61.0,44.0,870.0,442.0,-180.0,-36.0,-357.0,454.0
19:35:27.078000,259.0,51.0,84.0,872.0,434.0,-182.0,-40.0,-361.0,462.0
19:35:27.083000,263.0,46.0,116.0,879.0,431.0,-186.0,-40.0,-361.0,462.0
19:35:27.088000,268.0,44.0,152.0,888.0,451.0,-181.0,-49.0,-354.0,453.0
19:35:27.092000,268.0,39.0,192.0,889.0,482.0,-179.0,-49.0,-354.0,453.0
19:35:27.096000,257.0,36.0,226.0,884.0,505.0,-175.0,-49.0,-354.0,453.0
19:35:27.102000,237.0,29.0,252.0,875.0,508.0,-170.0,-45.0,-358.0,451.0
19:35:27.106000,216.0,25.0,281.0,878.0,506.0,-168.0,-45.0,-358.0,451.0
19:35:27.111000,191.0,20.0,321.0,878.0,506.0,-168.0,-40.0,-355.0,447.0
19:35:27.116000,164.0,15.0,363.0,884.0,505.0,-163.0,-40.0,-355.0,447.0
19:35:27.120000,139.0,12.0,397.0,882.0,508.0,-163.0,-40.0,-355.0,447.0
19:35:27.125000,112.0,6.0,426.0,883.0,514.0,-164.0,-48.0,-355.0,447.0
19:35:27.130000,84.0,2.0,446.0,883.0,527.0,-168.0,-48.0,-355.0,447.0
19:35:27.135000,55.0,-3.0,457.0,876.0,555.0,-173.0,-43.0,-339.0,442.0
19:35:27.139000,16.0,-11.0,464.0,872.0,591.0,-174.0,-43.0,-339.0,442.0
19:35:27.143000,16.0,-11.0,464.0,873.0,617.0,-176.0,-43.0,-339.0,442.0
19:35:27.149000,-65.0,-44.0,485.0,877.0,634.0,-174.0,-49.0,-339.0,447.0
19:35:27.153000,-100.0,-67.0,506.0,885.0,649.0,-171.0,-49.0,-339.0,447.0
19:35:27.158000,-100.0,-67.0,506.0,896.0,669.0,-168.0,-54.0,-343.0,454.0
19:35:27.163000,-140.0,-88.0,520.0,903.0,681.0,-159.0,-54.0,-343.0,454.0
19:35:27.167000,-174.0,-115.0,528.0,912.0,678.0,-151.0,-54.0,-343.0,454.0
19:35:27.172000,-204.0,-139.0,547.0,924.0,670.0,-151.0,-51.0,-345.0,439.0
19:35:27.177000,-235.0,-155.0,578.0,917.0,675.0,-148.0,-51.0,-345.0,439.0
19:35:27.182000,-265.0,-169.0,609.0,882.0,703.0,-141.0,-37.0,-343.0,447.0
19:35:27.186000,-299.0,-183.0,625.0,840.0,743.0,-132.0,-37.0,-343.0,447.0
19:35:27.190000,-331.0,-198.0,623.0,816.0,774.0,-126.0,-37.0,-343.0,447.0
19:35:27.196000,-364.0,-209.0,623.0,805.0,778.0,-117.0,-33.0,-339.0,454.0
19:35:27.200000,-399.0,-220.0,639.0,793.0,758.0,-108.0,-33.0,-339.0,454.0
19:35:27.205000,-422.0,-228.0,667.0,779.0,733.0,-106.0,-33.0,-334.0,448.0
19:35:27.210000,-443.0,-228.0,696.0,761.0,719.0,-110.0,-33.0,-334.0,448.0
19:35:27.214000,-458.0,-226.0,722.0,731.0,716.0,-116.0,-33.0,-334.0,448.0
19:35:27.219000,-471.0,-219.0,733.0,731.0,716.0,-116.0,-39.0,-336.0,459.0
19:35:27.224000,-481.0,-210.0,730.0,698.0,710.0,-118.0,-39.0,-336.0,459.0
19:35:27.229000,-479.0,-203.0,723.0,682.0,679.0,-126.0,-31.0,-334.0,448.0
19:35:27.233000,-466.0,-193.0,714.0,688.0,630.0,-138.0,-31.0,-334.0,448.0
19:35:27.241000,-445.0,-186.0,703.0,721.0,545.0,-160.0,-31.0,-330.0,445.0
19:35:27.243000,-416.0,-177.0,687.0,721.0,545.0,-160.0,-31.0,-330.0,445.0
19:35:27.247000,-385.0,-172.0,667.0,744.0,521.0,-170.0,-31.0,-330.0,445.0
19:35:27.252000,-354.0,-163.0,644.0,772.0,512.0,-184.0,-43.0,-333.0,459.0
19:35:27.257000,-329.0,-160.0,620.0,795.0,509.0,-196.0,-43.0,-333.0,459.0
19:35:27.262000,-305.0,-165.0,599.0,819.0,506.0,-196.0,-27.0,-331.0,459.0
19:35:27.266000,-305.0,-165.0,599.0,848.0,497.0,-204.0,-27.0,-331.0,459.0
19:35:27.270000,-280.0,-170.0,585.0,876.0,490.0,-216.0,-27.0,-331.0,459.0
19:35:27.276000,-262.0,-175.0,587.0,893.0,499.0,-209.0,-25.0,-327.0,457.0
19:35:27.280000,-256.0,-195.0,603.0,896.0,531.0,-200.0,-25.0,-327.0,457.0
19:35:27.285000,-256.0,-215.0,620.0,891.0,570.0,-207.0,-27.0,-327.0,474.0
19:35:27.290000,-262.0,-233.0,634.0,878.0,598.0,-211.0,-27.0,-327.0,474.0
19:35:27.294000,-277.0,-254.0,650.0,866.0,616.0,-218.0,-27.0,-327.0,474.0
19:35:27.299000,-294.0,-271.0,657.0,854.0,643.0,-221.0,-25.0,-327.0,462.0
19:35:27.304000,-307.0,-289.0,655.0,842.0,672.0,-228.0,-25.0,-327.0,462.0
19:35:27.309000,-322.0,-305.0,632.0,834.0,685.0,-235.0,-28.0,-325.0,454.0
19:35:27.313000,-329.0,-319.0,600.0,838.0,671.0,-237.0,-28.0,-325.0,454.0
19:35:27.317000,-327.0,-333.0,575.0,839.0,635.0,-242.0,-28.0,-325.0,454.0
19:35:27.323000,-319.0,-340.0,556.0,828.0,593.0,-238.0,-18.0,-330.0,456.0
19:35:27.327000,-301.0,-344.0,533.0,821.0,571.0,-243.0,-18.0,-330.0,456.0
19:35:27.332000,-276.0,-344.0,500.0,821.0,571.0,-243.0,-18.0,-324.0,462.0
19:35:27.337000,-254.0,-340.0,457.0,816.0,586.0,-251.0,-18.0,-324.0,462.0
19:35:27.341000,-240.0,-338.0,403.0,799.0,639.0,-248.0,-18.0,-324.0,462.0
19:35:27.346000,-233.0,-336.0,347.0,779.0,698.0,-243.0,-15.0,-309.0,457.0
19:35:27.351000,-233.0,-334.0,294.0,763.0,736.0,-235.0,-15.0,-309.0,457.0
19:35:27.356000,-235.0,-332.0,251.0,754.0,752.0,-226.0,-13.0,-316.0,457.0
19:35:27.360000,-240.0,-326.0,214.0,748.0,755.0,-218.0,-13.0,-316.0,457.0
19:35:27.364000,-240.0,-326.0,214.0,739.0,759.0,-212.0,-13.0,-316.0,457.0
19:35:27.370000,-245.0,-303.0,139.0,731.0,767.0,-209.0,-6.0,-315.0,466.0
19:35:27.374000,-258.0,-282.0,112.0,718.0,777.0,-201.0,-6.0,-315.0,466.0
19:35:27.379000,-258.0,-282.0,112.0,697.0,781.0,-191.0,-25.0,-325.0,468.0
19:35:27.384000,-272.0,-254.0,98.0,673.0,772.0,-190.0,-25.0,-325.0,468.0
19:35:27.388000,-283.0,-219.0,93.0,647.0,765.0,-192.0,-25.0,-325.0,468.0
19:35:27.393000,-293.0,-182.0,79.0,621.0,778.0,-194.0,-10.0,-322.0,466.0
19:35:27.398000,-304.0,-140.0,54.0,596.0,812.0,-203.0,-10.0,-322.0,466.0
19:35:27.403000,-315.0,-93.0,17.0,570.0,858.0,-213.0,-9.0,-325.0,475.0
19:35:27.407000,-327.0,-46.0,-30.0,540.0,907.0,-216.0,-9.0,-325.0,475.0
19:35:27.411000,-343.0,-2.0,-85.0,507.0,948.0,-216.0,-9.0,-325.0,475.0
19:35:27.417000,-358.0,36.0,-144.0,488.0,966.0,-220.0,-1.0,-331.0,471.0
19:35:27.421000,-364.0,75.0,-202.0,490.0,952.0,-221.0,-1.0,-331.0,471.0
19:35:27.426000,-364.0,111.0,-249.0,490.0,952.0,-221.0,-7.0,-336.0,471.0
19:35:27.431000,-357.0,147.0,-287.0,520.0,891.0,-216.0,-7.0,-336.0,471.0
19:35:27.435000,-350.0,179.0,-317.0,538.0,872.0,-211.0,-7.0,-336.0,471.0
19:35:27.440000,-340.0,208.0,-334.0,538.0,872.0,-211.0,-9.0,-334.0,474.0
19:35:27.445000,-329.0,236.0,-341.0,558.0,850.0,-210.0,-9.0,-334.0,474.0
19:35:27.450000,-311.0,257.0,-348.0,571.0,812.0,-200.0,-9.0,-348.0,466.0
19:35:27.454000,-282.0,278.0,-346.0,596.0,754.0,-199.0,-9.0,-348.0,466.0
19:35:27.458000,-249.0,291.0,-340.0,621.0,700.0,-193.0,-9.0,-348.0,466.0
19:35:27.464000,-200.0,300.0,-336.0,641.0,652.0,-191.0,-18.0,-343.0,475.0
19:35:27.468000,-147.0,304.0,-343.0,667.0,621.0,-200.0,-18.0,-343.0,475.0
19:35:27.473000,-89.0,300.0,-368.0,689.0,614.0,-200.0,-18.0,-349.0,456.0
19:35:27.478000,-32.0,292.0,-394.0,716.0,614.0,-202.0,-18.0,-349.0,456.0
19:35:27.482000,-32.0,292.0,-394.0,751.0,618.0,-198.0,-18.0,-349.0,456.0
19:35:27.487000,16.0,277.0,-405.0,779.0,629.0,-198.0,-19.0,-351.0,454.0
19:35:27.492000,63.0,261.0,-411.0,793.0,658.0,-203.0,-19.0,-351.0,454.0
19:35:27.497000,101.0,242.0,-417.0,797.0,705.0,-202.0,-19.0,-349.0,459.0
19:35:27.501000,126.0,214.0,-424.0,797.0,751.0,-202.0,-19.0,-349.0,459.0
19:35:27.505000,141.0,186.0,-427.0,794.0,781.0,-207.0,-19.0,-349.0,459.0
19:35:27.511000,151.0,156.0,-428.0,788.0,803.0,-210.0,-30.0,-349.0,444.0
19:35:27.515000,156.0,130.0,-430.0,782.0,824.0,-211.0,-30.0,-349.0,444.0
19:35:27.520000,151.0,103.0,-424.0,773.0,836.0,-213.0,-28.0,-364.0,450.0
19:35:27.525000,144.0,79.0,-403.0,757.0,848.0,-212.0,-28.0,-364.0,450.0
19:35:27.529000,130.0,53.0,-380.0,733.0,864.0,-210.0,-28.0,-364.0,450.0
19:35:27.534000,117.0,31.0,-372.0,710.0,876.0,-215.0,-33.0,-357.0,453.0
19:35:27.539000,101.0,12.0,-373.0,696.0,877.0,-220.0,-33.0,-357.0,453.0
19:35:27.544000,84.0,-7.0,-369.0,696.0,877.0,-220.0,-36.0,-361.0,447.0
19:35:27.548000,70.0,-27.0,-351.0,692.0,859.0,-224.0,-36.0,-361.0,447.0
19:35:27.556000,58.0,-50.0,-321.0,701.0,769.0,-227.0,-28.0,-366.0,460.0
19:35:27.558000,53.0,-73.0,-287.0,701.0,769.0,-227.0,-28.0,-366.0,460.0
19:35:27.562000,48.0,-98.0,-248.0,718.0,716.0,-232.0,-28.0,-366.0,460.0
19:35:27.567000,46.0,-119.0,-207.0,745.0,678.0,-240.0,-37.0,-370.0,447.0
19:35:27.572000,41.0,-143.0,-170.0,774.0,667.0,-244.0,-37.0,-370.0,447.0
19:35:27.576000,34.0,-165.0,-138.0,804.0,663.0,-245.0,-34.0,-364.0,448.0
19:35:27.581000,27.0,-180.0,-105.0,837.0,643.0,-248.0,-34.0,-364.0,448.0
19:35:27.585000,27.0,-180.0,-105.0,862.0,615.0,-248.0,-34.0,-364.0,448.0
19:35:27.591000,18.0,-199.0,-30.0,869.0,593.0,-248.0,-28.0,-369.0,444.0
19:35:27.595000,18.0,-199.0,-30.0,852.0,576.0,-249.0,-28.0,-369.0,444.0
19:35:27.599000,18.0,-203.0,6.0,815.0,573.0,-252.0,-28.0,-369.0,459.0
19:35:27.605000,23.0,-205.0,30.0,775.0,564.0,-255.0,-28.0,-369.0,459.0
19:35:27.609000,34.0,-207.0,50.0,749.0,539.0,-257.0,-28.0,-369.0,459.0
19:35:27.614000,51.0,-207.0,72.0,743.0,519.0,-259.0,-52.0,-370.0,453.0
19:35:27.619000,79.0,-208.0,100.0,745.0,502.0,-268.0,-52.0,-370.0,453.0
19:35:27.623000,114.0,-207.0,114.0,747.0,497.0,-277.0,-30.0,-370.0,459.0
19:35:27.628000,149.0,-202.0,124.0,746.0,526.0,-278.0,-30.0,-370.0,459.0
19:35:27.632000,184.0,-203.0,127.0,737.0,561.0,-280.0,-30.0,-370.0,459.0
19:35:27.638000,203.0,-204.0,119.0,728.0,582.0,-284.0,-34.0,-372.0,459.0
19:35:27.642000,218.0,-209.0,103.0,724.0,602.0,-291.0,-34.0,-372.0,459.0
19:35:27.646000,235.0,-219.0,80.0,729.0,606.0,-287.0,-27.0,-358.0,454.0
19:35:27.652000,247.0,-238.0,58.0,746.0,582.0,-280.0,-27.0,-358.0,454.0
19:35:27.656000,259.0,-248.0,48.0,746.0,549.0,-277.0,-27.0,-358.0,454.0
19:35:27.661000,275.0,-259.0,50.0,767.0,549.0,-277.0,-31.0,-372.0,451.0
19:35:27.666000,289.0,-271.0,40.0,775.0,528.0,-260.0,-31.0,-372.0,451.0
19:35:27.670000,301.0,-280.0,23.0,778.0,513.0,-242.0,-34.0,-364.0,450.0
19:35:27.675000,308.0,-291.0,0.0,785.0,507.0,-222.0,-34.0,-364.0,450.0
19:35:27.679000,314.0,-304.0,-37.0,793.0,518.0,-201.0,-34.0,-364.0,450.0
19:35:27.685000,316.0,-321.0,-98.0,800.0,544.0,-185.0,-31.0,-367.0,463.0
19:35:27.689000,315.0,-338.0,-173.0,812.0,568.0,-169.0,-31.0,-367.0,463.0
19:35:27.693000,315.0,-338.0,-173.0,828.0,585.0,-157.0,-28.0,-363.0,469.0
19:35:27.699000,312.0,-381.0,-329.0,847.0,596.0,-154.0,-28.0,-363.0,469.0
19:35:27.703000,312.0,-381.0,-329.0,869.0,594.0,-163.0,-28.0,-363.0,469.0
19:35:27.708000,317.0,-402.0,-396.0,893.0,586.0,-167.0,-28.0,-358.0,456.0
19:35:27.713000,329.0,-419.0,-446.0,907.0,578.0,-171.0,-28.0,-358.0,456.0
19:35:27.717000,348.0,-426.0,-483.0,901.0,596.0,-192.0,-28.0,-364.0,456.0
19:35:27.722000,378.0,-423.0,-515.0,864.0,647.0,-205.0,-28.0,-364.0,456.0
19:35:27.726000,403.0,-419.0,-544.0,815.0,670.0,-213.0,-28.0,-364.0,456.0
19:35:27.732000,431.0,-411.0,-556.0,779.0,650.0,-226.0,-30.0,-367.0,454.0
19:35:27.736000,466.0,-403.0,-550.0,761.0,616.0,-241.0,-30.0,-367.0,454.0
19:35:27.741000,499.0,-392.0,-520.0,753.0,602.0,-253.0,-22.0,-372.0,453.0
19:35:27.746000,534.0,-387.0,-473.0,754.0,633.0,-257.0,-22.0,-372.0,453.0
19:35:27.750000,555.0,-388.0,-422.0,771.0,700.0,-257.0,-22.0,-372.0,453.0
19:35:27.755000,561.0,-400.0,-375.0,810.0,778.0,-249.0,-33.0,-363.0,462.0
19:35:27.760000,549.0,-422.0,-326.0,861.0,850.0,-240.0,-33.0,-363.0,462.0
19:35:27.764000,522.0,-448.0,-275.0,861.0,850.0,-240.0,-22.0,-370.0,463.0
19:35:27.769000,481.0,-470.0,-224.0,904.0,920.0,-234.0,-22.0,-370.0,463.0
19:35:27.773000,433.0,-486.0,-174.0,922.0,986.0,-225.0,-22.0,-370.0,463.0
19:35:27.779000,379.0,-499.0,-119.0,912.0,1030.0,-212.0,-18.0,-370.0,459.0
19:35:27.783000,319.0,-504.0,-58.0,820.0,1037.0,-185.0,-18.0,-370.0,459.0
19:35:27.788000,259.0,-505.0,4.0,820.0,1037.0,-185.0,-39.0,-363.0,480.0
19:35:27.793000,212.0,-506.0,64.0,764.0,1019.0,-178.0,-39.0,-363.0,480.0
19:35:27.797000,174.0,-503.0,108.0,721.0,981.0,-186.0,-39.0,-363.0,480.0
19:35:27.802000,144.0,-499.0,151.0,697.0,950.0,-204.0,-10.0,-366.0,474.0
19:35:27.807000,116.0,-492.0,195.0,683.0,946.0,-223.0,-10.0,-366.0,474.0
19:35:27.811000,84.0,-485.0,234.0,667.0,968.0,-235.0,-9.0,-357.0,469.0
19:35:27.816000,84.0,-485.0,234.0,650.0,986.0,-244.0,-9.0,-357.0,469.0
19:35:27.820000,48.0,-478.0,268.0,642.0,960.0,-259.0,-9.0,-357.0,469.0
19:35:27.826000,14.0,-469.0,305.0,648.0,903.0,-281.0,-19.0,-364.0,486.0
19:35:27.830000,-10.0,-458.0,338.0,653.0,852.0,-310.0,-19.0,-364.0,486.0
19:35:27.835000,-25.0,-448.0,367.0,647.0,816.0,-319.0,-6.0,-354.0,486.0
19:35:27.840000,-32.0,-443.0,385.0,637.0,797.0,-320.0,-6.0,-354.0,486.0
19:35:27.844000,-37.0,-438.0,406.0,631.0,798.0,-335.0,-6.0,-354.0,486.0
19:35:27.849000,-46.0,-434.0,419.0,628.0,805.0,-344.0,-4.0,-363.0,472.0
19:35:27.854000,-56.0,-434.0,411.0,635.0,797.0,-345.0,-4.0,-363.0,472.0
19:35:27.858000,-68.0,-438.0,392.0,668.0,779.0,-345.0,-12.0,-361.0,474.0
19:35:27.863000,-70.0,-439.0,377.0,720.0,718.0,-346.0,-12.0,-361.0,474.0
19:35:27.867000,-63.0,-438.0,385.0,749.0,640.0,-353.0,-12.0,-361.0,474.0
19:35:27.873000,-20.0,-433.0,406.0,735.0,568.0,-326.0,-4.0,-367.0,481.0
19:35:27.877000,-45.0,-433.0,436.0,735.0,568.0,-326.0,-4.0,-367.0,481.0
19:35:27.882000,-28.0,-428.0,447.0,683.0,549.0,-303.0,-19.0,-364.0,493.0
19:35:27.887000,-17.0,-424.0,411.0,626.0,606.0,-313.0,-19.0,-364.0,493.0
19:35:27.891000,-2.0,-419.0,367.0,594.0,640.0,-308.0,-19.0,-364.0,493.0
19:35:27.896000,14.0,-408.0,359.0,599.0,634.0,-304.0,-9.0,-358.0,478.0
19:35:27.901000,29.0,-399.0,377.0,623.0,600.0,-298.0,-9.0,-358.0,478.0
19:35:27.905000,53.0,-392.0,381.0,607.0,570.0,-292.0,6.0,-352.0,487.0
19:35:27.910000,71.0,-390.0,401.0,569.0,544.0,-289.0,6.0,-352.0,487.0
19:35:27.914000,71.0,-390.0,401.0,540.0,536.0,-294.0,6.0,-352.0,487.0
19:35:27.920000,83.0,-387.0,457.0,509.0,556.0,-299.0,0.0,-349.0,489.0
19:35:27.924000,83.0,-387.0,457.0,504.0,607.0,-300.0,0.0,-349.0,489.0
19:35:27.929000,77.0,-394.0,453.0,534.0,663.0,-305.0,-7.0,-349.0,490.0
19:35:27.934000,58.0,-399.0,429.0,571.0,688.0,-304.0,-7.0,-349.0,490.0
19:35:27.938000,23.0,-406.0,394.0,600.0,700.0,-312.0,-7.0,-349.0,490.0
19:35:27.943000,-11.0,-410.0,363.0,626.0,706.0,-334.0,0.0,-339.0,489.0
19:35:27.948000,-41.0,-411.0,350.0,616.0,710.0,-351.0,0.0,-339.0,489.0
19:35:27.952000,-67.0,-408.0,333.0,576.0,718.0,-366.0,9.0,-349.0,487.0
19:35:27.957000,-100.0,-397.0,311.0,541.0,734.0,-383.0,9.0,-349.0,487.0
19:35:27.961000,-130.0,-380.0,285.0,518.0,742.0,-390.0,9.0,-349.0,487.0
19:35:27.967000,-161.0,-368.0,250.0,519.0,711.0,-421.0,7.0,-357.0,507.0
19:35:27.971000,-182.0,-328.0,217.0,523.0,668.0,-458.0,7.0,-357.0,507.0
19:35:27.976000,-182.0,-297.0,187.0,523.0,668.0,-458.0,7.0,-349.0,493.0
19:35:27.981000,-200.0,-278.0,175.0,563.0,602.0,-478.0,7.0,-349.0,493.0
19:35:27.985000,-200.0,-261.0,180.0,563.0,571.0,-478.0,7.0,-349.0,493.0
19:35:27.990000,-226.0,-240.0,193.0,579.0,580.0,-493.0,15.0,-349.0,493.0
19:35:27.994000,-227.0,-227.0,198.0,574.0,579.0,-507.0,15.0,-349.0,493.0
19:35:27.999000,-220.0,-204.0,195.0,553.0,595.0,-519.0,1.0,-346.0,501.0
19:35:28.004000,-228.0,-172.0,178.0,538.0,601.0,-528.0,1.0,-346.0,501.0
19:35:28.008000,-215.0,-140.0,148.0,549.0,604.0,-544.0,1.0,-346.0,501.0
19:35:28.014000,-193.0,-103.0,130.0,580.0,593.0,-560.0,13.0,-352.0,492.0
19:35:28.018000,-168.0,-75.0,131.0,586.0,506.0,-557.0,13.0,-352.0,492.0
19:35:28.023000,-142.0,-39.0,142.0,586.0,506.0,-557.0,-3.0,-355.0,502.0
19:35:28.028000,-106.0,-11.0,156.0,559.0,448.0,-560.0,-3.0,-355.0,502.0
19:35:28.032000,-106.0,-11.0,156.0,532.0,455.0,-557.0,-3.0,-355.0,502.0
19:35:28.037000,-60.0,18.0,165.0,528.0,491.0,-548.0,7.0,-354.0,492.0
19:35:28.042000,-24.0,44.0,162.0,536.0,516.0,-539.0,7.0,-354.0,492.0
19:35:28.046000,9.0,71.0,150.0,542.0,531.0,-521.0,4.0,-363.0,501.0
19:35:28.051000,25.0,84.0,163.0,559.0,537.0,-505.0,4.0,-363.0,501.0
19:35:28.055000,44.0,105.0,199.0,584.0,554.0,-499.0,4.0,-363.0,501.0
19:35:28.061000,74.0,119.0,228.0,584.0,587.0,-494.0,1.0,-352.0,490.0
19:35:28.065000,102.0,133.0,233.0,555.0,631.0,-482.0,1.0,-352.0,490.0
19:35:28.070000,119.0,142.0,208.0,530.0,660.0,-460.0,4.0,-355.0,495.0
19:35:28.075000,128.0,144.0,198.0,524.0,653.0,-450.0,4.0,-355.0,495.0
19:35:28.079000,143.0,149.0,224.0,519.0,656.0,-444.0,4.0,-355.0,495.0
19:35:28.084000,155.0,144.0,264.0,517.0,661.0,-436.0,-12.0,-352.0,495.0
19:35:28.089000,165.0,144.0,294.0,523.0,668.0,-431.0,-12.0,-352.0,495.0
19:35:28.093000,175.0,137.0,326.0,523.0,668.0,-431.0,1.0,-352.0,492.0
19:35:28.098000,183.0,126.0,358.0,539.0,699.0,-425.0,1.0,-352.0,492.0
19:35:28.102000,184.0,116.0,393.0,556.0,695.0,-416.0,1.0,-352.0,492.0
19:35:28.108000,191.0,100.0,474.0,601.0,646.0,-403.0,-1.0,-348.0,502.0
19:35:28.112000,201.0,70.0,533.0,624.0,574.0,-388.0,-1.0,-348.0,502.0
19:35:28.117000,236.0,53.0,560.0,624.0,519.0,-399.0,-12.0,-349.0,489.0
19:35:28.122000,263.0,25.0,584.0,643.0,490.0,-407.0,-12.0,-349.0,489.0
19:35:28.126000,291.0,7.0,612.0,640.0,454.0,-402.0,-12.0,-349.0,489.0
19:35:28.131000,315.0,-16.0,628.0,630.0,429.0,-399.0,-21.0,-345.0,483.0
19:35:28.136000,359.0,-42.0,642.0,610.0,424.0,-390.0,-21.0,-345.0,483.0
19:35:28.140000,394.0,-71.0,647.0,584.0,427.0,-383.0,-12.0,-348.0,486.0
19:35:28.145000,394.0,-71.0,647.0,589.0,421.0,-380.0,-12.0,-348.0,486.0
19:35:28.149000,417.0,-94.0,653.0,607.0,411.0,-383.0,-12.0,-348.0,486.0
19:35:28.155000,460.0,-123.0,659.0,597.0,388.0,-374.0,-12.0,-337.0,481.0
19:35:28.159000,495.0,-147.0,672.0,575.0,381.0,-371.0,-12.0,-337.0,481.0
19:35:28.164000,546.0,-174.0,696.0,542.0,411.0,-372.0,-28.0,-334.0,489.0
19:35:28.169000,598.0,-194.0,690.0,515.0,461.0,-364.0,-28.0,-334.0,489.0
19:35:28.173000,629.0,-214.0,667.0,511.0,519.0,-350.0,-28.0,-334.0,489.0
19:35:28.178000,649.0,-235.0,632.0,516.0,560.0,-335.0,-25.0,-337.0,495.0
19:35:28.183000,637.0,-256.0,580.0,520.0,582.0,-330.0,-25.0,-337.0,495.0
19:35:28.187000,630.0,-273.0,513.0,523.0,595.0,-332.0,-12.0,-318.0,487.0
19:35:28.192000,621.0,-284.0,455.0,522.0,611.0,-330.0,-12.0,-318.0,487.0
19:35:28.196000,612.0,-292.0,420.0,499.0,649.0,-332.0,-12.0,-318.0,487.0
19:35:28.202000,609.0,-295.0,377.0,459.0,722.0,-326.0,-15.0,-319.0,490.0
19:35:28.206000,590.0,-296.0,313.0,459.0,722.0,-326.0,-15.0,-319.0,490.0
19:35:28.211000,571.0,-295.0,254.0,444.0,798.0,-317.0,-7.0,-310.0,487.0
19:35:28.216000,548.0,-296.0,195.0,444.0,826.0,-307.0,-7.0,-310.0,487.0
19:35:28.220000,520.0,-290.0,136.0,440.0,810.0,-297.0,-7.0,-310.0,487.0
19:35:28.225000,505.0,-284.0,91.0,444.0,784.0,-293.0,-9.0,-312.0,496.0
19:35:28.230000,502.0,-273.0,72.0,462.0,752.0,-292.0,-9.0,-312.0,496.0
19:35:28.234000,497.0,-264.0,71.0,485.0,737.0,-288.0,-15.0,-310.0,492.0
19:35:28.239000,515.0,-261.0,57.0,486.0,779.0,-278.0,-15.0,-310.0,492.0
19:35:28.243000,515.0,-261.0,57.0,486.0,739.0,-285.0,-15.0,-310.0,492.0
19:35:28.249000,522.0,-204.0,-38.0,532.0,676.0,-298.0,-13.0,-307.0,502.0
19:35:28.253000,522.0,-204.0,-38.0,593.0,701.0,-295.0,-13.0,-307.0,502.0
19:35:28.258000,529.0,-181.0,-35.0,617.0,744.0,-289.0,-3.0,-301.0,495.0
19:35:28.263000,526.0,-149.0,-34.0,606.0,798.0,-284.0,-3.0,-301.0,495.0
19:35:28.267000,520.0,-112.0,-69.0,611.0,829.0,-281.0,-3.0,-301.0,495.0
19:35:28.272000,515.0,-75.0,-114.0,655.0,862.0,-279.0,-13.0,-301.0,486.0
19:35:28.277000,525.0,-35.0,-158.0,752.0,915.0,-277.0,-13.0,-301.0,486.0
19:35:28.281000,533.0,4.0,-185.0,701.0,747.0,-281.0,-16.0,-304.0,493.0
19:35:28.286000,528.0,44.0,-102.0,560.0,608.0,-316.0,-16.0,-304.0,493.0
19:35:28.290000,564.0,100.0,-30.0,486.0,699.0,-332.0,-16.0,-304.0,493.0
19:35:28.296000,576.0,133.0,-10.0,473.0,805.0,-336.0,-24.0,-304.0,489.0
19:35:28.300000,592.0,171.0,-30.0,568.0,885.0,-336.0,-24.0,-304.0,489.0
19:35:28.305000,607.0,181.0,-48.0,568.0,885.0,-336.0,-33.0,-298.0,492.0
19:35:28.310000,632.0,203.0,-29.0,735.0,762.0,-331.0,-33.0,-298.0,492.0
19:35:28.314000,656.0,212.0,39.0,735.0,762.0,-331.0,-33.0,-298.0,492.0
19:35:28.319000,704.0,226.0,130.0,744.0,681.0,-326.0,-19.0,-301.0,490.0
19:35:28.324000,751.0,226.0,219.0,743.0,623.0,-314.0,-19.0,-301.0,490.0
19:35:28.328000,812.0,235.0,303.0,744.0,586.0,-299.0,-31.0,-292.0,480.0
19:35:28.333000,875.0,236.0,388.0,745.0,572.0,-289.0,-31.0,-292.0,480.0
19:35:28.337000,935.0,242.0,467.0,733.0,581.0,-272.0,-31.0,-292.0,480.0
19:35:28.343000,997.0,246.0,528.0,714.0,594.0,-259.0,-37.0,-285.0,495.0
19:35:28.347000,1059.0,253.0,581.0,697.0,588.0,-247.0,-37.0,-285.0,495.0
19:35:28.352000,1117.0,256.0,627.0,690.0,583.0,-229.0,-31.0,-280.0,469.0
19:35:28.357000,1173.0,260.0,665.0,683.0,606.0,-204.0,-31.0,-280.0,469.0
19:35:28.361000,1173.0,260.0,665.0,669.0,674.0,-180.0,-31.0,-280.0,469.0
19:35:28.366000,1221.0,264.0,676.0,651.0,746.0,-156.0,-37.0,-274.0,477.0
19:35:28.371000,1250.0,273.0,658.0,634.0,808.0,-130.0,-37.0,-274.0,477.0
19:35:28.375000,1260.0,281.0,620.0,620.0,867.0,-106.0,-31.0,-259.0,466.0
19:35:28.380000,1257.0,292.0,598.0,599.0,904.0,-88.0,-31.0,-259.0,466.0
19:35:28.387000,1229.0,317.0,586.0,529.0,972.0,-55.0,-39.0,-258.0,453.0
19:35:28.390000,1229.0,317.0,586.0,529.0,972.0,-55.0,-39.0,-258.0,453.0
19:35:28.394000,1202.0,340.0,589.0,490.0,1007.0,-42.0,-39.0,-258.0,453.0
19:35:28.399000,1166.0,369.0,593.0,463.0,1042.0,-32.0,-49.0,-253.0,459.0
19:35:28.404000,1122.0,403.0,604.0,443.0,1082.0,-19.0,-49.0,-253.0,459.0
19:35:28.408000,1068.0,440.0,620.0,426.0,1125.0,-3.0,-46.0,-240.0,447.0
19:35:28.413000,1002.0,476.0,644.0,418.0,1161.0,12.0,-46.0,-240.0,447.0
19:35:28.417000,930.0,511.0,670.0,420.0,1194.0,28.0,-46.0,-240.0,447.0
19:35:28.422000,854.0,546.0,690.0,420.0,1206.0,38.0,-34.0,-222.0,439.0
19:35:28.427000,778.0,583.0,700.0,428.0,1206.0,38.0,-34.0,-222.0,439.0
19:35:28.431000,711.0,620.0,708.0,491.0,1165.0,46.0,-45.0,-229.0,442.0
19:35:28.437000,658.0,655.0,716.0,491.0,1165.0,46.0,-45.0,-229.0,442.0
19:35:28.441000,614.0,693.0,718.0,549.0,1123.0,47.0,-45.0,-229.0,442.0
19:35:28.446000,595.0,730.0,698.0,616.0,1110.0,52.0,-42.0,-210.0,436.0
19:35:28.451000,561.0,759.0,665.0,683.0,1134.0,63.0,-42.0,-210.0,436.0
19:35:28.455000,526.0,781.0,657.0,740.0,1130.0,79.0,-51.0,-208.0,435.0
19:35:28.460000,525.0,802.0,661.0,780.0,1108.0,89.0,-51.0,-208.0,435.0
19:35:28.464000,525.0,802.0,661.0,806.0,1085.0,95.0,-51.0,-208.0,435.0
19:35:28.469000,544.0,842.0,676.0,833.0,1051.0,105.0,-52.0,-213.0,423.0
19:35:28.474000,544.0,842.0,676.0,850.0,1050.0,117.0,-52.0,-213.0,423.0
19:35:28.478000,574.0,858.0,683.0,840.0,1087.0,133.0,-58.0,-187.0,424.0
19:35:28.483000,597.0,877.0,704.0,827.0,1136.0,155.0,-58.0,-187.0,424.0
19:35:28.488000,602.0,896.0,758.0,815.0,1182.0,171.0,-58.0,-187.0,424.0
19:35:28.493000,599.0,909.0,838.0,786.0,1213.0,178.0,-58.0,-195.0,396.0
19:35:28.498000,594.0,920.0,928.0,728.0,1225.0,187.0,-58.0,-195.0,396.0
19:35:28.502000,579.0,929.0,1012.0,666.0,1235.0,198.0,-64.0,-186.0,400.0
19:35:28.507000,560.0,939.0,1105.0,637.0,1252.0,208.0,-64.0,-186.0,400.0
19:35:28.511000,531.0,945.0,1214.0,625.0,1275.0,213.0,-64.0,-186.0,400.0
19:35:28.516000,493.0,949.0,1321.0,602.0,1330.0,212.0,-60.0,-183.0,388.0
19:35:28.521000,457.0,949.0,1400.0,566.0,1398.0,212.0,-60.0,-183.0,388.0
19:35:28.526000,424.0,949.0,1428.0,539.0,1424.0,207.0,-67.0,-178.0,381.0
19:35:28.531000,396.0,949.0,1425.0,537.0,1393.0,205.0,-67.0,-178.0,381.0
19:35:28.535000,359.0,948.0,1426.0,537.0,1393.0,205.0,-67.0,-178.0,381.0
19:35:28.540000,322.0,938.0,1456.0,568.0,1343.0,208.0,-70.0,-171.0,378.0
19:35:28.545000,284.0,915.0,1544.0,682.0,1294.0,214.0,-70.0,-171.0,378.0
19:35:28.549000,244.0,895.0,1675.0,825.0,1253.0,217.0,-66.0,-150.0,378.0
19:35:28.554000,198.0,877.0,1739.0,853.0,1250.0,217.0,-66.0,-150.0,378.0
19:35:28.558000,175.0,863.0,1659.0,701.0,1289.0,215.0,-66.0,-150.0,378.0
19:35:28.563000,155.0,854.0,1610.0,525.0,1294.0,201.0,-52.0,-144.0,354.0
19:35:28.568000,114.0,851.0,1712.0,487.0,1234.0,198.0,-52.0,-144.0,354.0
19:35:28.573000,79.0,833.0,1834.0,496.0,1183.0,211.0,-63.0,-124.0,366.0
19:35:28.578000,65.0,820.0,1848.0,467.0,1194.0,213.0,-63.0,-124.0,366.0
19:35:28.582000,65.0,820.0,1848.0,443.0,1206.0,215.0,-63.0,-124.0,366.0
19:35:28.587000,46.0,804.0,1839.0,459.0,1192.0,226.0,-54.0,-105.0,352.0
19:35:28.592000,21.0,797.0,1851.0,479.0,1177.0,229.0,-54.0,-105.0,352.0
19:35:28.596000,-17.0,795.0,1879.0,468.0,1153.0,223.0,-34.0,-93.0,342.0
19:35:28.601000,-26.0,788.0,1924.0,432.0,1109.0,210.0,-34.0,-93.0,342.0
19:35:28.605000,-42.0,784.0,1984.0,368.0,1076.0,205.0,-34.0,-93.0,342.0
19:35:28.610000,-52.0,784.0,2026.0,295.0,1081.0,199.0,-34.0,-85.0,336.0
19:35:28.614000,-66.0,786.0,2045.0,263.0,1089.0,198.0,-34.0,-85.0,336.0
19:35:28.620000,-85.0,777.0,2067.0,265.0,1078.0,195.0,-36.0,-70.0,339.0
19:35:28.625000,-98.0,772.0,2085.0,273.0,1056.0,191.0,-36.0,-70.0,339.0
19:35:28.629000,-119.0,763.0,2099.0,275.0,1045.0,191.0,-36.0,-70.0,339.0
19:35:28.634000,-140.0,753.0,2105.0,259.0,1057.0,188.0,-16.0,-49.0,333.0
19:35:28.639000,-165.0,747.0,2096.0,227.0,1082.0,190.0,-16.0,-49.0,333.0
19:35:28.643000,-200.0,740.0,2082.0,227.0,1082.0,190.0,6.0,-48.0,337.0
19:35:28.648000,-242.0,731.0,2076.0,185.0,1113.0,194.0,6.0,-48.0,337.0
19:35:28.652000,-283.0,723.0,2074.0,134.0,1139.0,195.0,6.0,-48.0,337.0
19:35:28.657000,-319.0,720.0,2066.0,82.0,1138.0,189.0,16.0,-27.0,324.0
19:35:28.662000,-350.0,721.0,2064.0,45.0,1057.0,182.0,16.0,-27.0,324.0
19:35:28.667000,-375.0,726.0,2074.0,21.0,1057.0,172.0,25.0,-16.0,334.0
19:35:28.671000,-397.0,731.0,2079.0,-4.0,1020.0,162.0,25.0,-16.0,334.0
19:35:28.676000,-397.0,731.0,2079.0,-32.0,994.0,151.0,25.0,-16.0,334.0
19:35:28.681000,-431.0,725.0,2046.0,-46.0,980.0,141.0,36.0,-9.0,336.0
19:35:28.686000,-448.0,716.0,2008.0,-39.0,976.0,130.0,36.0,-9.0,336.0
19:35:28.690000,-448.0,716.0,2008.0,-17.0,977.0,115.0,52.0,3.0,327.0
19:35:28.695000,-466.0,707.0,1966.0,0.0,992.0,106.0,52.0,3.0,327.0
19:35:28.699000,-492.0,695.0,1918.0,5.0,1025.0,100.0,52.0,3.0,327.0
19:35:28.704000,-522.0,676.0,1855.0,-3.0,1065.0,96.0,79.0,24.0,333.0
19:35:28.709000,-560.0,651.0,1782.0,-17.0,1086.0,93.0,79.0,24.0,333.0
19:35:28.714000,-598.0,625.0,1716.0,-24.0,1063.0,85.0,79.0,16.0,349.0
19:35:28.718000,-627.0,599.0,1663.0,-28.0,1011.0,74.0,79.0,16.0,349.0
19:35:28.723000,-646.0,583.0,1621.0,-48.0,966.0,61.0,79.0,16.0,349.0
19:35:28.728000,-656.0,578.0,1586.0,-89.0,949.0,50.0,100.0,30.0,343.0
19:35:28.733000,-665.0,575.0,1556.0,-143.0,952.0,43.0,100.0,30.0,343.0
19:35:28.737000,-674.0,573.0,1535.0,-143.0,961.0,35.0,117.0,33.0,340.0
19:35:28.742000,-684.0,569.0,1523.0,-242.0,961.0,27.0,117.0,33.0,340.0
19:35:28.746000,-695.0,568.0,1515.0,-274.0,960.0,21.0,117.0,33.0,340.0
19:35:28.751000,-707.0,568.0,1505.0,-274.0,965.0,21.0,121.0,40.0,352.0
19:35:28.756000,-721.0,568.0,1486.0,-296.0,965.0,17.0,121.0,40.0,352.0
19:35:28.761000,-731.0,557.0,1460.0,-317.0,956.0,9.0,144.0,54.0,376.0
19:35:28.765000,-742.0,534.0,1439.0,-317.0,956.0,9.0,144.0,54.0,376.0
19:35:28.770000,-740.0,506.0,1428.0,-294.0,899.0,3.0,144.0,54.0,376.0
19:35:28.775000,-725.0,474.0,1406.0,-279.0,829.0,-11.0,156.0,48.0,360.0
19:35:28.780000,-700.0,437.0,1372.0,-266.0,776.0,-26.0,156.0,48.0,360.0
19:35:28.784000,-670.0,396.0,1327.0,-250.0,752.0,-39.0,166.0,51.0,364.0
19:35:28.789000,-644.0,353.0,1273.0,-243.0,759.0,-51.0,166.0,51.0,364.0
19:35:28.793000,-644.0,353.0,1273.0,-255.0,793.0,-58.0,166.0,51.0,364.0
19:35:28.798000,-622.0,313.0,1208.0,-288.0,838.0,-59.0,184.0,49.0,367.0
19:35:28.803000,-608.0,277.0,1140.0,-330.0,860.0,-58.0,184.0,49.0,367.0
19:35:28.808000,-599.0,246.0,1075.0,-359.0,842.0,-59.0,184.0,55.0,378.0
19:35:28.812000,-587.0,224.0,1019.0,-373.0,800.0,-63.0,184.0,55.0,378.0
19:35:28.817000,-567.0,206.0,963.0,-382.0,765.0,-69.0,184.0,55.0,378.0
19:35:28.822000,-536.0,191.0,900.0,-391.0,746.0,-75.0,202.0,52.0,382.0
19:35:28.827000,-494.0,177.0,840.0,-397.0,732.0,-85.0,202.0,52.0,382.0
19:35:28.831000,-445.0,165.0,786.0,-401.0,723.0,-95.0,219.0,61.0,387.0
19:35:28.836000,-396.0,160.0,739.0,-406.0,725.0,-103.0,219.0,61.0,387.0
19:35:28.840000,-347.0,158.0,696.0,-405.0,741.0,-107.0,219.0,61.0,387.0
19:35:28.845000,-304.0,159.0,658.0,-400.0,767.0,-106.0,228.0,58.0,388.0
19:35:28.850000,-269.0,159.0,628.0,-398.0,797.0,-100.0,228.0,58.0,388.0
19:35:28.855000,-245.0,158.0,611.0,-398.0,797.0,-100.0,217.0,60.0,396.0
19:35:28.859000,-231.0,156.0,611.0,-403.0,831.0,-82.0,217.0,60.0,396.0
19:35:28.864000,-224.0,153.0,624.0,-403.0,831.0,-82.0,217.0,60.0,396.0
19:35:28.869000,-225.0,149.0,646.0,-408.0,828.0,-75.0,237.0,60.0,403.0
19:35:28.874000,-228.0,144.0,673.0,-417.0,821.0,-70.0,237.0,60.0,403.0
19:35:28.878000,-235.0,137.0,697.0,-433.0,816.0,-64.0,238.0,51.0,403.0
19:35:28.883000,-244.0,130.0,719.0,-456.0,814.0,-60.0,238.0,51.0,403.0
19:35:28.887000,-254.0,122.0,739.0,-478.0,804.0,-55.0,238.0,51.0,403.0
19:35:28.892000,-266.0,113.0,761.0,-488.0,777.0,-49.0,244.0,49.0,400.0
19:35:28.897000,-271.0,104.0,781.0,-484.0,732.0,-43.0,244.0,49.0,400.0
19:35:28.902000,-272.0,94.0,788.0,-474.0,685.0,-39.0,252.0,66.0,397.0
19:35:28.906000,-269.0,88.0,781.0,-467.0,651.0,-35.0,252.0,66.0,397.0
19:35:28.911000,-269.0,88.0,781.0,-467.0,633.0,-34.0,252.0,66.0,397.0
19:35:28.916000,-265.0,85.0,761.0,-478.0,627.0,-32.0,261.0,58.0,405.0
19:35:28.921000,-263.0,86.0,730.0,-502.0,633.0,-28.0,261.0,58.0,405.0
19:35:28.925000,-264.0,93.0,689.0,-536.0,646.0,-23.0,274.0,58.0,403.0
19:35:28.930000,-270.0,106.0,639.0,-568.0,649.0,-16.0,274.0,58.0,403.0
19:35:28.934000,-275.0,123.0,576.0,-584.0,630.0,-11.0,274.0,58.0,403.0
19:35:28.939000,-277.0,144.0,499.0,-586.0,598.0,-10.0,288.0,54.0,403.0
19:35:28.944000,-275.0,166.0,404.0,-589.0,572.0,-13.0,288.0,54.0,403.0
19:35:28.948000,-268.0,189.0,298.0,-605.0,564.0,-18.0,292.0,58.0,415.0
19:35:28.953000,-259.0,210.0,188.0,-630.0,571.0,-24.0,292.0,58.0,415.0
19:35:28.958000,-244.0,228.0,69.0,-652.0,577.0,-32.0,292.0,58.0,415.0
19:35:28.963000,-225.0,248.0,-56.0,-660.0,576.0,-40.0,274.0,48.0,414.0
19:35:28.968000,-207.0,265.0,-177.0,-655.0,570.0,-41.0,274.0,48.0,414.0
19:35:28.972000,-191.0,277.0,-286.0,-655.0,570.0,-41.0,286.0,51.0,415.0
19:35:28.977000,-178.0,284.0,-375.0,-635.0,557.0,-44.0,286.0,51.0,415.0
19:35:28.981000,-170.0,291.0,-450.0,-611.0,546.0,-48.0,286.0,51.0,415.0
19:35:28.986000,-172.0,292.0,-512.0,-595.0,555.0,-49.0,282.0,52.0,420.0
19:35:28.991000,-180.0,290.0,-567.0,-587.0,578.0,-49.0,282.0,52.0,420.0
19:35:28.995000,-191.0,286.0,-616.0,-577.0,591.0,-56.0,288.0,54.0,417.0
19:35:29.000000,-203.0,281.0,-662.0,-572.0,587.0,-65.0,288.0,54.0,417.0
19:35:29.005000,-203.0,281.0,-662.0,-581.0,588.0,-70.0,288.0,54.0,417.0
19:35:29.010000,-238.0,273.0,-745.0,-598.0,598.0,-76.0,280.0,52.0,418.0
19:35:29.015000,-256.0,268.0,-787.0,-610.0,599.0,-82.0,280.0,52.0,418.0
19:35:29.019000,-256.0,268.0,-787.0,-608.0,584.0,-90.0,259.0,52.0,421.0
19:35:29.024000,-275.0,263.0,-836.0,-600.0,563.0,-101.0,259.0,52.0,421.0
19:35:29.028000,-291.0,260.0,-886.0,-602.0,557.0,-111.0,259.0,52.0,421.0
19:35:29.033000,-308.0,254.0,-937.0,-615.0,570.0,-120.0,262.0,46.0,427.0
19:35:29.038000,-322.0,249.0,-991.0,-623.0,580.0,-129.0,262.0,46.0,427.0
19:35:29.043000,-334.0,243.0,-1046.0,-610.0,567.0,-136.0,246.0,46.0,430.0
19:35:29.047000,-342.0,238.0,-1099.0,-581.0,537.0,-147.0,246.0,46.0,430.0
19:35:29.052000,-345.0,233.0,-1144.0,-553.0,512.0,-159.0,246.0,46.0,430.0
19:35:29.057000,-344.0,228.0,-1180.0,-543.0,508.0,-169.0,228.0,39.0,430.0
19:35:29.062000,-343.0,223.0,-1213.0,-550.0,524.0,-180.0,228.0,39.0,430.0
19:35:29.066000,-338.0,217.0,-1243.0,-550.0,555.0,-180.0,222.0,37.0,442.0
19:35:29.071000,-331.0,212.0,-1264.0,-548.0,535.0,-200.0,222.0,37.0,442.0
19:35:29.075000,-321.0,207.0,-1277.0,-527.0,531.0,-212.0,222.0,37.0,442.0
19:35:29.080000,-307.0,202.0,-1285.0,-527.0,531.0,-212.0,211.0,42.0,441.0
19:35:29.085000,-293.0,193.0,-1286.0,-490.0,563.0,-228.0,211.0,42.0,441.0
19:35:29.090000,-282.0,183.0,-1281.0,-490.0,563.0,-228.0,195.0,30.0,444.0
19:35:29.094000,-274.0,170.0,-1265.0,-485.0,598.0,-230.0,195.0,30.0,444.0
19:35:29.099000,-266.0,155.0,-1239.0,-480.0,623.0,-234.0,195.0,30.0,444.0
19:35:29.104000,-259.0,137.0,-1204.0,-466.0,635.0,-238.0,187.0,21.0,442.0
19:35:29.109000,-252.0,117.0,-1165.0,-448.0,640.0,-241.0,187.0,21.0,442.0
19:35:29.113000,-245.0,95.0,-1124.0,-428.0,649.0,-241.0,172.0,30.0,441.0
19:35:29.118000,-237.0,70.0,-1079.0,-407.0,659.0,-240.0,172.0,30.0,441.0
19:35:29.122000,-237.0,70.0,-1079.0,-385.0,666.0,-238.0,172.0,30.0,441.0
19:35:29.127000,-229.0,44.0,-1035.0,-360.0,672.0,-240.0,150.0,19.0,451.0
19:35:29.132000,-220.0,18.0,-990.0,-340.0,680.0,-243.0,150.0,19.0,451.0
19:35:29.137000,-212.0,-7.0,-947.0,-327.0,693.0,-247.0,153.0,13.0,439.0
19:35:29.141000,-203.0,-33.0,-911.0,-315.0,701.0,-252.0,153.0,13.0,439.0
19:35:29.146000,-191.0,-58.0,-876.0,-304.0,702.0,-261.0,153.0,13.0,439.0
19:35:29.151000,-172.0,-79.0,-844.0,-299.0,713.0,-271.0,163.0,16.0,441.0
19:35:29.156000,-152.0,-101.0,-821.0,-302.0,748.0,-281.0,163.0,16.0,441.0
19:35:29.160000,-133.0,-121.0,-810.0,-305.0,792.0,-286.0,144.0,7.0,436.0
19:35:29.165000,-117.0,-144.0,-801.0,-299.0,819.0,-285.0,144.0,7.0,436.0
19:35:29.169000,-104.0,-169.0,-781.0,-280.0,814.0,-283.0,144.0,7.0,436.0
19:35:29.174000,-88.0,-194.0,-744.0,-256.0,797.0,-280.0,129.0,4.0,462.0
19:35:29.179000,-69.0,-221.0,-700.0,-238.0,794.0,-279.0,129.0,4.0,462.0
19:35:29.184000,-49.0,-246.0,-652.0,-238.0,794.0,-279.0,129.0,4.0,462.0
19:35:29.188000,-33.0,-270.0,-604.0,-229.0,848.0,-277.0,129.0,4.0,462.0
19:35:29.193000,-21.0,-297.0,-549.0,-229.0,848.0,-277.0,129.0,4.0,462.0
19:35:29.198000,-11.0,-327.0,-487.0,-234.0,877.0,-270.0,123.0,1.0,456.0
19:35:29.203000,-2.0,-360.0,-411.0,-233.0,888.0,-261.0,123.0,1.0,456.0
19:35:29.207000,8.0,-390.0,-322.0,-222.0,879.0,-256.0,118.0,-4.0,444.0
19:35:29.212000,16.0,-419.0,-233.0,-212.0,876.0,-256.0,118.0,-4.0,444.0
19:35:29.216000,18.0,-448.0,-150.0,-210.0,902.0,-256.0,118.0,-4.0,444.0
19:35:29.221000,13.0,-476.0,-69.0,-216.0,951.0,-253.0,120.0,3.0,442.0
19:35:29.226000,0.0,-505.0,17.0,-219.0,999.0,-246.0,120.0,3.0,442.0
19:35:29.231000,-18.0,-535.0,110.0,-220.0,1026.0,-239.0,114.0,-4.0,457.0
19:35:29.235000,-37.0,-566.0,203.0,-218.0,1030.0,-233.0,114.0,-4.0,457.0
19:35:29.240000,-37.0,-566.0,203.0,-215.0,1020.0,-226.0,114.0,-4.0,457.0
19:35:29.245000,-53.0,-595.0,296.0,-216.0,1004.0,-220.0,124.0,-4.0,454.0
19:35:29.250000,-67.0,-620.0,385.0,-221.0,984.0,-215.0,124.0,-4.0,454.0
19:35:29.254000,-79.0,-644.0,471.0,-234.0,969.0,-213.0,132.0,-7.0,444.0
19:35:29.259000,-85.0,-661.0,552.0,-255.0,965.0,-209.0,132.0,-7.0,444.0
19:35:29.263000,-93.0,-683.0,621.0,-263.0,965.0,-205.0,132.0,-7.0,444.0
19:35:29.268000,-100.0,-697.0,685.0,-275.0,949.0,-201.0,147.0,-9.0,448.0
19:35:29.273000,-105.0,-715.0,759.0,-302.0,933.0,-199.0,147.0,-9.0,448.0
