hh:mm:ss.ms,gyroX[mdps],gyroY[mdps],gyroZ[mdps],accX[mg],accY[mg],accZ[mg],magX[mG],magY[mG],magZ[mG]
19:34:57.362000,228.0,102.0,543.0,480.0,773.0,-32.0,133.0,-43.0,96.0
19:34:57.366000,203.0,75.0,640.0,426.0,767.0,-13.0,133.0,-43.0,96.0
19:34:57.371000,184.0,50.0,756.0,392.0,767.0,-13.0,133.0,-43.0,96.0
19:34:57.376000,169.0,34.0,878.0,369.0,731.0,-12.0,136.0,-46.0,96.0
19:34:57.381000,156.0,22.0,947.0,327.0,713.0,-15.0,136.0,-46.0,96.0
19:34:57.386000,156.0,22.0,947.0,271.0,731.0,-14.0,147.0,-34.0,88.0
19:34:57.390000,142.0,12.0,961.0,237.0,756.0,-3.0,147.0,-34.0,88.0
19:34:57.394000,128.0,0.0,970.0,232.0,748.0,15.0,147.0,-34.0,88.0
19:34:57.400000,108.0,-11.0,998.0,234.0,701.0,31.0,147.0,-36.0,85.0
19:34:57.404000,88.0,-14.0,1043.0,230.0,640.0,43.0,147.0,-36.0,85.0
19:34:57.409000,70.0,-8.0,1078.0,213.0,604.0,49.0,160.0,-31.0,84.0
19:34:57.413000,55.0,4.0,1057.0,190.0,599.0,47.0,160.0,-31.0,84.0
19:34:57.418000,43.0,25.0,991.0,172.0,601.0,40.0,160.0,-31.0,84.0
19:34:57.423000,40.0,48.0,903.0,160.0,599.0,35.0,169.0,-25.0,93.0
19:34:57.428000,42.0,69.0,813.0,153.0,583.0,27.0,169.0,-25.0,93.0
19:34:57.433000,44.0,91.0,742.0,145.0,563.0,14.0,171.0,-18.0,90.0
19:34:57.437000,49.0,112.0,677.0,134.0,560.0,0.0,171.0,-18.0,90.0
19:34:57.441000,56.0,133.0,580.0,128.0,587.0,-15.0,171.0,-18.0,90.0
19:34:57.447000,54.0,154.0,448.0,152.0,644.0,-24.0,192.0,-22.0,84.0
19:34:57.451000,39.0,168.0,328.0,152.0,644.0,-24.0,192.0,-22.0,84.0
19:34:57.456000,4.0,177.0,277.0,199.0,701.0,-36.0,181.0,-30.0,88.0
19:34:57.461000,-25.0,170.0,256.0,232.0,727.0,-52.0,181.0,-30.0,88.0
19:34:57.465000,-53.0,178.0,168.0,242.0,759.0,-86.0,181.0,-30.0,88.0
19:34:57.470000,-98.0,178.0,87.0,262.0,834.0,-125.0,180.0,-22.0,87.0
19:34:57.475000,-155.0,163.0,44.0,319.0,909.0,-145.0,180.0,-22.0,87.0
19:34:57.480000,-226.0,137.0,7.0,366.0,969.0,-162.0,187.0,-18.0,87.0
19:34:57.484000,-293.0,97.0,-4.0,388.0,1003.0,-176.0,187.0,-18.0,87.0
19:34:57.488000,-293.0,97.0,-4.0,433.0,975.0,-192.0,187.0,-18.0,87.0
19:34:57.494000,-384.0,14.0,89.0,486.0,908.0,-209.0,196.0,-19.0,88.0
19:34:57.498000,-384.0,14.0,89.0,525.0,846.0,-222.0,196.0,-19.0,88.0
19:34:57.503000,-410.0,-30.0,158.0,548.0,825.0,-227.0,187.0,-21.0,103.0
19:34:57.508000,-426.0,-75.0,228.0,555.0,843.0,-230.0,187.0,-21.0,103.0
19:34:57.512000,-426.0,-115.0,274.0,555.0,855.0,-227.0,187.0,-21.0,103.0
19:34:57.517000,-415.0,-149.0,303.0,559.0,856.0,-222.0,180.0,-30.0,118.0
19:34:57.522000,-410.0,-170.0,319.0,549.0,876.0,-218.0,180.0,-30.0,118.0
19:34:57.527000,-399.0,-182.0,322.0,516.0,906.0,-214.0,180.0,-30.0,118.0
19:34:57.531000,-392.0,-184.0,310.0,461.0,965.0,-210.0,180.0,-30.0,118.0
19:34:57.535000,-389.0,-182.0,274.0,395.0,1031.0,-209.0,180.0,-30.0,118.0
19:34:57.541000,-383.0,-175.0,225.0,345.0,1046.0,-213.0,186.0,-19.0,102.0
19:34:57.545000,-373.0,-167.0,182.0,316.0,1030.0,-210.0,186.0,-19.0,102.0
19:34:57.550000,-355.0,-162.0,135.0,316.0,1030.0,-210.0,190.0,-4.0,105.0
19:34:57.555000,-327.0,-157.0,96.0,332.0,1006.0,-207.0,190.0,-4.0,105.0
19:34:57.559000,-284.0,-147.0,42.0,332.0,1006.0,-207.0,190.0,-4.0,105.0
19:34:57.564000,-238.0,-133.0,-23.0,354.0,991.0,-209.0,193.0,-7.0,112.0
19:34:57.569000,-182.0,-123.0,-48.0,391.0,967.0,-209.0,193.0,-7.0,112.0
19:34:57.574000,-130.0,-112.0,-51.0,412.0,971.0,-210.0,184.0,-15.0,108.0
19:34:57.578000,-100.0,-100.0,-70.0,382.0,1025.0,-203.0,184.0,-15.0,108.0
19:34:57.582000,-79.0,-92.0,-111.0,332.0,1108.0,-195.0,184.0,-15.0,108.0
19:34:57.588000,-78.0,-89.0,-162.0,291.0,1201.0,-184.0,196.0,-16.0,112.0
19:34:57.592000,-87.0,-91.0,-200.0,269.0,1279.0,-171.0,196.0,-16.0,112.0
19:34:57.597000,-112.0,-95.0,-205.0,275.0,1320.0,-158.0,190.0,-15.0,106.0
19:34:57.602000,-139.0,-102.0,-196.0,311.0,1308.0,-143.0,190.0,-15.0,106.0
19:34:57.606000,-139.0,-102.0,-196.0,353.0,1264.0,-136.0,190.0,-15.0,106.0
19:34:57.611000,-170.0,-102.0,-198.0,401.0,1209.0,-135.0,181.0,-12.0,120.0
19:34:57.616000,-198.0,-104.0,-194.0,441.0,1168.0,-140.0,181.0,-12.0,120.0
19:34:57.621000,-219.0,-100.0,-190.0,457.0,1158.0,-146.0,193.0,-9.0,117.0
19:34:57.625000,-230.0,-98.0,-200.0,458.0,1170.0,-150.0,193.0,-9.0,117.0
19:34:57.629000,-240.0,-99.0,-233.0,460.0,1184.0,-151.0,193.0,-9.0,117.0
19:34:57.635000,-250.0,-105.0,-254.0,462.0,1191.0,-152.0,183.0,0.0,112.0
19:34:57.639000,-265.0,-111.0,-274.0,460.0,1180.0,-153.0,183.0,0.0,112.0
19:34:57.644000,-294.0,-117.0,-277.0,476.0,1168.0,-155.0,175.0,-1.0,120.0
19:34:57.649000,-315.0,-132.0,-243.0,482.0,1180.0,-173.0,175.0,-1.0,120.0
19:34:57.656000,-344.0,-162.0,-249.0,456.0,1225.0,-190.0,177.0,-9.0,121.0
19:34:57.658000,-344.0,-162.0,-249.0,456.0,1225.0,-190.0,177.0,-9.0,121.0
19:34:57.662000,-350.0,-181.0,-235.0,458.0,1164.0,-199.0,177.0,-9.0,121.0
19:34:57.668000,-347.0,-198.0,-204.0,458.0,1164.0,-199.0,175.0,-12.0,123.0
19:34:57.672000,-339.0,-217.0,-156.0,454.0,1100.0,-200.0,175.0,-12.0,123.0
19:34:57.677000,-316.0,-225.0,-142.0,440.0,1061.0,-206.0,166.0,-12.0,133.0
19:34:57.682000,-298.0,-231.0,-142.0,434.0,1021.0,-210.0,166.0,-12.0,133.0
19:34:57.686000,-268.0,-233.0,-130.0,432.0,982.0,-211.0,166.0,-12.0,133.0
19:34:57.691000,-226.0,-230.0,-123.0,416.0,957.0,-222.0,169.0,-7.0,129.0
19:34:57.696000,-182.0,-233.0,-109.0,403.0,950.0,-220.0,169.0,-7.0,129.0
19:34:57.700000,-146.0,-231.0,-86.0,377.0,922.0,-212.0,163.0,-15.0,148.0
19:34:57.705000,-104.0,-226.0,-102.0,321.0,883.0,-211.0,163.0,-15.0,148.0
19:34:57.709000,-104.0,-226.0,-102.0,286.0,875.0,-206.0,163.0,-15.0,148.0
19:34:57.715000,-64.0,-213.0,-142.0,308.0,868.0,-199.0,174.0,-1.0,135.0
19:34:57.719000,-25.0,-200.0,-177.0,358.0,848.0,-189.0,174.0,-1.0,135.0
19:34:57.724000,4.0,-190.0,-173.0,385.0,827.0,-185.0,166.0,-6.0,130.0
19:34:57.729000,39.0,-181.0,-163.0,383.0,817.0,-182.0,166.0,-6.0,130.0
19:34:57.733000,68.0,-175.0,-158.0,388.0,792.0,-177.0,166.0,-6.0,130.0
19:34:57.738000,102.0,-174.0,-123.0,408.0,766.0,-174.0,175.0,-3.0,138.0
19:34:57.742000,138.0,-181.0,-89.0,423.0,765.0,-168.0,175.0,-3.0,138.0
19:34:57.747000,172.0,-183.0,-89.0,429.0,779.0,-165.0,162.0,-10.0,133.0
19:34:57.752000,193.0,-178.0,-94.0,435.0,806.0,-167.0,162.0,-10.0,133.0
19:34:57.756000,207.0,-169.0,-107.0,452.0,830.0,-169.0,162.0,-10.0,133.0
19:34:57.762000,214.0,-158.0,-123.0,473.0,820.0,-166.0,163.0,-13.0,145.0
19:34:57.766000,212.0,-147.0,-105.0,470.0,808.0,-171.0,163.0,-13.0,145.0
19:34:57.771000,209.0,-135.0,-77.0,470.0,808.0,-171.0,165.0,-9.0,135.0
19:34:57.776000,191.0,-129.0,-76.0,434.0,853.0,-169.0,165.0,-9.0,135.0
19:34:57.780000,174.0,-125.0,-86.0,399.0,853.0,-169.0,165.0,-9.0,135.0
19:34:57.785000,159.0,-124.0,-100.0,392.0,863.0,-170.0,156.0,-4.0,132.0
19:34:57.790000,160.0,-120.0,-102.0,449.0,773.0,-183.0,156.0,-4.0,132.0
19:34:57.794000,147.0,-116.0,-62.0,449.0,773.0,-183.0,165.0,-7.0,136.0
19:34:57.799000,139.0,-105.0,-6.0,473.0,714.0,-194.0,165.0,-7.0,136.0
19:34:57.803000,126.0,-110.0,12.0,454.0,723.0,-199.0,165.0,-7.0,136.0
19:34:57.809000,79.0,-118.0,49.0,452.0,767.0,-200.0,165.0,-12.0,129.0
19:34:57.813000,42.0,-122.0,59.0,455.0,789.0,-217.0,165.0,-12.0,129.0
19:34:57.818000,11.0,-126.0,33.0,421.0,820.0,-239.0,160.0,-7.0,130.0
19:34:57.823000,-14.0,-136.0,16.0,437.0,806.0,-249.0,160.0,-7.0,130.0
19:34:57.827000,-14.0,-136.0,16.0,490.0,751.0,-253.0,160.0,-7.0,130.0
19:34:57.832000,-39.0,-151.0,0.0,523.0,718.0,-263.0,153.0,4.0,136.0
19:34:57.837000,-71.0,-162.0,37.0,525.0,738.0,-264.0,153.0,4.0,136.0
19:34:57.841000,-114.0,-177.0,54.0,515.0,793.0,-263.0,139.0,-1.0,150.0
19:34:57.846000,-135.0,-189.0,53.0,525.0,694.0,-274.0,139.0,-1.0,150.0
19:34:57.850000,-153.0,-191.0,146.0,508.0,574.0,-302.0,139.0,-1.0,150.0
19:34:57.856000,-130.0,-190.0,121.0,465.0,634.0,-324.0,154.0,-1.0,133.0
19:34:57.860000,-116.0,-180.0,25.0,459.0,729.0,-332.0,154.0,-1.0,133.0
19:34:57.865000,-101.0,-176.0,-15.0,438.0,791.0,-339.0,162.0,-3.0,133.0
19:34:57.870000,-119.0,-167.0,19.0,354.0,866.0,-336.0,162.0,-3.0,133.0
19:34:57.874000,-143.0,-163.0,19.0,277.0,884.0,-336.0,162.0,-3.0,133.0
19:34:57.879000,-169.0,-150.0,2.0,282.0,789.0,-343.0,162.0,-6.0,144.0
19:34:57.884000,-165.0,-145.0,38.0,336.0,693.0,-345.0,162.0,-6.0,144.0
19:34:57.888000,-141.0,-140.0,102.0,336.0,693.0,-345.0,160.0,-3.0,142.0
19:34:57.893000,-116.0,-126.0,165.0,357.0,665.0,-348.0,160.0,-3.0,142.0
19:34:57.897000,-128.0,-121.0,212.0,346.0,685.0,-337.0,160.0,-3.0,142.0
19:34:57.903000,-106.0,-116.0,230.0,342.0,717.0,-332.0,162.0,-1.0,145.0
19:34:57.907000,-87.0,-117.0,234.0,337.0,747.0,-336.0,162.0,-1.0,145.0
19:34:57.912000,-44.0,-102.0,247.0,340.0,769.0,-347.0,157.0,1.0,148.0
19:34:57.917000,-31.0,-99.0,280.0,376.0,775.0,-349.0,157.0,1.0,148.0
19:34:57.921000,-31.0,-99.0,280.0,400.0,716.0,-328.0,157.0,1.0,148.0
19:34:57.926000,-22.0,-121.0,348.0,375.0,747.0,-332.0,165.0,0.0,136.0
19:34:57.931000,-12.0,-137.0,303.0,284.0,884.0,-340.0,165.0,0.0,136.0
19:34:57.935000,-12.0,-137.0,303.0,227.0,851.0,-348.0,168.0,1.0,135.0
19:34:57.940000,-23.0,-147.0,294.0,270.0,791.0,-364.0,168.0,1.0,135.0
19:34:57.944000,-1.0,-150.0,329.0,339.0,814.0,-358.0,168.0,1.0,135.0
19:34:57.950000,1.0,-169.0,361.0,346.0,816.0,-350.0,169.0,4.0,145.0
19:34:57.954000,9.0,-165.0,357.0,323.0,817.0,-366.0,169.0,4.0,145.0
19:34:57.959000,37.0,-161.0,305.0,341.0,842.0,-375.0,177.0,15.0,135.0
19:34:57.964000,34.0,-156.0,252.0,346.0,896.0,-360.0,177.0,15.0,135.0
19:34:57.968000,11.0,-158.0,223.0,314.0,953.0,-351.0,177.0,15.0,135.0
19:34:57.973000,-1.0,-155.0,186.0,299.0,976.0,-353.0,175.0,-4.0,147.0
19:34:57.978000,-29.0,-160.0,149.0,311.0,958.0,-339.0,175.0,-4.0,147.0
19:34:57.982000,-32.0,-173.0,159.0,313.0,917.0,-347.0,181.0,4.0,153.0
19:34:57.987000,10.0,-167.0,168.0,302.0,963.0,-376.0,181.0,4.0,153.0
19:34:57.991000,61.0,-171.0,72.0,299.0,876.0,-330.0,181.0,4.0,153.0
19:34:57.997000,-18.0,-160.0,-33.0,299.0,876.0,-330.0,178.0,1.0,142.0
19:34:58.001000,43.0,-161.0,-70.0,330.0,804.0,-320.0,178.0,1.0,142.0
19:34:58.006000,32.0,-165.0,-85.0,347.0,927.0,-339.0,183.0,9.0,147.0
19:34:58.011000,46.0,-177.0,-99.0,354.0,994.0,-318.0,183.0,9.0,147.0
19:34:58.015000,45.0,-182.0,-116.0,363.0,1012.0,-320.0,183.0,9.0,147.0
19:34:58.020000,21.0,-191.0,-133.0,355.0,1006.0,-302.0,181.0,1.0,148.0
19:34:58.025000,57.0,-192.0,-122.0,343.0,948.0,-301.0,181.0,1.0,148.0
19:34:58.029000,57.0,-192.0,-122.0,341.0,851.0,-302.0,174.0,12.0,172.0
19:34:58.034000,84.0,-193.0,-111.0,352.0,837.0,-286.0,174.0,12.0,172.0
19:34:58.038000,84.0,-193.0,-111.0,376.0,936.0,-277.0,174.0,12.0,172.0
19:34:58.044000,117.0,-199.0,-134.0,404.0,978.0,-269.0,180.0,9.0,154.0
19:34:58.048000,115.0,-196.0,-152.0,401.0,918.0,-255.0,180.0,9.0,154.0
19:34:58.053000,82.0,-189.0,-158.0,381.0,956.0,-255.0,169.0,-1.0,150.0
19:34:58.058000,95.0,-193.0,-149.0,367.0,1011.0,-248.0,169.0,-1.0,150.0
19:34:58.062000,67.0,-203.0,-134.0,386.0,971.0,-245.0,169.0,-1.0,150.0
19:34:58.067000,48.0,-201.0,-96.0,397.0,931.0,-264.0,175.0,9.0,153.0
19:34:58.072000,44.0,-205.0,-76.0,390.0,941.0,-259.0,175.0,9.0,153.0
19:34:58.076000,12.0,-214.0,-74.0,424.0,940.0,-267.0,162.0,4.0,153.0
19:34:58.081000,4.0,-222.0,-71.0,474.0,941.0,-284.0,162.0,4.0,153.0
19:34:58.085000,-8.0,-226.0,-46.0,482.0,938.0,-278.0,162.0,4.0,153.0
19:34:58.091000,-43.0,-233.0,-51.0,479.0,902.0,-282.0,159.0,4.0,151.0
19:34:58.095000,-48.0,-247.0,-39.0,489.0,854.0,-295.0,159.0,4.0,151.0
19:34:58.100000,-34.0,-266.0,0.0,489.0,854.0,-295.0,166.0,6.0,148.0
19:34:58.105000,-25.0,-282.0,-41.0,467.0,802.0,-299.0,166.0,6.0,148.0
19:34:58.109000,-15.0,-294.0,-64.0,470.0,802.0,-305.0,166.0,6.0,148.0
19:34:58.114000,-7.0,-304.0,-25.0,519.0,766.0,-314.0,166.0,4.0,151.0
19:34:58.119000,5.0,-316.0,-14.0,518.0,776.0,-323.0,166.0,4.0,151.0
19:34:58.123000,14.0,-329.0,-73.0,469.0,838.0,-328.0,160.0,7.0,151.0
19:34:58.127000,18.0,-340.0,-152.0,466.0,857.0,-335.0,160.0,7.0,151.0
19:34:58.132000,15.0,-348.0,-192.0,466.0,857.0,-335.0,160.0,7.0,151.0
19:34:58.138000,22.0,-350.0,-210.0,509.0,827.0,-341.0,156.0,6.0,166.0
19:34:58.142000,23.0,-350.0,-259.0,531.0,808.0,-343.0,156.0,6.0,166.0
19:34:58.147000,29.0,-349.0,-331.0,529.0,813.0,-340.0,153.0,4.0,154.0
19:34:58.152000,29.0,-349.0,-331.0,537.0,811.0,-340.0,153.0,4.0,154.0
19:34:58.156000,39.0,-349.0,-382.0,556.0,789.0,-338.0,153.0,4.0,154.0
19:34:58.161000,49.0,-354.0,-394.0,553.0,781.0,-336.0,163.0,-3.0,151.0
19:34:58.166000,66.0,-359.0,-406.0,528.0,783.0,-340.0,163.0,-3.0,151.0
19:34:58.170000,88.0,-361.0,-437.0,512.0,790.0,-346.0,154.0,9.0,156.0
19:34:58.175000,115.0,-363.0,-469.0,507.0,799.0,-346.0,154.0,9.0,156.0
19:34:58.179000,144.0,-369.0,-462.0,494.0,809.0,-345.0,154.0,9.0,156.0
19:34:58.184000,174.0,-375.0,-440.0,469.0,842.0,-344.0,165.0,-1.0,148.0
19:34:58.189000,193.0,-385.0,-416.0,432.0,872.0,-342.0,165.0,-1.0,148.0
19:34:58.194000,211.0,-397.0,-392.0,402.0,894.0,-341.0,157.0,0.0,157.0
19:34:58.199000,226.0,-415.0,-376.0,406.0,897.0,-336.0,157.0,0.0,157.0
19:34:58.203000,233.0,-433.0,-331.0,431.0,873.0,-330.0,157.0,0.0,157.0
19:34:58.208000,228.0,-454.0,-256.0,451.0,857.0,-326.0,141.0,-3.0,156.0
19:34:58.213000,220.0,-473.0,-192.0,459.0,880.0,-327.0,141.0,-3.0,156.0
19:34:58.217000,211.0,-491.0,-179.0,459.0,880.0,-327.0,145.0,-3.0,151.0
19:34:58.222000,197.0,-506.0,-184.0,482.0,987.0,-319.0,145.0,-3.0,151.0
19:34:58.226000,172.0,-518.0,-202.0,482.0,987.0,-319.0,145.0,-3.0,151.0
19:34:58.231000,135.0,-523.0,-233.0,470.0,1042.0,-309.0,144.0,-4.0,157.0
19:34:58.236000,95.0,-522.0,-280.0,446.0,1069.0,-301.0,144.0,-4.0,157.0
19:34:58.241000,61.0,-514.0,-326.0,428.0,1074.0,-295.0,136.0,-4.0,151.0
19:34:58.246000,36.0,-498.0,-364.0,415.0,1063.0,-289.0,136.0,-4.0,151.0
19:34:58.250000,36.0,-498.0,-364.0,398.0,1042.0,-284.0,136.0,-4.0,151.0
19:34:58.255000,0.0,-436.0,-412.0,365.0,1031.0,-277.0,135.0,-10.0,160.0
19:34:58.260000,-13.0,-394.0,-436.0,322.0,1032.0,-271.0,135.0,-10.0,160.0
19:34:58.264000,-13.0,-394.0,-436.0,289.0,1030.0,-268.0,132.0,0.0,151.0
19:34:58.269000,-20.0,-345.0,-444.0,265.0,1015.0,-264.0,132.0,0.0,151.0
19:34:58.273000,-23.0,-296.0,-435.0,239.0,1001.0,-261.0,132.0,0.0,151.0
19:34:58.278000,-24.0,-247.0,-425.0,218.0,1001.0,-260.0,117.0,-4.0,165.0
19:34:58.283000,-20.0,-203.0,-406.0,218.0,1003.0,-259.0,117.0,-4.0,165.0
19:34:58.288000,-15.0,-164.0,-397.0,248.0,996.0,-259.0,127.0,-3.0,159.0
19:34:58.293000,-10.0,-126.0,-372.0,295.0,983.0,-261.0,127.0,-3.0,159.0
19:34:58.297000,0.0,-95.0,-340.0,339.0,983.0,-264.0,127.0,-3.0,159.0
19:34:58.302000,15.0,-70.0,-321.0,371.0,1009.0,-265.0,129.0,-13.0,154.0
19:34:58.307000,31.0,-49.0,-312.0,392.0,1046.0,-261.0,129.0,-13.0,154.0
19:34:58.311000,40.0,-29.0,-319.0,392.0,1046.0,-261.0,117.0,-9.0,163.0
19:34:58.316000,51.0,-13.0,-340.0,412.0,1089.0,-253.0,117.0,-9.0,163.0
19:34:58.320000,56.0,0.0,-350.0,434.0,1079.0,-244.0,117.0,-9.0,163.0
19:34:58.325000,62.0,8.0,-339.0,434.0,1079.0,-244.0,112.0,-6.0,157.0
19:34:58.330000,67.0,9.0,-308.0,456.0,1040.0,-236.0,112.0,-6.0,157.0
19:34:58.335000,75.0,9.0,-283.0,471.0,1004.0,-230.0,117.0,-7.0,150.0
19:34:58.340000,82.0,6.0,-267.0,486.0,997.0,-222.0,117.0,-7.0,150.0
19:34:58.344000,90.0,-4.0,-255.0,513.0,990.0,-210.0,117.0,-7.0,150.0
19:34:58.349000,91.0,-16.0,-245.0,556.0,973.0,-195.0,112.0,-3.0,157.0
19:34:58.354000,80.0,-28.0,-226.0,608.0,946.0,-175.0,112.0,-3.0,157.0
19:34:58.358000,60.0,-34.0,-216.0,657.0,902.0,-158.0,117.0,-16.0,151.0
19:34:58.363000,36.0,-39.0,-219.0,717.0,851.0,-144.0,117.0,-16.0,151.0
19:34:58.367000,36.0,-39.0,-219.0,807.0,795.0,-140.0,117.0,-16.0,151.0
19:34:58.372000,18.0,-29.0,-221.0,897.0,748.0,-149.0,103.0,0.0,165.0
19:34:58.377000,1.0,-4.0,-214.0,938.0,742.0,-159.0,103.0,0.0,165.0
19:34:58.382000,-19.0,34.0,-214.0,904.0,768.0,-173.0,108.0,-9.0,157.0
19:34:58.387000,-49.0,77.0,-199.0,800.0,776.0,-191.0,108.0,-9.0,157.0
19:34:58.391000,-62.0,113.0,-131.0,618.0,796.0,-217.0,108.0,-9.0,157.0
19:34:58.396000,-47.0,135.0,-69.0,360.0,875.0,-239.0,105.0,-25.0,154.0
19:34:58.401000,-53.0,156.0,-70.0,116.0,997.0,-258.0,105.0,-25.0,154.0
19:34:58.405000,-63.0,164.0,-123.0,-12.0,1128.0,-274.0,115.0,-12.0,153.0
19:34:58.410000,-65.0,137.0,-193.0,1.0,1195.0,-277.0,115.0,-12.0,153.0
19:34:58.414000,-70.0,88.0,-260.0,116.0,1165.0,-286.0,115.0,-12.0,153.0
19:34:58.419000,-100.0,58.0,-280.0,240.0,1084.0,-297.0,94.0,-13.0,160.0
19:34:58.424000,-114.0,25.0,-289.0,346.0,994.0,-316.0,94.0,-13.0,160.0
19:34:58.429000,-78.0,0.0,-347.0,346.0,994.0,-316.0,100.0,-12.0,159.0
19:34:58.434000,-46.0,-14.0,-284.0,486.0,862.0,-326.0,100.0,-12.0,159.0
19:34:58.438000,-40.0,-21.0,-53.0,616.0,706.0,-317.0,100.0,-12.0,159.0
19:34:58.443000,-48.0,-42.0,224.0,651.0,598.0,-308.0,106.0,-22.0,165.0
19:34:58.448000,-47.0,-61.0,459.0,601.0,563.0,-304.0,106.0,-22.0,165.0
19:34:58.452000,-11.0,-72.0,655.0,544.0,563.0,-320.0,90.0,-12.0,162.0
19:34:58.457000,27.0,-71.0,767.0,543.0,569.0,-342.0,90.0,-12.0,162.0
19:34:58.461000,74.0,-61.0,724.0,596.0,599.0,-355.0,90.0,-12.0,162.0
19:34:58.466000,133.0,-47.0,523.0,653.0,668.0,-365.0,114.0,-6.0,160.0
19:34:58.471000,178.0,-41.0,374.0,718.0,718.0,-359.0,114.0,-6.0,160.0
19:34:58.476000,189.0,-46.0,323.0,772.0,706.0,-334.0,114.0,-9.0,150.0
19:34:58.481000,189.0,-46.0,323.0,743.0,726.0,-312.0,114.0,-9.0,150.0
19:34:58.485000,190.0,-53.0,235.0,676.0,769.0,-303.0,114.0,-9.0,150.0
19:34:58.490000,189.0,-55.0,162.0,611.0,707.0,-304.0,121.0,-6.0,165.0
19:34:58.495000,210.0,-54.0,210.0,509.0,569.0,-314.0,121.0,-6.0,165.0
19:34:58.499000,236.0,-46.0,318.0,400.0,506.0,-317.0,115.0,-10.0,147.0
19:34:58.503000,259.0,-37.0,381.0,306.0,572.0,-312.0,115.0,-10.0,147.0
19:34:58.508000,270.0,-27.0,338.0,258.0,703.0,-302.0,115.0,-10.0,147.0
19:34:58.513000,255.0,-17.0,302.0,286.0,789.0,-284.0,124.0,-10.0,163.0
19:34:58.518000,212.0,-11.0,357.0,314.0,826.0,-272.0,124.0,-10.0,163.0
19:34:58.523000,178.0,-6.0,417.0,304.0,836.0,-263.0,129.0,-7.0,154.0
19:34:58.528000,138.0,-7.0,435.0,308.0,809.0,-255.0,129.0,-7.0,154.0
19:34:58.532000,116.0,-9.0,444.0,356.0,751.0,-252.0,129.0,-7.0,154.0
19:34:58.537000,95.0,-4.0,472.0,394.0,724.0,-242.0,124.0,-1.0,157.0
19:34:58.542000,79.0,-6.0,434.0,394.0,791.0,-230.0,124.0,-1.0,157.0
19:34:58.546000,63.0,-8.0,305.0,385.0,791.0,-230.0,135.0,0.0,151.0
19:34:58.551000,49.0,-9.0,252.0,387.0,816.0,-228.0,135.0,0.0,151.0
19:34:58.555000,44.0,-8.0,287.0,394.0,763.0,-235.0,135.0,0.0,151.0
19:34:58.560000,34.0,-1.0,364.0,394.0,763.0,-235.0,132.0,-1.0,150.0
19:34:58.565000,2.0,-4.0,385.0,335.0,795.0,-244.0,132.0,-1.0,150.0
19:34:58.570000,-29.0,2.0,340.0,241.0,892.0,-248.0,135.0,1.0,156.0
19:34:58.575000,-41.0,2.0,315.0,194.0,915.0,-263.0,135.0,1.0,156.0
19:34:58.579000,-41.0,2.0,315.0,202.0,877.0,-285.0,135.0,1.0,156.0
19:34:58.583000,-71.0,5.0,305.0,204.0,898.0,-291.0,130.0,1.0,151.0
19:34:58.589000,-193.0,2.0,379.0,194.0,950.0,-293.0,130.0,1.0,151.0
19:34:58.593000,-193.0,2.0,379.0,168.0,1015.0,-299.0,141.0,6.0,154.0
19:34:58.598000,-254.0,-9.0,413.0,145.0,1064.0,-302.0,141.0,6.0,154.0
19:34:58.605000,-350.0,-30.0,347.0,178.0,1025.0,-306.0,135.0,1.0,174.0
19:34:58.607000,-350.0,-30.0,347.0,178.0,1025.0,-306.0,135.0,1.0,174.0
19:34:58.612000,-382.0,-39.0,328.0,232.0,914.0,-315.0,135.0,1.0,174.0
19:34:58.617000,-387.0,-42.0,346.0,282.0,782.0,-330.0,145.0,12.0,156.0
19:34:58.622000,-372.0,-40.0,359.0,308.0,693.0,-340.0,145.0,12.0,156.0
19:34:58.626000,-328.0,-39.0,364.0,314.0,655.0,-351.0,156.0,7.0,154.0
19:34:58.631000,-272.0,-35.0,356.0,303.0,669.0,-360.0,156.0,7.0,154.0
19:34:58.635000,-215.0,-28.0,329.0,285.0,722.0,-366.0,156.0,7.0,154.0
19:34:58.640000,-159.0,-27.0,277.0,291.0,772.0,-365.0,142.0,4.0,168.0
19:34:58.645000,-103.0,-33.0,226.0,313.0,772.0,-366.0,142.0,4.0,168.0
19:34:58.649000,-52.0,-37.0,224.0,313.0,772.0,-366.0,160.0,-1.0,159.0
19:34:58.654000,-16.0,-45.0,227.0,258.0,846.0,-355.0,160.0,-1.0,159.0
19:34:58.659000,20.0,-59.0,185.0,258.0,846.0,-355.0,160.0,-1.0,159.0
19:34:58.664000,49.0,-60.0,191.0,243.0,921.0,-362.0,148.0,7.0,178.0
19:34:58.669000,42.0,-65.0,218.0,231.0,906.0,-361.0,148.0,7.0,178.0
19:34:58.673000,76.0,-69.0,168.0,202.0,926.0,-352.0,156.0,10.0,166.0
19:34:58.678000,93.0,-63.0,90.0,222.0,979.0,-359.0,156.0,10.0,166.0
19:34:58.682000,75.0,-56.0,35.0,269.0,1063.0,-341.0,156.0,10.0,166.0
19:34:58.687000,42.0,-39.0,43.0,292.0,1121.0,-328.0,166.0,9.0,171.0
19:34:58.692000,2.0,-14.0,82.0,268.0,1123.0,-319.0,166.0,9.0,171.0
19:34:58.697000,-14.0,19.0,135.0,211.0,1086.0,-316.0,166.0,15.0,165.0
19:34:58.701000,-14.0,19.0,135.0,146.0,1026.0,-308.0,166.0,15.0,165.0
19:34:58.706000,-30.0,49.0,160.0,77.0,1020.0,-289.0,166.0,15.0,165.0
19:34:58.711000,-47.0,75.0,158.0,68.0,1037.0,-286.0,148.0,13.0,168.0
19:34:58.716000,-39.0,98.0,173.0,134.0,979.0,-278.0,148.0,13.0,168.0
19:34:58.720000,-60.0,126.0,187.0,213.0,894.0,-278.0,165.0,13.0,163.0
19:34:58.725000,-45.0,147.0,191.0,255.0,827.0,-285.0,165.0,13.0,163.0
19:34:58.729000,-13.0,158.0,212.0,265.0,777.0,-286.0,165.0,13.0,163.0
19:34:58.734000,18.0,171.0,216.0,287.0,759.0,-288.0,166.0,9.0,163.0
19:34:58.739000,49.0,188.0,219.0,294.0,782.0,-289.0,166.0,9.0,163.0
19:34:58.744000,81.0,200.0,212.0,278.0,818.0,-279.0,171.0,13.0,162.0
19:34:58.748000,100.0,212.0,205.0,261.0,866.0,-274.0,171.0,13.0,162.0
19:34:58.753000,121.0,227.0,164.0,248.0,919.0,-275.0,171.0,13.0,162.0
19:34:58.758000,140.0,241.0,117.0,257.0,943.0,-266.0,177.0,10.0,168.0
19:34:58.763000,154.0,256.0,58.0,257.0,943.0,-266.0,177.0,10.0,168.0
19:34:58.767000,164.0,277.0,30.0,279.0,935.0,-261.0,165.0,13.0,163.0
19:34:58.772000,167.0,295.0,51.0,288.0,889.0,-257.0,165.0,13.0,163.0
19:34:58.776000,165.0,311.0,63.0,254.0,865.0,-253.0,165.0,13.0,163.0
19:34:58.781000,165.0,333.0,9.0,209.0,897.0,-255.0,178.0,12.0,157.0
19:34:58.786000,165.0,354.0,-70.0,202.0,946.0,-253.0,178.0,12.0,157.0
19:34:58.791000,169.0,373.0,-129.0,242.0,975.0,-248.0,177.0,12.0,162.0
19:34:58.795000,180.0,388.0,-144.0,300.0,965.0,-244.0,177.0,12.0,162.0
19:34:58.800000,180.0,388.0,-144.0,325.0,935.0,-236.0,177.0,12.0,162.0
19:34:58.805000,176.0,418.0,-137.0,325.0,895.0,-231.0,184.0,18.0,156.0
19:34:58.810000,176.0,418.0,-137.0,313.0,857.0,-223.0,184.0,18.0,156.0
19:34:58.814000,170.0,433.0,-126.0,276.0,888.0,-228.0,174.0,7.0,154.0
19:34:58.819000,179.0,448.0,-165.0,262.0,956.0,-234.0,174.0,7.0,154.0
19:34:58.823000,166.0,457.0,-206.0,302.0,995.0,-231.0,174.0,7.0,154.0
19:34:58.828000,152.0,461.0,-220.0,357.0,1004.0,-238.0,166.0,4.0,153.0
19:34:58.833000,147.0,455.0,-224.0,382.0,995.0,-244.0,166.0,4.0,153.0
19:34:58.838000,138.0,444.0,-211.0,372.0,966.0,-244.0,178.0,12.0,163.0
19:34:58.842000,122.0,426.0,-177.0,366.0,957.0,-244.0,178.0,12.0,163.0
19:34:58.850000,88.0,385.0,-208.0,426.0,1014.0,-236.0,172.0,15.0,162.0
19:34:58.852000,88.0,385.0,-208.0,426.0,1014.0,-236.0,172.0,15.0,162.0
19:34:58.856000,78.0,362.0,-211.0,469.0,987.0,-231.0,172.0,15.0,162.0
19:34:58.861000,69.0,345.0,-170.0,493.0,942.0,-228.0,175.0,10.0,142.0
19:34:58.866000,62.0,334.0,-122.0,471.0,940.0,-222.0,175.0,10.0,142.0
19:34:58.871000,56.0,326.0,-101.0,471.0,940.0,-222.0,165.0,10.0,145.0
19:34:58.875000,45.0,319.0,-96.0,426.0,969.0,-213.0,165.0,10.0,145.0
19:34:58.879000,20.0,312.0,-89.0,399.0,991.0,-197.0,165.0,10.0,145.0
19:34:58.885000,-1.0,301.0,-89.0,399.0,997.0,-184.0,160.0,7.0,147.0
19:34:58.889000,-4.0,287.0,-100.0,434.0,974.0,-181.0,160.0,7.0,147.0
19:34:58.894000,0.0,277.0,-121.0,529.0,851.0,-186.0,171.0,3.0,148.0
19:34:58.899000,9.0,268.0,-130.0,529.0,851.0,-186.0,171.0,3.0,148.0
19:34:58.903000,16.0,261.0,-133.0,551.0,838.0,-189.0,171.0,3.0,148.0
19:34:58.908000,19.0,260.0,-181.0,524.0,873.0,-192.0,156.0,7.0,163.0
19:34:58.913000,25.0,259.0,-238.0,500.0,910.0,-202.0,156.0,7.0,163.0
19:34:58.918000,25.0,259.0,-238.0,490.0,942.0,-214.0,165.0,4.0,142.0
19:34:58.922000,33.0,254.0,-321.0,465.0,988.0,-221.0,165.0,4.0,142.0
19:34:58.926000,32.0,252.0,-417.0,451.0,1016.0,-229.0,165.0,4.0,142.0
19:34:58.932000,31.0,247.0,-471.0,459.0,1000.0,-236.0,169.0,1.0,144.0
19:34:58.936000,39.0,241.0,-462.0,481.0,957.0,-241.0,169.0,1.0,144.0
19:34:58.941000,46.0,238.0,-431.0,506.0,948.0,-240.0,157.0,7.0,139.0
19:34:58.946000,52.0,234.0,-418.0,543.0,972.0,-236.0,157.0,7.0,139.0
19:34:58.950000,60.0,233.0,-409.0,563.0,977.0,-230.0,157.0,7.0,139.0
19:34:58.955000,68.0,226.0,-403.0,559.0,974.0,-228.0,148.0,7.0,159.0
19:34:58.960000,76.0,223.0,-388.0,585.0,968.0,-226.0,148.0,7.0,159.0
19:34:58.965000,84.0,217.0,-343.0,580.0,980.0,-216.0,154.0,9.0,142.0
19:34:58.969000,91.0,202.0,-316.0,521.0,1022.0,-207.0,154.0,9.0,142.0
19:34:58.973000,95.0,186.0,-285.0,444.0,1069.0,-208.0,154.0,9.0,142.0
19:34:58.979000,105.0,178.0,-281.0,410.0,1084.0,-203.0,156.0,-3.0,139.0
19:34:58.983000,95.0,173.0,-250.0,410.0,1084.0,-203.0,156.0,-3.0,139.0
19:34:58.988000,86.0,163.0,-207.0,444.0,1068.0,-189.0,148.0,1.0,141.0
19:34:58.993000,77.0,158.0,-177.0,530.0,1077.0,-181.0,148.0,1.0,141.0
19:34:58.997000,74.0,148.0,-133.0,530.0,1077.0,-181.0,148.0,1.0,141.0
19:34:59.002000,51.0,138.0,-91.0,513.0,1092.0,-174.0,142.0,0.0,138.0
19:34:59.007000,21.0,131.0,-74.0,472.0,1111.0,-168.0,142.0,0.0,138.0
19:34:59.012000,-4.0,125.0,0.0,506.0,1092.0,-165.0,142.0,6.0,136.0
19:34:59.016000,-23.0,120.0,62.0,563.0,1025.0,-163.0,142.0,6.0,136.0
19:34:59.020000,-23.0,120.0,62.0,557.0,971.0,-169.0,142.0,6.0,136.0
19:34:59.026000,-28.0,133.0,90.0,534.0,927.0,-172.0,139.0,0.0,148.0
19:34:59.030000,-28.0,133.0,90.0,520.0,888.0,-171.0,139.0,0.0,148.0
19:34:59.035000,-18.0,139.0,62.0,527.0,867.0,-168.0,154.0,0.0,136.0
19:34:59.040000,-10.0,146.0,15.0,562.0,852.0,-164.0,154.0,0.0,136.0
19:34:59.044000,3.0,156.0,-19.0,592.0,846.0,-159.0,154.0,0.0,136.0
19:34:59.049000,35.0,159.0,-56.0,587.0,846.0,-151.0,150.0,-6.0,138.0
19:34:59.054000,56.0,167.0,-126.0,571.0,849.0,-142.0,150.0,-6.0,138.0
19:34:59.059000,83.0,168.0,-172.0,578.0,857.0,-133.0,148.0,-3.0,135.0
19:34:59.063000,100.0,175.0,-198.0,581.0,884.0,-126.0,148.0,-3.0,135.0
19:34:59.067000,103.0,180.0,-201.0,542.0,958.0,-117.0,148.0,-3.0,135.0
19:34:59.073000,104.0,188.0,-239.0,488.0,1018.0,-110.0,145.0,3.0,141.0
19:34:59.077000,91.0,202.0,-318.0,481.0,1041.0,-103.0,145.0,3.0,141.0
19:34:59.082000,81.0,217.0,-398.0,481.0,1041.0,-103.0,144.0,-6.0,135.0
19:34:59.087000,67.0,227.0,-422.0,531.0,1015.0,-79.0,144.0,-6.0,135.0
19:34:59.094000,63.0,242.0,-393.0,503.0,970.0,-66.0,142.0,-1.0,135.0
19:34:59.096000,57.0,253.0,-375.0,503.0,970.0,-66.0,142.0,-1.0,135.0
19:34:59.100000,60.0,264.0,-367.0,499.0,904.0,-52.0,142.0,-1.0,135.0
19:34:59.106000,73.0,270.0,-359.0,553.0,858.0,-44.0,138.0,-1.0,129.0
19:34:59.110000,102.0,272.0,-340.0,595.0,848.0,-39.0,138.0,-1.0,129.0
19:34:59.115000,134.0,280.0,-315.0,607.0,843.0,-37.0,148.0,-3.0,132.0
19:34:59.120000,167.0,285.0,-320.0,587.0,841.0,-35.0,148.0,-3.0,132.0
19:34:59.124000,167.0,285.0,-320.0,540.0,865.0,-34.0,148.0,-3.0,132.0
19:34:59.129000,237.0,284.0,-406.0,515.0,905.0,-26.0,136.0,-3.0,135.0
19:34:59.134000,276.0,280.0,-404.0,531.0,928.0,-18.0,136.0,-3.0,135.0
19:34:59.138000,276.0,280.0,-404.0,567.0,892.0,-3.0,135.0,-7.0,138.0
19:34:59.143000,295.0,284.0,-339.0,580.0,843.0,-13.0,135.0,-7.0,138.0
19:34:59.147000,313.0,319.0,-272.0,601.0,862.0,-7.0,135.0,-7.0,138.0
19:34:59.153000,311.0,320.0,-233.0,592.0,946.0,24.0,132.0,10.0,118.0
19:34:59.157000,308.0,306.0,-219.0,556.0,997.0,21.0,132.0,10.0,118.0
19:34:59.162000,335.0,293.0,-220.0,587.0,928.0,-1.0,121.0,-3.0,129.0
19:34:59.167000,340.0,315.0,-126.0,584.0,899.0,-13.0,121.0,-3.0,129.0
19:34:59.171000,326.0,336.0,-61.0,499.0,966.0,-6.0,121.0,-3.0,129.0
19:34:59.176000,301.0,336.0,-75.0,493.0,973.0,-11.0,135.0,-3.0,118.0
19:34:59.181000,276.0,341.0,-39.0,539.0,904.0,-18.0,135.0,-3.0,118.0
19:34:59.185000,242.0,343.0,69.0,538.0,828.0,-22.0,135.0,-6.0,114.0
19:34:59.190000,217.0,340.0,186.0,514.0,781.0,-33.0,135.0,-6.0,114.0
19:34:59.194000,208.0,331.0,263.0,493.0,777.0,-45.0,135.0,-6.0,114.0
19:34:59.200000,209.0,332.0,273.0,493.0,777.0,-45.0,114.0,-13.0,121.0
19:34:59.204000,200.0,328.0,252.0,507.0,807.0,-53.0,114.0,-13.0,121.0
19:34:59.209000,193.0,309.0,275.0,567.0,828.0,-64.0,145.0,-10.0,111.0
19:34:59.214000,175.0,277.0,319.0,617.0,813.0,-67.0,145.0,-10.0,111.0
19:34:59.218000,146.0,252.0,346.0,618.0,806.0,-66.0,145.0,-10.0,111.0
19:34:59.223000,119.0,220.0,338.0,591.0,815.0,-73.0,151.0,-7.0,105.0
19:34:59.228000,101.0,196.0,272.0,581.0,839.0,-86.0,151.0,-7.0,105.0
19:34:59.233000,63.0,164.0,196.0,605.0,881.0,-90.0,144.0,-4.0,112.0
19:34:59.237000,18.0,130.0,176.0,620.0,875.0,-86.0,144.0,-4.0,112.0
19:34:59.241000,18.0,130.0,176.0,603.0,848.0,-97.0,144.0,-4.0,112.0
19:34:59.247000,-10.0,106.0,160.0,578.0,861.0,-101.0,141.0,-7.0,118.0
19:34:59.251000,-46.0,79.0,145.0,554.0,867.0,-89.0,141.0,-7.0,118.0
19:34:59.256000,-95.0,51.0,145.0,540.0,823.0,-86.0,141.0,-12.0,111.0
19:34:59.261000,-128.0,36.0,158.0,532.0,770.0,-84.0,141.0,-12.0,111.0
19:34:59.265000,-153.0,12.0,163.0,497.0,725.0,-76.0,141.0,-12.0,111.0
19:34:59.270000,-175.0,7.0,145.0,476.0,683.0,-99.0,139.0,-3.0,108.0
19:34:59.275000,-138.0,16.0,142.0,497.0,621.0,-114.0,139.0,-3.0,108.0
19:34:59.280000,-114.0,20.0,172.0,485.0,560.0,-101.0,153.0,-3.0,111.0
19:34:59.284000,-90.0,21.0,204.0,424.0,554.0,-124.0,153.0,-3.0,111.0
19:34:59.288000,-51.0,47.0,203.0,392.0,569.0,-140.0,153.0,-3.0,111.0
19:34:59.294000,-35.0,65.0,186.0,391.0,568.0,-145.0,148.0,-3.0,114.0
19:34:59.298000,5.0,77.0,184.0,372.0,537.0,-167.0,148.0,-3.0,114.0
19:34:59.303000,42.0,105.0,189.0,372.0,537.0,-167.0,148.0,-4.0,114.0
19:34:59.308000,88.0,114.0,193.0,419.0,505.0,-180.0,148.0,-4.0,114.0
19:34:59.312000,109.0,126.0,206.0,419.0,505.0,-180.0,148.0,-4.0,114.0
19:34:59.317000,132.0,133.0,219.0,429.0,506.0,-203.0,151.0,-10.0,112.0
19:34:59.322000,170.0,136.0,242.0,440.0,568.0,-220.0,151.0,-10.0,112.0
19:34:59.327000,168.0,123.0,254.0,434.0,667.0,-217.0,156.0,-1.0,118.0
19:34:59.331000,161.0,104.0,236.0,437.0,741.0,-207.0,156.0,-1.0,118.0
19:34:59.335000,140.0,86.0,228.0,483.0,774.0,-215.0,156.0,-1.0,118.0
19:34:59.341000,126.0,50.0,254.0,526.0,771.0,-214.0,160.0,-7.0,106.0
19:34:59.345000,118.0,12.0,288.0,530.0,763.0,-219.0,160.0,-7.0,106.0
19:34:59.350000,112.0,-22.0,317.0,539.0,769.0,-226.0,157.0,-3.0,115.0
19:34:59.355000,84.0,-67.0,361.0,557.0,800.0,-221.0,157.0,-3.0,115.0
19:34:59.359000,84.0,-67.0,361.0,547.0,837.0,-207.0,157.0,-3.0,115.0
19:34:59.364000,56.0,-116.0,425.0,534.0,854.0,-196.0,166.0,1.0,99.0
19:34:59.369000,34.0,-161.0,500.0,522.0,852.0,-194.0,166.0,1.0,99.0
19:34:59.374000,0.0,-202.0,574.0,497.0,850.0,-205.0,166.0,6.0,100.0
19:34:59.378000,-25.0,-236.0,638.0,484.0,830.0,-207.0,166.0,6.0,100.0
19:34:59.386000,-96.0,-270.0,798.0,429.0,849.0,-171.0,172.0,1.0,111.0
19:34:59.388000,-96.0,-270.0,798.0,429.0,849.0,-171.0,172.0,1.0,111.0
19:34:59.392000,-130.0,-277.0,846.0,344.0,903.0,-168.0,172.0,1.0,111.0
19:34:59.397000,-164.0,-275.0,851.0,274.0,935.0,-168.0,177.0,10.0,109.0
19:34:59.402000,-200.0,-264.0,833.0,252.0,924.0,-173.0,177.0,10.0,109.0
19:34:59.406000,-223.0,-254.0,826.0,252.0,924.0,-173.0,190.0,12.0,109.0
19:34:59.411000,-233.0,-246.0,877.0,271.0,852.0,-172.0,190.0,12.0,109.0
19:34:59.415000,-275.0,-238.0,928.0,249.0,835.0,-171.0,190.0,12.0,109.0
19:34:59.421000,-287.0,-221.0,921.0,249.0,835.0,-171.0,178.0,10.0,118.0
19:34:59.425000,-286.0,-205.0,880.0,232.0,843.0,-182.0,178.0,10.0,118.0
19:34:59.429000,-277.0,-186.0,848.0,278.0,826.0,-163.0,204.0,1.0,136.0
19:34:59.435000,-314.0,-160.0,842.0,278.0,826.0,-163.0,204.0,1.0,136.0
19:34:59.439000,-320.0,-149.0,856.0,294.0,800.0,-145.0,204.0,1.0,136.0
19:34:59.444000,-336.0,-130.0,841.0,273.0,783.0,-145.0,195.0,9.0,121.0
19:34:59.449000,-352.0,-112.0,784.0,251.0,768.0,-140.0,195.0,9.0,121.0
19:34:59.453000,-366.0,-94.0,737.0,274.0,758.0,-124.0,208.0,7.0,123.0
19:34:59.458000,-375.0,-81.0,716.0,310.0,750.0,-114.0,208.0,7.0,123.0
19:34:59.462000,-375.0,-81.0,716.0,329.0,737.0,-100.0,208.0,7.0,123.0
19:34:59.468000,-414.0,-77.0,724.0,339.0,717.0,-91.0,219.0,16.0,133.0
19:34:59.472000,-439.0,-68.0,735.0,341.0,731.0,-93.0,219.0,16.0,133.0
19:34:59.476000,-457.0,-58.0,710.0,341.0,754.0,-86.0,229.0,19.0,127.0
19:34:59.482000,-488.0,-54.0,688.0,352.0,748.0,-93.0,229.0,19.0,127.0
19:34:59.486000,-499.0,-46.0,687.0,368.0,721.0,-105.0,229.0,19.0,127.0
19:34:59.491000,-518.0,-37.0,693.0,363.0,723.0,-108.0,213.0,21.0,138.0
19:34:59.496000,-541.0,-19.0,650.0,352.0,737.0,-105.0,213.0,21.0,138.0
19:34:59.500000,-571.0,-21.0,609.0,357.0,740.0,-127.0,238.0,19.0,147.0
19:34:59.505000,-511.0,-35.0,616.0,371.0,698.0,-123.0,238.0,19.0,147.0
19:34:59.509000,-547.0,-36.0,599.0,410.0,633.0,-128.0,238.0,19.0,147.0
19:34:59.515000,-499.0,-51.0,574.0,434.0,608.0,-153.0,241.0,24.0,139.0
19:34:59.519000,-443.0,-63.0,521.0,429.0,599.0,-147.0,241.0,24.0,139.0
19:34:59.523000,-390.0,-68.0,438.0,419.0,635.0,-160.0,250.0,21.0,145.0
19:34:59.529000,-324.0,-78.0,334.0,419.0,635.0,-160.0,250.0,21.0,145.0
19:34:59.533000,-274.0,-77.0,245.0,395.0,674.0,-162.0,250.0,21.0,145.0
19:34:59.538000,-212.0,-73.0,179.0,385.0,704.0,-172.0,253.0,13.0,144.0
19:34:59.543000,-189.0,-64.0,140.0,383.0,728.0,-178.0,253.0,13.0,144.0
19:34:59.547000,-159.0,-59.0,78.0,350.0,768.0,-175.0,253.0,16.0,154.0
19:34:59.552000,-145.0,-45.0,6.0,306.0,814.0,-179.0,253.0,16.0,154.0
19:34:59.556000,-120.0,-23.0,-63.0,279.0,859.0,-199.0,253.0,16.0,154.0
19:34:59.562000,-123.0,5.0,-140.0,243.0,959.0,-226.0,246.0,21.0,154.0
19:34:59.566000,-147.0,37.0,-217.0,185.0,1087.0,-230.0,246.0,21.0,154.0
19:34:59.570000,-147.0,37.0,-217.0,125.0,1204.0,-227.0,250.0,30.0,174.0
19:34:59.576000,-180.0,58.0,-292.0,100.0,1273.0,-236.0,250.0,30.0,174.0
19:34:59.580000,-207.0,81.0,-344.0,138.0,1265.0,-259.0,250.0,30.0,174.0
19:34:59.585000,-220.0,102.0,-380.0,204.0,1207.0,-278.0,243.0,24.0,156.0
19:34:59.590000,-233.0,114.0,-387.0,247.0,1151.0,-297.0,243.0,24.0,156.0
19:34:59.594000,-235.0,133.0,-367.0,265.0,1116.0,-319.0,246.0,7.0,156.0
19:34:59.599000,-234.0,145.0,-345.0,287.0,1109.0,-337.0,246.0,7.0,156.0
19:34:59.603000,-227.0,148.0,-322.0,325.0,1136.0,-367.0,246.0,7.0,156.0
19:34:59.609000,-220.0,158.0,-301.0,365.0,1158.0,-371.0,244.0,13.0,169.0
19:34:59.613000,-231.0,156.0,-273.0,414.0,1161.0,-374.0,244.0,13.0,169.0
19:34:59.617000,-235.0,162.0,-233.0,448.0,1179.0,-393.0,231.0,18.0,166.0
19:34:59.623000,-225.0,159.0,-203.0,430.0,1229.0,-400.0,231.0,18.0,166.0
19:34:59.627000,-219.0,158.0,-211.0,405.0,1281.0,-408.0,231.0,18.0,166.0
19:34:59.632000,-219.0,149.0,-220.0,397.0,1313.0,-413.0,214.0,18.0,172.0
19:34:59.637000,-218.0,137.0,-198.0,397.0,1331.0,-411.0,214.0,18.0,172.0
19:34:59.641000,-216.0,124.0,-163.0,385.0,1331.0,-411.0,243.0,22.0,171.0
19:34:59.646000,-223.0,103.0,-124.0,355.0,1334.0,-400.0,243.0,22.0,171.0
19:34:59.650000,-238.0,77.0,-68.0,332.0,1332.0,-390.0,243.0,22.0,171.0
19:34:59.656000,-248.0,45.0,-7.0,326.0,1331.0,-382.0,238.0,19.0,166.0
19:34:59.660000,-262.0,21.0,28.0,331.0,1342.0,-374.0,238.0,19.0,166.0
19:34:59.664000,-273.0,0.0,51.0,354.0,1377.0,-360.0,226.0,27.0,168.0
19:34:59.670000,-300.0,-23.0,91.0,369.0,1377.0,-360.0,226.0,27.0,168.0
19:34:59.674000,-300.0,-23.0,91.0,355.0,1378.0,-350.0,226.0,27.0,168.0
19:34:59.679000,-344.0,-47.0,129.0,316.0,1379.0,-351.0,235.0,25.0,174.0
19:34:59.684000,-353.0,-47.0,130.0,284.0,1353.0,-353.0,235.0,25.0,174.0
19:34:59.688000,-353.0,-49.0,130.0,259.0,1299.0,-348.0,237.0,21.0,180.0
19:34:59.693000,-354.0,-57.0,147.0,233.0,1263.0,-340.0,237.0,21.0,180.0
19:34:59.697000,-350.0,-63.0,128.0,242.0,1217.0,-333.0,237.0,21.0,180.0
19:34:59.703000,-324.0,-70.0,94.0,289.0,1130.0,-321.0,237.0,24.0,184.0
19:34:59.707000,-300.0,-76.0,86.0,330.0,1049.0,-315.0,237.0,24.0,184.0
19:34:59.711000,-263.0,-72.0,68.0,341.0,1025.0,-313.0,247.0,24.0,195.0
19:34:59.717000,-226.0,-65.0,23.0,342.0,1021.0,-299.0,247.0,24.0,195.0
19:34:59.721000,-195.0,-59.0,-2.0,346.0,1000.0,-279.0,247.0,24.0,195.0
19:34:59.726000,-172.0,-46.0,2.0,341.0,976.0,-252.0,232.0,31.0,186.0
19:34:59.731000,-137.0,-43.0,-3.0,341.0,991.0,-250.0,232.0,31.0,186.0
19:34:59.735000,-102.0,-18.0,-78.0,341.0,991.0,-250.0,237.0,24.0,186.0
19:34:59.740000,-74.0,-8.0,-143.0,391.0,1033.0,-215.0,237.0,24.0,186.0
19:34:59.744000,-53.0,-7.0,-167.0,396.0,1031.0,-206.0,237.0,24.0,186.0
19:34:59.749000,-22.0,3.0,-186.0,396.0,1031.0,-206.0,243.0,19.0,184.0
19:34:59.754000,-15.0,16.0,-184.0,362.0,1031.0,-199.0,243.0,19.0,184.0
19:34:59.758000,-9.0,30.0,-163.0,294.0,1018.0,-167.0,240.0,18.0,193.0
19:34:59.764000,-7.0,40.0,-151.0,294.0,1018.0,-167.0,240.0,18.0,193.0
19:34:59.768000,25.0,49.0,-158.0,300.0,1025.0,-158.0,240.0,18.0,193.0
19:34:59.773000,39.0,65.0,-185.0,320.0,1037.0,-152.0,220.0,18.0,187.0
19:34:59.778000,30.0,79.0,-220.0,330.0,1060.0,-139.0,220.0,18.0,187.0
19:34:59.782000,19.0,94.0,-239.0,342.0,1105.0,-137.0,232.0,19.0,186.0
