hh:mm:ss.ms,gyroX[mdps],gyroY[mdps],gyroZ[mdps],accX[mg],accY[mg],accZ[mg],magX[mG],magY[mG],magZ[mG]
19:34:36.015000,-394.0,4.0,101.0,584.0,654.0,-164.0,4.0,-216.0,556.0
19:34:36.021000,-380.0,-22.0,127.0,620.0,602.0,-159.0,1.0,-217.0,553.0
19:34:36.025000,-359.0,-46.0,131.0,647.0,569.0,-157.0,1.0,-217.0,553.0
19:34:36.030000,-329.0,-71.0,132.0,676.0,553.0,-159.0,15.0,-222.0,559.0
19:34:36.035000,-305.0,-90.0,126.0,690.0,559.0,-163.0,15.0,-222.0,559.0
19:34:36.039000,-305.0,-90.0,126.0,674.0,604.0,-165.0,15.0,-222.0,559.0
19:34:36.044000,-287.0,-109.0,133.0,627.0,679.0,-167.0,13.0,-216.0,556.0
19:34:36.049000,-289.0,-121.0,147.0,567.0,760.0,-175.0,13.0,-216.0,556.0
19:34:36.054000,-296.0,-133.0,158.0,506.0,826.0,-193.0,27.0,-223.0,556.0
19:34:36.058000,-312.0,-135.0,175.0,441.0,870.0,-210.0,27.0,-223.0,556.0
19:34:36.062000,-330.0,-137.0,191.0,387.0,907.0,-226.0,27.0,-223.0,556.0
19:34:36.068000,-347.0,-137.0,205.0,361.0,933.0,-246.0,18.0,-223.0,571.0
19:34:36.072000,-357.0,-137.0,210.0,341.0,947.0,-261.0,18.0,-223.0,571.0
19:34:36.077000,-373.0,-126.0,200.0,324.0,977.0,-266.0,24.0,-225.0,558.0
19:34:36.082000,-375.0,-135.0,193.0,324.0,1012.0,-272.0,24.0,-225.0,558.0
19:34:36.086000,-392.0,-128.0,177.0,310.0,1016.0,-272.0,24.0,-225.0,558.0
19:34:36.091000,-386.0,-124.0,142.0,322.0,972.0,-281.0,21.0,-228.0,565.0
19:34:36.096000,-371.0,-105.0,122.0,372.0,927.0,-295.0,21.0,-228.0,565.0
19:34:36.100000,-349.0,-87.0,91.0,402.0,934.0,-285.0,28.0,-228.0,571.0
19:34:36.105000,-325.0,-81.0,29.0,402.0,934.0,-285.0,28.0,-228.0,571.0
19:34:36.109000,-300.0,-68.0,-33.0,437.0,940.0,-278.0,28.0,-228.0,571.0
19:34:36.115000,-271.0,-63.0,-59.0,480.0,933.0,-286.0,25.0,-231.0,568.0
19:34:36.119000,-251.0,-67.0,-86.0,478.0,949.0,-279.0,25.0,-231.0,568.0
19:34:36.124000,-228.0,-69.0,-112.0,447.0,988.0,-279.0,21.0,-232.0,570.0
19:34:36.129000,-203.0,-80.0,-180.0,437.0,1016.0,-291.0,21.0,-232.0,570.0
19:34:36.133000,-186.0,-88.0,-196.0,461.0,1026.0,-315.0,21.0,-232.0,570.0
19:34:36.138000,-186.0,-88.0,-196.0,493.0,1039.0,-327.0,24.0,-235.0,564.0
19:34:36.143000,-111.0,-120.0,-271.0,523.0,1050.0,-306.0,24.0,-235.0,564.0
19:34:36.147000,-111.0,-120.0,-271.0,564.0,1067.0,-308.0,22.0,-234.0,574.0
19:34:36.152000,-94.0,-126.0,-275.0,591.0,1079.0,-306.0,22.0,-234.0,574.0
19:34:36.156000,-98.0,-126.0,-261.0,589.0,1064.0,-293.0,22.0,-234.0,574.0
19:34:36.162000,-105.0,-133.0,-243.0,561.0,1053.0,-283.0,25.0,-244.0,576.0
19:34:36.166000,-114.0,-139.0,-226.0,523.0,1063.0,-272.0,25.0,-244.0,576.0
19:34:36.171000,-102.0,-149.0,-214.0,490.0,1084.0,-279.0,27.0,-235.0,568.0
19:34:36.176000,-86.0,-152.0,-235.0,470.0,1106.0,-279.0,27.0,-235.0,568.0
19:34:36.180000,-74.0,-153.0,-263.0,467.0,1124.0,-267.0,27.0,-235.0,568.0
19:34:36.185000,-63.0,-154.0,-275.0,482.0,1125.0,-263.0,13.0,-240.0,573.0
19:34:36.189000,-58.0,-153.0,-266.0,490.0,1093.0,-251.0,13.0,-240.0,573.0
19:34:36.195000,-50.0,-145.0,-229.0,459.0,1050.0,-233.0,27.0,-246.0,568.0
19:34:36.199000,-43.0,-129.0,-189.0,411.0,1031.0,-229.0,27.0,-246.0,568.0
19:34:36.204000,-43.0,-106.0,-147.0,411.0,1031.0,-229.0,19.0,-253.0,574.0
19:34:36.209000,-48.0,-86.0,-135.0,388.0,1042.0,-207.0,19.0,-253.0,574.0
19:34:36.213000,-58.0,-58.0,-156.0,388.0,1042.0,-207.0,19.0,-253.0,574.0
19:34:36.218000,-72.0,-35.0,-140.0,442.0,1011.0,-201.0,25.0,-249.0,577.0
19:34:36.223000,-82.0,-16.0,-93.0,511.0,960.0,-191.0,25.0,-249.0,577.0
19:34:36.227000,-95.0,0.0,-32.0,554.0,904.0,-184.0,18.0,-253.0,580.0
19:34:36.232000,-98.0,18.0,11.0,565.0,853.0,-185.0,18.0,-253.0,580.0
19:34:36.236000,-95.0,28.0,37.0,565.0,820.0,-189.0,18.0,-253.0,580.0
19:34:36.242000,-100.0,36.0,55.0,575.0,808.0,-191.0,18.0,-258.0,595.0
19:34:36.246000,-109.0,43.0,72.0,583.0,826.0,-201.0,18.0,-258.0,595.0
19:34:36.251000,-119.0,46.0,85.0,574.0,860.0,-207.0,27.0,-253.0,577.0
19:34:36.256000,-144.0,56.0,94.0,554.0,886.0,-206.0,27.0,-253.0,577.0
19:34:36.260000,-144.0,56.0,94.0,537.0,900.0,-198.0,27.0,-253.0,577.0
19:34:36.265000,-182.0,62.0,114.0,539.0,883.0,-186.0,19.0,-255.0,573.0
19:34:36.270000,-228.0,66.0,154.0,564.0,842.0,-180.0,19.0,-255.0,573.0
19:34:36.274000,-276.0,75.0,201.0,589.0,801.0,-178.0,21.0,-252.0,573.0
19:34:36.279000,-315.0,83.0,242.0,603.0,763.0,-182.0,21.0,-252.0,573.0
19:34:36.287000,-368.0,110.0,273.0,601.0,721.0,-206.0,24.0,-247.0,567.0
19:34:36.289000,-368.0,110.0,273.0,601.0,721.0,-206.0,24.0,-247.0,567.0
19:34:36.293000,-387.0,120.0,249.0,586.0,730.0,-224.0,24.0,-247.0,567.0
19:34:36.298000,-392.0,134.0,200.0,572.0,736.0,-247.0,12.0,-259.0,583.0
19:34:36.303000,-399.0,151.0,177.0,539.0,739.0,-264.0,12.0,-259.0,583.0
19:34:36.307000,-395.0,161.0,165.0,539.0,739.0,-264.0,33.0,-258.0,576.0
19:34:36.312000,-386.0,168.0,144.0,481.0,719.0,-296.0,33.0,-258.0,576.0
19:34:36.316000,-372.0,172.0,126.0,498.0,669.0,-319.0,33.0,-258.0,576.0
19:34:36.321000,-331.0,170.0,105.0,498.0,669.0,-319.0,27.0,-259.0,586.0
19:34:36.326000,-259.0,168.0,84.0,532.0,598.0,-352.0,27.0,-259.0,586.0
19:34:36.330000,-164.0,163.0,63.0,588.0,503.0,-403.0,18.0,-262.0,580.0
19:34:36.336000,-82.0,158.0,49.0,588.0,503.0,-403.0,18.0,-262.0,580.0
19:34:36.340000,2.0,149.0,50.0,607.0,518.0,-415.0,18.0,-262.0,580.0
19:34:36.345000,45.0,147.0,62.0,605.0,578.0,-416.0,24.0,-277.0,570.0
19:34:36.350000,79.0,133.0,73.0,584.0,644.0,-409.0,24.0,-277.0,570.0
19:34:36.354000,93.0,114.0,67.0,561.0,687.0,-406.0,12.0,-265.0,576.0
19:34:36.359000,109.0,95.0,75.0,569.0,693.0,-408.0,12.0,-265.0,576.0
19:34:36.363000,109.0,95.0,75.0,602.0,688.0,-408.0,12.0,-265.0,576.0
19:34:36.368000,95.0,67.0,124.0,616.0,712.0,-396.0,24.0,-262.0,570.0
19:34:36.373000,71.0,30.0,169.0,618.0,766.0,-391.0,24.0,-262.0,570.0
19:34:36.378000,37.0,-7.0,182.0,634.0,827.0,-398.0,22.0,-255.0,574.0
19:34:36.383000,1.0,-44.0,184.0,650.0,888.0,-406.0,22.0,-255.0,574.0
19:34:36.387000,-59.0,-70.0,171.0,653.0,945.0,-405.0,22.0,-255.0,574.0
19:34:36.392000,-137.0,-97.0,154.0,647.0,983.0,-407.0,16.0,-253.0,571.0
19:34:36.397000,-215.0,-123.0,151.0,629.0,984.0,-420.0,16.0,-253.0,571.0
19:34:36.401000,-274.0,-148.0,161.0,593.0,951.0,-442.0,21.0,-262.0,576.0
19:34:36.406000,-308.0,-170.0,167.0,563.0,909.0,-461.0,21.0,-262.0,576.0
19:34:36.410000,-323.0,-194.0,181.0,526.0,867.0,-475.0,21.0,-262.0,576.0
19:34:36.415000,-332.0,-217.0,183.0,467.0,847.0,-496.0,22.0,-264.0,583.0
19:34:36.420000,-318.0,-239.0,158.0,415.0,850.0,-512.0,22.0,-264.0,583.0
19:34:36.424000,-294.0,-261.0,126.0,384.0,835.0,-515.0,24.0,-264.0,580.0
19:34:36.430000,-266.0,-284.0,116.0,384.0,803.0,-515.0,24.0,-264.0,580.0
19:34:36.434000,-230.0,-308.0,127.0,372.0,803.0,-525.0,24.0,-264.0,580.0
19:34:36.439000,-191.0,-337.0,147.0,370.0,776.0,-533.0,22.0,-271.0,583.0
19:34:36.444000,-154.0,-367.0,170.0,369.0,767.0,-530.0,22.0,-271.0,583.0
19:34:36.448000,-121.0,-396.0,170.0,366.0,787.0,-529.0,33.0,-259.0,579.0
19:34:36.453000,-97.0,-424.0,151.0,364.0,824.0,-523.0,33.0,-259.0,579.0
19:34:36.457000,-78.0,-452.0,140.0,370.0,850.0,-515.0,33.0,-259.0,579.0
19:34:36.462000,-58.0,-479.0,135.0,376.0,861.0,-505.0,43.0,-268.0,586.0
19:34:36.467000,-37.0,-498.0,128.0,372.0,854.0,-491.0,43.0,-268.0,586.0
19:34:36.471000,-37.0,-498.0,128.0,363.0,831.0,-480.0,43.0,-271.0,583.0
19:34:36.477000,-2.0,-513.0,111.0,349.0,817.0,-476.0,43.0,-271.0,583.0
19:34:36.481000,42.0,-520.0,81.0,322.0,827.0,-472.0,43.0,-271.0,583.0
19:34:36.486000,89.0,-523.0,41.0,292.0,846.0,-464.0,51.0,-267.0,589.0
19:34:36.491000,130.0,-526.0,-2.0,265.0,860.0,-456.0,51.0,-267.0,589.0
19:34:36.495000,165.0,-525.0,-39.0,244.0,868.0,-446.0,58.0,-262.0,586.0
19:34:36.500000,200.0,-527.0,-77.0,238.0,875.0,-439.0,58.0,-262.0,586.0
19:34:36.504000,236.0,-527.0,-130.0,259.0,874.0,-437.0,58.0,-262.0,586.0
19:34:36.509000,272.0,-527.0,-179.0,302.0,869.0,-435.0,52.0,-261.0,591.0
19:34:36.514000,303.0,-522.0,-212.0,343.0,886.0,-430.0,52.0,-261.0,591.0
19:34:36.519000,326.0,-520.0,-254.0,368.0,920.0,-426.0,58.0,-250.0,604.0
19:34:36.524000,339.0,-518.0,-305.0,396.0,944.0,-421.0,58.0,-250.0,604.0
19:34:36.528000,345.0,-516.0,-347.0,439.0,944.0,-409.0,58.0,-250.0,604.0
19:34:36.533000,340.0,-520.0,-365.0,489.0,925.0,-401.0,64.0,-259.0,601.0
19:34:36.538000,336.0,-522.0,-359.0,535.0,889.0,-400.0,64.0,-259.0,601.0
19:34:36.542000,338.0,-522.0,-346.0,535.0,889.0,-400.0,54.0,-256.0,606.0
19:34:36.547000,344.0,-515.0,-333.0,566.0,845.0,-403.0,54.0,-256.0,606.0
19:34:36.551000,350.0,-508.0,-312.0,579.0,813.0,-404.0,54.0,-256.0,606.0
19:34:36.556000,354.0,-498.0,-261.0,586.0,795.0,-398.0,67.0,-256.0,598.0
19:34:36.561000,352.0,-485.0,-193.0,577.0,788.0,-395.0,67.0,-256.0,598.0
19:34:36.566000,349.0,-472.0,-135.0,546.0,796.0,-398.0,69.0,-255.0,597.0
19:34:36.571000,347.0,-465.0,-88.0,503.0,799.0,-396.0,69.0,-255.0,597.0
19:34:36.575000,347.0,-465.0,-88.0,472.0,793.0,-393.0,69.0,-255.0,597.0
19:34:36.580000,327.0,-448.0,-5.0,464.0,804.0,-395.0,55.0,-252.0,609.0
19:34:36.585000,303.0,-435.0,10.0,459.0,841.0,-393.0,55.0,-252.0,609.0
19:34:36.589000,303.0,-435.0,10.0,457.0,894.0,-396.0,84.0,-247.0,600.0
19:34:36.594000,263.0,-415.0,8.0,466.0,935.0,-391.0,84.0,-247.0,600.0
19:34:36.598000,212.0,-396.0,-2.0,486.0,942.0,-379.0,84.0,-247.0,600.0
19:34:36.603000,163.0,-384.0,-2.0,518.0,915.0,-370.0,90.0,-244.0,600.0
19:34:36.608000,114.0,-377.0,8.0,546.0,873.0,-366.0,90.0,-244.0,600.0
19:34:36.612000,79.0,-371.0,11.0,567.0,819.0,-366.0,85.0,-237.0,601.0
19:34:36.618000,59.0,-363.0,8.0,584.0,767.0,-363.0,85.0,-237.0,601.0
19:34:36.622000,52.0,-352.0,4.0,585.0,751.0,-362.0,85.0,-237.0,601.0
19:34:36.627000,52.0,-339.0,-22.0,567.0,761.0,-358.0,93.0,-237.0,610.0
19:34:36.632000,52.0,-327.0,-63.0,552.0,770.0,-359.0,93.0,-237.0,610.0
19:34:36.636000,55.0,-308.0,-85.0,552.0,770.0,-359.0,99.0,-235.0,606.0
19:34:36.641000,46.0,-288.0,-97.0,504.0,810.0,-359.0,99.0,-235.0,606.0
19:34:36.645000,36.0,-263.0,-129.0,475.0,857.0,-363.0,99.0,-235.0,606.0
19:34:36.650000,25.0,-238.0,-172.0,475.0,857.0,-363.0,100.0,-243.0,601.0
19:34:36.655000,4.0,-213.0,-203.0,446.0,895.0,-364.0,100.0,-243.0,601.0
19:34:36.660000,-8.0,-182.0,-236.0,374.0,916.0,-373.0,102.0,-240.0,618.0
19:34:36.665000,-17.0,-149.0,-277.0,374.0,916.0,-373.0,102.0,-240.0,618.0
19:34:36.669000,-17.0,-114.0,-314.0,367.0,890.0,-379.0,102.0,-240.0,618.0
19:34:36.674000,-9.0,-84.0,-332.0,366.0,848.0,-378.0,94.0,-237.0,604.0
19:34:36.679000,3.0,-53.0,-333.0,360.0,816.0,-373.0,94.0,-237.0,604.0
19:34:36.683000,19.0,-28.0,-334.0,365.0,815.0,-372.0,90.0,-243.0,601.0
19:34:36.688000,39.0,-7.0,-337.0,380.0,835.0,-371.0,90.0,-243.0,601.0
19:34:36.692000,39.0,-7.0,-337.0,399.0,853.0,-360.0,90.0,-243.0,601.0
19:34:36.697000,50.0,2.0,-343.0,414.0,852.0,-350.0,91.0,-247.0,598.0
19:34:36.702000,60.0,11.0,-340.0,434.0,848.0,-348.0,91.0,-247.0,598.0
19:34:36.707000,67.0,18.0,-324.0,452.0,857.0,-345.0,91.0,-246.0,604.0
19:34:36.712000,65.0,23.0,-301.0,461.0,880.0,-353.0,91.0,-246.0,604.0
19:34:36.716000,56.0,30.0,-284.0,457.0,916.0,-362.0,91.0,-246.0,604.0
19:34:36.721000,46.0,30.0,-271.0,443.0,947.0,-367.0,70.0,-240.0,607.0
19:34:36.726000,33.0,19.0,-257.0,439.0,945.0,-372.0,70.0,-240.0,607.0
19:34:36.730000,25.0,2.0,-231.0,452.0,900.0,-385.0,88.0,-249.0,598.0
19:34:36.735000,35.0,-15.0,-191.0,475.0,839.0,-389.0,88.0,-249.0,598.0
19:34:36.739000,60.0,-42.0,-151.0,490.0,794.0,-391.0,88.0,-249.0,598.0
19:34:36.744000,95.0,-77.0,-140.0,456.0,777.0,-392.0,94.0,-238.0,594.0
19:34:36.749000,144.0,-96.0,-137.0,447.0,800.0,-377.0,94.0,-238.0,594.0
19:34:36.754000,182.0,-119.0,-100.0,506.0,855.0,-364.0,84.0,-246.0,594.0
19:34:36.759000,205.0,-137.0,-58.0,506.0,855.0,-364.0,84.0,-246.0,594.0
19:34:36.763000,186.0,-179.0,-91.0,477.0,862.0,-313.0,84.0,-246.0,594.0
19:34:36.768000,231.0,-149.0,-112.0,394.0,845.0,-338.0,85.0,-246.0,603.0
19:34:36.773000,272.0,-146.0,-88.0,465.0,906.0,-371.0,85.0,-246.0,603.0
19:34:36.777000,123.0,-194.0,-67.0,645.0,962.0,-189.0,93.0,-240.0,594.0
19:34:36.781000,150.0,-164.0,-212.0,620.0,941.0,-225.0,93.0,-240.0,594.0
19:34:36.786000,219.0,-110.0,-301.0,508.0,1008.0,-392.0,93.0,-240.0,594.0
19:34:36.791000,105.0,-109.0,-205.0,586.0,1151.0,-231.0,90.0,-246.0,598.0
19:34:36.796000,96.0,-60.0,648.0,846.0,975.0,-192.0,90.0,-246.0,598.0
19:34:36.801000,61.0,-37.0,1732.0,859.0,476.0,-263.0,102.0,-237.0,606.0
19:34:36.806000,61.0,-37.0,1732.0,305.0,575.0,-252.0,102.0,-237.0,606.0
19:34:36.810000,122.0,-25.0,1365.0,-346.0,1849.0,-179.0,102.0,-237.0,606.0
19:34:36.815000,137.0,-89.0,-934.0,200.0,1967.0,-294.0,96.0,-241.0,595.0
19:34:36.820000,193.0,93.0,-331.0,934.0,-371.0,-191.0,96.0,-241.0,595.0
19:34:36.824000,70.0,4.0,3250.0,-325.0,-985.0,-244.0,94.0,-240.0,600.0
19:34:36.829000,619.0,132.0,3528.0,-1665.0,395.0,-500.0,94.0,-240.0,600.0
19:34:36.833000,901.0,229.0,2105.0,-1866.0,1896.0,61.0,94.0,-240.0,600.0
19:34:36.838000,462.0,112.0,-3039.0,-217.0,3318.0,58.0,114.0,-214.0,598.0
19:34:36.843000,282.0,273.0,-6258.0,2715.0,2100.0,-88.0,114.0,-214.0,598.0
19:34:36.848000,-237.0,241.0,-3319.0,3386.0,-449.0,205.0,106.0,-225.0,597.0
19:34:36.853000,-481.0,102.0,-118.0,1288.0,-1458.0,-135.0,106.0,-225.0,597.0
19:34:36.857000,43.0,218.0,556.0,-626.0,-1213.0,-525.0,106.0,-225.0,597.0
19:34:36.862000,849.0,467.0,88.0,-491.0,-888.0,-819.0,79.0,-234.0,586.0
19:34:36.867000,1549.0,802.0,1197.0,-113.0,-481.0,-440.0,79.0,-234.0,586.0
19:34:36.871000,1347.0,677.0,2179.0,-113.0,-481.0,-440.0,90.0,-216.0,580.0
19:34:36.876000,1104.0,569.0,1750.0,-447.0,302.0,175.0,90.0,-216.0,580.0
19:34:36.880000,983.0,564.0,959.0,-478.0,815.0,80.0,90.0,-216.0,580.0
19:34:36.885000,751.0,490.0,612.0,-5.0,737.0,89.0,93.0,-202.0,589.0
19:34:36.890000,-509.0,-176.0,-310.0,478.0,696.0,469.0,93.0,-202.0,589.0
19:34:36.895000,-2678.0,-728.0,-2529.0,1229.0,2183.0,1281.0,82.0,-204.0,595.0
19:34:36.899000,-1366.0,-210.0,-1811.0,2469.0,2998.0,32.0,82.0,-204.0,595.0
19:34:36.904000,-1366.0,-210.0,-1811.0,2590.0,1492.0,-1241.0,82.0,-204.0,595.0
19:34:36.909000,-422.0,36.0,387.0,1346.0,228.0,-544.0,84.0,-213.0,585.0
19:34:36.914000,-236.0,74.0,146.0,216.0,-99.0,-398.0,84.0,-213.0,585.0
19:34:36.918000,-236.0,74.0,146.0,-295.0,-79.0,-438.0,79.0,-223.0,582.0
19:34:36.923000,-105.0,84.0,-91.0,-299.0,106.0,-425.0,79.0,-223.0,582.0
19:34:36.927000,-55.0,65.0,-42.0,-134.0,422.0,-408.0,79.0,-223.0,582.0
19:34:36.932000,-68.0,48.0,77.0,0.0,770.0,-400.0,85.0,-223.0,592.0
19:34:36.937000,-86.0,39.0,148.0,144.0,980.0,-396.0,85.0,-223.0,592.0
19:34:36.942000,-97.0,37.0,231.0,293.0,967.0,-372.0,81.0,-232.0,591.0
19:34:36.947000,-119.0,22.0,315.0,388.0,784.0,-339.0,81.0,-232.0,591.0
19:34:36.951000,-136.0,0.0,394.0,431.0,581.0,-331.0,81.0,-232.0,591.0
19:34:36.956000,-112.0,-7.0,417.0,459.0,460.0,-330.0,88.0,-228.0,586.0
19:34:36.961000,-70.0,-11.0,387.0,513.0,394.0,-312.0,88.0,-228.0,586.0
19:34:36.965000,-18.0,-18.0,363.0,513.0,394.0,-312.0,79.0,-235.0,582.0
19:34:36.970000,51.0,-27.0,326.0,603.0,472.0,-285.0,79.0,-235.0,582.0
19:34:36.974000,110.0,-20.0,267.0,548.0,590.0,-268.0,79.0,-235.0,582.0
19:34:36.979000,133.0,-3.0,205.0,548.0,590.0,-268.0,75.0,-225.0,583.0
19:34:36.984000,135.0,11.0,157.0,332.0,784.0,-233.0,75.0,-225.0,583.0
19:34:36.989000,137.0,30.0,129.0,332.0,784.0,-233.0,90.0,-232.0,583.0
19:34:36.994000,147.0,53.0,94.0,270.0,787.0,-234.0,90.0,-232.0,583.0
19:34:36.998000,154.0,79.0,48.0,233.0,782.0,-236.0,90.0,-232.0,583.0
19:34:37.003000,145.0,113.0,31.0,223.0,797.0,-236.0,84.0,-223.0,580.0
19:34:37.008000,126.0,145.0,46.0,226.0,848.0,-239.0,84.0,-223.0,580.0
19:34:37.012000,94.0,172.0,54.0,212.0,945.0,-245.0,79.0,-226.0,580.0
19:34:37.017000,42.0,199.0,51.0,181.0,1050.0,-249.0,79.0,-226.0,580.0
19:34:37.021000,42.0,199.0,51.0,158.0,1116.0,-251.0,79.0,-226.0,580.0
19:34:37.026000,-21.0,220.0,65.0,154.0,1122.0,-250.0,91.0,-217.0,574.0
19:34:37.031000,-84.0,240.0,92.0,176.0,1087.0,-253.0,91.0,-217.0,574.0
19:34:37.036000,-149.0,252.0,111.0,227.0,1039.0,-262.0,81.0,-228.0,592.0
19:34:37.041000,-199.0,258.0,155.0,276.0,1004.0,-276.0,81.0,-228.0,592.0
19:34:37.045000,-229.0,254.0,186.0,292.0,984.0,-289.0,81.0,-228.0,592.0
19:34:37.050000,-240.0,243.0,159.0,320.0,944.0,-298.0,78.0,-225.0,574.0
19:34:37.055000,-238.0,234.0,132.0,392.0,883.0,-301.0,78.0,-225.0,574.0
19:34:37.059000,-222.0,226.0,129.0,474.0,828.0,-306.0,87.0,-220.0,585.0
19:34:37.064000,-184.0,223.0,132.0,514.0,811.0,-299.0,87.0,-220.0,585.0
19:34:37.068000,-134.0,213.0,95.0,539.0,808.0,-294.0,87.0,-220.0,585.0
19:34:37.073000,-92.0,217.0,15.0,566.0,783.0,-299.0,79.0,-229.0,576.0
19:34:37.078000,-49.0,210.0,-20.0,551.0,760.0,-294.0,79.0,-229.0,576.0
19:34:37.083000,-2.0,200.0,4.0,551.0,760.0,-294.0,75.0,-232.0,576.0
19:34:37.088000,43.0,184.0,30.0,486.0,750.0,-301.0,75.0,-232.0,576.0
19:34:37.092000,60.0,163.0,22.0,409.0,793.0,-293.0,75.0,-232.0,576.0
19:34:37.097000,104.0,138.0,19.0,369.0,874.0,-290.0,73.0,-226.0,579.0
19:34:37.102000,128.0,113.0,23.0,380.0,908.0,-299.0,73.0,-226.0,579.0
19:34:37.106000,142.0,90.0,51.0,430.0,904.0,-294.0,64.0,-228.0,576.0
19:34:37.111000,146.0,65.0,79.0,474.0,928.0,-289.0,64.0,-228.0,576.0
19:34:37.115000,142.0,43.0,73.0,467.0,973.0,-283.0,64.0,-228.0,576.0
19:34:37.120000,121.0,21.0,46.0,440.0,1032.0,-275.0,66.0,-223.0,565.0
19:34:37.125000,88.0,-2.0,68.0,444.0,1073.0,-259.0,66.0,-223.0,565.0
19:34:37.130000,49.0,-23.0,121.0,461.0,1088.0,-240.0,72.0,-226.0,570.0
19:34:37.135000,49.0,-23.0,121.0,470.0,1077.0,-223.0,72.0,-226.0,570.0
19:34:37.139000,4.0,-38.0,206.0,466.0,1023.0,-212.0,72.0,-226.0,570.0
19:34:37.144000,-24.0,-51.0,305.0,435.0,942.0,-214.0,66.0,-225.0,570.0
19:34:37.149000,-29.0,-56.0,357.0,391.0,873.0,-220.0,66.0,-225.0,570.0
19:34:37.153000,-24.0,-52.0,355.0,368.0,850.0,-221.0,76.0,-219.0,570.0
19:34:37.158000,-13.0,-46.0,361.0,365.0,829.0,-223.0,76.0,-219.0,570.0
19:34:37.162000,2.0,-42.0,394.0,357.0,794.0,-227.0,76.0,-219.0,570.0
19:34:37.167000,16.0,-37.0,429.0,335.0,785.0,-238.0,70.0,-220.0,571.0
19:34:37.172000,40.0,-30.0,422.0,316.0,808.0,-245.0,70.0,-220.0,571.0
19:34:37.177000,58.0,-21.0,389.0,314.0,817.0,-247.0,85.0,-222.0,589.0
19:34:37.182000,75.0,-16.0,358.0,324.0,804.0,-250.0,85.0,-222.0,589.0
19:34:37.186000,93.0,-8.0,318.0,352.0,786.0,-251.0,85.0,-222.0,589.0
19:34:37.191000,101.0,-4.0,288.0,383.0,777.0,-253.0,79.0,-222.0,574.0
19:34:37.196000,110.0,-4.0,256.0,383.0,779.0,-260.0,79.0,-222.0,574.0
19:34:37.200000,122.0,-4.0,219.0,397.0,779.0,-260.0,82.0,-220.0,574.0
19:34:37.205000,137.0,-7.0,199.0,399.0,782.0,-265.0,82.0,-220.0,574.0
19:34:37.209000,156.0,-12.0,191.0,386.0,778.0,-270.0,82.0,-220.0,574.0
19:34:37.214000,191.0,-22.0,170.0,356.0,772.0,-279.0,82.0,-222.0,567.0
19:34:37.219000,207.0,-27.0,97.0,315.0,785.0,-290.0,82.0,-222.0,567.0
19:34:37.223000,210.0,-35.0,35.0,302.0,808.0,-287.0,75.0,-210.0,582.0
19:34:37.229000,229.0,-47.0,25.0,334.0,818.0,-284.0,75.0,-210.0,582.0
19:34:37.233000,229.0,-47.0,25.0,368.0,837.0,-299.0,75.0,-210.0,582.0
19:34:37.238000,239.0,-68.0,33.0,364.0,860.0,-303.0,87.0,-217.0,564.0
19:34:37.243000,224.0,-68.0,38.0,336.0,874.0,-309.0,87.0,-217.0,564.0
19:34:37.247000,224.0,-77.0,38.0,316.0,874.0,-317.0,79.0,-219.0,565.0
19:34:37.252000,196.0,-86.0,74.0,299.0,876.0,-322.0,79.0,-219.0,565.0
19:34:37.256000,176.0,-94.0,105.0,290.0,861.0,-336.0,79.0,-219.0,565.0
19:34:37.261000,168.0,-105.0,127.0,303.0,824.0,-341.0,88.0,-214.0,568.0
19:34:37.266000,147.0,-114.0,120.0,326.0,826.0,-342.0,88.0,-214.0,568.0
19:34:37.271000,136.0,-127.0,108.0,373.0,825.0,-344.0,84.0,-201.0,562.0
19:34:37.276000,128.0,-149.0,137.0,428.0,784.0,-338.0,84.0,-201.0,562.0
19:34:37.280000,128.0,-178.0,185.0,442.0,748.0,-330.0,84.0,-201.0,562.0
19:34:37.285000,130.0,-200.0,199.0,430.0,752.0,-325.0,69.0,-208.0,577.0
19:34:37.290000,136.0,-223.0,174.0,434.0,766.0,-323.0,69.0,-208.0,577.0
19:34:37.294000,147.0,-242.0,161.0,434.0,766.0,-323.0,78.0,-208.0,574.0
19:34:37.299000,153.0,-259.0,166.0,470.0,794.0,-315.0,78.0,-208.0,574.0
19:34:37.303000,142.0,-269.0,154.0,435.0,894.0,-314.0,78.0,-208.0,574.0
19:34:37.308000,122.0,-268.0,114.0,435.0,894.0,-314.0,97.0,-210.0,565.0
19:34:37.313000,100.0,-254.0,90.0,391.0,984.0,-315.0,97.0,-210.0,565.0
19:34:37.317000,70.0,-230.0,87.0,378.0,934.0,-306.0,97.0,-198.0,562.0
19:34:37.322000,44.0,-194.0,81.0,378.0,934.0,-306.0,97.0,-198.0,562.0
19:34:37.327000,37.0,-154.0,58.0,383.0,912.0,-307.0,97.0,-198.0,562.0
19:34:37.332000,21.0,-111.0,18.0,375.0,918.0,-310.0,99.0,-193.0,559.0
19:34:37.337000,16.0,-89.0,-12.0,373.0,951.0,-300.0,99.0,-193.0,559.0
19:34:37.341000,16.0,-60.0,-38.0,381.0,977.0,-300.0,105.0,-207.0,564.0
19:34:37.346000,9.0,-32.0,-77.0,378.0,978.0,-303.0,105.0,-207.0,564.0
19:34:37.350000,9.0,-32.0,-77.0,368.0,991.0,-304.0,105.0,-207.0,564.0
19:34:37.355000,19.0,-11.0,-133.0,365.0,1029.0,-310.0,91.0,-204.0,574.0
19:34:37.360000,47.0,-2.0,-207.0,381.0,1043.0,-317.0,91.0,-204.0,574.0
19:34:37.365000,75.0,4.0,-278.0,437.0,1029.0,-321.0,93.0,-208.0,567.0
19:34:37.369000,86.0,7.0,-295.0,507.0,1018.0,-318.0,93.0,-208.0,567.0
19:34:37.374000,102.0,6.0,-245.0,545.0,1006.0,-323.0,93.0,-208.0,567.0
19:34:37.379000,122.0,3.0,-190.0,535.0,1032.0,-329.0,103.0,-210.0,568.0
19:34:37.384000,136.0,1.0,-192.0,507.0,1085.0,-329.0,103.0,-210.0,568.0
19:34:37.388000,144.0,-2.0,-210.0,513.0,1109.0,-332.0,97.0,-196.0,567.0
19:34:37.393000,136.0,6.0,-205.0,536.0,1136.0,-324.0,97.0,-196.0,567.0
19:34:37.397000,126.0,7.0,-186.0,537.0,1157.0,-319.0,97.0,-196.0,567.0
19:34:37.402000,133.0,9.0,-173.0,538.0,1132.0,-327.0,97.0,-201.0,561.0
19:34:37.407000,126.0,23.0,-145.0,543.0,1067.0,-326.0,97.0,-201.0,561.0
19:34:37.412000,130.0,32.0,-98.0,536.0,1010.0,-329.0,87.0,-195.0,564.0
19:34:37.416000,154.0,39.0,-109.0,536.0,1010.0,-329.0,87.0,-195.0,564.0
19:34:37.421000,185.0,53.0,-135.0,508.0,993.0,-321.0,87.0,-195.0,564.0
19:34:37.426000,204.0,80.0,-133.0,515.0,982.0,-322.0,82.0,-204.0,568.0
19:34:37.431000,207.0,97.0,-107.0,569.0,980.0,-329.0,82.0,-204.0,568.0
19:34:37.435000,208.0,101.0,-109.0,572.0,1022.0,-309.0,93.0,-202.0,558.0
19:34:37.440000,216.0,107.0,-189.0,515.0,1122.0,-291.0,93.0,-202.0,558.0
19:34:37.444000,215.0,123.0,-244.0,513.0,1224.0,-285.0,93.0,-202.0,558.0
19:34:37.449000,176.0,145.0,-211.0,569.0,1218.0,-277.0,91.0,-199.0,562.0
19:34:37.454000,135.0,154.0,-163.0,583.0,1160.0,-267.0,91.0,-199.0,562.0
19:34:37.459000,144.0,159.0,-207.0,549.0,1159.0,-265.0,78.0,-202.0,553.0
19:34:37.463000,144.0,159.0,-207.0,553.0,1144.0,-275.0,78.0,-202.0,553.0
19:34:37.468000,173.0,166.0,-284.0,601.0,1078.0,-277.0,78.0,-202.0,553.0
19:34:37.473000,196.0,175.0,-310.0,619.0,1006.0,-269.0,82.0,-205.0,553.0
19:34:37.478000,210.0,181.0,-311.0,600.0,970.0,-268.0,82.0,-205.0,553.0
19:34:37.482000,234.0,186.0,-305.0,568.0,1000.0,-263.0,85.0,-205.0,541.0
19:34:37.487000,236.0,190.0,-326.0,565.0,1065.0,-256.0,85.0,-205.0,541.0
19:34:37.491000,256.0,189.0,-347.0,626.0,1099.0,-249.0,85.0,-205.0,541.0
19:34:37.496000,238.0,176.0,-371.0,689.0,1066.0,-245.0,81.0,-201.0,549.0
19:34:37.500000,238.0,156.0,-327.0,678.0,1047.0,-246.0,81.0,-201.0,549.0
19:34:37.506000,259.0,137.0,-287.0,624.0,1090.0,-247.0,78.0,-189.0,553.0
19:34:37.510000,264.0,126.0,-289.0,595.0,1151.0,-245.0,78.0,-189.0,553.0
19:34:37.515000,249.0,116.0,-323.0,595.0,1151.0,-245.0,79.0,-205.0,546.0
19:34:37.520000,237.0,105.0,-342.0,587.0,1184.0,-235.0,79.0,-205.0,546.0
19:34:37.524000,205.0,95.0,-309.0,587.0,1184.0,-235.0,79.0,-205.0,546.0
19:34:37.529000,177.0,91.0,-278.0,587.0,1172.0,-229.0,69.0,-205.0,547.0
19:34:37.534000,158.0,97.0,-296.0,563.0,1193.0,-234.0,69.0,-205.0,547.0
19:34:37.539000,147.0,102.0,-318.0,534.0,1189.0,-228.0,61.0,-207.0,549.0
19:34:37.543000,141.0,109.0,-301.0,524.0,1103.0,-217.0,61.0,-207.0,549.0
19:34:37.547000,140.0,138.0,-263.0,505.0,990.0,-224.0,61.0,-207.0,549.0
19:34:37.553000,147.0,157.0,-247.0,483.0,947.0,-232.0,78.0,-199.0,546.0
19:34:37.557000,137.0,170.0,-235.0,472.0,946.0,-212.0,78.0,-199.0,546.0
19:34:37.562000,154.0,187.0,-221.0,484.0,916.0,-206.0,78.0,-198.0,541.0
19:34:37.567000,174.0,202.0,-206.0,520.0,853.0,-209.0,78.0,-198.0,541.0
19:34:37.571000,174.0,202.0,-206.0,537.0,795.0,-198.0,78.0,-198.0,541.0
19:34:37.576000,190.0,219.0,-215.0,536.0,784.0,-191.0,66.0,-202.0,537.0
19:34:37.581000,224.0,230.0,-224.0,548.0,776.0,-184.0,66.0,-202.0,537.0
19:34:37.586000,254.0,231.0,-208.0,551.0,782.0,-167.0,58.0,-192.0,538.0
19:34:37.590000,275.0,227.0,-203.0,533.0,826.0,-156.0,58.0,-192.0,538.0
19:34:37.595000,305.0,225.0,-234.0,530.0,885.0,-155.0,55.0,-202.0,549.0
19:34:37.600000,329.0,221.0,-286.0,551.0,921.0,-151.0,55.0,-202.0,549.0
19:34:37.604000,327.0,217.0,-299.0,563.0,959.0,-148.0,55.0,-202.0,549.0
19:34:37.609000,310.0,209.0,-265.0,536.0,1000.0,-141.0,48.0,-198.0,534.0
19:34:37.614000,281.0,193.0,-195.0,496.0,1001.0,-146.0,48.0,-198.0,534.0
19:34:37.619000,252.0,181.0,-137.0,469.0,968.0,-156.0,55.0,-201.0,529.0
19:34:37.623000,222.0,168.0,-84.0,466.0,908.0,-147.0,55.0,-201.0,529.0
19:34:37.627000,182.0,149.0,-16.0,486.0,867.0,-140.0,55.0,-201.0,529.0
19:34:37.633000,158.0,123.0,60.0,500.0,854.0,-141.0,52.0,-195.0,526.0
19:34:37.637000,128.0,102.0,125.0,500.0,854.0,-141.0,52.0,-195.0,526.0
19:34:37.641000,106.0,73.0,178.0,484.0,843.0,-120.0,48.0,-196.0,522.0
19:34:37.647000,80.0,46.0,235.0,484.0,843.0,-120.0,48.0,-196.0,522.0
19:34:37.651000,58.0,18.0,286.0,454.0,836.0,-106.0,48.0,-196.0,522.0
19:34:37.656000,46.0,1.0,302.0,413.0,831.0,-105.0,37.0,-202.0,523.0
19:34:37.661000,42.0,-7.0,287.0,389.0,803.0,-116.0,37.0,-202.0,523.0
19:34:37.666000,44.0,-28.0,293.0,390.0,748.0,-114.0,52.0,-187.0,526.0
19:34:37.670000,50.0,-47.0,313.0,379.0,678.0,-116.0,52.0,-187.0,526.0
19:34:37.674000,50.0,-47.0,313.0,364.0,640.0,-128.0,52.0,-187.0,526.0
19:34:37.680000,102.0,-104.0,309.0,374.0,604.0,-134.0,48.0,-190.0,534.0
19:34:37.684000,102.0,-104.0,309.0,398.0,560.0,-132.0,48.0,-190.0,534.0
19:34:37.688000,118.0,-135.0,282.0,422.0,551.0,-128.0,58.0,-177.0,526.0
19:34:37.694000,143.0,-172.0,253.0,456.0,576.0,-130.0,58.0,-177.0,526.0
19:34:37.698000,186.0,-207.0,211.0,485.0,611.0,-119.0,58.0,-177.0,526.0
19:34:37.703000,189.0,-239.0,144.0,510.0,646.0,-101.0,48.0,-186.0,525.0
19:34:37.708000,182.0,-265.0,93.0,521.0,688.0,-95.0,48.0,-186.0,525.0
19:34:37.713000,165.0,-287.0,67.0,472.0,740.0,-83.0,60.0,-186.0,526.0
19:34:37.717000,134.0,-307.0,50.0,372.0,811.0,-90.0,60.0,-186.0,526.0
19:34:37.721000,101.0,-300.0,8.0,287.0,851.0,-105.0,60.0,-186.0,526.0
19:34:37.727000,59.0,-284.0,-67.0,256.0,856.0,-110.0,57.0,-178.0,516.0
19:34:37.731000,45.0,-270.0,-107.0,262.0,829.0,-106.0,57.0,-178.0,516.0
19:34:37.735000,-7.0,-250.0,-91.0,256.0,801.0,-96.0,63.0,-187.0,532.0
19:34:37.741000,-27.0,-240.0,-94.0,245.0,801.0,-100.0,63.0,-187.0,532.0
19:34:37.745000,-47.0,-218.0,-162.0,245.0,801.0,-100.0,63.0,-187.0,532.0
19:34:37.750000,-65.0,-200.0,-207.0,267.0,784.0,-100.0,55.0,-172.0,540.0
19:34:37.755000,-81.0,-179.0,-199.0,313.0,745.0,-98.0,55.0,-172.0,540.0
19:34:37.760000,-103.0,-162.0,-175.0,338.0,712.0,-99.0,60.0,-184.0,520.0
19:34:37.764000,-107.0,-149.0,-158.0,331.0,718.0,-103.0,60.0,-184.0,520.0
19:34:37.768000,-119.0,-130.0,-162.0,330.0,742.0,-109.0,60.0,-184.0,520.0
19:34:37.774000,-150.0,-114.0,-183.0,338.0,762.0,-111.0,60.0,-184.0,532.0
19:34:37.778000,-163.0,-110.0,-184.0,345.0,769.0,-121.0,60.0,-184.0,532.0
19:34:37.782000,-163.0,-110.0,-184.0,345.0,769.0,-121.0,63.0,-174.0,529.0
19:34:37.788000,-191.0,-102.0,-88.0,365.0,760.0,-127.0,63.0,-174.0,529.0
19:34:37.792000,-191.0,-102.0,-88.0,374.0,738.0,-117.0,63.0,-174.0,529.0
19:34:37.797000,-222.0,-110.0,-20.0,392.0,720.0,-126.0,48.0,-189.0,538.0
19:34:37.802000,-237.0,-117.0,24.0,421.0,726.0,-137.0,48.0,-189.0,538.0
19:34:37.807000,-263.0,-130.0,55.0,450.0,728.0,-136.0,66.0,-180.0,543.0
19:34:37.811000,-282.0,-149.0,95.0,487.0,727.0,-145.0,66.0,-180.0,543.0
19:34:37.815000,-280.0,-175.0,137.0,522.0,718.0,-152.0,66.0,-180.0,543.0
19:34:37.821000,-284.0,-193.0,184.0,537.0,726.0,-160.0,64.0,-193.0,535.0
19:34:37.825000,-279.0,-207.0,221.0,515.0,755.0,-164.0,64.0,-193.0,535.0
19:34:37.830000,-288.0,-228.0,244.0,494.0,749.0,-172.0,52.0,-199.0,541.0
19:34:37.835000,-316.0,-249.0,261.0,498.0,716.0,-172.0,52.0,-199.0,541.0
19:34:37.839000,-322.0,-269.0,289.0,502.0,709.0,-178.0,52.0,-199.0,541.0
19:34:37.844000,-314.0,-285.0,301.0,500.0,725.0,-195.0,60.0,-195.0,532.0
19:34:37.849000,-300.0,-294.0,280.0,503.0,741.0,-199.0,60.0,-195.0,532.0
19:34:37.854000,-277.0,-303.0,248.0,503.0,741.0,-199.0,67.0,-193.0,532.0
19:34:37.858000,-252.0,-302.0,204.0,505.0,754.0,-205.0,67.0,-193.0,532.0
19:34:37.862000,-210.0,-295.0,154.0,496.0,785.0,-211.0,67.0,-193.0,532.0
19:34:37.868000,-179.0,-285.0,105.0,481.0,829.0,-211.0,69.0,-193.0,537.0
19:34:37.872000,-172.0,-266.0,40.0,464.0,852.0,-215.0,69.0,-193.0,537.0
19:34:37.877000,-156.0,-249.0,-28.0,446.0,852.0,-215.0,78.0,-205.0,543.0
19:34:37.882000,-141.0,-231.0,-82.0,427.0,884.0,-219.0,78.0,-205.0,543.0
19:34:37.886000,-141.0,-231.0,-82.0,413.0,924.0,-223.0,78.0,-205.0,543.0
19:34:37.891000,-121.0,-201.0,-151.0,404.0,960.0,-214.0,82.0,-199.0,543.0
19:34:37.896000,-109.0,-187.0,-196.0,406.0,993.0,-211.0,82.0,-199.0,543.0
19:34:37.901000,-109.0,-187.0,-196.0,420.0,1022.0,-219.0,81.0,-202.0,538.0
19:34:37.905000,-117.0,-161.0,-250.0,437.0,1057.0,-228.0,81.0,-202.0,538.0
19:34:37.909000,-133.0,-136.0,-297.0,447.0,1122.0,-233.0,81.0,-202.0,538.0
19:34:37.915000,-161.0,-117.0,-326.0,437.0,1188.0,-247.0,70.0,-202.0,549.0
19:34:37.919000,-193.0,-100.0,-333.0,425.0,1228.0,-267.0,70.0,-202.0,549.0
19:34:37.924000,-237.0,-85.0,-333.0,414.0,1237.0,-269.0,79.0,-204.0,544.0
19:34:37.929000,-281.0,-73.0,-344.0,415.0,1209.0,-263.0,79.0,-204.0,544.0
19:34:37.933000,-314.0,-61.0,-331.0,443.0,1141.0,-268.0,79.0,-204.0,544.0
19:34:37.938000,-319.0,-54.0,-274.0,476.0,1034.0,-277.0,67.0,-205.0,552.0
19:34:37.943000,-312.0,-43.0,-213.0,487.0,944.0,-294.0,67.0,-205.0,552.0
19:34:37.948000,-289.0,-24.0,-193.0,480.0,915.0,-307.0,69.0,-213.0,556.0
19:34:37.952000,-260.0,-7.0,-190.0,480.0,935.0,-319.0,69.0,-213.0,556.0
19:34:37.956000,-225.0,16.0,-172.0,461.0,988.0,-312.0,69.0,-213.0,556.0
19:34:37.962000,-184.0,7.0,-142.0,414.0,1046.0,-302.0,76.0,-219.0,543.0
19:34:37.966000,-176.0,33.0,-170.0,414.0,1046.0,-302.0,76.0,-219.0,543.0
19:34:37.971000,-151.0,38.0,-190.0,384.0,1093.0,-302.0,73.0,-216.0,552.0
19:34:37.976000,-126.0,46.0,-193.0,387.0,1132.0,-298.0,73.0,-216.0,552.0
19:34:37.980000,-116.0,33.0,-200.0,407.0,1143.0,-277.0,73.0,-216.0,552.0
19:34:37.985000,-112.0,35.0,-187.0,440.0,1101.0,-259.0,78.0,-220.0,541.0
19:34:37.990000,-71.0,30.0,-140.0,461.0,1060.0,-262.0,78.0,-220.0,541.0
19:34:37.995000,-26.0,7.0,-112.0,455.0,1018.0,-245.0,76.0,-223.0,550.0
19:34:37.999000,-14.0,1.0,-88.0,469.0,967.0,-237.0,76.0,-223.0,550.0
19:34:38.003000,-14.0,1.0,-88.0,498.0,968.0,-233.0,76.0,-223.0,550.0
19:34:38.009000,4.0,-19.0,-101.0,519.0,996.0,-223.0,75.0,-214.0,565.0
19:34:38.013000,4.0,-19.0,-101.0,530.0,1019.0,-214.0,75.0,-214.0,565.0
19:34:38.018000,23.0,-31.0,-92.0,533.0,1006.0,-202.0,72.0,-220.0,547.0
19:34:38.023000,7.0,-30.0,-47.0,523.0,977.0,-195.0,72.0,-220.0,547.0
19:34:38.027000,-7.0,-33.0,1.0,506.0,975.0,-196.0,72.0,-220.0,547.0
19:34:38.032000,-9.0,-35.0,34.0,490.0,971.0,-193.0,64.0,-214.0,547.0
19:34:38.037000,-11.0,-35.0,63.0,468.0,966.0,-187.0,64.0,-214.0,547.0
19:34:38.042000,-8.0,-36.0,75.0,453.0,937.0,-181.0,70.0,-226.0,547.0
19:34:38.046000,-10.0,-39.0,105.0,455.0,881.0,-172.0,70.0,-226.0,547.0
19:34:38.050000,5.0,-50.0,147.0,471.0,822.0,-164.0,70.0,-226.0,547.0
19:34:38.056000,37.0,-65.0,158.0,502.0,770.0,-157.0,69.0,-222.0,549.0
19:34:38.060000,63.0,-74.0,133.0,534.0,750.0,-147.0,69.0,-222.0,549.0
19:34:38.065000,75.0,-80.0,111.0,534.0,750.0,-147.0,57.0,-207.0,540.0
19:34:38.070000,67.0,-83.0,118.0,563.0,791.0,-142.0,57.0,-207.0,540.0
19:34:38.074000,51.0,-88.0,137.0,563.0,791.0,-142.0,57.0,-207.0,540.0
19:34:38.079000,27.0,-95.0,139.0,549.0,829.0,-135.0,69.0,-216.0,549.0
19:34:38.084000,15.0,-107.0,144.0,534.0,866.0,-135.0,69.0,-216.0,549.0
19:34:38.089000,4.0,-114.0,147.0,533.0,866.0,-138.0,82.0,-213.0,546.0
19:34:38.093000,-15.0,-116.0,149.0,526.0,856.0,-145.0,82.0,-213.0,546.0
19:34:38.097000,-32.0,-121.0,147.0,499.0,870.0,-146.0,82.0,-213.0,546.0
19:34:38.103000,-46.0,-121.0,138.0,479.0,881.0,-147.0,66.0,-219.0,543.0
19:34:38.107000,-58.0,-119.0,125.0,466.0,871.0,-153.0,66.0,-219.0,543.0
19:34:38.112000,-70.0,-108.0,107.0,455.0,845.0,-158.0,72.0,-219.0,550.0
19:34:38.117000,-89.0,-100.0,99.0,456.0,807.0,-155.0,72.0,-219.0,550.0
19:34:38.121000,-89.0,-100.0,99.0,482.0,757.0,-154.0,72.0,-219.0,550.0
19:34:38.126000,-100.0,-93.0,111.0,519.0,698.0,-162.0,73.0,-216.0,541.0
19:34:38.131000,-114.0,-74.0,163.0,520.0,657.0,-165.0,73.0,-216.0,541.0
19:34:38.136000,-121.0,-59.0,206.0,490.0,665.0,-172.0,84.0,-216.0,550.0
19:34:38.140000,-120.0,-46.0,199.0,480.0,684.0,-188.0,84.0,-216.0,550.0
19:34:38.144000,-119.0,-28.0,178.0,481.0,700.0,-201.0,84.0,-216.0,550.0
19:34:38.150000,-112.0,-11.0,167.0,459.0,739.0,-210.0,70.0,-220.0,562.0
19:34:38.154000,-95.0,0.0,146.0,440.0,781.0,-221.0,70.0,-220.0,562.0
19:34:38.159000,-98.0,16.0,99.0,441.0,813.0,-223.0,78.0,-213.0,553.0
19:34:38.164000,-111.0,30.0,55.0,438.0,832.0,-210.0,78.0,-213.0,553.0
19:34:38.168000,-133.0,36.0,29.0,421.0,832.0,-198.0,78.0,-213.0,553.0
19:34:38.173000,-158.0,34.0,-2.0,421.0,806.0,-198.0,70.0,-216.0,543.0
19:34:38.178000,-165.0,23.0,-37.0,460.0,759.0,-200.0,70.0,-216.0,543.0
19:34:38.183000,-144.0,3.0,-60.0,460.0,759.0,-200.0,78.0,-216.0,546.0
19:34:38.187000,-101.0,-11.0,-101.0,513.0,712.0,-211.0,78.0,-216.0,546.0
19:34:38.191000,-68.0,-26.0,-147.0,536.0,700.0,-215.0,78.0,-216.0,546.0
19:34:38.197000,-35.0,-44.0,-174.0,524.0,735.0,-207.0,73.0,-214.0,552.0
19:34:38.201000,-36.0,-53.0,-176.0,511.0,762.0,-197.0,73.0,-214.0,552.0
19:34:38.206000,-26.0,-71.0,-164.0,494.0,766.0,-182.0,69.0,-231.0,546.0
19:34:38.211000,-11.0,-77.0,-177.0,464.0,780.0,-184.0,69.0,-231.0,546.0
19:34:38.215000,-11.0,-77.0,-177.0,434.0,808.0,-188.0,69.0,-231.0,546.0
19:34:38.220000,-9.0,-77.0,-231.0,427.0,830.0,-191.0,79.0,-219.0,553.0
19:34:38.225000,-11.0,-77.0,-235.0,426.0,855.0,-193.0,79.0,-219.0,553.0
19:34:38.230000,-11.0,-77.0,-235.0,409.0,910.0,-195.0,82.0,-219.0,552.0
19:34:38.234000,-30.0,-69.0,-252.0,388.0,963.0,-203.0,82.0,-219.0,552.0
19:34:38.238000,-59.0,-58.0,-259.0,369.0,969.0,-212.0,82.0,-219.0,552.0
19:34:38.244000,-96.0,-47.0,-237.0,354.0,941.0,-223.0,76.0,-225.0,550.0
19:34:38.248000,-130.0,-36.0,-197.0,346.0,900.0,-236.0,76.0,-225.0,550.0
19:34:38.253000,-154.0,-26.0,-164.0,342.0,865.0,-256.0,76.0,-228.0,553.0
19:34:38.258000,-161.0,-15.0,-163.0,350.0,863.0,-287.0,76.0,-228.0,553.0
19:34:38.262000,-158.0,-1.0,-169.0,362.0,892.0,-310.0,76.0,-228.0,553.0
19:34:38.267000,-179.0,11.0,-155.0,353.0,941.0,-323.0,85.0,-235.0,547.0
19:34:38.272000,-214.0,21.0,-131.0,329.0,988.0,-337.0,85.0,-235.0,547.0
19:34:38.277000,-246.0,25.0,-129.0,329.0,1002.0,-355.0,79.0,-237.0,555.0
19:34:38.281000,-268.0,30.0,-147.0,332.0,977.0,-368.0,79.0,-237.0,555.0
19:34:38.285000,-292.0,30.0,-161.0,356.0,938.0,-379.0,79.0,-237.0,555.0
19:34:38.291000,-298.0,25.0,-174.0,384.0,908.0,-392.0,69.0,-238.0,564.0
19:34:38.295000,-298.0,19.0,-197.0,384.0,908.0,-392.0,69.0,-238.0,564.0
19:34:38.300000,-292.0,11.0,-221.0,419.0,893.0,-400.0,72.0,-234.0,546.0
19:34:38.305000,-277.0,1.0,-233.0,454.0,892.0,-405.0,72.0,-234.0,546.0
19:34:38.309000,-259.0,-11.0,-233.0,468.0,889.0,-400.0,72.0,-234.0,546.0
19:34:38.314000,-226.0,-24.0,-226.0,467.0,869.0,-397.0,64.0,-243.0,541.0
19:34:38.319000,-196.0,-33.0,-195.0,471.0,830.0,-398.0,64.0,-243.0,541.0
19:34:38.324000,-165.0,-39.0,-149.0,480.0,808.0,-391.0,67.0,-249.0,549.0
19:34:38.328000,-147.0,-44.0,-118.0,473.0,824.0,-376.0,67.0,-249.0,549.0
19:34:38.332000,-147.0,-44.0,-118.0,465.0,838.0,-360.0,67.0,-249.0,549.0
19:34:38.338000,-132.0,-49.0,-94.0,477.0,812.0,-349.0,82.0,-240.0,556.0
19:34:38.342000,-121.0,-51.0,-57.0,486.0,775.0,-337.0,82.0,-240.0,556.0
19:34:38.347000,-115.0,-53.0,-28.0,479.0,763.0,-321.0,54.0,-255.0,562.0
19:34:38.352000,-112.0,-53.0,-21.0,482.0,758.0,-309.0,54.0,-255.0,562.0
19:34:38.356000,-107.0,-51.0,-24.0,500.0,749.0,-302.0,54.0,-255.0,562.0
19:34:38.361000,-88.0,-45.0,-25.0,513.0,740.0,-292.0,61.0,-240.0,546.0
19:34:38.366000,-77.0,-44.0,-34.0,517.0,736.0,-275.0,61.0,-240.0,546.0
19:34:38.371000,-85.0,-38.0,-46.0,516.0,747.0,-267.0,60.0,-250.0,549.0
19:34:38.375000,-76.0,-36.0,-66.0,513.0,753.0,-265.0,60.0,-250.0,549.0
19:34:38.379000,-79.0,-32.0,-82.0,513.0,742.0,-261.0,60.0,-250.0,549.0
19:34:38.385000,-73.0,-30.0,-90.0,521.0,732.0,-259.0,64.0,-252.0,555.0
19:34:38.389000,-59.0,-32.0,-99.0,530.0,719.0,-253.0,64.0,-252.0,555.0
19:34:38.394000,-58.0,-29.0,-126.0,530.0,719.0,-253.0,58.0,-255.0,549.0
19:34:38.399000,-50.0,-29.0,-156.0,556.0,722.0,-254.0,58.0,-255.0,549.0
19:34:38.403000,-48.0,-32.0,-169.0,556.0,722.0,-254.0,58.0,-255.0,549.0
19:34:38.408000,-52.0,-37.0,-163.0,580.0,728.0,-252.0,82.0,-256.0,552.0
19:34:38.413000,-60.0,-44.0,-154.0,598.0,730.0,-250.0,82.0,-256.0,552.0
19:34:38.418000,-68.0,-54.0,-138.0,606.0,731.0,-248.0,67.0,-252.0,544.0
19:34:38.422000,-75.0,-65.0,-114.0,608.0,729.0,-249.0,67.0,-252.0,544.0
19:34:38.426000,-77.0,-77.0,-95.0,604.0,723.0,-255.0,67.0,-252.0,544.0
19:34:38.432000,-73.0,-90.0,-81.0,601.0,715.0,-264.0,54.0,-250.0,567.0
19:34:38.436000,-67.0,-107.0,-56.0,605.0,699.0,-268.0,54.0,-250.0,567.0
