hh:mm:ss.ms,gyroX[mdps],gyroY[mdps],gyroZ[mdps],accX[mg],accY[mg],accZ[mg],magX[mG],magY[mG],magZ[mG]
19:35:22.849000,-809.0,-326.0,1195.0,482.0,488.0,-88.0,-39.0,-243.0,505.0
19:35:22.853000,-823.0,-313.0,1180.0,489.0,467.0,-96.0,-25.0,-252.0,501.0
19:35:22.858000,-830.0,-298.0,1128.0,490.0,481.0,-106.0,-25.0,-252.0,501.0
19:35:22.862000,-832.0,-288.0,1061.0,492.0,512.0,-120.0,-25.0,-252.0,501.0
19:35:22.867000,-837.0,-280.0,986.0,490.0,541.0,-133.0,-22.0,-249.0,513.0
19:35:22.872000,-840.0,-270.0,899.0,479.0,556.0,-151.0,-22.0,-249.0,513.0
19:35:22.877000,-835.0,-257.0,810.0,476.0,557.0,-171.0,-22.0,-249.0,508.0
19:35:22.881000,-835.0,-257.0,810.0,478.0,548.0,-189.0,-22.0,-249.0,508.0
19:35:22.886000,-826.0,-244.0,725.0,478.0,546.0,-206.0,-22.0,-249.0,508.0
19:35:22.891000,-806.0,-227.0,625.0,482.0,552.0,-227.0,-15.0,-253.0,519.0
19:35:22.896000,-777.0,-212.0,513.0,495.0,555.0,-246.0,-15.0,-253.0,519.0
19:35:22.900000,-744.0,-197.0,408.0,502.0,555.0,-258.0,-9.0,-247.0,523.0
19:35:22.905000,-708.0,-185.0,319.0,495.0,548.0,-264.0,-9.0,-247.0,523.0
19:35:22.909000,-672.0,-171.0,242.0,488.0,536.0,-263.0,-9.0,-247.0,523.0
19:35:22.914000,-639.0,-154.0,182.0,491.0,515.0,-261.0,-15.0,-255.0,532.0
19:35:22.919000,-599.0,-137.0,133.0,503.0,488.0,-262.0,-15.0,-255.0,532.0
19:35:22.924000,-543.0,-118.0,77.0,527.0,476.0,-264.0,6.0,-249.0,529.0
19:35:22.928000,-478.0,-100.0,14.0,554.0,482.0,-265.0,6.0,-249.0,529.0
19:35:22.933000,-413.0,-89.0,-51.0,569.0,514.0,-262.0,6.0,-249.0,529.0
19:35:22.938000,-350.0,-82.0,-124.0,573.0,569.0,-252.0,6.0,-258.0,528.0
19:35:22.943000,-289.0,-88.0,-204.0,579.0,616.0,-238.0,6.0,-258.0,528.0
19:35:22.947000,-236.0,-102.0,-275.0,579.0,616.0,-238.0,-7.0,-258.0,531.0
19:35:22.952000,-192.0,-120.0,-332.0,600.0,649.0,-227.0,-7.0,-258.0,531.0
19:35:22.956000,-154.0,-140.0,-375.0,689.0,703.0,-206.0,6.0,-267.0,535.0
19:35:22.961000,-118.0,-158.0,-404.0,689.0,703.0,-206.0,6.0,-267.0,535.0
19:35:22.965000,-97.0,-172.0,-431.0,732.0,734.0,-198.0,6.0,-267.0,535.0
19:35:22.971000,-89.0,-178.0,-443.0,757.0,769.0,-193.0,-15.0,-261.0,529.0
19:35:22.975000,-91.0,-178.0,-443.0,758.0,826.0,-187.0,-15.0,-261.0,529.0
19:35:22.980000,-99.0,-175.0,-458.0,730.0,900.0,-180.0,-1.0,-262.0,532.0
19:35:22.985000,-114.0,-168.0,-495.0,679.0,972.0,-174.0,-1.0,-262.0,532.0
19:35:22.989000,-114.0,-168.0,-495.0,625.0,1015.0,-166.0,-1.0,-262.0,532.0
19:35:22.994000,-109.0,-149.0,-532.0,588.0,1010.0,-166.0,-3.0,-280.0,543.0
19:35:22.999000,-109.0,-149.0,-532.0,573.0,968.0,-168.0,-3.0,-280.0,543.0
19:35:23.004000,-105.0,-130.0,-518.0,573.0,928.0,-185.0,-18.0,-280.0,544.0
19:35:23.008000,-88.0,-107.0,-511.0,539.0,910.0,-182.0,-18.0,-280.0,544.0
19:35:23.012000,-62.0,-81.0,-514.0,514.0,901.0,-181.0,-18.0,-280.0,544.0
19:35:23.018000,-29.0,-56.0,-515.0,533.0,905.0,-212.0,1.0,-291.0,528.0
19:35:23.022000,12.0,-32.0,-524.0,532.0,940.0,-224.0,1.0,-291.0,528.0
19:35:23.027000,47.0,-12.0,-529.0,518.0,987.0,-228.0,-10.0,-282.0,532.0
19:35:23.032000,71.0,2.0,-518.0,515.0,1025.0,-243.0,-10.0,-282.0,532.0
19:35:23.036000,97.0,15.0,-516.0,526.0,1045.0,-258.0,-10.0,-282.0,532.0
19:35:23.041000,119.0,30.0,-525.0,549.0,1049.0,-255.0,-1.0,-297.0,528.0
19:35:23.046000,134.0,42.0,-525.0,594.0,1035.0,-254.0,-1.0,-297.0,528.0
19:35:23.051000,152.0,48.0,-514.0,594.0,1035.0,-254.0,0.0,-288.0,532.0
19:35:23.055000,170.0,53.0,-497.0,676.0,1007.0,-261.0,0.0,-288.0,532.0
19:35:23.059000,193.0,55.0,-469.0,676.0,1012.0,-261.0,0.0,-288.0,532.0
19:35:23.065000,217.0,53.0,-438.0,653.0,1012.0,-260.0,-6.0,-295.0,525.0
19:35:23.069000,237.0,47.0,-425.0,640.0,1030.0,-257.0,-6.0,-295.0,525.0
19:35:23.074000,267.0,44.0,-415.0,663.0,1045.0,-266.0,-12.0,-295.0,529.0
19:35:23.079000,284.0,40.0,-382.0,684.0,1034.0,-269.0,-12.0,-295.0,529.0
19:35:23.083000,295.0,32.0,-315.0,710.0,1012.0,-265.0,-12.0,-295.0,529.0
19:35:23.088000,310.0,23.0,-234.0,739.0,1002.0,-267.0,-10.0,-291.0,528.0
19:35:23.093000,328.0,11.0,-166.0,743.0,1021.0,-272.0,-10.0,-291.0,528.0
19:35:23.098000,329.0,4.0,-116.0,718.0,1073.0,-280.0,-10.0,-294.0,541.0
19:35:23.102000,305.0,-8.0,-60.0,687.0,1134.0,-279.0,-10.0,-294.0,541.0
19:35:23.106000,305.0,-8.0,-60.0,674.0,1166.0,-274.0,-10.0,-294.0,541.0
19:35:23.112000,272.0,-23.0,8.0,673.0,1167.0,-277.0,-6.0,-294.0,529.0
19:35:23.116000,238.0,-42.0,72.0,679.0,1145.0,-279.0,-6.0,-294.0,529.0
19:35:23.121000,207.0,-63.0,140.0,702.0,1097.0,-276.0,-19.0,-288.0,529.0
19:35:23.126000,178.0,-81.0,215.0,724.0,1039.0,-270.0,-19.0,-288.0,529.0
19:35:23.130000,145.0,-96.0,291.0,734.0,995.0,-259.0,-19.0,-288.0,529.0
19:35:23.135000,106.0,-118.0,362.0,732.0,963.0,-258.0,-4.0,-291.0,532.0
19:35:23.140000,81.0,-132.0,427.0,720.0,927.0,-256.0,-4.0,-291.0,532.0
19:35:23.145000,56.0,-146.0,478.0,706.0,885.0,-247.0,-19.0,-279.0,537.0
19:35:23.149000,42.0,-160.0,520.0,698.0,846.0,-246.0,-19.0,-279.0,537.0
19:35:23.153000,30.0,-170.0,563.0,687.0,819.0,-241.0,-19.0,-279.0,537.0
19:35:23.159000,24.0,-182.0,592.0,680.0,793.0,-236.0,-6.0,-274.0,520.0
19:35:23.163000,2.0,-181.0,604.0,684.0,759.0,-240.0,-6.0,-274.0,520.0
19:35:23.168000,-5.0,-186.0,613.0,684.0,759.0,-240.0,-6.0,-277.0,528.0
19:35:23.173000,-19.0,-186.0,613.0,688.0,726.0,-239.0,-6.0,-277.0,528.0
19:35:23.177000,-21.0,-186.0,602.0,698.0,686.0,-242.0,-6.0,-277.0,528.0
19:35:23.182000,-30.0,-182.0,574.0,709.0,650.0,-247.0,-7.0,-273.0,529.0
19:35:23.187000,-35.0,-183.0,532.0,720.0,631.0,-253.0,-7.0,-273.0,529.0
19:35:23.192000,-35.0,-177.0,504.0,720.0,631.0,-253.0,-12.0,-268.0,529.0
19:35:23.196000,-33.0,-173.0,462.0,711.0,636.0,-261.0,-12.0,-268.0,529.0
19:35:23.200000,-28.0,-174.0,389.0,698.0,658.0,-259.0,-12.0,-268.0,529.0
19:35:23.206000,-14.0,-177.0,322.0,699.0,665.0,-266.0,6.0,-267.0,534.0
19:35:23.210000,-4.0,-174.0,283.0,713.0,642.0,-273.0,6.0,-267.0,534.0
19:35:23.215000,9.0,-169.0,252.0,716.0,624.0,-274.0,18.0,-265.0,538.0
19:35:23.220000,9.0,-169.0,252.0,682.0,630.0,-275.0,18.0,-265.0,538.0
19:35:23.224000,25.0,-172.0,196.0,691.0,650.0,-292.0,18.0,-265.0,538.0
19:35:23.229000,37.0,-162.0,125.0,735.0,662.0,-303.0,10.0,-261.0,535.0
19:35:23.234000,48.0,-158.0,70.0,733.0,673.0,-296.0,10.0,-261.0,535.0
19:35:23.239000,56.0,-158.0,32.0,722.0,675.0,-295.0,12.0,-264.0,541.0
19:35:23.243000,62.0,-153.0,12.0,714.0,666.0,-299.0,12.0,-264.0,541.0
19:35:23.247000,65.0,-143.0,11.0,698.0,671.0,-294.0,12.0,-264.0,541.0
19:35:23.253000,58.0,-139.0,13.0,667.0,694.0,-301.0,9.0,-268.0,534.0
19:35:23.257000,60.0,-128.0,9.0,628.0,721.0,-313.0,9.0,-268.0,534.0
19:35:23.262000,56.0,-115.0,7.0,584.0,747.0,-318.0,13.0,-271.0,540.0
19:35:23.267000,58.0,-106.0,20.0,542.0,768.0,-323.0,13.0,-271.0,540.0
19:35:23.271000,58.0,-94.0,46.0,501.0,787.0,-326.0,13.0,-271.0,540.0
19:35:23.276000,61.0,-85.0,60.0,457.0,819.0,-328.0,16.0,-259.0,549.0
19:35:23.281000,56.0,-75.0,56.0,428.0,840.0,-325.0,16.0,-259.0,549.0
19:35:23.286000,53.0,-68.0,63.0,428.0,840.0,-325.0,-7.0,-252.0,544.0
19:35:23.290000,48.0,-61.0,87.0,426.0,833.0,-325.0,-7.0,-252.0,544.0
19:35:23.294000,26.0,-51.0,96.0,442.0,817.0,-321.0,-7.0,-252.0,544.0
19:35:23.300000,18.0,-49.0,100.0,459.0,839.0,-314.0,10.0,-255.0,541.0
19:35:23.304000,7.0,-44.0,95.0,470.0,850.0,-311.0,10.0,-255.0,541.0
19:35:23.309000,5.0,-36.0,56.0,473.0,820.0,-316.0,6.0,-267.0,546.0
19:35:23.314000,-8.0,-31.0,0.0,479.0,808.0,-316.0,6.0,-267.0,546.0
19:35:23.318000,-8.0,-31.0,0.0,492.0,807.0,-316.0,6.0,-267.0,546.0
19:35:23.323000,4.0,-31.0,-80.0,493.0,802.0,-325.0,15.0,-264.0,540.0
19:35:23.328000,4.0,-31.0,-80.0,478.0,794.0,-326.0,15.0,-264.0,540.0
19:35:23.342000,43.0,-27.0,-181.0,467.0,691.0,-329.0,3.0,-270.0,546.0
19:35:23.346000,74.0,-18.0,-193.0,444.0,701.0,-338.0,3.0,-270.0,546.0
19:35:23.351000,109.0,-8.0,-232.0,436.0,739.0,-345.0,3.0,-270.0,546.0
19:35:23.356000,135.0,3.0,-276.0,439.0,775.0,-344.0,24.0,-261.0,537.0
19:35:23.361000,143.0,11.0,-294.0,437.0,804.0,-345.0,24.0,-261.0,537.0
19:35:23.365000,156.0,16.0,-298.0,424.0,829.0,-351.0,24.0,-261.0,537.0
19:35:23.370000,164.0,25.0,-324.0,411.0,866.0,-357.0,4.0,-258.0,540.0
19:35:23.375000,168.0,32.0,-359.0,399.0,918.0,-362.0,4.0,-258.0,540.0
19:35:23.380000,163.0,38.0,-394.0,399.0,918.0,-362.0,6.0,-262.0,537.0
19:35:23.384000,147.0,42.0,-424.0,385.0,983.0,-373.0,6.0,-262.0,537.0
19:35:23.389000,135.0,45.0,-446.0,385.0,973.0,-384.0,9.0,-264.0,526.0
19:35:23.394000,126.0,42.0,-449.0,385.0,973.0,-384.0,9.0,-264.0,526.0
19:35:23.398000,115.0,37.0,-432.0,392.0,933.0,-389.0,9.0,-264.0,526.0
19:35:23.403000,110.0,32.0,-427.0,395.0,908.0,-392.0,9.0,-268.0,531.0
19:35:23.408000,97.0,17.0,-410.0,405.0,912.0,-385.0,9.0,-268.0,531.0
19:35:23.413000,82.0,0.0,-371.0,444.0,907.0,-377.0,-6.0,-268.0,540.0
19:35:23.417000,74.0,-14.0,-343.0,476.0,896.0,-380.0,-6.0,-268.0,540.0
19:35:23.421000,74.0,-14.0,-343.0,488.0,880.0,-385.0,-6.0,-268.0,540.0
19:35:23.427000,67.0,-44.0,-317.0,492.0,837.0,-384.0,4.0,-273.0,535.0
19:35:23.431000,60.0,-61.0,-275.0,486.0,788.0,-382.0,4.0,-273.0,535.0
19:35:23.435000,60.0,-61.0,-275.0,478.0,764.0,-387.0,-6.0,-279.0,535.0
19:35:23.441000,56.0,-76.0,-243.0,480.0,742.0,-392.0,-6.0,-279.0,535.0
19:35:23.445000,46.0,-92.0,-206.0,508.0,712.0,-392.0,-6.0,-279.0,535.0
19:35:23.450000,34.0,-109.0,-163.0,547.0,701.0,-391.0,-6.0,-262.0,540.0
19:35:23.455000,36.0,-130.0,-133.0,576.0,667.0,-386.0,-6.0,-262.0,540.0
19:35:23.460000,41.0,-149.0,-109.0,601.0,631.0,-379.0,9.0,-270.0,538.0
19:35:23.464000,53.0,-168.0,-88.0,607.0,654.0,-370.0,9.0,-270.0,538.0
19:35:23.468000,58.0,-187.0,-90.0,591.0,687.0,-363.0,9.0,-270.0,538.0
19:35:23.474000,60.0,-203.0,-117.0,568.0,723.0,-360.0,3.0,-270.0,537.0
19:35:23.478000,61.0,-224.0,-151.0,537.0,756.0,-355.0,3.0,-270.0,537.0
19:35:23.482000,67.0,-238.0,-177.0,537.0,721.0,-362.0,3.0,-280.0,537.0
19:35:23.488000,57.0,-237.0,-224.0,550.0,696.0,-375.0,3.0,-280.0,537.0
19:35:23.492000,37.0,-235.0,-265.0,529.0,751.0,-383.0,3.0,-280.0,537.0
19:35:23.497000,42.0,-246.0,-302.0,529.0,782.0,-376.0,9.0,-285.0,534.0
19:35:23.502000,0.0,-254.0,-356.0,502.0,782.0,-376.0,9.0,-285.0,534.0
19:35:23.507000,-11.0,-269.0,-382.0,490.0,771.0,-375.0,4.0,-274.0,535.0
19:35:23.511000,-20.0,-284.0,-400.0,501.0,742.0,-386.0,4.0,-274.0,535.0
19:35:23.515000,-37.0,-301.0,-419.0,524.0,698.0,-381.0,4.0,-274.0,535.0
19:35:23.521000,-51.0,-312.0,-424.0,539.0,654.0,-376.0,-3.0,-279.0,534.0
19:35:23.525000,-39.0,-334.0,-431.0,562.0,627.0,-371.0,-3.0,-279.0,534.0
19:35:23.529000,-25.0,-357.0,-431.0,605.0,609.0,-358.0,4.0,-283.0,546.0
19:35:23.535000,-7.0,-375.0,-429.0,643.0,573.0,-347.0,4.0,-283.0,546.0
19:35:23.539000,-7.0,-375.0,-429.0,680.0,520.0,-336.0,4.0,-283.0,546.0
19:35:23.544000,28.0,-417.0,-361.0,702.0,476.0,-322.0,10.0,-285.0,531.0
19:35:23.549000,28.0,-417.0,-361.0,696.0,467.0,-315.0,10.0,-285.0,531.0
19:35:23.554000,42.0,-422.0,-345.0,691.0,468.0,-296.0,4.0,-285.0,540.0
19:35:23.558000,54.0,-432.0,-359.0,700.0,474.0,-281.0,4.0,-285.0,540.0
19:35:23.562000,83.0,-434.0,-369.0,706.0,469.0,-269.0,4.0,-285.0,540.0
19:35:23.568000,102.0,-436.0,-367.0,704.0,451.0,-258.0,10.0,-289.0,549.0
19:35:23.572000,136.0,-429.0,-358.0,692.0,432.0,-251.0,10.0,-289.0,549.0
19:35:23.576000,158.0,-416.0,-347.0,670.0,417.0,-244.0,16.0,-295.0,550.0
19:35:23.581000,187.0,-401.0,-341.0,642.0,429.0,-245.0,16.0,-295.0,550.0
19:35:23.586000,219.0,-381.0,-353.0,620.0,460.0,-245.0,16.0,-295.0,550.0
19:35:23.591000,253.0,-360.0,-371.0,609.0,487.0,-245.0,18.0,-288.0,541.0
19:35:23.596000,284.0,-337.0,-385.0,611.0,497.0,-244.0,18.0,-288.0,541.0
19:35:23.601000,317.0,-315.0,-384.0,611.0,497.0,-244.0,15.0,-288.0,541.0
19:35:23.605000,351.0,-291.0,-372.0,624.0,486.0,-231.0,15.0,-288.0,541.0
19:35:23.609000,394.0,-272.0,-345.0,624.0,486.0,-231.0,15.0,-288.0,541.0
19:35:23.615000,423.0,-246.0,-305.0,641.0,463.0,-226.0,19.0,-294.0,547.0
19:35:23.619000,463.0,-230.0,-245.0,670.0,441.0,-219.0,19.0,-294.0,547.0
19:35:23.623000,495.0,-215.0,-200.0,660.0,498.0,-171.0,19.0,-291.0,546.0
19:35:23.629000,511.0,-207.0,-170.0,660.0,498.0,-171.0,19.0,-291.0,546.0
19:35:23.633000,511.0,-205.0,-146.0,671.0,566.0,-157.0,19.0,-291.0,546.0
19:35:23.638000,501.0,-214.0,-121.0,701.0,649.0,-131.0,33.0,-291.0,549.0
19:35:23.643000,478.0,-207.0,-102.0,745.0,721.0,-135.0,33.0,-291.0,549.0
19:35:23.648000,358.0,-186.0,-100.0,742.0,773.0,-105.0,27.0,-277.0,544.0
19:35:23.652000,333.0,-212.0,-72.0,728.0,829.0,-68.0,27.0,-277.0,544.0
19:35:23.656000,333.0,-212.0,-72.0,741.0,857.0,-78.0,27.0,-277.0,544.0
19:35:23.662000,265.0,-205.0,-81.0,743.0,856.0,-75.0,24.0,-285.0,538.0
19:35:23.666000,214.0,-214.0,-94.0,752.0,870.0,-65.0,24.0,-285.0,538.0
19:35:23.671000,170.0,-219.0,-143.0,786.0,883.0,-53.0,34.0,-276.0,555.0
19:35:23.676000,100.0,-226.0,-155.0,812.0,900.0,-45.0,34.0,-276.0,555.0
19:35:23.680000,44.0,-235.0,-151.0,816.0,913.0,-30.0,34.0,-276.0,555.0
19:35:23.685000,-24.0,-250.0,-144.0,828.0,907.0,-25.0,21.0,-277.0,544.0
19:35:23.690000,-74.0,-259.0,-128.0,837.0,897.0,-22.0,21.0,-277.0,544.0
19:35:23.695000,-143.0,-268.0,-108.0,843.0,895.0,-9.0,28.0,-277.0,535.0
19:35:23.699000,-206.0,-276.0,-80.0,846.0,894.0,-7.0,28.0,-277.0,535.0
19:35:23.703000,-266.0,-280.0,-44.0,838.0,882.0,-12.0,28.0,-277.0,535.0
19:35:23.709000,-310.0,-280.0,-4.0,813.0,865.0,-25.0,30.0,-282.0,555.0
19:35:23.713000,-340.0,-274.0,25.0,794.0,831.0,-42.0,30.0,-282.0,555.0
19:35:23.718000,-367.0,-255.0,58.0,794.0,831.0,-42.0,21.0,-277.0,564.0
19:35:23.723000,-374.0,-244.0,113.0,794.0,766.0,-58.0,21.0,-277.0,564.0
19:35:23.727000,-342.0,-224.0,176.0,782.0,689.0,-89.0,21.0,-277.0,564.0
19:35:23.732000,-304.0,-198.0,225.0,746.0,626.0,-118.0,37.0,-286.0,556.0
19:35:23.737000,-254.0,-169.0,254.0,701.0,596.0,-137.0,37.0,-286.0,556.0
19:35:23.742000,-198.0,-140.0,270.0,667.0,603.0,-162.0,39.0,-288.0,552.0
19:35:23.746000,-141.0,-116.0,274.0,649.0,625.0,-179.0,39.0,-288.0,552.0
19:35:23.750000,-141.0,-116.0,274.0,639.0,647.0,-191.0,39.0,-288.0,552.0
19:35:23.756000,-23.0,-70.0,240.0,643.0,672.0,-195.0,34.0,-289.0,553.0
19:35:23.760000,28.0,-47.0,205.0,665.0,706.0,-194.0,34.0,-289.0,553.0
19:35:23.765000,28.0,-47.0,205.0,701.0,758.0,-192.0,43.0,-294.0,555.0
19:35:23.770000,65.0,-25.0,165.0,746.0,819.0,-190.0,43.0,-294.0,555.0
19:35:23.774000,93.0,0.0,112.0,801.0,870.0,-179.0,43.0,-294.0,555.0
19:35:23.779000,100.0,20.0,51.0,853.0,911.0,-170.0,40.0,-291.0,558.0
19:35:23.784000,100.0,43.0,-30.0,921.0,940.0,-168.0,40.0,-291.0,558.0
19:35:23.789000,66.0,69.0,-48.0,1100.0,874.0,-168.0,48.0,-282.0,549.0
19:35:23.793000,86.0,111.0,87.0,1126.0,914.0,-204.0,48.0,-282.0,549.0
19:35:23.797000,177.0,184.0,161.0,915.0,1125.0,-225.0,48.0,-282.0,549.0
19:35:23.803000,116.0,282.0,144.0,720.0,1260.0,-184.0,33.0,-291.0,547.0
19:35:23.807000,66.0,300.0,194.0,474.0,1243.0,-165.0,33.0,-291.0,547.0
19:35:23.812000,62.0,274.0,396.0,474.0,1141.0,-153.0,37.0,-295.0,559.0
19:35:23.816000,-21.0,227.0,630.0,-43.0,1094.0,-176.0,37.0,-295.0,559.0
19:35:23.821000,-4.0,186.0,685.0,-69.0,1124.0,-247.0,37.0,-295.0,559.0
19:35:23.826000,20.0,190.0,588.0,-69.0,1177.0,-247.0,37.0,-282.0,552.0
19:35:23.831000,17.0,144.0,564.0,136.0,1177.0,-232.0,37.0,-282.0,552.0
19:35:23.835000,85.0,81.0,569.0,374.0,1286.0,-218.0,33.0,-280.0,553.0
19:35:23.840000,126.0,-35.0,593.0,472.0,1382.0,-201.0,33.0,-280.0,553.0
19:35:23.844000,65.0,-78.0,646.0,484.0,1315.0,-192.0,33.0,-280.0,553.0
19:35:23.850000,-53.0,-164.0,735.0,494.0,1146.0,-174.0,33.0,-270.0,561.0
19:35:23.854000,-123.0,-172.0,894.0,588.0,942.0,-177.0,33.0,-270.0,561.0
19:35:23.859000,-137.0,-130.0,1024.0,767.0,761.0,-263.0,36.0,-271.0,549.0
19:35:23.864000,-161.0,-116.0,1026.0,908.0,635.0,-286.0,36.0,-271.0,549.0
19:35:23.868000,-161.0,-116.0,1026.0,976.0,554.0,-274.0,36.0,-271.0,549.0
19:35:23.873000,-107.0,-141.0,984.0,995.0,552.0,-283.0,40.0,-270.0,550.0
19:35:23.878000,-38.0,-135.0,970.0,987.0,584.0,-293.0,40.0,-270.0,550.0
19:35:23.882000,-28.0,-123.0,1003.0,919.0,625.0,-283.0,48.0,-265.0,555.0
19:35:23.887000,-32.0,-133.0,973.0,825.0,696.0,-292.0,48.0,-265.0,555.0
19:35:23.891000,-21.0,-141.0,859.0,793.0,762.0,-314.0,48.0,-265.0,555.0
19:35:23.897000,-4.0,-142.0,715.0,816.0,778.0,-330.0,58.0,-271.0,549.0
19:35:23.901000,-7.0,-135.0,602.0,805.0,736.0,-344.0,58.0,-271.0,549.0
19:35:23.906000,-9.0,-135.0,525.0,732.0,653.0,-355.0,52.0,-259.0,555.0
19:35:23.911000,9.0,-130.0,452.0,642.0,553.0,-372.0,52.0,-259.0,555.0
19:35:23.915000,65.0,-128.0,378.0,571.0,468.0,-386.0,52.0,-259.0,555.0
19:35:23.920000,139.0,-117.0,316.0,525.0,415.0,-390.0,51.0,-256.0,555.0
19:35:23.925000,219.0,-103.0,291.0,474.0,411.0,-386.0,51.0,-256.0,555.0
19:35:23.929000,304.0,-86.0,291.0,474.0,411.0,-386.0,64.0,-258.0,556.0
19:35:23.934000,374.0,-65.0,254.0,293.0,530.0,-361.0,64.0,-258.0,556.0
19:35:23.938000,441.0,-35.0,168.0,293.0,530.0,-361.0,64.0,-258.0,556.0
19:35:23.944000,501.0,0.0,85.0,226.0,555.0,-351.0,58.0,-258.0,550.0
19:35:23.948000,560.0,40.0,43.0,209.0,591.0,-331.0,58.0,-258.0,550.0
19:35:23.953000,594.0,83.0,16.0,209.0,591.0,-331.0,73.0,-247.0,558.0
19:35:23.958000,608.0,123.0,-12.0,212.0,697.0,-310.0,73.0,-247.0,558.0
19:35:23.962000,607.0,161.0,-58.0,210.0,823.0,-290.0,73.0,-247.0,558.0
19:35:23.967000,592.0,193.0,-104.0,217.0,923.0,-270.0,54.0,-244.0,550.0
19:35:23.972000,559.0,223.0,-121.0,240.0,965.0,-252.0,54.0,-244.0,550.0
19:35:23.976000,525.0,241.0,-138.0,273.0,973.0,-240.0,51.0,-244.0,546.0
19:35:23.981000,490.0,259.0,-170.0,326.0,958.0,-238.0,51.0,-244.0,546.0
19:35:23.985000,490.0,259.0,-170.0,391.0,949.0,-243.0,51.0,-244.0,546.0
19:35:23.991000,456.0,275.0,-205.0,432.0,1023.0,-245.0,58.0,-231.0,550.0
19:35:24.005000,320.0,262.0,-230.0,597.0,828.0,-280.0,45.0,-234.0,555.0
19:35:24.009000,259.0,237.0,-300.0,670.0,908.0,-298.0,58.0,-237.0,540.0
19:35:24.014000,186.0,203.0,-374.0,727.0,1073.0,-299.0,58.0,-237.0,540.0
19:35:24.018000,137.0,161.0,-432.0,755.0,1162.0,-299.0,58.0,-237.0,540.0
19:35:24.023000,62.0,139.0,-511.0,777.0,1204.0,-302.0,52.0,-241.0,544.0
19:35:24.028000,-18.0,109.0,-571.0,768.0,1249.0,-295.0,52.0,-241.0,544.0
19:35:24.033000,-104.0,77.0,-612.0,768.0,1249.0,-295.0,42.0,-243.0,544.0
19:35:24.038000,-179.0,53.0,-623.0,628.0,1258.0,-297.0,42.0,-243.0,544.0
19:35:24.042000,-246.0,32.0,-597.0,528.0,1194.0,-299.0,42.0,-243.0,544.0
19:35:24.047000,-287.0,15.0,-547.0,528.0,1194.0,-299.0,42.0,-244.0,541.0
19:35:24.051000,-296.0,10.0,-472.0,380.0,1002.0,-331.0,42.0,-244.0,541.0
19:35:24.056000,-292.0,15.0,-392.0,380.0,1002.0,-331.0,39.0,-249.0,546.0
19:35:24.061000,-286.0,20.0,-310.0,332.0,962.0,-335.0,39.0,-249.0,546.0
19:35:24.065000,-274.0,23.0,-232.0,317.0,947.0,-333.0,39.0,-249.0,546.0
19:35:24.070000,-250.0,28.0,-170.0,337.0,947.0,-332.0,43.0,-255.0,550.0
19:35:24.075000,-226.0,29.0,-139.0,361.0,966.0,-331.0,43.0,-255.0,550.0
19:35:24.080000,-201.0,28.0,-127.0,367.0,987.0,-323.0,36.0,-253.0,544.0
19:35:24.085000,-187.0,33.0,-115.0,345.0,979.0,-312.0,36.0,-253.0,544.0
19:35:24.089000,-187.0,33.0,-115.0,314.0,937.0,-299.0,36.0,-253.0,544.0
19:35:24.094000,-177.0,37.0,-84.0,321.0,887.0,-288.0,33.0,-256.0,549.0
19:35:24.098000,-160.0,44.0,-48.0,367.0,858.0,-282.0,33.0,-256.0,549.0
19:35:24.103000,-135.0,60.0,-37.0,413.0,852.0,-277.0,40.0,-258.0,564.0
19:35:24.108000,-109.0,72.0,-42.0,449.0,838.0,-281.0,40.0,-258.0,564.0
19:35:24.112000,-77.0,96.0,-22.0,469.0,811.0,-287.0,40.0,-258.0,564.0
19:35:24.117000,-39.0,113.0,21.0,454.0,793.0,-287.0,46.0,-250.0,543.0
19:35:24.122000,-3.0,128.0,56.0,411.0,792.0,-290.0,46.0,-250.0,543.0
19:35:24.127000,37.0,140.0,60.0,381.0,788.0,-298.0,25.0,-256.0,540.0
19:35:24.132000,83.0,155.0,44.0,380.0,794.0,-306.0,25.0,-256.0,540.0
19:35:24.136000,133.0,170.0,-4.0,400.0,822.0,-304.0,25.0,-256.0,540.0
19:35:24.141000,171.0,177.0,-51.0,444.0,853.0,-299.0,24.0,-255.0,553.0
19:35:24.146000,209.0,182.0,-55.0,482.0,857.0,-290.0,24.0,-255.0,553.0
19:35:24.150000,225.0,182.0,-26.0,482.0,857.0,-290.0,16.0,-250.0,535.0
19:35:24.155000,251.0,175.0,-3.0,492.0,848.0,-279.0,16.0,-250.0,535.0
19:35:24.159000,273.0,165.0,25.0,480.0,795.0,-273.0,16.0,-250.0,535.0
19:35:24.164000,293.0,147.0,76.0,477.0,705.0,-259.0,34.0,-258.0,538.0
19:35:24.169000,327.0,126.0,130.0,503.0,658.0,-249.0,34.0,-258.0,538.0
19:35:24.174000,368.0,100.0,142.0,520.0,676.0,-242.0,22.0,-255.0,538.0
19:35:24.179000,389.0,76.0,111.0,511.0,764.0,-226.0,22.0,-255.0,538.0
19:35:24.183000,395.0,51.0,78.0,515.0,856.0,-204.0,22.0,-255.0,538.0
19:35:24.188000,389.0,32.0,77.0,548.0,866.0,-181.0,21.0,-238.0,532.0
19:35:24.193000,365.0,25.0,122.0,563.0,814.0,-155.0,21.0,-238.0,532.0
19:35:24.197000,336.0,23.0,165.0,495.0,845.0,-127.0,18.0,-250.0,531.0
19:35:24.202000,336.0,23.0,165.0,392.0,916.0,-101.0,18.0,-250.0,531.0
19:35:24.206000,289.0,28.0,165.0,343.0,913.0,-84.0,18.0,-250.0,531.0
19:35:24.211000,233.0,44.0,160.0,350.0,895.0,-77.0,19.0,-244.0,543.0
19:35:24.216000,183.0,65.0,149.0,378.0,900.0,-75.0,19.0,-244.0,543.0
19:35:24.221000,138.0,95.0,110.0,397.0,909.0,-71.0,31.0,-231.0,538.0
19:35:24.226000,81.0,120.0,66.0,397.0,938.0,-70.0,31.0,-231.0,538.0
19:35:24.230000,32.0,144.0,11.0,380.0,924.0,-77.0,31.0,-231.0,538.0
19:35:24.235000,-14.0,173.0,-39.0,354.0,897.0,-85.0,33.0,-238.0,525.0
19:35:24.240000,-54.0,203.0,-107.0,342.0,878.0,-91.0,33.0,-238.0,525.0
19:35:24.244000,-94.0,226.0,-189.0,382.0,838.0,-104.0,19.0,-243.0,555.0
19:35:24.249000,-113.0,248.0,-252.0,437.0,778.0,-117.0,19.0,-243.0,555.0
19:35:24.253000,-121.0,260.0,-275.0,478.0,722.0,-124.0,19.0,-243.0,555.0
19:35:24.258000,-128.0,270.0,-331.0,558.0,706.0,-137.0,16.0,-244.0,531.0
19:35:24.263000,-97.0,277.0,-424.0,600.0,650.0,-148.0,16.0,-244.0,531.0
19:35:24.268000,-68.0,282.0,-501.0,600.0,650.0,-148.0,19.0,-238.0,534.0
19:35:24.273000,-44.0,289.0,-540.0,602.0,596.0,-161.0,19.0,-238.0,534.0
19:35:24.277000,-17.0,291.0,-548.0,624.0,607.0,-180.0,19.0,-238.0,534.0
19:35:24.282000,0.0,291.0,-564.0,614.0,649.0,-193.0,13.0,-252.0,532.0
19:35:24.287000,11.0,286.0,-574.0,596.0,691.0,-201.0,13.0,-252.0,532.0
19:35:24.291000,12.0,277.0,-567.0,599.0,718.0,-207.0,-7.0,-258.0,522.0
19:35:24.296000,10.0,263.0,-559.0,605.0,737.0,-210.0,-7.0,-258.0,522.0
19:35:24.300000,10.0,263.0,-559.0,627.0,761.0,-203.0,-7.0,-258.0,522.0
19:35:24.305000,-2.0,219.0,-553.0,655.0,802.0,-197.0,13.0,-255.0,532.0
19:35:24.310000,-11.0,187.0,-542.0,676.0,843.0,-188.0,13.0,-255.0,532.0
19:35:24.315000,-11.0,187.0,-542.0,712.0,867.0,-175.0,1.0,-259.0,517.0
19:35:24.320000,-23.0,157.0,-508.0,749.0,866.0,-162.0,1.0,-259.0,517.0
19:35:24.324000,-40.0,126.0,-464.0,766.0,867.0,-150.0,1.0,-259.0,517.0
19:35:24.329000,-62.0,100.0,-413.0,781.0,881.0,-142.0,-1.0,-265.0,520.0
19:35:24.334000,-83.0,75.0,-345.0,800.0,892.0,-134.0,-1.0,-265.0,520.0
19:35:24.338000,-105.0,55.0,-284.0,785.0,920.0,-131.0,4.0,-276.0,525.0
19:35:24.343000,-130.0,42.0,-258.0,748.0,953.0,-127.0,4.0,-276.0,525.0
19:35:24.347000,-166.0,34.0,-218.0,718.0,959.0,-126.0,4.0,-276.0,525.0
19:35:24.352000,-198.0,32.0,-149.0,673.0,939.0,-134.0,-4.0,-273.0,522.0
19:35:24.357000,-217.0,34.0,-86.0,637.0,885.0,-143.0,-4.0,-273.0,522.0
19:35:24.362000,-220.0,39.0,-38.0,637.0,885.0,-143.0,-10.0,-274.0,522.0
19:35:24.367000,-206.0,51.0,-4.0,677.0,757.0,-164.0,-10.0,-274.0,522.0
19:35:24.371000,-178.0,65.0,27.0,722.0,734.0,-162.0,-10.0,-274.0,522.0
19:35:24.376000,-146.0,70.0,25.0,722.0,734.0,-162.0,-4.0,-276.0,528.0
19:35:24.381000,-103.0,79.0,4.0,716.0,771.0,-149.0,-4.0,-276.0,528.0
19:35:24.385000,-60.0,91.0,-6.0,716.0,771.0,-149.0,-6.0,-273.0,540.0
19:35:24.390000,-36.0,88.0,-11.0,723.0,778.0,-127.0,-6.0,-273.0,540.0
19:35:24.394000,-11.0,86.0,-14.0,736.0,772.0,-101.0,-6.0,-273.0,540.0
19:35:24.399000,8.0,84.0,-11.0,760.0,745.0,-84.0,-7.0,-274.0,522.0
19:35:24.404000,29.0,81.0,6.0,787.0,721.0,-64.0,-7.0,-274.0,522.0
19:35:24.409000,44.0,74.0,30.0,809.0,710.0,-44.0,-12.0,-277.0,525.0
19:35:24.414000,57.0,79.0,23.0,825.0,711.0,-42.0,-12.0,-277.0,525.0
19:35:24.418000,57.0,79.0,23.0,818.0,737.0,-49.0,-12.0,-277.0,525.0
19:35:24.423000,65.0,82.0,-5.0,816.0,755.0,-49.0,-15.0,-259.0,525.0
19:35:24.428000,47.0,92.0,30.0,806.0,766.0,-44.0,-15.0,-259.0,525.0
19:35:24.432000,44.0,84.0,80.0,752.0,804.0,-56.0,-1.0,-276.0,529.0
19:35:24.437000,37.0,100.0,46.0,710.0,861.0,-58.0,-1.0,-276.0,529.0
19:35:24.441000,21.0,98.0,-16.0,699.0,899.0,-51.0,-1.0,-276.0,529.0
19:35:24.446000,25.0,98.0,-67.0,695.0,878.0,-64.0,-4.0,-270.0,523.0
19:35:24.451000,23.0,98.0,-103.0,683.0,832.0,-66.0,-4.0,-270.0,523.0
19:35:24.456000,7.0,105.0,-122.0,688.0,804.0,-68.0,-12.0,-274.0,523.0
19:35:24.461000,3.0,107.0,-118.0,707.0,777.0,-67.0,-12.0,-274.0,523.0
19:35:24.465000,7.0,107.0,-130.0,716.0,772.0,-68.0,-12.0,-274.0,523.0
19:35:24.470000,28.0,105.0,-173.0,749.0,747.0,-68.0,-19.0,-271.0,522.0
19:35:24.475000,44.0,105.0,-192.0,791.0,713.0,-65.0,-19.0,-271.0,522.0
19:35:24.479000,54.0,104.0,-197.0,789.0,724.0,-59.0,-7.0,-270.0,517.0
19:35:24.484000,70.0,93.0,-219.0,789.0,724.0,-59.0,-7.0,-270.0,517.0
19:35:24.488000,65.0,95.0,-233.0,774.0,746.0,-60.0,-7.0,-270.0,517.0
19:35:24.493000,77.0,91.0,-241.0,783.0,766.0,-66.0,-22.0,-268.0,543.0
19:35:24.498000,76.0,92.0,-242.0,795.0,795.0,-70.0,-22.0,-268.0,543.0
19:35:24.503000,42.0,83.0,-200.0,798.0,819.0,-59.0,-19.0,-274.0,523.0
19:35:24.508000,33.0,88.0,-159.0,790.0,820.0,-62.0,-19.0,-274.0,523.0
19:35:24.512000,30.0,93.0,-135.0,763.0,797.0,-76.0,-19.0,-274.0,523.0
19:35:24.516000,30.0,93.0,-135.0,738.0,747.0,-80.0,-19.0,-279.0,517.0
19:35:24.522000,49.0,134.0,-111.0,730.0,714.0,-94.0,-19.0,-279.0,517.0
19:35:24.526000,60.0,154.0,-86.0,717.0,699.0,-101.0,-15.0,-279.0,523.0
19:35:24.531000,60.0,154.0,-86.0,681.0,698.0,-76.0,-15.0,-279.0,523.0
19:35:24.535000,77.0,170.0,-37.0,637.0,701.0,-94.0,-15.0,-279.0,523.0
19:35:24.540000,114.0,208.0,-56.0,653.0,705.0,-136.0,-28.0,-286.0,514.0
19:35:24.545000,135.0,240.0,-72.0,687.0,698.0,-120.0,-28.0,-286.0,514.0
19:35:24.550000,146.0,254.0,-21.0,688.0,674.0,-100.0,-15.0,-276.0,511.0
19:35:24.555000,165.0,281.0,28.0,667.0,673.0,-90.0,-15.0,-276.0,511.0
19:35:24.559000,192.0,296.0,59.0,683.0,677.0,-93.0,-15.0,-276.0,511.0
19:35:24.564000,210.0,317.0,60.0,739.0,676.0,-91.0,-24.0,-276.0,514.0
19:35:24.569000,228.0,343.0,70.0,775.0,713.0,-102.0,-24.0,-276.0,514.0
19:35:24.573000,252.0,366.0,107.0,792.0,736.0,-86.0,-27.0,-276.0,511.0
19:35:24.578000,242.0,357.0,165.0,802.0,735.0,-68.0,-27.0,-276.0,511.0
19:35:24.582000,242.0,372.0,196.0,804.0,731.0,-65.0,-27.0,-276.0,511.0
19:35:24.587000,217.0,364.0,221.0,801.0,726.0,-56.0,-33.0,-270.0,510.0
19:35:24.592000,226.0,373.0,235.0,801.0,733.0,-68.0,-33.0,-270.0,510.0
19:35:24.597000,239.0,373.0,231.0,799.0,733.0,-68.0,-24.0,-276.0,510.0
19:35:24.602000,233.0,368.0,256.0,800.0,737.0,-61.0,-24.0,-276.0,510.0
19:35:24.606000,232.0,359.0,311.0,823.0,753.0,-39.0,-24.0,-276.0,510.0
19:35:24.611000,247.0,362.0,346.0,813.0,785.0,-67.0,-39.0,-258.0,511.0
19:35:24.616000,209.0,338.0,340.0,744.0,807.0,-84.0,-39.0,-258.0,511.0
19:35:24.620000,185.0,340.0,343.0,708.0,839.0,-62.0,-30.0,-265.0,496.0
19:35:24.625000,147.0,328.0,349.0,722.0,874.0,-47.0,-30.0,-265.0,496.0
19:35:24.629000,147.0,328.0,349.0,743.0,895.0,-46.0,-30.0,-265.0,496.0
19:35:24.634000,103.0,301.0,344.0,784.0,888.0,-50.0,-33.0,-265.0,504.0
19:35:24.639000,103.0,301.0,344.0,819.0,855.0,-46.0,-33.0,-265.0,504.0
19:35:24.644000,85.0,277.0,402.0,809.0,838.0,-46.0,-36.0,-253.0,507.0
19:35:24.649000,44.0,251.0,465.0,768.0,844.0,-53.0,-36.0,-253.0,507.0
19:35:24.653000,20.0,241.0,525.0,712.0,872.0,-63.0,-36.0,-253.0,507.0
19:35:24.658000,-9.0,225.0,553.0,677.0,886.0,-61.0,-39.0,-253.0,504.0
19:35:24.663000,-40.0,206.0,566.0,672.0,881.0,-69.0,-39.0,-253.0,504.0
19:35:24.667000,-65.0,182.0,588.0,679.0,837.0,-62.0,-37.0,-250.0,496.0
19:35:24.681000,-163.0,122.0,704.0,642.0,742.0,-75.0,-48.0,-246.0,522.0
19:35:24.686000,-177.0,96.0,742.0,637.0,731.0,-74.0,-48.0,-246.0,522.0
19:35:24.691000,-199.0,77.0,767.0,651.0,717.0,-79.0,-34.0,-241.0,504.0
19:35:24.696000,-225.0,44.0,779.0,650.0,686.0,-79.0,-34.0,-241.0,504.0
19:35:24.700000,-253.0,19.0,799.0,650.0,686.0,-79.0,-30.0,-244.0,498.0
19:35:24.705000,-252.0,-2.0,810.0,633.0,655.0,-90.0,-30.0,-244.0,498.0
19:35:24.709000,-273.0,-23.0,803.0,608.0,654.0,-97.0,-30.0,-244.0,498.0
19:35:24.714000,-294.0,-49.0,790.0,590.0,655.0,-87.0,-27.0,-241.0,496.0
19:35:24.719000,-294.0,-72.0,767.0,568.0,671.0,-85.0,-27.0,-241.0,496.0
19:35:24.724000,-294.0,-84.0,737.0,540.0,667.0,-97.0,-19.0,-235.0,501.0
19:35:24.728000,-282.0,-100.0,711.0,524.0,638.0,-103.0,-19.0,-235.0,501.0
19:35:24.733000,-279.0,-112.0,700.0,526.0,598.0,-117.0,-19.0,-235.0,501.0
19:35:24.738000,-286.0,-122.0,693.0,541.0,545.0,-111.0,-27.0,-237.0,505.0
19:35:24.743000,-269.0,-128.0,700.0,535.0,518.0,-99.0,-27.0,-237.0,505.0
19:35:24.747000,-251.0,-129.0,713.0,503.0,517.0,-121.0,-22.0,-226.0,511.0
19:35:24.752000,-251.0,-129.0,713.0,470.0,519.0,-134.0,-22.0,-226.0,511.0
19:35:24.756000,-231.0,-129.0,711.0,444.0,523.0,-141.0,-22.0,-226.0,511.0
19:35:24.761000,-224.0,-121.0,685.0,424.0,522.0,-150.0,-19.0,-231.0,514.0
19:35:24.766000,-213.0,-117.0,648.0,407.0,521.0,-163.0,-19.0,-231.0,514.0
19:35:24.771000,-200.0,-109.0,616.0,399.0,525.0,-181.0,-7.0,-222.0,510.0
19:35:24.775000,-193.0,-105.0,597.0,398.0,540.0,-200.0,-7.0,-222.0,510.0
19:35:24.780000,-179.0,-102.0,581.0,406.0,556.0,-219.0,-7.0,-222.0,510.0
19:35:24.785000,-161.0,-103.0,566.0,426.0,567.0,-233.0,-21.0,-228.0,519.0
19:35:24.790000,-140.0,-114.0,554.0,452.0,576.0,-233.0,-21.0,-228.0,519.0
19:35:24.794000,-124.0,-133.0,550.0,474.0,593.0,-225.0,-19.0,-228.0,517.0
19:35:24.799000,-103.0,-161.0,547.0,493.0,614.0,-219.0,-19.0,-228.0,517.0
19:35:24.803000,-95.0,-184.0,536.0,512.0,630.0,-217.0,-19.0,-228.0,517.0
19:35:24.808000,-81.0,-212.0,537.0,530.0,638.0,-208.0,-6.0,-216.0,510.0
19:35:24.813000,-88.0,-239.0,554.0,530.0,638.0,-208.0,-6.0,-216.0,510.0
19:35:24.818000,-90.0,-267.0,576.0,539.0,657.0,-195.0,1.0,-222.0,525.0
19:35:24.822000,-101.0,-295.0,599.0,539.0,657.0,-195.0,1.0,-222.0,525.0
19:35:24.827000,-115.0,-316.0,625.0,538.0,668.0,-188.0,1.0,-222.0,525.0
19:35:24.832000,-129.0,-333.0,659.0,541.0,672.0,-186.0,-1.0,-214.0,522.0
19:35:24.837000,-139.0,-343.0,686.0,531.0,682.0,-191.0,-1.0,-214.0,522.0
19:35:24.841000,-151.0,-350.0,703.0,497.0,709.0,-198.0,12.0,-217.0,525.0
19:35:24.846000,-165.0,-351.0,711.0,455.0,738.0,-201.0,12.0,-217.0,525.0
19:35:24.850000,-165.0,-351.0,711.0,423.0,755.0,-204.0,12.0,-217.0,525.0
19:35:24.855000,-184.0,-355.0,716.0,407.0,757.0,-205.0,13.0,-210.0,523.0
19:35:24.860000,-184.0,-355.0,716.0,400.0,748.0,-208.0,13.0,-210.0,523.0
19:35:24.864000,-186.0,-357.0,726.0,388.0,749.0,-212.0,22.0,-207.0,550.0
19:35:24.869000,-187.0,-354.0,731.0,362.0,762.0,-213.0,22.0,-207.0,550.0
19:35:24.874000,-193.0,-346.0,725.0,333.0,782.0,-211.0,30.0,-204.0,540.0
19:35:24.879000,-204.0,-339.0,716.0,316.0,806.0,-203.0,30.0,-204.0,540.0
19:35:24.883000,-222.0,-333.0,711.0,307.0,836.0,-191.0,30.0,-204.0,540.0
19:35:24.888000,-245.0,-332.0,702.0,298.0,867.0,-176.0,25.0,-204.0,531.0
19:35:24.893000,-275.0,-331.0,692.0,292.0,890.0,-165.0,25.0,-204.0,531.0
19:35:24.898000,-301.0,-329.0,683.0,284.0,893.0,-158.0,39.0,-207.0,537.0
19:35:24.902000,-332.0,-328.0,676.0,269.0,877.0,-152.0,39.0,-207.0,537.0
19:35:24.906000,-359.0,-326.0,672.0,254.0,856.0,-146.0,39.0,-207.0,537.0
19:35:24.912000,-384.0,-327.0,680.0,245.0,829.0,-139.0,48.0,-205.0,541.0
19:35:24.916000,-414.0,-324.0,712.0,238.0,804.0,-134.0,48.0,-205.0,541.0
19:35:24.921000,-448.0,-316.0,758.0,238.0,804.0,-134.0,43.0,-216.0,547.0
19:35:24.926000,-479.0,-301.0,800.0,227.0,796.0,-141.0,43.0,-216.0,547.0
19:35:24.930000,-526.0,-286.0,835.0,211.0,805.0,-154.0,43.0,-216.0,547.0
19:35:24.935000,-576.0,-266.0,865.0,192.0,825.0,-173.0,55.0,-198.0,546.0
19:35:24.940000,-626.0,-241.0,881.0,175.0,859.0,-202.0,55.0,-198.0,546.0
19:35:24.945000,-675.0,-217.0,881.0,163.0,908.0,-227.0,54.0,-202.0,546.0
19:35:24.949000,-721.0,-198.0,872.0,160.0,949.0,-249.0,54.0,-202.0,546.0
19:35:24.957000,-753.0,-184.0,846.0,188.0,974.0,-300.0,64.0,-210.0,565.0
19:35:24.959000,-786.0,-177.0,800.0,188.0,974.0,-300.0,64.0,-210.0,565.0
19:35:24.963000,-786.0,-177.0,800.0,223.0,964.0,-326.0,64.0,-210.0,565.0
19:35:24.968000,-800.0,-177.0,740.0,271.0,956.0,-359.0,70.0,-207.0,549.0
19:35:24.973000,-811.0,-182.0,676.0,319.0,953.0,-385.0,70.0,-207.0,549.0
19:35:24.978000,-819.0,-193.0,618.0,361.0,959.0,-409.0,78.0,-214.0,570.0
19:35:24.982000,-819.0,-210.0,560.0,390.0,976.0,-431.0,78.0,-214.0,570.0
19:35:24.986000,-815.0,-231.0,493.0,407.0,1006.0,-443.0,78.0,-214.0,570.0
19:35:24.992000,-811.0,-258.0,413.0,423.0,1026.0,-449.0,79.0,-217.0,571.0
19:35:24.996000,-803.0,-285.0,342.0,440.0,1024.0,-453.0,79.0,-217.0,571.0
19:35:25.001000,-796.0,-305.0,291.0,440.0,1019.0,-451.0,87.0,-225.0,579.0
19:35:25.006000,-788.0,-324.0,246.0,422.0,1021.0,-448.0,87.0,-225.0,579.0
19:35:25.010000,-774.0,-336.0,204.0,392.0,1020.0,-444.0,87.0,-225.0,579.0
19:35:25.015000,-754.0,-347.0,168.0,366.0,1002.0,-443.0,79.0,-231.0,573.0
19:35:25.020000,-730.0,-358.0,135.0,362.0,972.0,-440.0,79.0,-231.0,573.0
19:35:25.025000,-693.0,-362.0,112.0,362.0,972.0,-440.0,75.0,-240.0,580.0
19:35:25.029000,-652.0,-363.0,109.0,405.0,892.0,-425.0,75.0,-240.0,580.0
19:35:25.033000,-605.0,-352.0,88.0,405.0,892.0,-425.0,75.0,-240.0,580.0
19:35:25.039000,-562.0,-336.0,53.0,435.0,877.0,-419.0,100.0,-241.0,571.0
19:35:25.043000,-513.0,-319.0,16.0,462.0,920.0,-400.0,100.0,-241.0,571.0
19:35:25.048000,-469.0,-302.0,-32.0,462.0,920.0,-400.0,75.0,-249.0,583.0
19:35:25.053000,-428.0,-282.0,-72.0,466.0,956.0,-391.0,75.0,-249.0,583.0
19:35:25.057000,-392.0,-265.0,-102.0,477.0,977.0,-367.0,75.0,-249.0,583.0
19:35:25.062000,-367.0,-225.0,-129.0,470.0,991.0,-370.0,96.0,-258.0,583.0
19:35:25.067000,-345.0,-200.0,-144.0,448.0,1010.0,-390.0,96.0,-258.0,583.0
19:35:25.072000,-308.0,-171.0,-122.0,419.0,1057.0,-391.0,94.0,-258.0,579.0
19:35:25.076000,-303.0,-136.0,-98.0,364.0,1115.0,-392.0,94.0,-258.0,579.0
19:35:25.080000,-303.0,-136.0,-98.0,329.0,1165.0,-389.0,94.0,-258.0,579.0
19:35:25.086000,-307.0,-108.0,-84.0,330.0,1206.0,-400.0,103.0,-255.0,588.0
19:35:25.090000,-309.0,-83.0,-60.0,348.0,1216.0,-412.0,103.0,-255.0,588.0
19:35:25.095000,-332.0,-60.0,-25.0,356.0,1229.0,-420.0,97.0,-255.0,586.0
19:35:25.100000,-352.0,-43.0,4.0,334.0,1299.0,-442.0,97.0,-255.0,586.0
19:35:25.104000,-368.0,-32.0,20.0,278.0,1400.0,-457.0,97.0,-255.0,586.0
19:35:25.109000,-403.0,-24.0,19.0,201.0,1487.0,-456.0,102.0,-256.0,591.0
19:35:25.114000,-445.0,-23.0,7.0,141.0,1532.0,-453.0,102.0,-256.0,591.0
19:35:25.119000,-494.0,-28.0,-4.0,123.0,1519.0,-456.0,97.0,-270.0,597.0
19:35:25.123000,-537.0,-33.0,-11.0,144.0,1463.0,-465.0,97.0,-270.0,597.0
19:35:25.127000,-564.0,-33.0,0.0,180.0,1373.0,-473.0,97.0,-270.0,597.0
19:35:25.133000,-589.0,-31.0,44.0,208.0,1275.0,-465.0,96.0,-264.0,588.0
19:35:25.137000,-595.0,-35.0,67.0,234.0,1202.0,-457.0,96.0,-264.0,588.0
19:35:25.142000,-584.0,-28.0,49.0,234.0,1202.0,-457.0,96.0,-268.0,585.0
19:35:25.147000,-564.0,-13.0,5.0,253.0,1151.0,-464.0,96.0,-268.0,585.0
19:35:25.151000,-536.0,2.0,-34.0,255.0,1116.0,-468.0,96.0,-268.0,585.0
19:35:25.156000,-511.0,21.0,-66.0,246.0,1076.0,-466.0,100.0,-277.0,580.0
19:35:25.161000,-464.0,38.0,-95.0,225.0,1047.0,-474.0,100.0,-277.0,580.0
19:35:25.166000,-427.0,56.0,-136.0,203.0,1017.0,-474.0,88.0,-285.0,597.0
19:35:25.170000,-378.0,70.0,-189.0,187.0,997.0,-477.0,88.0,-285.0,597.0
19:35:25.174000,-378.0,70.0,-189.0,171.0,1002.0,-499.0,88.0,-285.0,597.0
19:35:25.180000,-247.0,91.0,-289.0,148.0,1001.0,-509.0,103.0,-288.0,603.0
19:35:25.184000,-196.0,88.0,-315.0,123.0,989.0,-501.0,103.0,-288.0,603.0
19:35:25.189000,-196.0,88.0,-315.0,119.0,979.0,-504.0,100.0,-285.0,586.0
19:35:25.194000,-143.0,84.0,-324.0,138.0,989.0,-525.0,100.0,-285.0,586.0
19:35:25.198000,-91.0,81.0,-340.0,165.0,1002.0,-534.0,100.0,-285.0,586.0
19:35:25.203000,-46.0,71.0,-359.0,208.0,996.0,-536.0,93.0,-286.0,595.0
19:35:25.208000,-3.0,51.0,-358.0,256.0,975.0,-543.0,93.0,-286.0,595.0
19:35:25.213000,43.0,28.0,-325.0,276.0,940.0,-536.0,100.0,-286.0,600.0
19:35:25.217000,70.0,7.0,-298.0,268.0,931.0,-538.0,100.0,-286.0,600.0
19:35:25.221000,129.0,-16.0,-274.0,250.0,928.0,-544.0,100.0,-286.0,600.0
19:35:25.227000,149.0,-26.0,-252.0,225.0,909.0,-536.0,87.0,-289.0,610.0
19:35:25.231000,171.0,-34.0,-231.0,194.0,906.0,-530.0,87.0,-289.0,610.0
19:35:25.236000,196.0,-46.0,-191.0,194.0,906.0,-530.0,87.0,-289.0,610.0
19:35:25.241000,213.0,-53.0,-156.0,135.0,881.0,-528.0,87.0,-289.0,610.0
19:35:25.245000,242.0,-56.0,-154.0,120.0,893.0,-529.0,87.0,-289.0,610.0
19:35:25.250000,277.0,-65.0,-167.0,120.0,893.0,-529.0,90.0,-292.0,591.0
19:35:25.255000,296.0,-65.0,-163.0,118.0,894.0,-523.0,90.0,-292.0,591.0
19:35:25.260000,321.0,-73.0,-154.0,121.0,872.0,-518.0,100.0,-285.0,595.0
19:35:25.264000,350.0,-82.0,-152.0,117.0,850.0,-501.0,100.0,-285.0,595.0
19:35:25.268000,361.0,-78.0,-161.0,110.0,817.0,-479.0,100.0,-285.0,595.0
19:35:25.274000,377.0,-63.0,-172.0,134.0,776.0,-474.0,97.0,-282.0,592.0
19:35:25.278000,415.0,-54.0,-184.0,165.0,760.0,-474.0,97.0,-282.0,592.0
19:35:25.283000,439.0,-37.0,-212.0,162.0,760.0,-462.0,96.0,-282.0,594.0
19:35:25.288000,476.0,-28.0,-229.0,164.0,748.0,-450.0,96.0,-282.0,594.0
19:35:25.292000,476.0,-28.0,-229.0,188.0,719.0,-435.0,96.0,-282.0,594.0
19:35:25.297000,492.0,-15.0,-235.0,197.0,695.0,-414.0,97.0,-273.0,592.0
