hh:mm:ss.ms,gyroX[mdps],gyroY[mdps],gyroZ[mdps],accX[mg],accY[mg],accZ[mg],magX[mG],magY[mG],magZ[mG]
19:32:54.081000,102.0,-16.0,30.0,-1047.0,379.0,-319.0,0.0,0.0,0.0
19:32:54.085000,107.0,-42.0,33.0,-1047.0,379.0,-319.0,0.0,0.0,0.0
19:32:54.090000,117.0,-70.0,49.0,-1047.0,384.0,-319.0,0.0,0.0,0.0
19:32:54.095000,124.0,-96.0,46.0,-1029.0,384.0,-307.0,0.0,0.0,0.0
19:32:54.099000,113.0,-113.0,-2.0,-1029.0,384.0,-307.0,0.0,0.0,0.0
19:32:54.104000,95.0,-134.0,-75.0,-1051.0,399.0,-302.0,0.0,0.0,0.0
19:32:54.109000,78.0,-128.0,-119.0,-1051.0,399.0,-302.0,0.0,0.0,0.0
19:32:54.113000,77.0,-158.0,-83.0,-1134.0,429.0,-303.0,0.0,0.0,0.0
19:32:54.118000,59.0,-167.0,-72.0,-1134.0,429.0,-303.0,0.0,0.0,0.0
19:32:54.123000,4.0,-157.0,-104.0,-1179.0,422.0,-300.0,0.0,0.0,0.0
19:32:54.128000,2.0,-142.0,2.0,-1179.0,422.0,-300.0,0.0,0.0,0.0
19:32:54.132000,32.0,-145.0,19.0,-1196.0,336.0,-292.0,0.0,0.0,0.0
19:32:54.137000,32.0,-145.0,19.0,-1196.0,336.0,-292.0,0.0,0.0,0.0
19:32:54.142000,13.0,-144.0,-32.0,-1282.0,256.0,-268.0,0.0,0.0,0.0
19:32:54.146000,-17.0,-140.0,-23.0,-1282.0,256.0,-268.0,0.0,0.0,0.0
19:32:54.151000,-13.0,-149.0,-5.0,-1353.0,244.0,-234.0,0.0,0.0,0.0
19:32:54.156000,-52.0,-105.0,-40.0,-1353.0,244.0,-234.0,0.0,0.0,0.0
19:32:54.160000,-15.0,-99.0,-116.0,-1235.0,282.0,-222.0,0.0,0.0,0.0
19:32:54.165000,14.0,-105.0,-210.0,-1235.0,282.0,-222.0,0.0,0.0,0.0
19:32:54.170000,44.0,-123.0,-236.0,-1062.0,291.0,-213.0,0.0,0.0,0.0
19:32:54.175000,68.0,-139.0,-198.0,-1062.0,291.0,-213.0,0.0,0.0,0.0
19:32:54.179000,93.0,-149.0,-133.0,-1088.0,336.0,-216.0,0.0,0.0,0.0
19:32:54.184000,93.0,-147.0,-168.0,-1088.0,336.0,-216.0,0.0,0.0,0.0
19:32:54.189000,51.0,-150.0,-248.0,-1212.0,532.0,-225.0,0.0,0.0,0.0
19:32:54.193000,16.0,-123.0,-268.0,-1212.0,532.0,-225.0,0.0,0.0,0.0
19:32:54.198000,-17.0,-116.0,-251.0,-1277.0,668.0,-230.0,0.0,0.0,0.0
19:32:54.203000,-28.0,-97.0,-261.0,-1277.0,668.0,-230.0,0.0,0.0,0.0
19:32:54.207000,-73.0,-35.0,-247.0,-1277.0,668.0,-230.0,0.0,0.0,0.0
19:32:54.212000,-77.0,11.0,-151.0,-1318.0,621.0,-250.0,0.0,0.0,0.0
19:32:54.217000,-50.0,56.0,-56.0,-1318.0,621.0,-250.0,0.0,0.0,0.0
19:32:54.222000,-9.0,87.0,-18.0,-1399.0,495.0,-289.0,0.0,0.0,0.0
19:32:54.226000,14.0,126.0,25.0,-1399.0,495.0,-289.0,0.0,0.0,0.0
19:32:54.231000,12.0,163.0,105.0,-1476.0,420.0,-322.0,0.0,0.0,0.0
19:32:54.236000,61.0,194.0,142.0,-1476.0,420.0,-322.0,0.0,0.0,0.0
19:32:54.240000,116.0,182.0,104.0,-1403.0,388.0,-349.0,0.0,0.0,0.0
19:32:54.245000,136.0,173.0,24.0,-1403.0,388.0,-349.0,0.0,0.0,0.0
19:32:54.250000,136.0,173.0,24.0,-1210.0,383.0,-367.0,0.0,0.0,0.0
19:32:54.254000,119.0,151.0,-11.0,-1210.0,383.0,-367.0,0.0,0.0,0.0
19:32:54.259000,126.0,98.0,-53.0,-1036.0,444.0,-352.0,0.0,0.0,0.0
19:32:54.264000,103.0,50.0,-33.0,-1036.0,444.0,-352.0,0.0,0.0,0.0
19:32:54.269000,89.0,2.0,-12.0,-878.0,494.0,-323.0,0.0,0.0,0.0
19:32:54.273000,93.0,-31.0,-72.0,-878.0,494.0,-323.0,0.0,0.0,0.0
19:32:54.278000,79.0,-72.0,-142.0,-807.0,536.0,-287.0,0.0,0.0,0.0
19:32:54.283000,74.0,-98.0,-183.0,-807.0,536.0,-287.0,0.0,0.0,0.0
19:32:54.287000,75.0,-120.0,-189.0,-824.0,572.0,-247.0,0.0,0.0,0.0
19:32:54.292000,63.0,-123.0,-163.0,-824.0,572.0,-247.0,0.0,0.0,0.0
19:32:54.297000,46.0,-123.0,-121.0,-869.0,572.0,-202.0,0.0,0.0,0.0
19:32:54.301000,38.0,-111.0,-122.0,-869.0,572.0,-202.0,0.0,0.0,0.0
19:32:54.306000,20.0,-93.0,-146.0,-937.0,607.0,-153.0,0.0,0.0,0.0
19:32:54.311000,2.0,-72.0,-135.0,-937.0,607.0,-153.0,0.0,0.0,0.0
19:32:54.316000,-11.0,-49.0,-101.0,-937.0,607.0,-153.0,0.0,0.0,0.0
19:32:54.320000,-26.0,-26.0,-92.0,-943.0,626.0,-117.0,0.0,0.0,0.0
19:32:54.325000,-42.0,-2.0,-78.0,-943.0,626.0,-117.0,0.0,0.0,0.0
19:32:54.330000,-64.0,14.0,-34.0,-900.0,588.0,-97.0,0.0,0.0,0.0
19:32:54.334000,-68.0,25.0,-18.0,-900.0,588.0,-97.0,0.0,0.0,0.0
19:32:54.339000,-67.0,36.0,-49.0,-851.0,554.0,-105.0,0.0,0.0,0.0
19:32:54.344000,-70.0,35.0,-88.0,-851.0,554.0,-105.0,0.0,0.0,0.0
19:32:54.348000,-79.0,26.0,-84.0,-771.0,578.0,-128.0,0.0,0.0,0.0
19:32:54.353000,-75.0,14.0,-63.0,-771.0,578.0,-128.0,0.0,0.0,0.0
19:32:54.358000,-75.0,14.0,-63.0,-665.0,598.0,-146.0,0.0,0.0,0.0
19:32:54.363000,-73.0,-2.0,-48.0,-665.0,598.0,-146.0,0.0,0.0,0.0
19:32:54.367000,-63.0,-20.0,-30.0,-593.0,590.0,-163.0,0.0,0.0,0.0
19:32:54.372000,-51.0,-37.0,-18.0,-593.0,590.0,-163.0,0.0,0.0,0.0
19:32:54.377000,-46.0,-58.0,10.0,-572.0,569.0,-172.0,0.0,0.0,0.0
19:32:54.381000,-30.0,-75.0,42.0,-572.0,569.0,-172.0,0.0,0.0,0.0
19:32:54.386000,-19.0,-92.0,79.0,-554.0,524.0,-173.0,0.0,0.0,0.0
19:32:54.391000,-14.0,-109.0,128.0,-554.0,524.0,-173.0,0.0,0.0,0.0
19:32:54.395000,-14.0,-125.0,169.0,-525.0,496.0,-169.0,0.0,0.0,0.0
19:32:54.400000,-20.0,-140.0,200.0,-525.0,496.0,-169.0,0.0,0.0,0.0
19:32:54.405000,-35.0,-153.0,212.0,-494.0,521.0,-163.0,0.0,0.0,0.0
19:32:54.410000,-57.0,-164.0,210.0,-494.0,521.0,-163.0,0.0,0.0,0.0
19:32:54.414000,-82.0,-171.0,201.0,-458.0,560.0,-162.0,0.0,0.0,0.0
19:32:54.419000,-106.0,-174.0,187.0,-458.0,560.0,-162.0,0.0,0.0,0.0
19:32:54.424000,-131.0,-165.0,168.0,-458.0,560.0,-162.0,0.0,0.0,0.0
19:32:54.428000,-151.0,-151.0,151.0,-437.0,568.0,-166.0,0.0,0.0,0.0
19:32:54.433000,-168.0,-132.0,150.0,-437.0,568.0,-166.0,0.0,0.0,0.0
19:32:54.438000,-177.0,-109.0,158.0,-447.0,516.0,-169.0,0.0,0.0,0.0
19:32:54.442000,-175.0,-83.0,161.0,-447.0,516.0,-169.0,0.0,0.0,0.0
19:32:54.447000,-169.0,-58.0,165.0,-484.0,427.0,-173.0,0.0,0.0,0.0
19:32:54.452000,-156.0,-37.0,161.0,-484.0,427.0,-173.0,0.0,0.0,0.0
19:32:54.457000,-139.0,-25.0,151.0,-536.0,366.0,-178.0,0.0,0.0,0.0
19:32:54.461000,-116.0,-21.0,151.0,-536.0,366.0,-178.0,0.0,0.0,0.0
19:32:54.466000,-116.0,-21.0,151.0,-570.0,329.0,-178.0,0.0,0.0,0.0
19:32:54.471000,-91.0,-27.0,158.0,-570.0,329.0,-178.0,0.0,0.0,0.0
19:32:54.475000,-69.0,-42.0,173.0,-567.0,295.0,-161.0,0.0,0.0,0.0
19:32:54.480000,-52.0,-63.0,195.0,-567.0,295.0,-161.0,0.0,0.0,0.0
19:32:54.485000,-41.0,-87.0,203.0,-524.0,289.0,-117.0,0.0,0.0,0.0
19:32:54.489000,-41.0,-109.0,196.0,-524.0,289.0,-117.0,0.0,0.0,0.0
19:32:54.494000,-53.0,-124.0,173.0,-465.0,325.0,-57.0,0.0,0.0,0.0
19:32:54.499000,-72.0,-130.0,145.0,-465.0,325.0,-57.0,0.0,0.0,0.0
19:32:54.503000,-91.0,-126.0,114.0,-456.0,360.0,-3.0,0.0,0.0,0.0
19:32:54.508000,-106.0,-112.0,73.0,-456.0,360.0,-3.0,0.0,0.0,0.0
19:32:54.513000,-113.0,-86.0,24.0,-549.0,360.0,16.0,0.0,0.0,0.0
19:32:54.518000,-111.0,-53.0,-21.0,-549.0,360.0,16.0,0.0,0.0,0.0
19:32:54.522000,-100.0,-14.0,-46.0,-700.0,311.0,6.0,0.0,0.0,0.0
19:32:54.527000,-77.0,24.0,-53.0,-700.0,311.0,6.0,0.0,0.0,0.0
19:32:54.532000,-51.0,64.0,-53.0,-700.0,311.0,6.0,0.0,0.0,0.0
19:32:54.536000,-29.0,98.0,-50.0,-823.0,250.0,-16.0,0.0,0.0,0.0
19:32:54.540000,-22.0,127.0,-47.0,-867.0,246.0,-39.0,0.0,0.0,0.0
19:32:54.546000,-30.0,149.0,-42.0,-867.0,246.0,-39.0,0.0,0.0,0.0
19:32:54.550000,-48.0,161.0,-49.0,-867.0,246.0,-39.0,0.0,0.0,0.0
19:32:54.555000,-72.0,163.0,-65.0,-827.0,288.0,-68.0,0.0,0.0,0.0
19:32:54.560000,-101.0,160.0,-85.0,-827.0,288.0,-68.0,0.0,0.0,0.0
19:32:54.565000,-133.0,153.0,-108.0,-763.0,310.0,-111.0,0.0,0.0,0.0
19:32:54.569000,-161.0,142.0,-130.0,-763.0,310.0,-111.0,0.0,0.0,0.0
19:32:54.574000,-180.0,128.0,-143.0,-721.0,269.0,-153.0,0.0,0.0,0.0
19:32:54.579000,-180.0,128.0,-143.0,-721.0,269.0,-153.0,0.0,0.0,0.0
19:32:54.583000,-190.0,112.0,-156.0,-692.0,177.0,-192.0,0.0,0.0,0.0
19:32:54.588000,-191.0,93.0,-169.0,-692.0,177.0,-192.0,0.0,0.0,0.0
19:32:54.593000,-186.0,74.0,-184.0,-678.0,98.0,-228.0,0.0,0.0,0.0
19:32:54.597000,-181.0,55.0,-202.0,-678.0,98.0,-228.0,0.0,0.0,0.0
19:32:54.602000,-177.0,42.0,-216.0,-694.0,64.0,-248.0,0.0,0.0,0.0
19:32:54.607000,-173.0,32.0,-219.0,-694.0,64.0,-248.0,0.0,0.0,0.0
19:32:54.612000,-163.0,28.0,-217.0,-740.0,15.0,-241.0,0.0,0.0,0.0
19:32:54.616000,-146.0,30.0,-211.0,-740.0,15.0,-241.0,0.0,0.0,0.0
19:32:54.621000,-116.0,36.0,-207.0,-827.0,-78.0,-214.0,0.0,0.0,0.0
19:32:54.626000,-78.0,47.0,-214.0,-827.0,-78.0,-214.0,0.0,0.0,0.0
19:32:54.630000,-44.0,60.0,-231.0,-925.0,-136.0,-179.0,0.0,0.0,0.0
19:32:54.635000,-15.0,75.0,-252.0,-925.0,-136.0,-179.0,0.0,0.0,0.0
19:32:54.640000,0.0,88.0,-266.0,-925.0,-136.0,-179.0,0.0,0.0,0.0
19:32:54.644000,7.0,95.0,-281.0,-982.0,-108.0,-137.0,0.0,0.0,0.0
19:32:54.649000,13.0,102.0,-294.0,-982.0,-108.0,-137.0,0.0,0.0,0.0
19:32:54.654000,24.0,105.0,-305.0,-953.0,-77.0,-89.0,0.0,0.0,0.0
19:32:54.659000,40.0,105.0,-324.0,-953.0,-77.0,-89.0,0.0,0.0,0.0
19:32:54.663000,54.0,103.0,-354.0,-851.0,-75.0,-50.0,0.0,0.0,0.0
19:32:54.668000,60.0,103.0,-385.0,-851.0,-75.0,-50.0,0.0,0.0,0.0
19:32:54.673000,60.0,102.0,-406.0,-755.0,-31.0,-24.0,0.0,0.0,0.0
19:32:54.677000,60.0,104.0,-421.0,-755.0,-31.0,-24.0,0.0,0.0,0.0
19:32:54.682000,60.0,109.0,-430.0,-712.0,39.0,-20.0,0.0,0.0,0.0
19:32:54.687000,60.0,109.0,-430.0,-712.0,39.0,-20.0,0.0,0.0,0.0
19:32:54.691000,61.0,119.0,-431.0,-719.0,71.0,-40.0,0.0,0.0,0.0
19:32:54.696000,65.0,128.0,-421.0,-719.0,71.0,-40.0,0.0,0.0,0.0
19:32:54.701000,70.0,133.0,-392.0,-729.0,32.0,-61.0,0.0,0.0,0.0
19:32:54.706000,85.0,133.0,-349.0,-729.0,32.0,-61.0,0.0,0.0,0.0
19:32:54.710000,101.0,132.0,-315.0,-710.0,-11.0,-88.0,0.0,0.0,0.0
19:32:54.715000,103.0,123.0,-301.0,-710.0,-11.0,-88.0,0.0,0.0,0.0
19:32:54.720000,86.0,109.0,-303.0,-692.0,65.0,-127.0,0.0,0.0,0.0
19:32:54.724000,59.0,86.0,-311.0,-692.0,65.0,-127.0,0.0,0.0,0.0
19:32:54.729000,31.0,51.0,-310.0,-656.0,166.0,-172.0,0.0,0.0,0.0
19:32:54.734000,13.0,9.0,-297.0,-656.0,166.0,-172.0,0.0,0.0,0.0
19:32:54.738000,8.0,-41.0,-280.0,-600.0,167.0,-216.0,0.0,0.0,0.0
19:32:54.743000,12.0,-96.0,-257.0,-600.0,167.0,-216.0,0.0,0.0,0.0
19:32:54.748000,22.0,-151.0,-224.0,-600.0,167.0,-216.0,0.0,0.0,0.0
19:32:54.753000,30.0,-202.0,-177.0,-577.0,144.0,-251.0,0.0,0.0,0.0
19:32:54.757000,35.0,-248.0,-114.0,-577.0,144.0,-251.0,0.0,0.0,0.0
19:32:54.762000,42.0,-289.0,-43.0,-603.0,133.0,-273.0,0.0,0.0,0.0
19:32:54.767000,56.0,-326.0,27.0,-603.0,133.0,-273.0,0.0,0.0,0.0
19:32:54.771000,71.0,-357.0,84.0,-650.0,87.0,-281.0,0.0,0.0,0.0
19:32:54.776000,83.0,-387.0,124.0,-650.0,87.0,-281.0,0.0,0.0,0.0
19:32:54.781000,86.0,-414.0,158.0,-691.0,48.0,-267.0,0.0,0.0,0.0
19:32:54.785000,81.0,-438.0,187.0,-691.0,48.0,-267.0,0.0,0.0,0.0
19:32:54.790000,69.0,-459.0,207.0,-694.0,69.0,-224.0,0.0,0.0,0.0
19:32:54.795000,69.0,-459.0,207.0,-694.0,69.0,-224.0,0.0,0.0,0.0
19:32:54.800000,53.0,-476.0,214.0,-665.0,119.0,-169.0,0.0,0.0,0.0
19:32:54.804000,42.0,-488.0,214.0,-665.0,119.0,-169.0,0.0,0.0,0.0
19:32:54.809000,45.0,-497.0,215.0,-651.0,128.0,-126.0,0.0,0.0,0.0
19:32:54.814000,60.0,-500.0,224.0,-651.0,128.0,-126.0,0.0,0.0,0.0
19:32:54.818000,74.0,-501.0,242.0,-688.0,110.0,-95.0,0.0,0.0,0.0
19:32:54.823000,80.0,-493.0,277.0,-688.0,110.0,-95.0,0.0,0.0,0.0
19:32:54.828000,74.0,-476.0,323.0,-747.0,137.0,-58.0,0.0,0.0,0.0
19:32:54.832000,58.0,-454.0,366.0,-747.0,137.0,-58.0,0.0,0.0,0.0
19:32:54.837000,42.0,-427.0,406.0,-783.0,173.0,-24.0,0.0,0.0,0.0
19:32:54.842000,30.0,-396.0,440.0,-783.0,173.0,-24.0,0.0,0.0,0.0
19:32:54.847000,21.0,-363.0,476.0,-828.0,169.0,-6.0,0.0,0.0,0.0
19:32:54.851000,9.0,-331.0,515.0,-828.0,169.0,-6.0,0.0,0.0,0.0
19:32:54.856000,-8.0,-302.0,560.0,-828.0,161.0,-5.0,0.0,0.0,0.0
19:32:54.861000,-26.0,-277.0,607.0,-884.0,161.0,-5.0,0.0,0.0,0.0
19:32:54.865000,-45.0,-259.0,651.0,-884.0,161.0,-5.0,0.0,0.0,0.0
19:32:54.870000,-53.0,-244.0,686.0,-867.0,152.0,-12.0,0.0,0.0,0.0
19:32:54.875000,-50.0,-233.0,713.0,-867.0,152.0,-12.0,0.0,0.0,0.0
19:32:54.879000,-44.0,-225.0,735.0,-781.0,112.0,-37.0,0.0,0.0,0.0
19:32:54.884000,-38.0,-220.0,754.0,-781.0,112.0,-37.0,0.0,0.0,0.0
19:32:54.889000,-31.0,-220.0,775.0,-717.0,60.0,-78.0,0.0,0.0,0.0
19:32:54.894000,-24.0,-221.0,784.0,-717.0,60.0,-78.0,0.0,0.0,0.0
19:32:54.898000,-22.0,-226.0,772.0,-692.0,22.0,-112.0,0.0,0.0,0.0
19:32:54.903000,-22.0,-228.0,742.0,-692.0,22.0,-112.0,0.0,0.0,0.0
19:32:54.908000,-22.0,-228.0,742.0,-682.0,35.0,-138.0,0.0,0.0,0.0
19:32:54.912000,-26.0,-231.0,697.0,-682.0,35.0,-138.0,0.0,0.0,0.0
19:32:54.917000,-34.0,-231.0,647.0,-687.0,97.0,-156.0,0.0,0.0,0.0
19:32:54.922000,-44.0,-228.0,598.0,-687.0,97.0,-156.0,0.0,0.0,0.0
19:32:54.926000,-55.0,-225.0,553.0,-709.0,164.0,-163.0,0.0,0.0,0.0
19:32:54.931000,-64.0,-219.0,516.0,-709.0,164.0,-163.0,0.0,0.0,0.0
19:32:54.936000,-74.0,-210.0,490.0,-727.0,204.0,-161.0,0.0,0.0,0.0
19:32:54.941000,-80.0,-198.0,476.0,-727.0,204.0,-161.0,0.0,0.0,0.0
19:32:54.945000,-86.0,-182.0,469.0,-736.0,213.0,-158.0,0.0,0.0,0.0
19:32:54.950000,-90.0,-170.0,463.0,-736.0,213.0,-158.0,0.0,0.0,0.0
19:32:54.955000,-91.0,-160.0,455.0,-745.0,219.0,-161.0,0.0,0.0,0.0
19:32:54.959000,-93.0,-151.0,441.0,-745.0,219.0,-161.0,0.0,0.0,0.0
19:32:54.964000,-98.0,-142.0,422.0,-747.0,244.0,-163.0,0.0,0.0,0.0
19:32:54.969000,-105.0,-133.0,399.0,-747.0,244.0,-163.0,0.0,0.0,0.0
19:32:54.973000,-117.0,-119.0,369.0,-747.0,244.0,-163.0,0.0,0.0,0.0
19:32:54.978000,-133.0,-102.0,335.0,-746.0,293.0,-166.0,0.0,0.0,0.0
19:32:54.983000,-150.0,-85.0,305.0,-746.0,293.0,-166.0,0.0,0.0,0.0
19:32:54.988000,-161.0,-71.0,288.0,-768.0,324.0,-170.0,0.0,0.0,0.0
19:32:54.992000,-163.0,-58.0,287.0,-768.0,324.0,-170.0,0.0,0.0,0.0
19:32:54.997000,-155.0,-49.0,296.0,-805.0,274.0,-180.0,0.0,0.0,0.0
19:32:55.002000,-147.0,-39.0,307.0,-805.0,274.0,-180.0,0.0,0.0,0.0
19:32:55.006000,-138.0,-32.0,318.0,-830.0,196.0,-196.0,0.0,0.0,0.0
19:32:55.011000,-129.0,-26.0,330.0,-830.0,196.0,-196.0,0.0,0.0,0.0
19:32:55.016000,-129.0,-26.0,330.0,-819.0,171.0,-203.0,0.0,0.0,0.0
19:32:55.020000,-115.0,-23.0,346.0,-819.0,171.0,-203.0,0.0,0.0,0.0
19:32:55.025000,-95.0,-24.0,364.0,-767.0,156.0,-195.0,0.0,0.0,0.0
19:32:55.030000,-77.0,-20.0,383.0,-767.0,156.0,-195.0,0.0,0.0,0.0
19:32:55.035000,-49.0,-23.0,399.0,-718.0,125.0,-187.0,0.0,0.0,0.0
19:32:55.039000,-18.0,-30.0,404.0,-718.0,125.0,-187.0,0.0,0.0,0.0
19:32:55.044000,1.0,-28.0,399.0,-690.0,102.0,-183.0,0.0,0.0,0.0
19:32:55.049000,10.0,-23.0,371.0,-690.0,102.0,-183.0,0.0,0.0,0.0
19:32:55.053000,16.0,-11.0,329.0,-687.0,118.0,-178.0,0.0,0.0,0.0
19:32:55.058000,27.0,7.0,302.0,-687.0,118.0,-178.0,0.0,0.0,0.0
19:32:55.063000,56.0,16.0,272.0,-726.0,97.0,-172.0,0.0,0.0,0.0
19:32:55.067000,87.0,32.0,236.0,-726.0,97.0,-172.0,0.0,0.0,0.0
19:32:55.072000,117.0,37.0,228.0,-796.0,0.0,-149.0,0.0,0.0,0.0
19:32:55.077000,163.0,33.0,243.0,-796.0,0.0,-149.0,0.0,0.0,0.0
19:32:55.082000,207.0,30.0,266.0,-796.0,0.0,-149.0,0.0,0.0,0.0
19:32:55.086000,243.0,28.0,280.0,-833.0,-54.0,-122.0,0.0,0.0,0.0
19:32:55.091000,275.0,23.0,279.0,-833.0,-54.0,-122.0,0.0,0.0,0.0
19:32:55.096000,287.0,17.0,273.0,-856.0,-17.0,-98.0,0.0,0.0,0.0
19:32:55.100000,288.0,7.0,298.0,-856.0,-17.0,-98.0,0.0,0.0,0.0
19:32:55.105000,284.0,-6.0,345.0,-883.0,67.0,-61.0,0.0,0.0,0.0
19:32:55.110000,283.0,-2.0,384.0,-883.0,67.0,-61.0,0.0,0.0,0.0
19:32:55.114000,271.0,-18.0,382.0,-877.0,117.0,-26.0,0.0,0.0,0.0
19:32:55.119000,242.0,-30.0,389.0,-877.0,117.0,-26.0,0.0,0.0,0.0
19:32:55.124000,242.0,-30.0,389.0,-852.0,131.0,0.0,0.0,0.0,0.0
19:32:55.129000,206.0,-18.0,423.0,-852.0,131.0,0.0,0.0,0.0,0.0
19:32:55.133000,170.0,-14.0,400.0,-970.0,185.0,19.0,0.0,0.0,0.0
19:32:55.138000,118.0,-4.0,363.0,-970.0,185.0,19.0,0.0,0.0,0.0
19:32:55.143000,60.0,16.0,498.0,-957.0,176.0,20.0,0.0,0.0,0.0
19:32:55.147000,44.0,43.0,543.0,-957.0,176.0,20.0,0.0,0.0,0.0
19:32:55.152000,25.0,77.0,441.0,-786.0,134.0,-3.0,0.0,0.0,0.0
19:32:55.157000,38.0,103.0,317.0,-786.0,134.0,-3.0,0.0,0.0,0.0
19:32:55.161000,45.0,112.0,286.0,-798.0,106.0,-37.0,0.0,0.0,0.0
19:32:55.166000,63.0,128.0,277.0,-798.0,106.0,-37.0,0.0,0.0,0.0
19:32:55.171000,98.0,144.0,321.0,-894.0,24.0,-81.0,0.0,0.0,0.0
19:32:55.176000,165.0,156.0,470.0,-894.0,24.0,-81.0,0.0,0.0,0.0
19:32:55.180000,260.0,159.0,520.0,-965.0,37.0,-130.0,0.0,0.0,0.0
19:32:55.185000,315.0,165.0,393.0,-965.0,37.0,-130.0,0.0,0.0,0.0
19:32:55.190000,349.0,157.0,297.0,-965.0,37.0,-130.0,0.0,0.0,0.0
19:32:55.194000,367.0,147.0,301.0,-872.0,188.0,-146.0,0.0,0.0,0.0
19:32:55.199000,392.0,117.0,308.0,-872.0,188.0,-146.0,0.0,0.0,0.0
19:32:55.204000,392.0,90.0,246.0,-831.0,350.0,-145.0,0.0,0.0,0.0
19:32:55.208000,339.0,69.0,259.0,-831.0,350.0,-145.0,0.0,0.0,0.0
19:32:55.213000,309.0,30.0,372.0,-919.0,502.0,-143.0,0.0,0.0,0.0
19:32:55.218000,264.0,-15.0,503.0,-919.0,502.0,-143.0,0.0,0.0,0.0
19:32:55.223000,259.0,-60.0,506.0,-991.0,657.0,-140.0,0.0,0.0,0.0
19:32:55.227000,245.0,-84.0,363.0,-991.0,657.0,-140.0,0.0,0.0,0.0
19:32:55.232000,245.0,-84.0,363.0,-1078.0,777.0,-125.0,0.0,0.0,0.0
19:32:55.237000,207.0,-95.0,236.0,-1078.0,777.0,-125.0,0.0,0.0,0.0
19:32:55.241000,173.0,-93.0,187.0,-1121.0,816.0,-89.0,0.0,0.0,0.0
19:32:55.246000,142.0,-95.0,177.0,-1121.0,816.0,-89.0,0.0,0.0,0.0
19:32:55.251000,89.0,-83.0,201.0,-1249.0,783.0,-45.0,0.0,0.0,0.0
19:32:55.255000,51.0,-60.0,190.0,-1249.0,783.0,-45.0,0.0,0.0,0.0
19:32:55.260000,25.0,-25.0,163.0,-1463.0,712.0,-10.0,0.0,0.0,0.0
19:32:55.265000,-6.0,20.0,64.0,-1463.0,712.0,-10.0,0.0,0.0,0.0
19:32:55.270000,-18.0,62.0,-86.0,-1581.0,585.0,-10.0,0.0,0.0,0.0
19:32:55.274000,-20.0,130.0,-301.0,-1581.0,585.0,-10.0,0.0,0.0,0.0
19:32:55.279000,6.0,202.0,-497.0,-1584.0,469.0,-36.0,0.0,0.0,0.0
19:32:55.284000,34.0,235.0,-490.0,-1584.0,469.0,-36.0,0.0,0.0,0.0
19:32:55.288000,72.0,253.0,-282.0,-1454.0,376.0,-53.0,0.0,0.0,0.0
19:32:55.293000,52.0,284.0,-167.0,-1454.0,376.0,-53.0,0.0,0.0,0.0
19:32:55.298000,79.0,303.0,-285.0,-1454.0,376.0,-53.0,0.0,0.0,0.0
19:32:55.302000,130.0,313.0,-489.0,-1503.0,350.0,-67.0,0.0,0.0,0.0
19:32:55.307000,121.0,322.0,-555.0,-1503.0,350.0,-67.0,0.0,0.0,0.0
19:32:55.312000,117.0,333.0,-508.0,-1594.0,259.0,-76.0,0.0,0.0,0.0
19:32:55.317000,194.0,314.0,-481.0,-1594.0,259.0,-76.0,0.0,0.0,0.0
19:32:55.321000,158.0,330.0,-517.0,-1463.0,59.0,-75.0,0.0,0.0,0.0
19:32:55.326000,186.0,315.0,-534.0,-1463.0,59.0,-75.0,0.0,0.0,0.0
19:32:55.331000,186.0,309.0,-497.0,-1297.0,-74.0,-76.0,0.0,0.0,0.0
19:32:55.335000,179.0,299.0,-461.0,-1297.0,-74.0,-76.0,0.0,0.0,0.0
19:32:55.340000,169.0,288.0,-429.0,-1189.0,-154.0,-75.0,0.0,0.0,0.0
19:32:55.345000,169.0,288.0,-429.0,-1189.0,-154.0,-75.0,0.0,0.0,0.0
19:32:55.349000,160.0,274.0,-387.0,-1153.0,-183.0,-73.0,0.0,0.0,0.0
19:32:55.354000,131.0,262.0,-374.0,-1153.0,-183.0,-73.0,0.0,0.0,0.0
19:32:55.359000,95.0,273.0,-348.0,-1130.0,-168.0,-87.0,0.0,0.0,0.0
19:32:55.364000,85.0,267.0,-364.0,-1130.0,-168.0,-87.0,0.0,0.0,0.0
19:32:55.368000,45.0,261.0,-387.0,-1132.0,-125.0,-113.0,0.0,0.0,0.0
19:32:55.373000,71.0,252.0,-407.0,-1132.0,-125.0,-113.0,0.0,0.0,0.0
19:32:55.378000,53.0,264.0,-474.0,-1149.0,-33.0,-141.0,0.0,0.0,0.0
19:32:55.382000,53.0,277.0,-561.0,-1149.0,-33.0,-141.0,0.0,0.0,0.0
19:32:55.387000,62.0,289.0,-646.0,-1204.0,64.0,-181.0,0.0,0.0,0.0
19:32:55.392000,93.0,295.0,-745.0,-1204.0,64.0,-181.0,0.0,0.0,0.0
19:32:55.396000,76.0,298.0,-830.0,-1258.0,107.0,-208.0,0.0,0.0,0.0
19:32:55.401000,54.0,299.0,-863.0,-1258.0,107.0,-208.0,0.0,0.0,0.0
19:32:55.406000,30.0,305.0,-853.0,-1258.0,107.0,-208.0,0.0,0.0,0.0
19:32:55.411000,45.0,294.0,-809.0,-1263.0,124.0,-219.0,0.0,0.0,0.0
19:32:55.415000,30.0,289.0,-767.0,-1263.0,124.0,-219.0,0.0,0.0,0.0
19:32:55.420000,21.0,280.0,-767.0,-1234.0,137.0,-231.0,0.0,0.0,0.0
19:32:55.425000,41.0,268.0,-715.0,-1234.0,137.0,-231.0,0.0,0.0,0.0
19:32:55.429000,65.0,254.0,-678.0,-1245.0,166.0,-248.0,0.0,0.0,0.0
19:32:55.434000,89.0,238.0,-650.0,-1245.0,166.0,-248.0,0.0,0.0,0.0
19:32:55.439000,117.0,212.0,-622.0,-1277.0,196.0,-265.0,0.0,0.0,0.0
19:32:55.443000,133.0,175.0,-584.0,-1277.0,196.0,-265.0,0.0,0.0,0.0
19:32:55.448000,177.0,134.0,-557.0,-1219.0,191.0,-262.0,0.0,0.0,0.0
19:32:55.453000,177.0,134.0,-557.0,-1219.0,191.0,-262.0,0.0,0.0,0.0
19:32:55.458000,170.0,108.0,-526.0,-1134.0,194.0,-260.0,0.0,0.0,0.0
19:32:55.462000,188.0,77.0,-491.0,-1134.0,194.0,-260.0,0.0,0.0,0.0
19:32:55.467000,210.0,48.0,-437.0,-1083.0,267.0,-280.0,0.0,0.0,0.0
19:32:55.472000,237.0,21.0,-413.0,-1083.0,267.0,-280.0,0.0,0.0,0.0
19:32:55.476000,254.0,2.0,-391.0,-1101.0,361.0,-303.0,0.0,0.0,0.0
19:32:55.481000,240.0,-14.0,-361.0,-1101.0,361.0,-303.0,0.0,0.0,0.0
19:32:55.486000,230.0,-33.0,-352.0,-1153.0,381.0,-310.0,0.0,0.0,0.0
19:32:55.490000,195.0,-50.0,-350.0,-1153.0,381.0,-310.0,0.0,0.0,0.0
19:32:55.495000,180.0,-66.0,-331.0,-1127.0,374.0,-302.0,0.0,0.0,0.0
19:32:55.500000,173.0,-83.0,-313.0,-1127.0,374.0,-302.0,0.0,0.0,0.0
19:32:55.505000,142.0,-84.0,-310.0,-1009.0,392.0,-290.0,0.0,0.0,0.0
19:32:55.509000,91.0,-78.0,-270.0,-1009.0,392.0,-290.0,0.0,0.0,0.0
19:32:55.514000,46.0,-69.0,-218.0,-1009.0,392.0,-290.0,0.0,0.0,0.0
19:32:55.519000,-2.0,-70.0,-224.0,-945.0,399.0,-275.0,0.0,0.0,0.0
19:32:55.523000,-43.0,-69.0,-261.0,-945.0,399.0,-275.0,0.0,0.0,0.0
19:32:55.528000,-62.0,-71.0,-270.0,-1017.0,435.0,-256.0,0.0,0.0,0.0
19:32:55.533000,-90.0,-63.0,-213.0,-1017.0,435.0,-256.0,0.0,0.0,0.0
19:32:55.537000,-100.0,-57.0,-147.0,-1055.0,452.0,-246.0,0.0,0.0,0.0
19:32:55.542000,-93.0,-46.0,-133.0,-1055.0,452.0,-246.0,0.0,0.0,0.0
19:32:55.547000,-137.0,-47.0,-175.0,-1064.0,514.0,-244.0,0.0,0.0,0.0
19:32:55.552000,-196.0,-46.0,-259.0,-1064.0,514.0,-244.0,0.0,0.0,0.0
19:32:55.556000,-218.0,-46.0,-281.0,-1131.0,535.0,-219.0,0.0,0.0,0.0
19:32:55.561000,-218.0,-46.0,-281.0,-1131.0,535.0,-219.0,0.0,0.0,0.0
19:32:55.566000,-199.0,-47.0,-213.0,-1137.0,435.0,-209.0,0.0,0.0,0.0
19:32:55.570000,-156.0,-55.0,-179.0,-1137.0,435.0,-209.0,0.0,0.0,0.0
19:32:55.575000,-179.0,-49.0,-154.0,-1106.0,434.0,-210.0,0.0,0.0,0.0
19:32:55.580000,-220.0,-43.0,-84.0,-1106.0,434.0,-210.0,0.0,0.0,0.0
19:32:55.584000,-251.0,-28.0,-70.0,-1158.0,372.0,-180.0,0.0,0.0,0.0
19:32:55.589000,-262.0,-17.0,-119.0,-1158.0,372.0,-180.0,0.0,0.0,0.0
19:32:55.594000,-332.0,37.0,-90.0,-1151.0,91.0,-168.0,0.0,0.0,0.0
19:32:55.599000,-198.0,63.0,33.0,-1151.0,91.0,-168.0,0.0,0.0,0.0
19:32:55.603000,-5.0,-5.0,51.0,-1046.0,308.0,-211.0,0.0,0.0,0.0
19:32:55.608000,-9.0,-30.0,-30.0,-1046.0,308.0,-211.0,0.0,0.0,0.0
19:32:55.613000,-41.0,-29.0,-231.0,-1194.0,817.0,-279.0,0.0,0.0,0.0
19:32:55.617000,-39.0,-24.0,-411.0,-1194.0,817.0,-279.0,0.0,0.0,0.0
19:32:55.622000,-94.0,9.0,-229.0,-1212.0,541.0,-290.0,0.0,0.0,0.0
19:32:55.627000,-138.0,16.0,52.0,-1212.0,541.0,-290.0,0.0,0.0,0.0
19:32:55.631000,-129.0,-30.0,76.0,-1212.0,541.0,-290.0,0.0,0.0,0.0
19:32:55.636000,-107.0,-57.0,-107.0,-1132.0,187.0,-298.0,0.0,0.0,0.0
19:32:55.641000,-55.0,-119.0,-240.0,-1132.0,187.0,-298.0,0.0,0.0,0.0
19:32:55.646000,4.0,-139.0,-180.0,-1365.0,232.0,-308.0,0.0,0.0,0.0
19:32:55.650000,-18.0,-128.0,12.0,-1365.0,232.0,-308.0,0.0,0.0,0.0
19:32:55.655000,6.0,-122.0,167.0,-1395.0,260.0,-269.0,0.0,0.0,0.0
19:32:55.660000,33.0,-113.0,132.0,-1395.0,260.0,-269.0,0.0,0.0,0.0
19:32:55.664000,24.0,-88.0,48.0,-1080.0,388.0,-251.0,0.0,0.0,0.0
19:32:55.669000,51.0,-74.0,46.0,-1080.0,388.0,-251.0,0.0,0.0,0.0
19:32:55.674000,51.0,-74.0,46.0,-878.0,381.0,-242.0,0.0,0.0,0.0
19:32:55.678000,98.0,-67.0,16.0,-878.0,381.0,-242.0,0.0,0.0,0.0
19:32:55.683000,127.0,-50.0,-84.0,-1013.0,253.0,-220.0,0.0,0.0,0.0
19:32:55.688000,132.0,-45.0,-97.0,-1013.0,253.0,-220.0,0.0,0.0,0.0
19:32:55.693000,91.0,-30.0,-67.0,-1179.0,295.0,-200.0,0.0,0.0,0.0
19:32:55.697000,62.0,-4.0,-46.0,-1179.0,295.0,-200.0,0.0,0.0,0.0
19:32:55.702000,41.0,20.0,-45.0,-1254.0,306.0,-190.0,0.0,0.0,0.0
19:32:55.707000,15.0,58.0,-67.0,-1254.0,306.0,-190.0,0.0,0.0,0.0
19:32:55.711000,42.0,101.0,-114.0,-1300.0,265.0,-204.0,0.0,0.0,0.0
19:32:55.716000,80.0,127.0,-172.0,-1300.0,265.0,-204.0,0.0,0.0,0.0
19:32:55.721000,114.0,154.0,-197.0,-1306.0,320.0,-222.0,0.0,0.0,0.0
19:32:55.725000,125.0,184.0,-212.0,-1306.0,320.0,-222.0,0.0,0.0,0.0
19:32:55.730000,134.0,204.0,-226.0,-1288.0,438.0,-240.0,0.0,0.0,0.0
19:32:55.735000,140.0,224.0,-224.0,-1288.0,438.0,-240.0,0.0,0.0,0.0
19:32:55.740000,147.0,232.0,-235.0,-1255.0,551.0,-256.0,0.0,0.0,0.0
19:32:55.744000,143.0,233.0,-261.0,-1255.0,551.0,-256.0,0.0,0.0,0.0
19:32:55.749000,118.0,224.0,-224.0,-1255.0,551.0,-256.0,0.0,0.0,0.0
19:32:55.754000,111.0,210.0,-170.0,-1200.0,610.0,-246.0,0.0,0.0,0.0
19:32:55.758000,109.0,207.0,-149.0,-1200.0,610.0,-246.0,0.0,0.0,0.0
19:32:55.763000,95.0,203.0,-133.0,-1091.0,598.0,-238.0,0.0,0.0,0.0
19:32:55.768000,59.0,191.0,-113.0,-1091.0,598.0,-238.0,0.0,0.0,0.0
19:32:55.772000,44.0,177.0,-123.0,-949.0,611.0,-236.0,0.0,0.0,0.0
19:32:55.777000,30.0,163.0,-120.0,-949.0,611.0,-236.0,0.0,0.0,0.0
19:32:55.782000,30.0,163.0,-120.0,-845.0,648.0,-231.0,0.0,0.0,0.0
19:32:55.787000,-10.0,151.0,-83.0,-845.0,648.0,-231.0,0.0,0.0,0.0
19:32:55.791000,-45.0,135.0,-77.0,-894.0,633.0,-231.0,0.0,0.0,0.0
19:32:55.796000,-60.0,123.0,-89.0,-894.0,633.0,-231.0,0.0,0.0,0.0
19:32:55.801000,-102.0,106.0,-70.0,-996.0,598.0,-221.0,0.0,0.0,0.0
19:32:55.805000,-140.0,77.0,-43.0,-996.0,598.0,-221.0,0.0,0.0,0.0
19:32:55.810000,-181.0,73.0,-65.0,-983.0,574.0,-207.0,0.0,0.0,0.0
19:32:55.815000,-209.0,68.0,-99.0,-983.0,574.0,-207.0,0.0,0.0,0.0
19:32:55.819000,-237.0,77.0,-115.0,-872.0,563.0,-198.0,0.0,0.0,0.0
19:32:55.824000,-249.0,80.0,-102.0,-872.0,563.0,-198.0,0.0,0.0,0.0
19:32:55.829000,-270.0,88.0,-119.0,-801.0,600.0,-191.0,0.0,0.0,0.0
19:32:55.834000,-294.0,98.0,-200.0,-801.0,600.0,-191.0,0.0,0.0,0.0
19:32:55.838000,-342.0,112.0,-235.0,-862.0,608.0,-188.0,0.0,0.0,0.0
19:32:55.843000,-346.0,124.0,-227.0,-862.0,608.0,-188.0,0.0,0.0,0.0
19:32:55.848000,-322.0,131.0,-186.0,-862.0,608.0,-188.0,0.0,0.0,0.0
19:32:55.852000,-286.0,147.0,-144.0,-883.0,527.0,-202.0,0.0,0.0,0.0
19:32:55.857000,-240.0,146.0,-107.0,-800.0,421.0,-223.0,0.0,0.0,0.0
19:32:55.862000,-165.0,153.0,-85.0,-800.0,421.0,-223.0,0.0,0.0,0.0
19:32:55.866000,-83.0,156.0,-63.0,-800.0,421.0,-223.0,0.0,0.0,0.0
19:32:55.871000,12.0,155.0,-1.0,-719.0,320.0,-245.0,0.0,0.0,0.0
19:32:55.876000,92.0,150.0,63.0,-719.0,320.0,-245.0,0.0,0.0,0.0
19:32:55.881000,164.0,149.0,78.0,-727.0,279.0,-264.0,0.0,0.0,0.0
19:32:55.885000,218.0,147.0,133.0,-727.0,279.0,-264.0,0.0,0.0,0.0
19:32:55.890000,218.0,147.0,133.0,-750.0,317.0,-273.0,0.0,0.0,0.0
19:32:55.895000,260.0,137.0,240.0,-750.0,317.0,-273.0,0.0,0.0,0.0
19:32:55.899000,288.0,123.0,291.0,-709.0,394.0,-275.0,0.0,0.0,0.0
19:32:55.904000,302.0,100.0,285.0,-709.0,394.0,-275.0,0.0,0.0,0.0
19:32:55.909000,288.0,67.0,285.0,-625.0,487.0,-261.0,0.0,0.0,0.0
19:32:55.913000,251.0,25.0,297.0,-625.0,487.0,-261.0,0.0,0.0,0.0
19:32:55.918000,208.0,-14.0,289.0,-488.0,593.0,-232.0,0.0,0.0,0.0
19:32:55.923000,160.0,-53.0,239.0,-488.0,593.0,-232.0,0.0,0.0,0.0
19:32:55.928000,91.0,-90.0,173.0,-370.0,676.0,-195.0,0.0,0.0,0.0
19:32:55.932000,22.0,-117.0,116.0,-370.0,676.0,-195.0,0.0,0.0,0.0
19:32:55.937000,-51.0,-134.0,55.0,-338.0,721.0,-156.0,0.0,0.0,0.0
19:32:55.942000,-128.0,-140.0,9.0,-338.0,721.0,-156.0,0.0,0.0,0.0
19:32:55.946000,-197.0,-128.0,-30.0,-402.0,732.0,-137.0,0.0,0.0,0.0
19:32:55.951000,-259.0,-105.0,-88.0,-402.0,732.0,-137.0,0.0,0.0,0.0
19:32:55.956000,-303.0,-77.0,-133.0,-402.0,732.0,-137.0,0.0,0.0,0.0
19:32:55.960000,-320.0,-50.0,-142.0,-522.0,658.0,-133.0,0.0,0.0,0.0
19:32:55.965000,-310.0,-25.0,-128.0,-522.0,658.0,-133.0,0.0,0.0,0.0
19:32:55.970000,-273.0,-8.0,-119.0,-589.0,466.0,-139.0,0.0,0.0,0.0
19:32:55.975000,-218.0,7.0,-109.0,-589.0,466.0,-139.0,0.0,0.0,0.0
19:32:55.979000,-149.0,22.0,-109.0,-559.0,258.0,-153.0,0.0,0.0,0.0
19:32:55.984000,-79.0,36.0,-126.0,-559.0,258.0,-153.0,0.0,0.0,0.0
19:32:55.989000,-22.0,43.0,-147.0,-492.0,187.0,-163.0,0.0,0.0,0.0
19:32:55.993000,25.0,47.0,-161.0,-492.0,187.0,-163.0,0.0,0.0,0.0
19:32:55.998000,56.0,56.0,-173.0,-443.0,238.0,-157.0,0.0,0.0,0.0
19:32:56.003000,56.0,56.0,-173.0,-443.0,238.0,-157.0,0.0,0.0,0.0
19:32:56.007000,70.0,66.0,-179.0,-438.0,330.0,-132.0,0.0,0.0,0.0
19:32:56.012000,62.0,79.0,-172.0,-438.0,330.0,-132.0,0.0,0.0,0.0
19:32:56.017000,44.0,93.0,-165.0,-501.0,424.0,-101.0,0.0,0.0,0.0
19:32:56.022000,19.0,112.0,-156.0,-501.0,424.0,-101.0,0.0,0.0,0.0
19:32:56.026000,-7.0,136.0,-140.0,-604.0,475.0,-83.0,0.0,0.0,0.0
19:32:56.031000,-34.0,158.0,-116.0,-604.0,475.0,-83.0,0.0,0.0,0.0
19:32:56.036000,-67.0,181.0,-83.0,-696.0,485.0,-78.0,0.0,0.0,0.0
19:32:56.040000,-103.0,203.0,-38.0,-696.0,485.0,-78.0,0.0,0.0,0.0
19:32:56.045000,-134.0,224.0,13.0,-754.0,437.0,-69.0,0.0,0.0,0.0
19:32:56.050000,-155.0,246.0,67.0,-754.0,437.0,-69.0,0.0,0.0,0.0
19:32:56.054000,-171.0,268.0,109.0,-774.0,328.0,-67.0,0.0,0.0,0.0
19:32:56.059000,-184.0,289.0,126.0,-774.0,328.0,-67.0,0.0,0.0,0.0
19:32:56.064000,-198.0,309.0,117.0,-774.0,328.0,-67.0,0.0,0.0,0.0
19:32:56.069000,-208.0,326.0,89.0,-785.0,243.0,-86.0,0.0,0.0,0.0
19:32:56.073000,-217.0,345.0,52.0,-785.0,243.0,-86.0,0.0,0.0,0.0
19:32:56.078000,-215.0,364.0,2.0,-809.0,180.0,-126.0,0.0,0.0,0.0
19:32:56.083000,-207.0,380.0,-56.0,-809.0,180.0,-126.0,0.0,0.0,0.0
19:32:56.087000,-189.0,391.0,-116.0,-837.0,87.0,-178.0,0.0,0.0,0.0
19:32:56.092000,-163.0,394.0,-166.0,-837.0,87.0,-178.0,0.0,0.0,0.0
19:32:56.097000,-131.0,390.0,-207.0,-837.0,-20.0,-230.0,0.0,0.0,0.0
19:32:56.101000,-100.0,375.0,-248.0,-837.0,-20.0,-230.0,0.0,0.0,0.0
19:32:56.106000,-74.0,352.0,-291.0,-787.0,-82.0,-279.0,0.0,0.0,0.0
19:32:56.111000,-74.0,352.0,-291.0,-787.0,-82.0,-279.0,0.0,0.0,0.0
19:32:56.115000,-53.0,322.0,-325.0,-702.0,-62.0,-327.0,0.0,0.0,0.0
19:32:56.120000,-35.0,281.0,-347.0,-702.0,-62.0,-327.0,0.0,0.0,0.0
19:32:56.125000,-21.0,234.0,-351.0,-621.0,-4.0,-354.0,0.0,0.0,0.0
19:32:56.130000,-4.0,184.0,-332.0,-621.0,-4.0,-354.0,0.0,0.0,0.0
19:32:56.134000,18.0,137.0,-308.0,-589.0,25.0,-355.0,0.0,0.0,0.0
19:32:56.139000,46.0,93.0,-291.0,-589.0,25.0,-355.0,0.0,0.0,0.0
19:32:56.144000,74.0,51.0,-277.0,-627.0,35.0,-340.0,0.0,0.0,0.0
19:32:56.148000,100.0,11.0,-256.0,-627.0,35.0,-340.0,0.0,0.0,0.0
19:32:56.153000,116.0,-22.0,-232.0,-705.0,52.0,-305.0,0.0,0.0,0.0
19:32:56.158000,122.0,-51.0,-207.0,-705.0,52.0,-305.0,0.0,0.0,0.0
19:32:56.162000,116.0,-74.0,-186.0,-747.0,70.0,-249.0,0.0,0.0,0.0
19:32:56.167000,104.0,-93.0,-174.0,-747.0,70.0,-249.0,0.0,0.0,0.0
19:32:56.172000,93.0,-109.0,-175.0,-747.0,70.0,-249.0,0.0,0.0,0.0
19:32:56.177000,87.0,-120.0,-189.0,-710.0,61.0,-188.0,0.0,0.0,0.0
19:32:56.181000,87.0,-128.0,-214.0,-710.0,61.0,-188.0,0.0,0.0,0.0
19:32:56.186000,90.0,-131.0,-248.0,-628.0,40.0,-137.0,0.0,0.0,0.0
19:32:56.191000,95.0,-132.0,-286.0,-628.0,40.0,-137.0,0.0,0.0,0.0
19:32:56.195000,103.0,-127.0,-319.0,-583.0,61.0,-107.0,0.0,0.0,0.0
19:32:56.200000,114.0,-122.0,-345.0,-583.0,61.0,-107.0,0.0,0.0,0.0
19:32:56.205000,125.0,-117.0,-359.0,-602.0,107.0,-103.0,0.0,0.0,0.0
19:32:56.209000,133.0,-113.0,-361.0,-602.0,107.0,-103.0,0.0,0.0,0.0
19:32:56.214000,136.0,-111.0,-353.0,-641.0,162.0,-123.0,0.0,0.0,0.0
19:32:56.219000,136.0,-111.0,-353.0,-641.0,162.0,-123.0,0.0,0.0,0.0
19:32:56.224000,132.0,-112.0,-328.0,-667.0,231.0,-157.0,0.0,0.0,0.0
19:32:56.228000,124.0,-118.0,-284.0,-667.0,231.0,-157.0,0.0,0.0,0.0
19:32:56.233000,116.0,-126.0,-221.0,-683.0,278.0,-195.0,0.0,0.0,0.0
19:32:56.238000,111.0,-137.0,-144.0,-683.0,278.0,-195.0,0.0,0.0,0.0
19:32:56.242000,111.0,-148.0,-64.0,-706.0,262.0,-234.0,0.0,0.0,0.0
19:32:56.247000,113.0,-163.0,7.0,-706.0,262.0,-234.0,0.0,0.0,0.0
19:32:56.252000,115.0,-178.0,70.0,-732.0,221.0,-260.0,0.0,0.0,0.0
19:32:56.256000,112.0,-194.0,127.0,-732.0,221.0,-260.0,0.0,0.0,0.0
19:32:56.261000,108.0,-212.0,178.0,-726.0,183.0,-267.0,0.0,0.0,0.0
19:32:56.266000,102.0,-233.0,213.0,-726.0,183.0,-267.0,0.0,0.0,0.0
19:32:56.271000,89.0,-253.0,225.0,-686.0,162.0,-269.0,0.0,0.0,0.0
19:32:56.275000,65.0,-273.0,211.0,-686.0,162.0,-269.0,0.0,0.0,0.0
19:32:56.280000,30.0,-293.0,182.0,-654.0,201.0,-260.0,0.0,0.0,0.0
19:32:56.285000,-8.0,-311.0,148.0,-654.0,201.0,-260.0,0.0,0.0,0.0
19:32:56.289000,-37.0,-333.0,121.0,-654.0,201.0,-260.0,0.0,0.0,0.0
19:32:56.294000,-49.0,-348.0,102.0,-637.0,220.0,-233.0,0.0,0.0,0.0
19:32:56.299000,-44.0,-356.0,84.0,-637.0,220.0,-233.0,0.0,0.0,0.0
19:32:56.303000,-25.0,-362.0,76.0,-644.0,154.0,-206.0,0.0,0.0,0.0
19:32:56.308000,0.0,-363.0,79.0,-644.0,154.0,-206.0,0.0,0.0,0.0
19:32:56.313000,23.0,-364.0,95.0,-691.0,87.0,-188.0,0.0,0.0,0.0
19:32:56.318000,51.0,-365.0,128.0,-691.0,87.0,-188.0,0.0,0.0,0.0
19:32:56.322000,51.0,-365.0,128.0,-736.0,47.0,-178.0,0.0,0.0,0.0
19:32:56.327000,86.0,-355.0,188.0,-736.0,47.0,-178.0,0.0,0.0,0.0
19:32:56.332000,86.0,-355.0,188.0,-765.0,63.0,-163.0,0.0,0.0,0.0
19:32:56.336000,84.0,-344.0,196.0,-765.0,63.0,-163.0,0.0,0.0,0.0
19:32:56.341000,64.0,-326.0,194.0,-790.0,173.0,-137.0,0.0,0.0,0.0
19:32:56.346000,37.0,-308.0,193.0,-790.0,173.0,-137.0,0.0,0.0,0.0
19:32:56.350000,15.0,-289.0,196.0,-802.0,263.0,-106.0,0.0,0.0,0.0
19:32:56.355000,0.0,-270.0,203.0,-802.0,263.0,-106.0,0.0,0.0,0.0
19:32:56.360000,-5.0,-252.0,224.0,-806.0,246.0,-80.0,0.0,0.0,0.0
19:32:56.365000,-7.0,-239.0,268.0,-806.0,246.0,-80.0,0.0,0.0,0.0
19:32:56.369000,-13.0,-228.0,329.0,-809.0,189.0,-61.0,0.0,0.0,0.0
19:32:56.374000,-23.0,-218.0,395.0,-809.0,189.0,-61.0,0.0,0.0,0.0
19:32:56.379000,-31.0,-209.0,444.0,-811.0,151.0,-60.0,0.0,0.0,0.0
19:32:56.383000,-39.0,-202.0,458.0,-811.0,151.0,-60.0,0.0,0.0,0.0
19:32:56.388000,-44.0,-198.0,442.0,-808.0,132.0,-88.0,0.0,0.0,0.0
19:32:56.393000,-43.0,-197.0,408.0,-808.0,132.0,-88.0,0.0,0.0,0.0
19:32:56.397000,-40.0,-198.0,364.0,-780.0,140.0,-127.0,0.0,0.0,0.0
19:32:56.402000,-34.0,-200.0,315.0,-780.0,140.0,-127.0,0.0,0.0,0.0
19:32:56.407000,-25.0,-204.0,268.0,-780.0,140.0,-127.0,0.0,0.0,0.0
19:32:56.412000,-16.0,-211.0,235.0,-736.0,176.0,-162.0,0.0,0.0,0.0
19:32:56.416000,-4.0,-218.0,222.0,-736.0,176.0,-162.0,0.0,0.0,0.0
19:32:56.421000,9.0,-226.0,230.0,-692.0,203.0,-187.0,0.0,0.0,0.0
19:32:56.426000,23.0,-233.0,252.0,-692.0,203.0,-187.0,0.0,0.0,0.0
19:32:56.430000,34.0,-238.0,284.0,-671.0,225.0,-205.0,0.0,0.0,0.0
19:32:56.435000,41.0,-240.0,323.0,-671.0,225.0,-205.0,0.0,0.0,0.0
19:32:56.439000,41.0,-240.0,323.0,-689.0,267.0,-214.0,0.0,0.0,0.0
19:32:56.444000,43.0,-240.0,368.0,-689.0,267.0,-214.0,0.0,0.0,0.0
19:32:56.449000,47.0,-242.0,421.0,-714.0,297.0,-220.0,0.0,0.0,0.0
19:32:56.454000,54.0,-246.0,471.0,-714.0,297.0,-220.0,0.0,0.0,0.0
19:32:56.458000,60.0,-254.0,508.0,-717.0,309.0,-224.0,0.0,0.0,0.0
19:32:56.463000,66.0,-266.0,532.0,-717.0,309.0,-224.0,0.0,0.0,0.0
19:32:56.468000,75.0,-285.0,544.0,-692.0,315.0,-225.0,0.0,0.0,0.0
19:32:56.473000,84.0,-305.0,541.0,-692.0,315.0,-225.0,0.0,0.0,0.0
19:32:56.477000,88.0,-327.0,527.0,-678.0,336.0,-222.0,0.0,0.0,0.0
19:32:56.482000,84.0,-347.0,516.0,-678.0,336.0,-222.0,0.0,0.0,0.0
19:32:56.487000,73.0,-365.0,514.0,-707.0,382.0,-215.0,0.0,0.0,0.0
19:32:56.491000,49.0,-375.0,512.0,-707.0,382.0,-215.0,0.0,0.0,0.0
19:32:56.496000,11.0,-380.0,506.0,-752.0,421.0,-205.0,0.0,0.0,0.0
19:32:56.501000,-28.0,-377.0,510.0,-752.0,421.0,-205.0,0.0,0.0,0.0
