hh:mm:ss.ms,gyroX[mdps],gyroY[mdps],gyroZ[mdps],accX[mg],accY[mg],accZ[mg],magX[mG],magY[mG],magZ[mG]
19:32:31.080000,235.0,-168.0,228.0,-655.0,656.0,-111.0,0.0,0.0,0.0
19:32:31.085000,182.0,-189.0,282.0,-655.0,656.0,-111.0,0.0,0.0,0.0
19:32:31.090000,113.0,-207.0,309.0,-655.0,656.0,-111.0,0.0,0.0,0.0
19:32:31.094000,25.0,-215.0,292.0,-580.0,695.0,-104.0,0.0,0.0,0.0
19:32:31.099000,-65.0,-214.0,254.0,-580.0,695.0,-104.0,0.0,0.0,0.0
19:32:31.104000,-149.0,-196.0,210.0,-498.0,756.0,-117.0,0.0,0.0,0.0
19:32:31.108000,-226.0,-173.0,158.0,-498.0,756.0,-117.0,0.0,0.0,0.0
19:32:31.113000,-286.0,-154.0,100.0,-467.0,739.0,-157.0,0.0,0.0,0.0
19:32:31.118000,-323.0,-128.0,60.0,-467.0,739.0,-157.0,0.0,0.0,0.0
19:32:31.122000,-338.0,-109.0,51.0,-488.0,582.0,-206.0,0.0,0.0,0.0
19:32:31.127000,-329.0,-93.0,60.0,-488.0,582.0,-206.0,0.0,0.0,0.0
19:32:31.132000,-294.0,-75.0,77.0,-525.0,372.0,-249.0,0.0,0.0,0.0
19:32:31.137000,-294.0,-75.0,77.0,-525.0,372.0,-249.0,0.0,0.0,0.0
19:32:31.141000,-241.0,-64.0,93.0,-542.0,208.0,-272.0,0.0,0.0,0.0
19:32:31.146000,-173.0,-60.0,100.0,-542.0,208.0,-272.0,0.0,0.0,0.0
19:32:31.151000,-103.0,-56.0,98.0,-521.0,158.0,-265.0,0.0,0.0,0.0
19:32:31.155000,-39.0,-59.0,93.0,-521.0,158.0,-265.0,0.0,0.0,0.0
19:32:31.160000,9.0,-65.0,91.0,-487.0,223.0,-226.0,0.0,0.0,0.0
19:32:31.165000,39.0,-74.0,102.0,-487.0,223.0,-226.0,0.0,0.0,0.0
19:32:31.169000,57.0,-87.0,116.0,-478.0,322.0,-170.0,0.0,0.0,0.0
19:32:31.174000,62.0,-94.0,137.0,-478.0,322.0,-170.0,0.0,0.0,0.0
19:32:31.179000,62.0,-100.0,147.0,-503.0,393.0,-122.0,0.0,0.0,0.0
19:32:31.184000,54.0,-103.0,145.0,-503.0,393.0,-122.0,0.0,0.0,0.0
19:32:31.188000,35.0,-98.0,165.0,-551.0,434.0,-96.0,0.0,0.0,0.0
19:32:31.193000,16.0,-88.0,201.0,-551.0,434.0,-96.0,0.0,0.0,0.0
19:32:31.198000,-3.0,-74.0,203.0,-551.0,434.0,-96.0,0.0,0.0,0.0
19:32:31.202000,-23.0,-60.0,193.0,-624.0,462.0,-89.0,0.0,0.0,0.0
19:32:31.207000,-43.0,-46.0,210.0,-624.0,462.0,-89.0,0.0,0.0,0.0
19:32:31.212000,-58.0,-31.0,236.0,-691.0,443.0,-91.0,0.0,0.0,0.0
19:32:31.216000,-68.0,-14.0,254.0,-691.0,443.0,-91.0,0.0,0.0,0.0
19:32:31.221000,-75.0,1.0,254.0,-715.0,379.0,-105.0,0.0,0.0,0.0
19:32:31.226000,-87.0,16.0,245.0,-715.0,379.0,-105.0,0.0,0.0,0.0
19:32:31.231000,-104.0,35.0,241.0,-737.0,343.0,-119.0,0.0,0.0,0.0
19:32:31.235000,-121.0,52.0,251.0,-737.0,343.0,-119.0,0.0,0.0,0.0
19:32:31.240000,-130.0,65.0,258.0,-744.0,293.0,-121.0,0.0,0.0,0.0
19:32:31.245000,-130.0,65.0,258.0,-744.0,293.0,-121.0,0.0,0.0,0.0
19:32:31.249000,-131.0,76.0,235.0,-723.0,200.0,-119.0,0.0,0.0,0.0
19:32:31.254000,-126.0,82.0,199.0,-723.0,200.0,-119.0,0.0,0.0,0.0
19:32:31.259000,-121.0,81.0,180.0,-675.0,107.0,-112.0,0.0,0.0,0.0
19:32:31.263000,-113.0,71.0,179.0,-675.0,107.0,-112.0,0.0,0.0,0.0
19:32:31.268000,-99.0,58.0,191.0,-601.0,14.0,-95.0,0.0,0.0,0.0
19:32:31.273000,-85.0,41.0,196.0,-601.0,14.0,-95.0,0.0,0.0,0.0
19:32:31.278000,-74.0,23.0,198.0,-525.0,-40.0,-78.0,0.0,0.0,0.0
19:32:31.282000,-67.0,2.0,197.0,-525.0,-40.0,-78.0,0.0,0.0,0.0
19:32:31.287000,-70.0,-17.0,176.0,-486.0,-10.0,-66.0,0.0,0.0,0.0
19:32:31.292000,-83.0,-35.0,144.0,-486.0,-10.0,-66.0,0.0,0.0,0.0
19:32:31.296000,-105.0,-51.0,117.0,-488.0,44.0,-61.0,0.0,0.0,0.0
19:32:31.301000,-124.0,-63.0,103.0,-488.0,44.0,-61.0,0.0,0.0,0.0
19:32:31.306000,-137.0,-72.0,100.0,-488.0,44.0,-61.0,0.0,0.0,0.0
19:32:31.310000,-144.0,-75.0,98.0,-505.0,35.0,-61.0,0.0,0.0,0.0
19:32:31.315000,-150.0,-73.0,97.0,-533.0,8.0,-70.0,0.0,0.0,0.0
19:32:31.320000,-155.0,-66.0,95.0,-533.0,8.0,-70.0,0.0,0.0,0.0
19:32:31.325000,-161.0,-58.0,93.0,-533.0,8.0,-70.0,0.0,0.0,0.0
19:32:31.329000,-157.0,-51.0,87.0,-557.0,9.0,-79.0,0.0,0.0,0.0
19:32:31.334000,-148.0,-45.0,81.0,-557.0,9.0,-79.0,0.0,0.0,0.0
19:32:31.339000,-139.0,-39.0,83.0,-564.0,3.0,-85.0,0.0,0.0,0.0
19:32:31.343000,-126.0,-36.0,91.0,-564.0,3.0,-85.0,0.0,0.0,0.0
19:32:31.348000,-112.0,-36.0,99.0,-595.0,-7.0,-88.0,0.0,0.0,0.0
19:32:31.353000,-112.0,-36.0,99.0,-595.0,-7.0,-88.0,0.0,0.0,0.0
19:32:31.357000,-96.0,-39.0,102.0,-658.0,-20.0,-87.0,0.0,0.0,0.0
19:32:31.362000,-80.0,-46.0,106.0,-658.0,-20.0,-87.0,0.0,0.0,0.0
19:32:31.367000,-63.0,-54.0,107.0,-724.0,-27.0,-92.0,0.0,0.0,0.0
19:32:31.372000,-46.0,-64.0,100.0,-724.0,-27.0,-92.0,0.0,0.0,0.0
19:32:31.376000,-27.0,-78.0,95.0,-774.0,-16.0,-102.0,0.0,0.0,0.0
19:32:31.381000,-9.0,-93.0,104.0,-774.0,-16.0,-102.0,0.0,0.0,0.0
19:32:31.386000,7.0,-108.0,120.0,-788.0,0.0,-114.0,0.0,0.0,0.0
19:32:31.390000,24.0,-124.0,144.0,-788.0,0.0,-114.0,0.0,0.0,0.0
19:32:31.395000,35.0,-140.0,168.0,-784.0,29.0,-122.0,0.0,0.0,0.0
19:32:31.400000,43.0,-152.0,193.0,-784.0,29.0,-122.0,0.0,0.0,0.0
19:32:31.404000,50.0,-163.0,220.0,-786.0,60.0,-122.0,0.0,0.0,0.0
19:32:31.409000,60.0,-175.0,250.0,-786.0,60.0,-122.0,0.0,0.0,0.0
19:32:31.414000,71.0,-191.0,284.0,-786.0,35.0,-113.0,0.0,0.0,0.0
19:32:31.419000,88.0,-206.0,324.0,-796.0,35.0,-113.0,0.0,0.0,0.0
19:32:31.423000,109.0,-224.0,366.0,-796.0,35.0,-113.0,0.0,0.0,0.0
19:32:31.428000,129.0,-246.0,406.0,-814.0,-30.0,-93.0,0.0,0.0,0.0
19:32:31.433000,144.0,-270.0,440.0,-814.0,-30.0,-93.0,0.0,0.0,0.0
19:32:31.437000,150.0,-296.0,465.0,-841.0,-55.0,-71.0,0.0,0.0,0.0
19:32:31.442000,147.0,-318.0,484.0,-841.0,-55.0,-71.0,0.0,0.0,0.0
19:32:31.447000,137.0,-339.0,492.0,-872.0,-23.0,-46.0,0.0,0.0,0.0
19:32:31.451000,120.0,-356.0,494.0,-872.0,-23.0,-46.0,0.0,0.0,0.0
19:32:31.456000,100.0,-368.0,495.0,-866.0,9.0,-20.0,0.0,0.0,0.0
19:32:31.461000,73.0,-374.0,492.0,-866.0,9.0,-20.0,0.0,0.0,0.0
19:32:31.466000,73.0,-374.0,492.0,-831.0,56.0,-2.0,0.0,0.0,0.0
19:32:31.470000,41.0,-375.0,483.0,-831.0,56.0,-2.0,0.0,0.0,0.0
19:32:31.475000,7.0,-371.0,479.0,-829.0,155.0,1.0,0.0,0.0,0.0
19:32:31.480000,-23.0,-362.0,490.0,-829.0,155.0,1.0,0.0,0.0,0.0
19:32:31.484000,-43.0,-354.0,534.0,-864.0,199.0,-4.0,0.0,0.0,0.0
19:32:31.489000,-52.0,-347.0,621.0,-864.0,199.0,-4.0,0.0,0.0,0.0
19:32:31.494000,-59.0,-338.0,735.0,-903.0,156.0,-6.0,0.0,0.0,0.0
19:32:31.498000,-72.0,-332.0,858.0,-903.0,156.0,-6.0,0.0,0.0,0.0
19:32:31.503000,-94.0,-329.0,983.0,-950.0,129.0,-1.0,0.0,0.0,0.0
19:32:31.508000,-114.0,-332.0,1104.0,-950.0,129.0,-1.0,0.0,0.0,0.0
19:32:31.513000,-126.0,-344.0,1215.0,-979.0,76.0,-14.0,0.0,0.0,0.0
19:32:31.517000,-135.0,-363.0,1302.0,-979.0,76.0,-14.0,0.0,0.0,0.0
19:32:31.522000,-147.0,-391.0,1360.0,-960.0,15.0,-39.0,0.0,0.0,0.0
19:32:31.527000,-167.0,-423.0,1402.0,-960.0,15.0,-39.0,0.0,0.0,0.0
19:32:31.531000,-196.0,-455.0,1439.0,-960.0,15.0,-39.0,0.0,0.0,0.0
19:32:31.536000,-225.0,-485.0,1476.0,-890.0,36.0,-43.0,0.0,0.0,0.0
19:32:31.541000,-245.0,-515.0,1507.0,-890.0,36.0,-43.0,0.0,0.0,0.0
19:32:31.545000,-252.0,-541.0,1528.0,-803.0,25.0,-35.0,0.0,0.0,0.0
19:32:31.550000,-252.0,-562.0,1540.0,-803.0,25.0,-35.0,0.0,0.0,0.0
19:32:31.555000,-250.0,-569.0,1537.0,-735.0,-63.0,-23.0,0.0,0.0,0.0
19:32:31.560000,-239.0,-567.0,1526.0,-735.0,-63.0,-23.0,0.0,0.0,0.0
19:32:31.564000,-213.0,-558.0,1509.0,-703.0,-150.0,-10.0,0.0,0.0,0.0
19:32:31.569000,-175.0,-550.0,1479.0,-703.0,-150.0,-10.0,0.0,0.0,0.0
19:32:31.574000,-175.0,-550.0,1479.0,-752.0,-229.0,-15.0,0.0,0.0,0.0
19:32:31.578000,-133.0,-542.0,1432.0,-752.0,-229.0,-15.0,0.0,0.0,0.0
19:32:31.583000,-96.0,-527.0,1369.0,-874.0,-258.0,-23.0,0.0,0.0,0.0
19:32:31.588000,-66.0,-505.0,1302.0,-874.0,-258.0,-23.0,0.0,0.0,0.0
19:32:31.592000,-50.0,-476.0,1237.0,-1005.0,-186.0,-20.0,0.0,0.0,0.0
19:32:31.597000,-51.0,-442.0,1172.0,-1005.0,-186.0,-20.0,0.0,0.0,0.0
19:32:31.602000,-73.0,-407.0,1099.0,-1106.0,-47.0,-6.0,0.0,0.0,0.0
19:32:31.607000,-111.0,-370.0,1031.0,-1106.0,-47.0,-6.0,0.0,0.0,0.0
19:32:31.611000,-157.0,-331.0,984.0,-1149.0,49.0,-10.0,0.0,0.0,0.0
19:32:31.616000,-173.0,-315.0,939.0,-1149.0,49.0,-10.0,0.0,0.0,0.0
19:32:31.621000,-201.0,-294.0,879.0,-1130.0,53.0,-46.0,0.0,0.0,0.0
19:32:31.625000,-245.0,-261.0,857.0,-1130.0,53.0,-46.0,0.0,0.0,0.0
19:32:31.630000,-277.0,-230.0,891.0,-1074.0,-2.0,-79.0,0.0,0.0,0.0
19:32:31.635000,-304.0,-202.0,938.0,-1074.0,-2.0,-79.0,0.0,0.0,0.0
19:32:31.639000,-338.0,-161.0,948.0,-1074.0,-2.0,-79.0,0.0,0.0,0.0
19:32:31.644000,-375.0,-115.0,927.0,-1014.0,-57.0,-102.0,0.0,0.0,0.0
19:32:31.649000,-402.0,-81.0,891.0,-1014.0,-57.0,-102.0,0.0,0.0,0.0
19:32:31.654000,-417.0,-55.0,840.0,-986.0,-71.0,-126.0,0.0,0.0,0.0
19:32:31.658000,-417.0,-19.0,775.0,-986.0,-71.0,-126.0,0.0,0.0,0.0
19:32:31.663000,-410.0,9.0,702.0,-974.0,-100.0,-150.0,0.0,0.0,0.0
19:32:31.668000,-376.0,20.0,611.0,-974.0,-100.0,-150.0,0.0,0.0,0.0
19:32:31.672000,-368.0,-14.0,529.0,-968.0,-138.0,-138.0,0.0,0.0,0.0
19:32:31.677000,-358.0,-39.0,528.0,-968.0,-138.0,-138.0,0.0,0.0,0.0
19:32:31.681000,-358.0,-39.0,528.0,-925.0,-222.0,-110.0,0.0,0.0,0.0
19:32:31.686000,-307.0,-67.0,543.0,-925.0,-222.0,-110.0,0.0,0.0,0.0
19:32:31.691000,-189.0,-88.0,553.0,-829.0,-285.0,-111.0,0.0,0.0,0.0
19:32:31.696000,-109.0,-103.0,516.0,-829.0,-285.0,-111.0,0.0,0.0,0.0
19:32:31.701000,-77.0,-110.0,459.0,-701.0,-259.0,-96.0,0.0,0.0,0.0
19:32:31.705000,-46.0,-87.0,499.0,-701.0,-259.0,-96.0,0.0,0.0,0.0
19:32:31.710000,-11.0,-95.0,581.0,-592.0,-285.0,-60.0,0.0,0.0,0.0
19:32:31.715000,44.0,-110.0,651.0,-592.0,-285.0,-60.0,0.0,0.0,0.0
19:32:31.719000,84.0,-124.0,662.0,-637.0,-306.0,-35.0,0.0,0.0,0.0
19:32:31.724000,104.0,-130.0,647.0,-637.0,-306.0,-35.0,0.0,0.0,0.0
19:32:31.729000,111.0,-135.0,657.0,-746.0,-251.0,-9.0,0.0,0.0,0.0
19:32:31.733000,104.0,-140.0,657.0,-746.0,-251.0,-9.0,0.0,0.0,0.0
19:32:31.738000,97.0,-148.0,624.0,-781.0,-180.0,14.0,0.0,0.0,0.0
19:32:31.743000,78.0,-149.0,573.0,-781.0,-180.0,14.0,0.0,0.0,0.0
19:32:31.748000,59.0,-149.0,515.0,-781.0,-180.0,14.0,0.0,0.0,0.0
19:32:31.752000,30.0,-155.0,458.0,-788.0,-101.0,32.0,0.0,0.0,0.0
19:32:31.757000,-44.0,-154.0,438.0,-788.0,-101.0,32.0,0.0,0.0,0.0
19:32:31.762000,-63.0,-165.0,427.0,-777.0,-58.0,49.0,0.0,0.0,0.0
19:32:31.766000,-89.0,-184.0,419.0,-777.0,-58.0,49.0,0.0,0.0,0.0
19:32:31.771000,-110.0,-200.0,442.0,-777.0,-108.0,50.0,0.0,0.0,0.0
19:32:31.776000,-91.0,-221.0,487.0,-777.0,-108.0,50.0,0.0,0.0,0.0
19:32:31.780000,-70.0,-237.0,506.0,-774.0,-233.0,30.0,0.0,0.0,0.0
19:32:31.785000,-26.0,-241.0,515.0,-774.0,-233.0,30.0,0.0,0.0,0.0
19:32:31.790000,30.0,-249.0,533.0,-739.0,-327.0,4.0,0.0,0.0,0.0
19:32:31.795000,30.0,-249.0,533.0,-739.0,-327.0,4.0,0.0,0.0,0.0
19:32:31.799000,85.0,-252.0,552.0,-694.0,-387.0,-15.0,0.0,0.0,0.0
19:32:31.804000,134.0,-257.0,564.0,-694.0,-387.0,-15.0,0.0,0.0,0.0
19:32:31.809000,188.0,-252.0,570.0,-652.0,-450.0,-14.0,0.0,0.0,0.0
19:32:31.813000,190.0,-246.0,579.0,-652.0,-450.0,-14.0,0.0,0.0,0.0
19:32:31.818000,188.0,-231.0,601.0,-633.0,-478.0,-9.0,0.0,0.0,0.0
19:32:31.823000,193.0,-218.0,627.0,-633.0,-478.0,-9.0,0.0,0.0,0.0
19:32:31.827000,205.0,-210.0,592.0,-653.0,-392.0,-33.0,0.0,0.0,0.0
19:32:31.832000,202.0,-208.0,466.0,-653.0,-392.0,-33.0,0.0,0.0,0.0
19:32:31.837000,202.0,-196.0,327.0,-719.0,-199.0,-86.0,0.0,0.0,0.0
19:32:31.842000,189.0,-191.0,237.0,-719.0,-199.0,-86.0,0.0,0.0,0.0
19:32:31.846000,179.0,-189.0,182.0,-819.0,-44.0,-129.0,0.0,0.0,0.0
19:32:31.851000,160.0,-186.0,114.0,-819.0,-44.0,-129.0,0.0,0.0,0.0
19:32:31.855000,154.0,-191.0,23.0,-950.0,44.0,-153.0,0.0,0.0,0.0
19:32:31.860000,171.0,-200.0,-33.0,-950.0,44.0,-153.0,0.0,0.0,0.0
19:32:31.865000,180.0,-203.0,-39.0,-950.0,44.0,-153.0,0.0,0.0,0.0
19:32:31.870000,194.0,-198.0,-23.0,-1053.0,81.0,-163.0,0.0,0.0,0.0
19:32:31.874000,201.0,-191.0,-13.0,-1053.0,81.0,-163.0,0.0,0.0,0.0
19:32:31.879000,214.0,-177.0,-31.0,-1124.0,121.0,-158.0,0.0,0.0,0.0
19:32:31.884000,214.0,-179.0,-65.0,-1124.0,121.0,-158.0,0.0,0.0,0.0
19:32:31.889000,155.0,-137.0,-142.0,-1233.0,223.0,-121.0,0.0,0.0,0.0
19:32:31.893000,170.0,-125.0,-254.0,-1233.0,223.0,-121.0,0.0,0.0,0.0
19:32:31.898000,63.0,-94.0,-343.0,-1288.0,325.0,-65.0,0.0,0.0,0.0
19:32:31.903000,63.0,-94.0,-343.0,-1288.0,325.0,-65.0,0.0,0.0,0.0
19:32:31.907000,-4.0,-77.0,-385.0,-1293.0,314.0,-5.0,0.0,0.0,0.0
19:32:31.912000,-73.0,-67.0,-365.0,-1293.0,314.0,-5.0,0.0,0.0,0.0
19:32:31.917000,-133.0,-58.0,-327.0,-1337.0,18.0,46.0,0.0,0.0,0.0
19:32:31.921000,-135.0,-21.0,-235.0,-1337.0,18.0,46.0,0.0,0.0,0.0
19:32:31.926000,-56.0,25.0,-274.0,-1256.0,-172.0,-21.0,0.0,0.0,0.0
19:32:31.931000,13.0,51.0,-378.0,-1256.0,-172.0,-21.0,0.0,0.0,0.0
19:32:31.936000,42.0,86.0,-508.0,-1255.0,26.0,-130.0,0.0,0.0,0.0
19:32:31.940000,33.0,121.0,-767.0,-1255.0,26.0,-130.0,0.0,0.0,0.0
19:32:31.945000,38.0,144.0,-1011.0,-1493.0,172.0,-165.0,0.0,0.0,0.0
19:32:31.950000,44.0,167.0,-1092.0,-1493.0,172.0,-165.0,0.0,0.0,0.0
19:32:31.954000,95.0,166.0,-980.0,-1571.0,41.0,-181.0,0.0,0.0,0.0
19:32:31.959000,124.0,158.0,-819.0,-1571.0,41.0,-181.0,0.0,0.0,0.0
19:32:31.964000,137.0,171.0,-744.0,-1571.0,41.0,-181.0,0.0,0.0,0.0
19:32:31.968000,166.0,183.0,-736.0,-1494.0,-205.0,-165.0,0.0,0.0,0.0
19:32:31.973000,204.0,185.0,-753.0,-1417.0,-379.0,-128.0,0.0,0.0,0.0
19:32:31.978000,233.0,177.0,-768.0,-1417.0,-379.0,-128.0,0.0,0.0,0.0
19:32:31.983000,235.0,188.0,-715.0,-1417.0,-379.0,-128.0,0.0,0.0,0.0
19:32:31.987000,238.0,187.0,-667.0,-1257.0,-514.0,-84.0,0.0,0.0,0.0
19:32:31.992000,220.0,202.0,-623.0,-1257.0,-514.0,-84.0,0.0,0.0,0.0
19:32:31.997000,203.0,220.0,-644.0,-1058.0,-597.0,-46.0,0.0,0.0,0.0
19:32:32.001000,203.0,220.0,-644.0,-1058.0,-597.0,-46.0,0.0,0.0,0.0
19:32:32.006000,196.0,243.0,-709.0,-978.0,-604.0,-16.0,0.0,0.0,0.0
19:32:32.011000,196.0,243.0,-709.0,-978.0,-604.0,-16.0,0.0,0.0,0.0
19:32:32.015000,222.0,246.0,-701.0,-975.0,-632.0,6.0,0.0,0.0,0.0
19:32:32.020000,238.0,248.0,-722.0,-975.0,-632.0,6.0,0.0,0.0,0.0
19:32:32.025000,233.0,256.0,-743.0,-943.0,-632.0,25.0,0.0,0.0,0.0
19:32:32.029000,247.0,254.0,-838.0,-943.0,-632.0,25.0,0.0,0.0,0.0
19:32:32.034000,251.0,256.0,-947.0,-914.0,-531.0,41.0,0.0,0.0,0.0
19:32:32.039000,263.0,256.0,-1031.0,-914.0,-531.0,41.0,0.0,0.0,0.0
19:32:32.044000,304.0,260.0,-1055.0,-890.0,-475.0,36.0,0.0,0.0,0.0
19:32:32.048000,329.0,268.0,-991.0,-890.0,-475.0,36.0,0.0,0.0,0.0
19:32:32.053000,341.0,270.0,-898.0,-944.0,-428.0,23.0,0.0,0.0,0.0
19:32:32.058000,347.0,264.0,-821.0,-944.0,-428.0,23.0,0.0,0.0,0.0
19:32:32.062000,352.0,267.0,-838.0,-1122.0,-264.0,7.0,0.0,0.0,0.0
19:32:32.067000,347.0,279.0,-905.0,-1122.0,-264.0,7.0,0.0,0.0,0.0
19:32:32.072000,315.0,300.0,-959.0,-1122.0,-148.0,7.0,0.0,0.0,0.0
19:32:32.076000,291.0,313.0,-996.0,-1287.0,-148.0,-22.0,0.0,0.0,0.0
19:32:32.081000,269.0,326.0,-966.0,-1287.0,-148.0,-22.0,0.0,0.0,0.0
19:32:32.086000,273.0,328.0,-888.0,-1325.0,-149.0,-49.0,0.0,0.0,0.0
19:32:32.091000,276.0,324.0,-823.0,-1325.0,-151.0,-69.0,0.0,0.0,0.0
19:32:32.095000,270.0,316.0,-745.0,-1279.0,-151.0,-69.0,0.0,0.0,0.0
19:32:32.100000,260.0,303.0,-676.0,-1279.0,-151.0,-69.0,0.0,0.0,0.0
19:32:32.105000,252.0,289.0,-646.0,-1241.0,-104.0,-85.0,0.0,0.0,0.0
19:32:32.109000,237.0,281.0,-629.0,-1241.0,-104.0,-85.0,0.0,0.0,0.0
19:32:32.114000,196.0,275.0,-600.0,-1237.0,-44.0,-98.0,0.0,0.0,0.0
19:32:32.119000,196.0,275.0,-600.0,-1237.0,-44.0,-98.0,0.0,0.0,0.0
19:32:32.123000,151.0,269.0,-586.0,-1250.0,15.0,-108.0,0.0,0.0,0.0
19:32:32.128000,116.0,261.0,-594.0,-1250.0,15.0,-108.0,0.0,0.0,0.0
19:32:32.133000,96.0,256.0,-586.0,-1235.0,50.0,-122.0,0.0,0.0,0.0
19:32:32.138000,81.0,250.0,-523.0,-1235.0,50.0,-122.0,0.0,0.0,0.0
19:32:32.142000,69.0,242.0,-420.0,-1211.0,35.0,-145.0,0.0,0.0,0.0
19:32:32.147000,69.0,235.0,-329.0,-1211.0,35.0,-145.0,0.0,0.0,0.0
19:32:32.152000,93.0,219.0,-284.0,-1271.0,52.0,-172.0,0.0,0.0,0.0
19:32:32.156000,101.0,207.0,-303.0,-1271.0,52.0,-172.0,0.0,0.0,0.0
19:32:32.161000,102.0,197.0,-353.0,-1328.0,95.0,-193.0,0.0,0.0,0.0
19:32:32.166000,95.0,189.0,-389.0,-1328.0,95.0,-193.0,0.0,0.0,0.0
19:32:32.170000,80.0,185.0,-394.0,-1290.0,115.0,-201.0,0.0,0.0,0.0
19:32:32.175000,74.0,184.0,-357.0,-1290.0,115.0,-201.0,0.0,0.0,0.0
19:32:32.180000,66.0,183.0,-303.0,-1270.0,139.0,-207.0,0.0,0.0,0.0
19:32:32.185000,50.0,187.0,-282.0,-1270.0,139.0,-207.0,0.0,0.0,0.0
19:32:32.189000,46.0,186.0,-289.0,-1270.0,139.0,-207.0,0.0,0.0,0.0
19:32:32.194000,35.0,187.0,-281.0,-1291.0,168.0,-207.0,0.0,0.0,0.0
19:32:32.199000,30.0,189.0,-259.0,-1291.0,168.0,-207.0,0.0,0.0,0.0
19:32:32.203000,32.0,193.0,-225.0,-1269.0,173.0,-189.0,0.0,0.0,0.0
19:32:32.208000,34.0,207.0,-209.0,-1269.0,173.0,-189.0,0.0,0.0,0.0
19:32:32.213000,63.0,213.0,-225.0,-1210.0,154.0,-164.0,0.0,0.0,0.0
19:32:32.217000,88.0,217.0,-234.0,-1210.0,154.0,-164.0,0.0,0.0,0.0
19:32:32.222000,82.0,219.0,-233.0,-1200.0,159.0,-138.0,0.0,0.0,0.0
19:32:32.227000,70.0,228.0,-273.0,-1200.0,159.0,-138.0,0.0,0.0,0.0
19:32:32.232000,70.0,228.0,-273.0,-1248.0,154.0,-113.0,0.0,0.0,0.0
19:32:32.236000,46.0,229.0,-365.0,-1248.0,154.0,-113.0,0.0,0.0,0.0
19:32:32.241000,42.0,222.0,-402.0,-1254.0,153.0,-106.0,0.0,0.0,0.0
19:32:32.246000,42.0,218.0,-370.0,-1254.0,153.0,-106.0,0.0,0.0,0.0
19:32:32.250000,39.0,211.0,-321.0,-1188.0,186.0,-119.0,0.0,0.0,0.0
19:32:32.255000,24.0,198.0,-291.0,-1188.0,186.0,-119.0,0.0,0.0,0.0
19:32:32.260000,-9.0,191.0,-281.0,-1173.0,261.0,-137.0,0.0,0.0,0.0
19:32:32.264000,-22.0,177.0,-277.0,-1173.0,261.0,-137.0,0.0,0.0,0.0
19:32:32.269000,-30.0,170.0,-268.0,-1198.0,304.0,-154.0,0.0,0.0,0.0
19:32:32.274000,-46.0,166.0,-262.0,-1198.0,304.0,-154.0,0.0,0.0,0.0
19:32:32.279000,-54.0,157.0,-270.0,-1212.0,278.0,-164.0,0.0,0.0,0.0
19:32:32.283000,-59.0,156.0,-259.0,-1212.0,278.0,-164.0,0.0,0.0,0.0
19:32:32.288000,-43.0,149.0,-221.0,-1185.0,246.0,-168.0,0.0,0.0,0.0
19:32:32.293000,-49.0,146.0,-160.0,-1185.0,246.0,-168.0,0.0,0.0,0.0
19:32:32.297000,-51.0,138.0,-124.0,-1185.0,246.0,-168.0,0.0,0.0,0.0
19:32:32.302000,-60.0,130.0,-133.0,-1154.0,197.0,-170.0,0.0,0.0,0.0
19:32:32.307000,-76.0,128.0,-86.0,-1154.0,197.0,-170.0,0.0,0.0,0.0
19:32:32.311000,-98.0,135.0,-7.0,-1141.0,141.0,-173.0,0.0,0.0,0.0
19:32:32.316000,-103.0,133.0,-18.0,-1141.0,141.0,-173.0,0.0,0.0,0.0
19:32:32.321000,-88.0,133.0,-119.0,-1154.0,118.0,-177.0,0.0,0.0,0.0
19:32:32.325000,-88.0,133.0,-119.0,-1154.0,118.0,-177.0,0.0,0.0,0.0
19:32:32.330000,-66.0,131.0,-277.0,-1170.0,105.0,-185.0,0.0,0.0,0.0
19:32:32.335000,-54.0,128.0,-319.0,-1170.0,105.0,-185.0,0.0,0.0,0.0
19:32:32.340000,-54.0,128.0,-319.0,-1098.0,94.0,-188.0,0.0,0.0,0.0
19:32:32.344000,-41.0,126.0,-357.0,-1098.0,94.0,-188.0,0.0,0.0,0.0
19:32:32.349000,-35.0,125.0,-345.0,-1039.0,110.0,-189.0,0.0,0.0,0.0
19:32:32.354000,-43.0,119.0,-291.0,-1039.0,110.0,-189.0,0.0,0.0,0.0
19:32:32.358000,-46.0,114.0,-258.0,-1065.0,121.0,-195.0,0.0,0.0,0.0
19:32:32.363000,-37.0,106.0,-275.0,-1065.0,121.0,-195.0,0.0,0.0,0.0
19:32:32.368000,-18.0,97.0,-297.0,-1105.0,105.0,-205.0,0.0,0.0,0.0
19:32:32.373000,0.0,88.0,-273.0,-1105.0,105.0,-205.0,0.0,0.0,0.0
19:32:32.377000,4.0,81.0,-237.0,-1108.0,92.0,-212.0,0.0,0.0,0.0
19:32:32.382000,8.0,75.0,-250.0,-1108.0,92.0,-212.0,0.0,0.0,0.0
19:32:32.387000,13.0,69.0,-278.0,-1107.0,146.0,-215.0,0.0,0.0,0.0
19:32:32.391000,9.0,63.0,-288.0,-1107.0,146.0,-215.0,0.0,0.0,0.0
19:32:32.396000,1.0,56.0,-298.0,-1076.0,209.0,-211.0,0.0,0.0,0.0
19:32:32.401000,-16.0,53.0,-301.0,-1076.0,209.0,-211.0,0.0,0.0,0.0
19:32:32.405000,-39.0,49.0,-287.0,-1076.0,209.0,-211.0,0.0,0.0,0.0
19:32:32.410000,-44.0,46.0,-268.0,-1023.0,211.0,-209.0,0.0,0.0,0.0
19:32:32.415000,-39.0,39.0,-247.0,-1023.0,211.0,-209.0,0.0,0.0,0.0
19:32:32.420000,-40.0,40.0,-238.0,-1034.0,194.0,-215.0,0.0,0.0,0.0
19:32:32.424000,-41.0,46.0,-261.0,-1034.0,194.0,-215.0,0.0,0.0,0.0
19:32:32.429000,-50.0,53.0,-315.0,-1115.0,223.0,-222.0,0.0,0.0,0.0
19:32:32.434000,-67.0,65.0,-344.0,-1115.0,223.0,-222.0,0.0,0.0,0.0
19:32:32.438000,-77.0,74.0,-333.0,-1180.0,254.0,-227.0,0.0,0.0,0.0
19:32:32.443000,-75.0,82.0,-305.0,-1180.0,254.0,-227.0,0.0,0.0,0.0
19:32:32.448000,-75.0,82.0,-305.0,-1194.0,250.0,-235.0,0.0,0.0,0.0
19:32:32.452000,-65.0,102.0,-261.0,-1194.0,250.0,-235.0,0.0,0.0,0.0
19:32:32.457000,-60.0,125.0,-209.0,-1202.0,231.0,-248.0,0.0,0.0,0.0
19:32:32.462000,-54.0,151.0,-164.0,-1202.0,231.0,-248.0,0.0,0.0,0.0
19:32:32.467000,-48.0,173.0,-130.0,-1246.0,205.0,-257.0,0.0,0.0,0.0
19:32:32.471000,-30.0,193.0,-140.0,-1246.0,205.0,-257.0,0.0,0.0,0.0
19:32:32.476000,4.0,210.0,-209.0,-1322.0,185.0,-272.0,0.0,0.0,0.0
19:32:32.481000,38.0,221.0,-288.0,-1322.0,185.0,-272.0,0.0,0.0,0.0
19:32:32.485000,75.0,234.0,-336.0,-1327.0,164.0,-290.0,0.0,0.0,0.0
19:32:32.490000,119.0,238.0,-360.0,-1327.0,164.0,-290.0,0.0,0.0,0.0
19:32:32.495000,153.0,243.0,-375.0,-1228.0,163.0,-303.0,0.0,0.0,0.0
19:32:32.499000,182.0,247.0,-378.0,-1228.0,163.0,-303.0,0.0,0.0,0.0
19:32:32.504000,219.0,236.0,-371.0,-1079.0,252.0,-317.0,0.0,0.0,0.0
19:32:32.509000,245.0,217.0,-357.0,-1079.0,252.0,-317.0,0.0,0.0,0.0
19:32:32.514000,239.0,194.0,-324.0,-1079.0,252.0,-317.0,0.0,0.0,0.0
19:32:32.518000,211.0,177.0,-282.0,-954.0,442.0,-327.0,0.0,0.0,0.0
19:32:32.523000,172.0,163.0,-279.0,-954.0,442.0,-327.0,0.0,0.0,0.0
19:32:32.528000,120.0,154.0,-319.0,-916.0,665.0,-321.0,0.0,0.0,0.0
19:32:32.532000,65.0,144.0,-359.0,-916.0,665.0,-321.0,0.0,0.0,0.0
19:32:32.537000,31.0,128.0,-336.0,-927.0,742.0,-305.0,0.0,0.0,0.0
19:32:32.542000,23.0,105.0,-259.0,-927.0,742.0,-305.0,0.0,0.0,0.0
19:32:32.546000,22.0,83.0,-202.0,-931.0,616.0,-295.0,0.0,0.0,0.0
19:32:32.551000,4.0,60.0,-163.0,-931.0,616.0,-295.0,0.0,0.0,0.0
19:32:32.556000,-28.0,29.0,-137.0,-939.0,489.0,-280.0,0.0,0.0,0.0
19:32:32.561000,-28.0,29.0,-137.0,-939.0,489.0,-280.0,0.0,0.0,0.0
19:32:32.565000,-46.0,2.0,-150.0,-932.0,494.0,-260.0,0.0,0.0,0.0
19:32:32.570000,-31.0,-18.0,-203.0,-932.0,494.0,-260.0,0.0,0.0,0.0
19:32:32.575000,-22.0,-11.0,-283.0,-894.0,560.0,-255.0,0.0,0.0,0.0
19:32:32.579000,-23.0,-4.0,-350.0,-894.0,560.0,-255.0,0.0,0.0,0.0
19:32:32.584000,-53.0,11.0,-374.0,-888.0,536.0,-248.0,0.0,0.0,0.0
19:32:32.589000,-46.0,23.0,-378.0,-888.0,536.0,-248.0,0.0,0.0,0.0
19:32:32.593000,-15.0,36.0,-408.0,-957.0,386.0,-244.0,0.0,0.0,0.0
19:32:32.598000,61.0,39.0,-456.0,-957.0,386.0,-244.0,0.0,0.0,0.0
19:32:32.603000,155.0,25.0,-469.0,-940.0,251.0,-247.0,0.0,0.0,0.0
19:32:32.608000,243.0,20.0,-450.0,-940.0,251.0,-247.0,0.0,0.0,0.0
19:32:32.612000,371.0,-4.0,-473.0,-792.0,264.0,-239.0,0.0,0.0,0.0
19:32:32.617000,474.0,-42.0,-506.0,-792.0,264.0,-239.0,0.0,0.0,0.0
19:32:32.622000,485.0,-74.0,-530.0,-686.0,340.0,-205.0,0.0,0.0,0.0
19:32:32.626000,458.0,-109.0,-436.0,-686.0,340.0,-205.0,0.0,0.0,0.0
19:32:32.631000,476.0,-153.0,-287.0,-686.0,340.0,-205.0,0.0,0.0,0.0
19:32:32.636000,464.0,-191.0,-201.0,-676.0,427.0,-163.0,0.0,0.0,0.0
19:32:32.640000,427.0,-221.0,-200.0,-676.0,427.0,-163.0,0.0,0.0,0.0
19:32:32.645000,417.0,-232.0,-253.0,-680.0,561.0,-125.0,0.0,0.0,0.0
19:32:32.650000,378.0,-231.0,-255.0,-680.0,561.0,-125.0,0.0,0.0,0.0
19:32:32.655000,296.0,-224.0,-214.0,-560.0,716.0,-86.0,0.0,0.0,0.0
19:32:32.659000,168.0,-203.0,-179.0,-560.0,716.0,-86.0,0.0,0.0,0.0
19:32:32.664000,15.0,-165.0,-184.0,-445.0,876.0,-50.0,0.0,0.0,0.0
19:32:32.669000,15.0,-165.0,-184.0,-445.0,876.0,-50.0,0.0,0.0,0.0
19:32:32.673000,-135.0,-119.0,-193.0,-472.0,947.0,-24.0,0.0,0.0,0.0
19:32:32.678000,-221.0,-93.0,-253.0,-472.0,947.0,-24.0,0.0,0.0,0.0
19:32:32.683000,-277.0,-51.0,-319.0,-530.0,799.0,-39.0,0.0,0.0,0.0
19:32:32.687000,-330.0,-25.0,-291.0,-530.0,799.0,-39.0,0.0,0.0,0.0
19:32:32.692000,-324.0,-7.0,-235.0,-534.0,470.0,-92.0,0.0,0.0,0.0
19:32:32.697000,-305.0,14.0,-217.0,-534.0,470.0,-92.0,0.0,0.0,0.0
19:32:32.702000,-254.0,28.0,-213.0,-503.0,222.0,-160.0,0.0,0.0,0.0
19:32:32.706000,-178.0,32.0,-160.0,-503.0,222.0,-160.0,0.0,0.0,0.0
19:32:32.711000,-122.0,34.0,-79.0,-486.0,162.0,-199.0,0.0,0.0,0.0
19:32:32.716000,-81.0,32.0,-16.0,-486.0,162.0,-199.0,0.0,0.0,0.0
19:32:32.720000,-49.0,28.0,3.0,-516.0,257.0,-207.0,0.0,0.0,0.0
19:32:32.725000,-32.0,17.0,-43.0,-516.0,257.0,-207.0,0.0,0.0,0.0
19:32:32.730000,-53.0,15.0,-87.0,-516.0,257.0,-207.0,0.0,0.0,0.0
19:32:32.734000,-88.0,16.0,-105.0,-549.0,468.0,-194.0,0.0,0.0,0.0
19:32:32.739000,-131.0,15.0,-85.0,-559.0,564.0,-163.0,0.0,0.0,0.0
19:32:32.744000,-170.0,19.0,-58.0,-559.0,564.0,-163.0,0.0,0.0,0.0
19:32:32.749000,-187.0,30.0,-43.0,-559.0,564.0,-163.0,0.0,0.0,0.0
19:32:32.753000,-194.0,32.0,-26.0,-591.0,475.0,-147.0,0.0,0.0,0.0
19:32:32.758000,-188.0,33.0,-28.0,-591.0,475.0,-147.0,0.0,0.0,0.0
19:32:32.763000,-172.0,29.0,-26.0,-648.0,348.0,-141.0,0.0,0.0,0.0
19:32:32.767000,-147.0,23.0,-12.0,-648.0,348.0,-141.0,0.0,0.0,0.0
19:32:32.772000,-123.0,16.0,3.0,-683.0,251.0,-127.0,0.0,0.0,0.0
19:32:32.777000,-123.0,16.0,3.0,-683.0,251.0,-127.0,0.0,0.0,0.0
19:32:32.781000,-95.0,9.0,16.0,-687.0,199.0,-114.0,0.0,0.0,0.0
19:32:32.786000,-68.0,0.0,4.0,-687.0,199.0,-114.0,0.0,0.0,0.0
19:32:32.791000,-48.0,-11.0,-35.0,-682.0,237.0,-109.0,0.0,0.0,0.0
19:32:32.796000,-46.0,-25.0,-64.0,-682.0,237.0,-109.0,0.0,0.0,0.0
19:32:32.800000,-58.0,-40.0,-78.0,-691.0,342.0,-100.0,0.0,0.0,0.0
19:32:32.805000,-92.0,-53.0,-82.0,-691.0,342.0,-100.0,0.0,0.0,0.0
19:32:32.810000,-134.0,-58.0,-62.0,-731.0,365.0,-78.0,0.0,0.0,0.0
19:32:32.814000,-165.0,-63.0,-42.0,-731.0,365.0,-78.0,0.0,0.0,0.0
19:32:32.819000,-186.0,-61.0,-35.0,-773.0,246.0,-65.0,0.0,0.0,0.0
19:32:32.824000,-198.0,-54.0,-36.0,-773.0,246.0,-65.0,0.0,0.0,0.0
19:32:32.828000,-196.0,-46.0,-30.0,-798.0,92.0,-69.0,0.0,0.0,0.0
19:32:32.833000,-186.0,-37.0,-5.0,-798.0,92.0,-69.0,0.0,0.0,0.0
19:32:32.838000,-167.0,-30.0,13.0,-807.0,-10.0,-89.0,0.0,0.0,0.0
19:32:32.843000,-138.0,-18.0,19.0,-807.0,-10.0,-89.0,0.0,0.0,0.0
19:32:32.847000,-112.0,-14.0,11.0,-807.0,-10.0,-89.0,0.0,0.0,0.0
19:32:32.852000,-87.0,-20.0,24.0,-801.0,-33.0,-111.0,0.0,0.0,0.0
19:32:32.857000,-68.0,-32.0,44.0,-801.0,-33.0,-111.0,0.0,0.0,0.0
19:32:32.861000,-46.0,-54.0,41.0,-734.0,-26.0,-110.0,0.0,0.0,0.0
19:32:32.866000,-32.0,-77.0,20.0,-734.0,-26.0,-110.0,0.0,0.0,0.0
19:32:32.871000,-39.0,-99.0,1.0,-633.0,-6.0,-84.0,0.0,0.0,0.0
19:32:32.875000,-66.0,-118.0,-15.0,-633.0,-6.0,-84.0,0.0,0.0,0.0
19:32:32.880000,-110.0,-133.0,-19.0,-593.0,69.0,-39.0,0.0,0.0,0.0
19:32:32.885000,-149.0,-136.0,-30.0,-593.0,69.0,-39.0,0.0,0.0,0.0
19:32:32.890000,-149.0,-136.0,-30.0,-648.0,98.0,-4.0,0.0,0.0,0.0
19:32:32.894000,-170.0,-134.0,-60.0,-648.0,98.0,-4.0,0.0,0.0,0.0
19:32:32.899000,-173.0,-120.0,-80.0,-759.0,13.0,-7.0,0.0,0.0,0.0
19:32:32.904000,-158.0,-102.0,-102.0,-759.0,13.0,-7.0,0.0,0.0,0.0
19:32:32.908000,-133.0,-83.0,-119.0,-853.0,-89.0,-32.0,0.0,0.0,0.0
19:32:32.913000,-108.0,-58.0,-116.0,-853.0,-89.0,-32.0,0.0,0.0,0.0
19:32:32.918000,-81.0,-32.0,-109.0,-866.0,-123.0,-63.0,0.0,0.0,0.0
19:32:32.922000,-55.0,-6.0,-102.0,-866.0,-123.0,-63.0,0.0,0.0,0.0
19:32:32.927000,-31.0,13.0,-100.0,-802.0,-80.0,-97.0,0.0,0.0,0.0
19:32:32.932000,-7.0,27.0,-103.0,-802.0,-80.0,-97.0,0.0,0.0,0.0
19:32:32.937000,18.0,31.0,-102.0,-716.0,0.0,-134.0,0.0,0.0,0.0
19:32:32.941000,37.0,25.0,-85.0,-716.0,0.0,-134.0,0.0,0.0,0.0
19:32:32.946000,50.0,6.0,-56.0,-655.0,82.0,-171.0,0.0,0.0,0.0
19:32:32.951000,56.0,-28.0,-23.0,-655.0,82.0,-171.0,0.0,0.0,0.0
19:32:32.955000,51.0,-73.0,15.0,-655.0,82.0,-171.0,0.0,0.0,0.0
19:32:32.960000,40.0,-126.0,68.0,-633.0,156.0,-185.0,0.0,0.0,0.0
19:32:32.965000,26.0,-180.0,134.0,-633.0,156.0,-185.0,0.0,0.0,0.0
19:32:32.969000,11.0,-234.0,197.0,-614.0,184.0,-174.0,0.0,0.0,0.0
19:32:32.974000,-1.0,-284.0,263.0,-614.0,184.0,-174.0,0.0,0.0,0.0
19:32:32.979000,-3.0,-326.0,309.0,-607.0,160.0,-157.0,0.0,0.0,0.0
19:32:32.984000,-6.0,-361.0,350.0,-607.0,160.0,-157.0,0.0,0.0,0.0
19:32:32.988000,-3.0,-389.0,392.0,-655.0,128.0,-147.0,0.0,0.0,0.0
19:32:32.993000,6.0,-413.0,441.0,-655.0,128.0,-147.0,0.0,0.0,0.0
19:32:32.998000,6.0,-413.0,441.0,-726.0,89.0,-142.0,0.0,0.0,0.0
19:32:33.002000,19.0,-433.0,508.0,-726.0,89.0,-142.0,0.0,0.0,0.0
19:32:33.007000,21.0,-444.0,569.0,-783.0,84.0,-127.0,0.0,0.0,0.0
19:32:33.012000,7.0,-451.0,621.0,-783.0,84.0,-127.0,0.0,0.0,0.0
19:32:33.016000,-20.0,-456.0,681.0,-808.0,134.0,-79.0,0.0,0.0,0.0
19:32:33.021000,-61.0,-459.0,739.0,-808.0,134.0,-79.0,0.0,0.0,0.0
19:32:33.026000,-110.0,-464.0,790.0,-775.0,177.0,-11.0,0.0,0.0,0.0
19:32:33.031000,-156.0,-465.0,828.0,-775.0,177.0,-11.0,0.0,0.0,0.0
19:32:33.035000,-196.0,-464.0,854.0,-722.0,165.0,46.0,0.0,0.0,0.0
19:32:33.040000,-223.0,-455.0,881.0,-722.0,165.0,46.0,0.0,0.0,0.0
19:32:33.045000,-238.0,-441.0,910.0,-714.0,95.0,79.0,0.0,0.0,0.0
19:32:33.049000,-242.0,-419.0,934.0,-714.0,95.0,79.0,0.0,0.0,0.0
19:32:33.054000,-237.0,-393.0,957.0,-759.0,38.0,66.0,0.0,0.0,0.0
19:32:33.059000,-226.0,-367.0,981.0,-759.0,38.0,66.0,0.0,0.0,0.0
19:32:33.063000,-207.0,-341.0,1008.0,-759.0,38.0,66.0,0.0,0.0,0.0
19:32:33.068000,-185.0,-312.0,1052.0,-813.0,0.0,8.0,0.0,0.0,0.0
19:32:33.073000,-163.0,-294.0,1117.0,-813.0,0.0,8.0,0.0,0.0,0.0
19:32:33.078000,-150.0,-284.0,1186.0,-840.0,-39.0,-63.0,0.0,0.0,0.0
19:32:33.082000,-148.0,-282.0,1255.0,-840.0,-39.0,-63.0,0.0,0.0,0.0
19:32:33.087000,-155.0,-294.0,1334.0,-803.0,-33.0,-118.0,0.0,0.0,0.0
19:32:33.092000,-167.0,-321.0,1404.0,-803.0,-33.0,-118.0,0.0,0.0,0.0
19:32:33.096000,-180.0,-357.0,1464.0,-669.0,-22.0,-139.0,0.0,0.0,0.0
19:32:33.101000,-198.0,-396.0,1508.0,-669.0,-22.0,-139.0,0.0,0.0,0.0
19:32:33.106000,-198.0,-396.0,1508.0,-527.0,-42.0,-133.0,0.0,0.0,0.0
19:32:33.110000,-208.0,-438.0,1509.0,-527.0,-42.0,-133.0,0.0,0.0,0.0
19:32:33.115000,-221.0,-480.0,1479.0,-480.0,-47.0,-115.0,0.0,0.0,0.0
19:32:33.120000,-231.0,-518.0,1444.0,-480.0,-47.0,-115.0,0.0,0.0,0.0
19:32:33.125000,-226.0,-542.0,1393.0,-498.0,-65.0,-90.0,0.0,0.0,0.0
19:32:33.129000,-206.0,-555.0,1329.0,-498.0,-65.0,-90.0,0.0,0.0,0.0
19:32:33.134000,-172.0,-553.0,1258.0,-544.0,-100.0,-63.0,0.0,0.0,0.0
19:32:33.139000,-130.0,-532.0,1194.0,-544.0,-100.0,-63.0,0.0,0.0,0.0
19:32:33.143000,-86.0,-499.0,1133.0,-658.0,-91.0,-41.0,0.0,0.0,0.0
19:32:33.148000,-40.0,-458.0,1076.0,-658.0,-91.0,-41.0,0.0,0.0,0.0
19:32:33.153000,2.0,-401.0,1029.0,-802.0,-55.0,-14.0,0.0,0.0,0.0
19:32:33.157000,32.0,-331.0,1001.0,-802.0,-55.0,-14.0,0.0,0.0,0.0
19:32:33.162000,56.0,-259.0,980.0,-908.0,-18.0,4.0,0.0,0.0,0.0
19:32:33.167000,77.0,-192.0,947.0,-908.0,-18.0,4.0,0.0,0.0,0.0
19:32:33.172000,87.0,-137.0,896.0,-908.0,-18.0,4.0,0.0,0.0,0.0
19:32:33.176000,87.0,-97.0,830.0,-972.0,51.0,2.0,0.0,0.0,0.0
19:32:33.181000,81.0,-67.0,765.0,-972.0,51.0,2.0,0.0,0.0,0.0
19:32:33.186000,70.0,-47.0,712.0,-953.0,130.0,-14.0,0.0,0.0,0.0
19:32:33.190000,58.0,-43.0,673.0,-953.0,130.0,-14.0,0.0,0.0,0.0
19:32:33.195000,39.0,-49.0,641.0,-848.0,165.0,-33.0,0.0,0.0,0.0
19:32:33.200000,15.0,-59.0,614.0,-848.0,165.0,-33.0,0.0,0.0,0.0
19:32:33.204000,-11.0,-68.0,601.0,-757.0,178.0,-41.0,0.0,0.0,0.0
19:32:33.209000,-37.0,-77.0,597.0,-757.0,178.0,-41.0,0.0,0.0,0.0
19:32:33.214000,-45.0,-88.0,588.0,-735.0,135.0,-49.0,0.0,0.0,0.0
19:32:33.219000,-45.0,-88.0,588.0,-735.0,135.0,-49.0,0.0,0.0,0.0
19:32:33.223000,-52.0,-91.0,573.0,-761.0,19.0,-58.0,0.0,0.0,0.0
19:32:33.228000,-65.0,-88.0,559.0,-761.0,19.0,-58.0,0.0,0.0,0.0
19:32:33.233000,-74.0,-81.0,561.0,-815.0,-78.0,-50.0,0.0,0.0,0.0
19:32:33.237000,-67.0,-72.0,569.0,-815.0,-78.0,-50.0,0.0,0.0,0.0
19:32:33.242000,-48.0,-63.0,538.0,-903.0,-138.0,-27.0,0.0,0.0,0.0
19:32:33.247000,-35.0,-51.0,474.0,-903.0,-138.0,-27.0,0.0,0.0,0.0
19:32:33.251000,-12.0,-63.0,411.0,-948.0,-185.0,-1.0,0.0,0.0,0.0
19:32:33.256000,1.0,-63.0,401.0,-948.0,-185.0,-1.0,0.0,0.0,0.0
19:32:33.261000,20.0,-47.0,417.0,-889.0,-208.0,17.0,0.0,0.0,0.0
19:32:33.266000,35.0,-65.0,389.0,-889.0,-208.0,17.0,0.0,0.0,0.0
19:32:33.270000,7.0,-72.0,354.0,-863.0,-107.0,39.0,0.0,0.0,0.0
19:32:33.275000,-64.0,-74.0,368.0,-863.0,-107.0,39.0,0.0,0.0,0.0
19:32:33.280000,-138.0,-107.0,387.0,-863.0,-107.0,39.0,0.0,0.0,0.0
19:32:33.284000,-143.0,-100.0,379.0,-1008.0,45.0,52.0,0.0,0.0,0.0
19:32:33.288000,-183.0,-67.0,308.0,-851.0,94.0,25.0,0.0,0.0,0.0
19:32:33.294000,-207.0,-65.0,215.0,-851.0,94.0,25.0,0.0,0.0,0.0
19:32:33.298000,-233.0,-105.0,158.0,-851.0,94.0,25.0,0.0,0.0,0.0
19:32:33.303000,-315.0,-106.0,340.0,-586.0,49.0,21.0,0.0,0.0,0.0
19:32:33.308000,-361.0,-117.0,551.0,-586.0,49.0,21.0,0.0,0.0,0.0
19:32:33.313000,-352.0,-123.0,646.0,-649.0,-120.0,29.0,0.0,0.0,0.0
19:32:33.317000,-297.0,-135.0,681.0,-649.0,-120.0,29.0,0.0,0.0,0.0
19:32:33.322000,-231.0,-149.0,675.0,-782.0,-292.0,-3.0,0.0,0.0,0.0
19:32:33.327000,-231.0,-149.0,675.0,-782.0,-292.0,-3.0,0.0,0.0,0.0
19:32:33.331000,-165.0,-151.0,627.0,-811.0,-334.0,-18.0,0.0,0.0,0.0
19:32:33.336000,-144.0,-134.0,639.0,-811.0,-334.0,-18.0,0.0,0.0,0.0
19:32:33.341000,-112.0,-137.0,676.0,-645.0,-323.0,-13.0,0.0,0.0,0.0
19:32:33.345000,-87.0,-128.0,691.0,-645.0,-323.0,-13.0,0.0,0.0,0.0
19:32:33.350000,-61.0,-109.0,607.0,-578.0,-318.0,-13.0,0.0,0.0,0.0
19:32:33.355000,-20.0,-106.0,480.0,-578.0,-318.0,-13.0,0.0,0.0,0.0
19:32:33.360000,28.0,-105.0,403.0,-634.0,-315.0,-31.0,0.0,0.0,0.0
19:32:33.364000,77.0,-95.0,298.0,-634.0,-315.0,-31.0,0.0,0.0,0.0
19:32:33.369000,109.0,-95.0,226.0,-664.0,-247.0,-64.0,0.0,0.0,0.0
19:32:33.374000,117.0,-95.0,182.0,-664.0,-247.0,-64.0,0.0,0.0,0.0
19:32:33.378000,104.0,-90.0,153.0,-754.0,-92.0,-101.0,0.0,0.0,0.0
19:32:33.383000,96.0,-95.0,199.0,-754.0,-92.0,-101.0,0.0,0.0,0.0
19:32:33.388000,88.0,-105.0,284.0,-754.0,-92.0,-101.0,0.0,0.0,0.0
19:32:33.392000,88.0,-123.0,347.0,-877.0,66.0,-131.0,0.0,0.0,0.0
19:32:33.397000,58.0,-130.0,443.0,-877.0,66.0,-131.0,0.0,0.0,0.0
19:32:33.402000,26.0,-136.0,560.0,-1008.0,166.0,-131.0,0.0,0.0,0.0
19:32:33.407000,-11.0,-144.0,585.0,-1008.0,166.0,-131.0,0.0,0.0,0.0
19:32:33.411000,-21.0,-152.0,558.0,-1148.0,192.0,-119.0,0.0,0.0,0.0
19:32:33.416000,-37.0,-160.0,509.0,-1148.0,192.0,-119.0,0.0,0.0,0.0
19:32:33.421000,-44.0,-162.0,426.0,-1240.0,128.0,-130.0,0.0,0.0,0.0
19:32:33.425000,-46.0,-144.0,236.0,-1240.0,128.0,-130.0,0.0,0.0,0.0
19:32:33.430000,-58.0,-116.0,-9.0,-1286.0,99.0,-165.0,0.0,0.0,0.0
19:32:33.435000,-58.0,-116.0,-9.0,-1286.0,99.0,-165.0,0.0,0.0,0.0
19:32:33.439000,-43.0,-104.0,-156.0,-1318.0,164.0,-190.0,0.0,0.0,0.0
19:32:33.444000,-6.0,-98.0,-219.0,-1318.0,164.0,-190.0,0.0,0.0,0.0
19:32:33.449000,26.0,-96.0,-256.0,-1366.0,164.0,-156.0,0.0,0.0,0.0
19:32:33.454000,49.0,-72.0,-257.0,-1366.0,164.0,-156.0,0.0,0.0,0.0
19:32:33.458000,74.0,-70.0,-238.0,-1374.0,-44.0,-90.0,0.0,0.0,0.0
19:32:33.463000,86.0,-12.0,-227.0,-1374.0,-44.0,-90.0,0.0,0.0,0.0
19:32:33.468000,114.0,56.0,-182.0,-1224.0,-370.0,-80.0,0.0,0.0,0.0
19:32:33.472000,298.0,92.0,-210.0,-1224.0,-370.0,-80.0,0.0,0.0,0.0
19:32:33.477000,361.0,144.0,-304.0,-1176.0,-391.0,-104.0,0.0,0.0,0.0
19:32:33.482000,425.0,175.0,-452.0,-1176.0,-391.0,-104.0,0.0,0.0,0.0
19:32:33.486000,439.0,213.0,-632.0,-1345.0,-52.0,-111.0,0.0,0.0,0.0
19:32:33.491000,459.0,240.0,-735.0,-1345.0,-52.0,-111.0,0.0,0.0,0.0
19:32:33.496000,378.0,287.0,-851.0,-1345.0,265.0,-88.0,0.0,0.0,0.0
19:32:33.501000,322.0,291.0,-968.0,-1530.0,265.0,-88.0,0.0,0.0,0.0
