hh:mm:ss.ms,gyroX[mdps],gyroY[mdps],gyroZ[mdps],accX[mg],accY[mg],accZ[mg],magX[mG],magY[mG],magZ[mG]
19:33:04.410000,-6.0,147.0,-153.0,-1254.0,404.0,-215.0,0.0,0.0,0.0
19:33:04.415000,21.0,135.0,-126.0,-1191.0,346.0,-210.0,0.0,0.0,0.0
19:33:04.420000,70.0,104.0,-77.0,-1191.0,346.0,-210.0,0.0,0.0,0.0
19:33:04.425000,113.0,88.0,-25.0,-1135.0,225.0,-201.0,0.0,0.0,0.0
19:33:04.429000,153.0,65.0,-67.0,-1135.0,225.0,-201.0,0.0,0.0,0.0
19:33:04.434000,153.0,65.0,-67.0,-1170.0,203.0,-198.0,0.0,0.0,0.0
19:33:04.439000,179.0,58.0,-179.0,-1170.0,203.0,-198.0,0.0,0.0,0.0
19:33:04.443000,191.0,58.0,-156.0,-1207.0,364.0,-207.0,0.0,0.0,0.0
19:33:04.448000,173.0,62.0,-119.0,-1207.0,364.0,-207.0,0.0,0.0,0.0
19:33:04.453000,140.0,72.0,-158.0,-1210.0,546.0,-216.0,0.0,0.0,0.0
19:33:04.457000,95.0,79.0,-212.0,-1210.0,546.0,-216.0,0.0,0.0,0.0
19:33:04.462000,88.0,86.0,-220.0,-1217.0,554.0,-223.0,0.0,0.0,0.0
19:33:04.467000,64.0,91.0,-221.0,-1217.0,554.0,-223.0,0.0,0.0,0.0
19:33:04.472000,59.0,121.0,-231.0,-1170.0,489.0,-228.0,0.0,0.0,0.0
19:33:04.476000,66.0,129.0,-225.0,-1170.0,489.0,-228.0,0.0,0.0,0.0
19:33:04.481000,80.0,133.0,-214.0,-1061.0,467.0,-221.0,0.0,0.0,0.0
19:33:04.486000,103.0,144.0,-203.0,-1061.0,467.0,-221.0,0.0,0.0,0.0
19:33:04.490000,119.0,145.0,-200.0,-976.0,471.0,-207.0,0.0,0.0,0.0
19:33:04.495000,152.0,142.0,-204.0,-976.0,471.0,-207.0,0.0,0.0,0.0
19:33:04.500000,170.0,139.0,-188.0,-976.0,471.0,-207.0,0.0,0.0,0.0
19:33:04.504000,187.0,132.0,-148.0,-957.0,458.0,-183.0,0.0,0.0,0.0
19:33:04.509000,211.0,121.0,-121.0,-957.0,458.0,-183.0,0.0,0.0,0.0
19:33:04.514000,241.0,108.0,-110.0,-869.0,413.0,-145.0,0.0,0.0,0.0
19:33:04.519000,251.0,100.0,-161.0,-869.0,413.0,-145.0,0.0,0.0,0.0
19:33:04.523000,245.0,95.0,-207.0,-745.0,494.0,-106.0,0.0,0.0,0.0
19:33:04.528000,228.0,93.0,-231.0,-745.0,494.0,-106.0,0.0,0.0,0.0
19:33:04.533000,190.0,94.0,-241.0,-685.0,684.0,-85.0,0.0,0.0,0.0
19:33:04.537000,142.0,91.0,-238.0,-685.0,684.0,-85.0,0.0,0.0,0.0
19:33:04.542000,142.0,91.0,-238.0,-769.0,854.0,-90.0,0.0,0.0,0.0
19:33:04.547000,75.0,93.0,-227.0,-769.0,854.0,-90.0,0.0,0.0,0.0
19:33:04.551000,-9.0,100.0,-186.0,-893.0,907.0,-97.0,0.0,0.0,0.0
19:33:04.556000,-92.0,108.0,-117.0,-893.0,907.0,-97.0,0.0,0.0,0.0
19:33:04.561000,-156.0,112.0,-55.0,-853.0,852.0,-97.0,0.0,0.0,0.0
19:33:04.566000,-208.0,111.0,-25.0,-853.0,852.0,-97.0,0.0,0.0,0.0
19:33:04.570000,-245.0,103.0,-18.0,-724.0,777.0,-98.0,0.0,0.0,0.0
19:33:04.575000,-261.0,91.0,-23.0,-724.0,777.0,-98.0,0.0,0.0,0.0
19:33:04.580000,-256.0,70.0,-15.0,-655.0,674.0,-96.0,0.0,0.0,0.0
19:33:04.584000,-231.0,44.0,15.0,-655.0,674.0,-96.0,0.0,0.0,0.0
19:33:04.589000,-204.0,23.0,53.0,-653.0,546.0,-91.0,0.0,0.0,0.0
19:33:04.594000,-173.0,12.0,84.0,-653.0,546.0,-91.0,0.0,0.0,0.0
19:33:04.598000,-156.0,7.0,95.0,-678.0,523.0,-97.0,0.0,0.0,0.0
19:33:04.603000,-151.0,0.0,89.0,-678.0,523.0,-97.0,0.0,0.0,0.0
19:33:04.608000,-161.0,-7.0,95.0,-678.0,523.0,-97.0,0.0,0.0,0.0
19:33:04.613000,-175.0,-7.0,120.0,-702.0,582.0,-110.0,0.0,0.0,0.0
19:33:04.617000,-177.0,-14.0,148.0,-702.0,582.0,-110.0,0.0,0.0,0.0
19:33:04.622000,-176.0,-18.0,175.0,-706.0,550.0,-115.0,0.0,0.0,0.0
19:33:04.627000,-172.0,-19.0,201.0,-706.0,550.0,-115.0,0.0,0.0,0.0
19:33:04.631000,-160.0,-14.0,189.0,-672.0,453.0,-120.0,0.0,0.0,0.0
19:33:04.636000,-144.0,-7.0,149.0,-672.0,453.0,-120.0,0.0,0.0,0.0
19:33:04.640000,-144.0,-7.0,149.0,-622.0,399.0,-138.0,0.0,0.0,0.0
19:33:04.645000,-136.0,21.0,64.0,-622.0,399.0,-138.0,0.0,0.0,0.0
19:33:04.650000,-140.0,38.0,-1.0,-601.0,406.0,-170.0,0.0,0.0,0.0
19:33:04.655000,-140.0,38.0,-1.0,-601.0,406.0,-170.0,0.0,0.0,0.0
19:33:04.660000,-151.0,56.0,-57.0,-594.0,417.0,-200.0,0.0,0.0,0.0
19:33:04.664000,-152.0,65.0,-114.0,-594.0,417.0,-200.0,0.0,0.0,0.0
19:33:04.669000,-151.0,74.0,-163.0,-538.0,386.0,-225.0,0.0,0.0,0.0
19:33:04.674000,-155.0,82.0,-180.0,-538.0,386.0,-225.0,0.0,0.0,0.0
19:33:04.678000,-154.0,82.0,-201.0,-477.0,382.0,-244.0,0.0,0.0,0.0
19:33:04.683000,-157.0,77.0,-244.0,-477.0,382.0,-244.0,0.0,0.0,0.0
19:33:04.688000,-156.0,62.0,-259.0,-443.0,408.0,-254.0,0.0,0.0,0.0
19:33:04.692000,-145.0,41.0,-249.0,-443.0,408.0,-254.0,0.0,0.0,0.0
19:33:04.697000,-128.0,15.0,-232.0,-408.0,400.0,-250.0,0.0,0.0,0.0
19:33:04.702000,-102.0,-11.0,-210.0,-408.0,400.0,-250.0,0.0,0.0,0.0
19:33:04.707000,-74.0,-38.0,-182.0,-385.0,390.0,-228.0,0.0,0.0,0.0
19:33:04.711000,-49.0,-60.0,-155.0,-385.0,390.0,-228.0,0.0,0.0,0.0
19:33:04.716000,-30.0,-81.0,-137.0,-385.0,390.0,-228.0,0.0,0.0,0.0
19:33:04.721000,-18.0,-98.0,-123.0,-389.0,432.0,-180.0,0.0,0.0,0.0
19:33:04.725000,-14.0,-113.0,-109.0,-389.0,432.0,-180.0,0.0,0.0,0.0
19:33:04.730000,-16.0,-121.0,-98.0,-421.0,492.0,-120.0,0.0,0.0,0.0
19:33:04.735000,-29.0,-120.0,-85.0,-421.0,492.0,-120.0,0.0,0.0,0.0
19:33:04.739000,-49.0,-113.0,-66.0,-473.0,536.0,-63.0,0.0,0.0,0.0
19:33:04.744000,-76.0,-102.0,-35.0,-473.0,536.0,-63.0,0.0,0.0,0.0
19:33:04.749000,-100.0,-90.0,-1.0,-518.0,554.0,-24.0,0.0,0.0,0.0
19:33:04.754000,-119.0,-74.0,33.0,-518.0,554.0,-24.0,0.0,0.0,0.0
19:33:04.758000,-133.0,-59.0,69.0,-536.0,525.0,-7.0,0.0,0.0,0.0
19:33:04.763000,-133.0,-59.0,69.0,-536.0,525.0,-7.0,0.0,0.0,0.0
19:33:04.768000,-140.0,-44.0,93.0,-529.0,472.0,-7.0,0.0,0.0,0.0
19:33:04.772000,-141.0,-29.0,112.0,-529.0,472.0,-7.0,0.0,0.0,0.0
19:33:04.777000,-135.0,-15.0,129.0,-511.0,430.0,-25.0,0.0,0.0,0.0
19:33:04.782000,-133.0,-2.0,147.0,-511.0,430.0,-25.0,0.0,0.0,0.0
19:33:04.786000,-133.0,9.0,156.0,-511.0,420.0,-60.0,0.0,0.0,0.0
19:33:04.791000,-135.0,16.0,168.0,-511.0,420.0,-60.0,0.0,0.0,0.0
19:33:04.796000,-144.0,25.0,186.0,-541.0,421.0,-102.0,0.0,0.0,0.0
19:33:04.801000,-154.0,32.0,217.0,-541.0,421.0,-102.0,0.0,0.0,0.0
19:33:04.805000,-165.0,41.0,262.0,-585.0,363.0,-140.0,0.0,0.0,0.0
19:33:04.810000,-182.0,51.0,322.0,-585.0,363.0,-140.0,0.0,0.0,0.0
19:33:04.815000,-204.0,59.0,383.0,-623.0,237.0,-159.0,0.0,0.0,0.0
19:33:04.819000,-228.0,66.0,427.0,-623.0,237.0,-159.0,0.0,0.0,0.0
19:33:04.824000,-254.0,68.0,441.0,-623.0,237.0,-159.0,0.0,0.0,0.0
19:33:04.829000,-274.0,69.0,422.0,-644.0,87.0,-157.0,0.0,0.0,0.0
19:33:04.833000,-282.0,67.0,368.0,-644.0,87.0,-157.0,0.0,0.0,0.0
19:33:04.838000,-277.0,64.0,278.0,-666.0,-49.0,-152.0,0.0,0.0,0.0
19:33:04.843000,-260.0,58.0,168.0,-666.0,-49.0,-152.0,0.0,0.0,0.0
19:33:04.848000,-227.0,52.0,56.0,-710.0,-152.0,-150.0,0.0,0.0,0.0
19:33:04.852000,-177.0,46.0,-47.0,-710.0,-152.0,-150.0,0.0,0.0,0.0
19:33:04.857000,-114.0,41.0,-140.0,-750.0,-237.0,-150.0,0.0,0.0,0.0
19:33:04.862000,-54.0,36.0,-217.0,-750.0,-237.0,-150.0,0.0,0.0,0.0
19:33:04.866000,-14.0,31.0,-275.0,-788.0,-237.0,-158.0,0.0,0.0,0.0
19:33:04.871000,-14.0,31.0,-275.0,-788.0,-237.0,-158.0,0.0,0.0,0.0
19:33:04.876000,0.0,28.0,-311.0,-828.0,-88.0,-167.0,0.0,0.0,0.0
19:33:04.880000,-7.0,24.0,-319.0,-828.0,-88.0,-167.0,0.0,0.0,0.0
19:33:04.885000,-25.0,21.0,-298.0,-814.0,74.0,-168.0,0.0,0.0,0.0
19:33:04.890000,-45.0,14.0,-266.0,-814.0,74.0,-168.0,0.0,0.0,0.0
19:33:04.895000,-60.0,5.0,-232.0,-754.0,128.0,-160.0,0.0,0.0,0.0
19:33:04.899000,-65.0,-4.0,-198.0,-754.0,128.0,-160.0,0.0,0.0,0.0
19:33:04.904000,-58.0,-15.0,-164.0,-711.0,94.0,-150.0,0.0,0.0,0.0
19:33:04.909000,-45.0,-26.0,-133.0,-711.0,94.0,-150.0,0.0,0.0,0.0
19:33:04.913000,-33.0,-37.0,-104.0,-697.0,55.0,-138.0,0.0,0.0,0.0
19:33:04.918000,-28.0,-48.0,-74.0,-697.0,55.0,-138.0,0.0,0.0,0.0
19:33:04.923000,-28.0,-60.0,-52.0,-675.0,61.0,-123.0,0.0,0.0,0.0
19:33:04.927000,-32.0,-72.0,-49.0,-675.0,61.0,-123.0,0.0,0.0,0.0
19:33:04.932000,-39.0,-86.0,-60.0,-647.0,118.0,-119.0,0.0,0.0,0.0
19:33:04.937000,-49.0,-105.0,-73.0,-647.0,118.0,-119.0,0.0,0.0,0.0
19:33:04.942000,-59.0,-126.0,-73.0,-644.0,177.0,-119.0,0.0,0.0,0.0
19:33:04.946000,-63.0,-154.0,-51.0,-644.0,177.0,-119.0,0.0,0.0,0.0
19:33:04.951000,-58.0,-186.0,-13.0,-644.0,177.0,-119.0,0.0,0.0,0.0
19:33:04.956000,-51.0,-219.0,31.0,-644.0,175.0,-117.0,0.0,0.0,0.0
19:33:04.960000,-42.0,-249.0,81.0,-644.0,175.0,-117.0,0.0,0.0,0.0
19:33:04.965000,-32.0,-272.0,135.0,-648.0,160.0,-128.0,0.0,0.0,0.0
19:33:04.970000,-20.0,-288.0,193.0,-648.0,160.0,-128.0,0.0,0.0,0.0
19:33:04.974000,-9.0,-298.0,257.0,-687.0,150.0,-146.0,0.0,0.0,0.0
19:33:04.979000,-2.0,-301.0,325.0,-687.0,150.0,-146.0,0.0,0.0,0.0
19:33:04.984000,-2.0,-301.0,325.0,-764.0,133.0,-151.0,0.0,0.0,0.0
19:33:04.989000,-7.0,-301.0,389.0,-764.0,133.0,-151.0,0.0,0.0,0.0
19:33:04.993000,-28.0,-303.0,448.0,-852.0,148.0,-134.0,0.0,0.0,0.0
19:33:04.998000,-59.0,-305.0,502.0,-852.0,148.0,-134.0,0.0,0.0,0.0
19:33:05.003000,-93.0,-313.0,546.0,-880.0,161.0,-106.0,0.0,0.0,0.0
19:33:05.007000,-114.0,-325.0,572.0,-880.0,161.0,-106.0,0.0,0.0,0.0
19:33:05.012000,-121.0,-336.0,580.0,-822.0,131.0,-91.0,0.0,0.0,0.0
19:33:05.017000,-118.0,-350.0,582.0,-822.0,131.0,-91.0,0.0,0.0,0.0
19:33:05.021000,-107.0,-366.0,592.0,-754.0,100.0,-83.0,0.0,0.0,0.0
19:33:05.026000,-86.0,-380.0,622.0,-754.0,100.0,-83.0,0.0,0.0,0.0
19:33:05.031000,-58.0,-394.0,669.0,-716.0,85.0,-69.0,0.0,0.0,0.0
19:33:05.036000,-32.0,-405.0,728.0,-716.0,85.0,-69.0,0.0,0.0,0.0
19:33:05.040000,-11.0,-415.0,802.0,-696.0,72.0,-46.0,0.0,0.0,0.0
19:33:05.045000,6.0,-422.0,885.0,-696.0,72.0,-46.0,0.0,0.0,0.0
19:33:05.050000,13.0,-425.0,964.0,-696.0,72.0,-46.0,0.0,0.0,0.0
19:33:05.054000,11.0,-425.0,1033.0,-704.0,56.0,-21.0,0.0,0.0,0.0
19:33:05.059000,0.0,-421.0,1090.0,-704.0,56.0,-21.0,0.0,0.0,0.0
19:33:05.064000,-22.0,-414.0,1125.0,-740.0,40.0,-9.0,0.0,0.0,0.0
19:33:05.068000,-53.0,-406.0,1135.0,-740.0,40.0,-9.0,0.0,0.0,0.0
19:33:05.073000,-86.0,-395.0,1124.0,-787.0,41.0,-11.0,0.0,0.0,0.0
19:33:05.078000,-112.0,-381.0,1103.0,-787.0,41.0,-11.0,0.0,0.0,0.0
19:33:05.083000,-130.0,-365.0,1079.0,-814.0,57.0,-21.0,0.0,0.0,0.0
19:33:05.087000,-143.0,-348.0,1061.0,-814.0,57.0,-21.0,0.0,0.0,0.0
19:33:05.092000,-143.0,-348.0,1061.0,-810.0,77.0,-38.0,0.0,0.0,0.0
19:33:05.097000,-147.0,-331.0,1064.0,-810.0,77.0,-38.0,0.0,0.0,0.0
19:33:05.101000,-133.0,-315.0,1094.0,-782.0,43.0,-52.0,0.0,0.0,0.0
19:33:05.106000,-106.0,-297.0,1145.0,-782.0,43.0,-52.0,0.0,0.0,0.0
19:33:05.111000,-70.0,-279.0,1204.0,-747.0,-78.0,-66.0,0.0,0.0,0.0
19:33:05.115000,-30.0,-262.0,1262.0,-747.0,-78.0,-66.0,0.0,0.0,0.0
19:33:05.120000,6.0,-246.0,1300.0,-751.0,-185.0,-86.0,0.0,0.0,0.0
19:33:05.125000,34.0,-232.0,1303.0,-751.0,-185.0,-86.0,0.0,0.0,0.0
19:33:05.130000,48.0,-220.0,1269.0,-783.0,-179.0,-100.0,0.0,0.0,0.0
19:33:05.134000,53.0,-212.0,1207.0,-783.0,-179.0,-100.0,0.0,0.0,0.0
19:33:05.139000,51.0,-208.0,1134.0,-788.0,-99.0,-109.0,0.0,0.0,0.0
19:33:05.144000,47.0,-208.0,1050.0,-788.0,-99.0,-109.0,0.0,0.0,0.0
19:33:05.148000,48.0,-211.0,968.0,-767.0,-34.0,-119.0,0.0,0.0,0.0
19:33:05.153000,45.0,-210.0,892.0,-767.0,-34.0,-119.0,0.0,0.0,0.0
19:33:05.158000,37.0,-205.0,821.0,-767.0,-34.0,-119.0,0.0,0.0,0.0
19:33:05.162000,26.0,-197.0,774.0,-765.0,25.0,-114.0,0.0,0.0,0.0
19:33:05.167000,12.0,-188.0,747.0,-765.0,25.0,-114.0,0.0,0.0,0.0
19:33:05.172000,1.0,-179.0,730.0,-780.0,70.0,-99.0,0.0,0.0,0.0
19:33:05.177000,-3.0,-175.0,708.0,-780.0,70.0,-99.0,0.0,0.0,0.0
19:33:05.181000,-6.0,-178.0,686.0,-818.0,63.0,-93.0,0.0,0.0,0.0
19:33:05.186000,-10.0,-189.0,664.0,-818.0,63.0,-93.0,0.0,0.0,0.0
19:33:05.191000,-22.0,-205.0,646.0,-886.0,44.0,-94.0,0.0,0.0,0.0
19:33:05.195000,-43.0,-220.0,629.0,-886.0,44.0,-94.0,0.0,0.0,0.0
19:33:05.200000,-43.0,-220.0,629.0,-967.0,67.0,-83.0,0.0,0.0,0.0
19:33:05.205000,-77.0,-235.0,604.0,-967.0,67.0,-83.0,0.0,0.0,0.0
19:33:05.209000,-124.0,-242.0,569.0,-1032.0,109.0,-64.0,0.0,0.0,0.0
19:33:05.214000,-175.0,-241.0,520.0,-1032.0,109.0,-64.0,0.0,0.0,0.0
19:33:05.219000,-226.0,-235.0,459.0,-1064.0,108.0,-49.0,0.0,0.0,0.0
19:33:05.224000,-266.0,-222.0,391.0,-1064.0,108.0,-49.0,0.0,0.0,0.0
19:33:05.228000,-288.0,-205.0,315.0,-1033.0,31.0,-43.0,0.0,0.0,0.0
19:33:05.233000,-294.0,-176.0,216.0,-1033.0,31.0,-43.0,0.0,0.0,0.0
19:33:05.238000,-296.0,-126.0,116.0,-975.0,-48.0,-54.0,0.0,0.0,0.0
19:33:05.242000,-275.0,-100.0,39.0,-975.0,-48.0,-54.0,0.0,0.0,0.0
19:33:05.247000,-246.0,-74.0,-39.0,-928.0,-100.0,-68.0,0.0,0.0,0.0
19:33:05.252000,-217.0,-32.0,-116.0,-928.0,-100.0,-68.0,0.0,0.0,0.0
19:33:05.256000,-183.0,-6.0,-172.0,-889.0,-122.0,-80.0,0.0,0.0,0.0
19:33:05.261000,-124.0,2.0,-184.0,-889.0,-122.0,-80.0,0.0,0.0,0.0
19:33:05.266000,-62.0,7.0,-191.0,-889.0,-122.0,-80.0,0.0,0.0,0.0
19:33:05.271000,-2.0,9.0,-175.0,-793.0,-132.0,-89.0,0.0,0.0,0.0
19:33:05.275000,49.0,13.0,-44.0,-793.0,-132.0,-89.0,0.0,0.0,0.0
19:33:05.280000,109.0,17.0,50.0,-672.0,-150.0,-91.0,0.0,0.0,0.0
19:33:05.285000,148.0,32.0,170.0,-672.0,-150.0,-91.0,0.0,0.0,0.0
19:33:05.289000,120.0,32.0,39.0,-940.0,-77.0,-84.0,0.0,0.0,0.0
19:33:05.294000,140.0,2.0,-137.0,-940.0,-77.0,-84.0,0.0,0.0,0.0
19:33:05.299000,146.0,35.0,224.0,-1078.0,36.0,-13.0,0.0,0.0,0.0
19:33:05.303000,161.0,14.0,427.0,-1078.0,36.0,-13.0,0.0,0.0,0.0
19:33:05.308000,107.0,-6.0,368.0,-506.0,101.0,72.0,0.0,0.0,0.0
19:33:05.313000,107.0,-6.0,368.0,-506.0,101.0,72.0,0.0,0.0,0.0
19:33:05.318000,67.0,-23.0,249.0,-200.0,238.0,119.0,0.0,0.0,0.0
19:33:05.322000,-18.0,-23.0,300.0,-200.0,238.0,119.0,0.0,0.0,0.0
19:33:05.327000,-49.0,-30.0,550.0,-375.0,275.0,132.0,0.0,0.0,0.0
19:33:05.332000,-78.0,-23.0,768.0,-375.0,275.0,132.0,0.0,0.0,0.0
19:33:05.336000,-109.0,-28.0,795.0,-707.0,151.0,105.0,0.0,0.0,0.0
19:33:05.341000,-116.0,-14.0,661.0,-707.0,151.0,105.0,0.0,0.0,0.0
19:33:05.346000,-109.0,16.0,545.0,-919.0,22.0,46.0,0.0,0.0,0.0
19:33:05.350000,-93.0,37.0,480.0,-919.0,22.0,46.0,0.0,0.0,0.0
19:33:05.355000,-63.0,69.0,411.0,-843.0,-25.0,-56.0,0.0,0.0,0.0
19:33:05.360000,-27.0,90.0,341.0,-843.0,-25.0,-56.0,0.0,0.0,0.0
19:33:05.365000,31.0,95.0,325.0,-800.0,28.0,-153.0,0.0,0.0,0.0
19:33:05.369000,113.0,91.0,353.0,-800.0,28.0,-153.0,0.0,0.0,0.0
19:33:05.374000,182.0,88.0,424.0,-800.0,28.0,-153.0,0.0,0.0,0.0
19:33:05.379000,230.0,70.0,428.0,-804.0,68.0,-219.0,0.0,0.0,0.0
19:33:05.383000,244.0,39.0,432.0,-804.0,68.0,-219.0,0.0,0.0,0.0
19:33:05.388000,240.0,-1.0,538.0,-898.0,165.0,-266.0,0.0,0.0,0.0
19:33:05.393000,197.0,-44.0,630.0,-898.0,165.0,-266.0,0.0,0.0,0.0
19:33:05.397000,137.0,-83.0,643.0,-1032.0,366.0,-285.0,0.0,0.0,0.0
19:33:05.402000,59.0,-125.0,606.0,-1032.0,366.0,-285.0,0.0,0.0,0.0
19:33:05.407000,-9.0,-177.0,589.0,-1064.0,586.0,-281.0,0.0,0.0,0.0
19:33:05.412000,-74.0,-216.0,534.0,-1064.0,586.0,-281.0,0.0,0.0,0.0
19:33:05.416000,-114.0,-238.0,431.0,-973.0,628.0,-264.0,0.0,0.0,0.0
19:33:05.421000,-114.0,-238.0,431.0,-973.0,628.0,-264.0,0.0,0.0,0.0
19:33:05.426000,-113.0,-244.0,352.0,-921.0,493.0,-244.0,0.0,0.0,0.0
19:33:05.430000,-92.0,-233.0,272.0,-921.0,493.0,-244.0,0.0,0.0,0.0
19:33:05.435000,-63.0,-207.0,156.0,-1028.0,382.0,-218.0,0.0,0.0,0.0
19:33:05.440000,-37.0,-161.0,-11.0,-1028.0,382.0,-218.0,0.0,0.0,0.0
19:33:05.444000,-9.0,-105.0,-178.0,-1232.0,331.0,-186.0,0.0,0.0,0.0
19:33:05.449000,34.0,-49.0,-292.0,-1232.0,331.0,-186.0,0.0,0.0,0.0
19:33:05.454000,70.0,7.0,-336.0,-1388.0,274.0,-163.0,0.0,0.0,0.0
19:33:05.459000,85.0,67.0,-365.0,-1388.0,274.0,-163.0,0.0,0.0,0.0
19:33:05.463000,91.0,130.0,-453.0,-1470.0,267.0,-162.0,0.0,0.0,0.0
19:33:05.468000,59.0,215.0,-699.0,-1470.0,267.0,-162.0,0.0,0.0,0.0
19:33:05.473000,30.0,263.0,-947.0,-1593.0,259.0,-186.0,0.0,0.0,0.0
19:33:05.477000,56.0,276.0,-926.0,-1593.0,259.0,-186.0,0.0,0.0,0.0
19:33:05.482000,65.0,294.0,-763.0,-1593.0,259.0,-186.0,0.0,0.0,0.0
19:33:05.487000,61.0,294.0,-653.0,-1562.0,140.0,-209.0,0.0,0.0,0.0
19:33:05.491000,80.0,304.0,-680.0,-1562.0,140.0,-209.0,0.0,0.0,0.0
19:33:05.496000,74.0,330.0,-846.0,-1506.0,53.0,-209.0,0.0,0.0,0.0
19:33:05.501000,96.0,357.0,-975.0,-1506.0,53.0,-209.0,0.0,0.0,0.0
19:33:05.506000,87.0,382.0,-1038.0,-1485.0,52.0,-220.0,0.0,0.0,0.0
19:33:05.510000,116.0,369.0,-1026.0,-1485.0,52.0,-220.0,0.0,0.0,0.0
19:33:05.515000,85.0,373.0,-987.0,-1342.0,61.0,-227.0,0.0,0.0,0.0
19:33:05.520000,123.0,379.0,-986.0,-1342.0,61.0,-227.0,0.0,0.0,0.0
19:33:05.524000,131.0,375.0,-987.0,-1342.0,-47.0,-222.0,0.0,0.0,0.0
19:33:05.529000,131.0,375.0,-987.0,-1342.0,-47.0,-222.0,0.0,0.0,0.0
19:33:05.534000,142.0,386.0,-951.0,-1392.0,-264.0,-222.0,0.0,0.0,0.0
19:33:05.538000,170.0,401.0,-863.0,-1392.0,-264.0,-222.0,0.0,0.0,0.0
19:33:05.543000,184.0,406.0,-774.0,-1315.0,-419.0,-199.0,0.0,0.0,0.0
19:33:05.548000,203.0,397.0,-735.0,-1315.0,-419.0,-199.0,0.0,0.0,0.0
19:33:05.553000,228.0,396.0,-689.0,-1205.0,-496.0,-189.0,0.0,0.0,0.0
19:33:05.557000,254.0,407.0,-661.0,-1205.0,-496.0,-189.0,0.0,0.0,0.0
19:33:05.562000,257.0,417.0,-710.0,-1171.0,-398.0,-208.0,0.0,0.0,0.0
19:33:05.567000,238.0,427.0,-771.0,-1171.0,-398.0,-208.0,0.0,0.0,0.0
19:33:05.571000,223.0,426.0,-824.0,-1214.0,-128.0,-214.0,0.0,0.0,0.0
19:33:05.576000,191.0,426.0,-888.0,-1214.0,-128.0,-214.0,0.0,0.0,0.0
19:33:05.581000,169.0,420.0,-959.0,-1237.0,-17.0,-207.0,0.0,0.0,0.0
19:33:05.585000,208.0,401.0,-1005.0,-1237.0,-17.0,-207.0,0.0,0.0,0.0
19:33:05.590000,259.0,382.0,-1024.0,-1237.0,-106.0,-207.0,0.0,0.0,0.0
19:33:05.595000,296.0,356.0,-1016.0,-1224.0,-106.0,-201.0,0.0,0.0,0.0
19:33:05.600000,319.0,333.0,-993.0,-1221.0,-118.0,-188.0,0.0,0.0,0.0
19:33:05.604000,336.0,305.0,-982.0,-1221.0,-118.0,-188.0,0.0,0.0,0.0
19:33:05.609000,331.0,287.0,-1003.0,-1221.0,-118.0,-188.0,0.0,0.0,0.0
19:33:05.614000,331.0,256.0,-1001.0,-1161.0,18.0,-167.0,0.0,0.0,0.0
19:33:05.618000,350.0,222.0,-970.0,-1161.0,18.0,-167.0,0.0,0.0,0.0
19:33:05.623000,337.0,196.0,-933.0,-1134.0,165.0,-155.0,0.0,0.0,0.0
19:33:05.628000,333.0,177.0,-896.0,-1134.0,165.0,-155.0,0.0,0.0,0.0
19:33:05.632000,333.0,152.0,-847.0,-1188.0,197.0,-155.0,0.0,0.0,0.0
19:33:05.637000,333.0,152.0,-847.0,-1188.0,197.0,-155.0,0.0,0.0,0.0
19:33:05.642000,308.0,125.0,-798.0,-1181.0,262.0,-154.0,0.0,0.0,0.0
19:33:05.647000,282.0,107.0,-774.0,-1181.0,262.0,-154.0,0.0,0.0,0.0
19:33:05.651000,245.0,108.0,-793.0,-1199.0,389.0,-155.0,0.0,0.0,0.0
19:33:05.656000,203.0,103.0,-816.0,-1199.0,389.0,-155.0,0.0,0.0,0.0
19:33:05.661000,184.0,86.0,-798.0,-1240.0,489.0,-173.0,0.0,0.0,0.0
19:33:05.665000,141.0,85.0,-718.0,-1240.0,489.0,-173.0,0.0,0.0,0.0
19:33:05.670000,84.0,88.0,-623.0,-1264.0,545.0,-202.0,0.0,0.0,0.0
19:33:05.675000,49.0,88.0,-612.0,-1264.0,545.0,-202.0,0.0,0.0,0.0
19:33:05.679000,-11.0,91.0,-618.0,-1305.0,617.0,-216.0,0.0,0.0,0.0
19:33:05.684000,-60.0,98.0,-588.0,-1305.0,617.0,-216.0,0.0,0.0,0.0
19:33:05.689000,-105.0,102.0,-546.0,-1312.0,607.0,-227.0,0.0,0.0,0.0
19:33:05.694000,-129.0,107.0,-509.0,-1312.0,607.0,-227.0,0.0,0.0,0.0
19:33:05.698000,-121.0,109.0,-461.0,-1274.0,478.0,-240.0,0.0,0.0,0.0
19:33:05.703000,-115.0,106.0,-356.0,-1274.0,478.0,-240.0,0.0,0.0,0.0
19:33:05.708000,-77.0,101.0,-264.0,-1274.0,478.0,-240.0,0.0,0.0,0.0
19:33:05.712000,-27.0,108.0,-243.0,-1195.0,461.0,-254.0,0.0,0.0,0.0
19:33:05.717000,25.0,104.0,-231.0,-1195.0,461.0,-254.0,0.0,0.0,0.0
19:33:05.722000,-10.0,102.0,-214.0,-1119.0,484.0,-261.0,0.0,0.0,0.0
19:33:05.726000,-31.0,110.0,-259.0,-1119.0,484.0,-261.0,0.0,0.0,0.0
19:33:05.731000,-10.0,107.0,-298.0,-1198.0,444.0,-266.0,0.0,0.0,0.0
19:33:05.736000,1.0,114.0,-315.0,-1198.0,444.0,-266.0,0.0,0.0,0.0
19:33:05.740000,42.0,111.0,-266.0,-1350.0,395.0,-290.0,0.0,0.0,0.0
19:33:05.745000,19.0,107.0,-205.0,-1350.0,395.0,-290.0,0.0,0.0,0.0
19:33:05.750000,19.0,107.0,-205.0,-1363.0,565.0,-294.0,0.0,0.0,0.0
19:33:05.755000,13.0,102.0,-134.0,-1363.0,565.0,-294.0,0.0,0.0,0.0
19:33:05.759000,42.0,94.0,-50.0,-1281.0,762.0,-286.0,0.0,0.0,0.0
19:33:05.764000,24.0,91.0,16.0,-1281.0,762.0,-286.0,0.0,0.0,0.0
19:33:05.769000,21.0,84.0,84.0,-1305.0,627.0,-281.0,0.0,0.0,0.0
19:33:05.773000,16.0,84.0,117.0,-1305.0,627.0,-281.0,0.0,0.0,0.0
19:33:05.778000,40.0,88.0,125.0,-1326.0,468.0,-268.0,0.0,0.0,0.0
19:33:05.783000,14.0,84.0,122.0,-1326.0,468.0,-268.0,0.0,0.0,0.0
19:33:05.787000,-1.0,88.0,126.0,-1212.0,484.0,-259.0,0.0,0.0,0.0
19:33:05.792000,5.0,86.0,106.0,-1212.0,484.0,-259.0,0.0,0.0,0.0
19:33:05.797000,25.0,91.0,63.0,-1212.0,484.0,-259.0,0.0,0.0,0.0
19:33:05.802000,39.0,88.0,32.0,-1167.0,534.0,-254.0,0.0,0.0,0.0
19:33:05.806000,39.0,99.0,-14.0,-1189.0,553.0,-254.0,0.0,0.0,0.0
19:33:05.811000,-23.0,99.0,-7.0,-1189.0,553.0,-254.0,0.0,0.0,0.0
19:33:05.816000,-38.0,84.0,38.0,-1189.0,553.0,-254.0,0.0,0.0,0.0
19:33:05.820000,-39.0,92.0,65.0,-1229.0,518.0,-271.0,0.0,0.0,0.0
19:33:05.825000,-11.0,74.0,95.0,-1229.0,518.0,-271.0,0.0,0.0,0.0
19:33:05.830000,-15.0,32.0,150.0,-1317.0,489.0,-297.0,0.0,0.0,0.0
19:33:05.834000,-75.0,66.0,205.0,-1317.0,489.0,-297.0,0.0,0.0,0.0
19:33:05.839000,-100.0,84.0,207.0,-1365.0,404.0,-300.0,0.0,0.0,0.0
19:33:05.844000,-49.0,70.0,228.0,-1365.0,404.0,-300.0,0.0,0.0,0.0
19:33:05.849000,-9.0,62.0,247.0,-1217.0,291.0,-288.0,0.0,0.0,0.0
19:33:05.853000,44.0,43.0,156.0,-1217.0,291.0,-288.0,0.0,0.0,0.0
19:33:05.858000,44.0,43.0,156.0,-1094.0,289.0,-279.0,0.0,0.0,0.0
19:33:05.863000,59.0,41.0,65.0,-1094.0,289.0,-279.0,0.0,0.0,0.0
19:33:05.867000,94.0,23.0,69.0,-1170.0,260.0,-280.0,0.0,0.0,0.0
19:33:05.872000,142.0,-1.0,93.0,-1170.0,260.0,-280.0,0.0,0.0,0.0
19:33:05.877000,120.0,-1.0,134.0,-1208.0,173.0,-281.0,0.0,0.0,0.0
19:33:05.881000,128.0,-8.0,138.0,-1208.0,173.0,-281.0,0.0,0.0,0.0
19:33:05.886000,134.0,-30.0,88.0,-1184.0,229.0,-275.0,0.0,0.0,0.0
19:33:05.891000,120.0,-35.0,34.0,-1184.0,229.0,-275.0,0.0,0.0,0.0
19:33:05.896000,93.0,-46.0,67.0,-1103.0,318.0,-254.0,0.0,0.0,0.0
19:33:05.900000,56.0,-65.0,89.0,-1103.0,318.0,-254.0,0.0,0.0,0.0
19:33:05.905000,73.0,-63.0,53.0,-1006.0,264.0,-241.0,0.0,0.0,0.0
19:33:05.910000,58.0,-82.0,47.0,-1006.0,264.0,-241.0,0.0,0.0,0.0
19:33:05.914000,67.0,-70.0,-42.0,-1048.0,196.0,-254.0,0.0,0.0,0.0
19:33:05.919000,75.0,-78.0,-130.0,-1048.0,196.0,-254.0,0.0,0.0,0.0
19:33:05.924000,59.0,-75.0,-114.0,-1048.0,196.0,-254.0,0.0,0.0,0.0
19:33:05.928000,72.0,-72.0,-105.0,-1113.0,193.0,-252.0,0.0,0.0,0.0
19:33:05.933000,86.0,-58.0,-162.0,-1113.0,193.0,-252.0,0.0,0.0,0.0
19:33:05.938000,109.0,-29.0,-246.0,-1180.0,197.0,-260.0,0.0,0.0,0.0
19:33:05.943000,124.0,-13.0,-309.0,-1180.0,197.0,-260.0,0.0,0.0,0.0
19:33:05.947000,141.0,0.0,-376.0,-1270.0,219.0,-271.0,0.0,0.0,0.0
19:33:05.952000,142.0,15.0,-403.0,-1270.0,219.0,-271.0,0.0,0.0,0.0
19:33:05.957000,146.0,37.0,-417.0,-1255.0,269.0,-274.0,0.0,0.0,0.0
19:33:05.961000,148.0,46.0,-431.0,-1255.0,269.0,-274.0,0.0,0.0,0.0
19:33:05.966000,148.0,46.0,-431.0,-1136.0,386.0,-253.0,0.0,0.0,0.0
19:33:05.971000,144.0,56.0,-473.0,-1136.0,386.0,-253.0,0.0,0.0,0.0
19:33:05.975000,96.0,64.0,-498.0,-959.0,500.0,-195.0,0.0,0.0,0.0
19:33:05.980000,79.0,74.0,-486.0,-959.0,500.0,-195.0,0.0,0.0,0.0
19:33:05.985000,63.0,77.0,-417.0,-777.0,492.0,-148.0,0.0,0.0,0.0
19:33:05.990000,56.0,79.0,-366.0,-777.0,492.0,-148.0,0.0,0.0,0.0
19:33:05.994000,57.0,81.0,-354.0,-665.0,467.0,-131.0,0.0,0.0,0.0
19:33:05.999000,56.0,77.0,-364.0,-665.0,467.0,-131.0,0.0,0.0,0.0
19:33:06.004000,54.0,70.0,-346.0,-595.0,507.0,-129.0,0.0,0.0,0.0
19:33:06.008000,46.0,55.0,-296.0,-595.0,507.0,-129.0,0.0,0.0,0.0
19:33:06.013000,37.0,44.0,-268.0,-569.0,615.0,-119.0,0.0,0.0,0.0
19:33:06.018000,6.0,30.0,-215.0,-569.0,615.0,-119.0,0.0,0.0,0.0
19:33:06.022000,-5.0,13.0,-126.0,-546.0,656.0,-97.0,0.0,0.0,0.0
19:33:06.027000,-12.0,0.0,-37.0,-546.0,656.0,-97.0,0.0,0.0,0.0
19:33:06.032000,-9.0,-11.0,37.0,-546.0,656.0,-97.0,0.0,0.0,0.0
19:33:06.037000,-11.0,-28.0,100.0,-489.0,617.0,-92.0,0.0,0.0,0.0
19:33:06.041000,-20.0,-47.0,156.0,-489.0,617.0,-92.0,0.0,0.0,0.0
19:33:06.046000,-29.0,-72.0,238.0,-482.0,606.0,-96.0,0.0,0.0,0.0
19:33:06.051000,-30.0,-99.0,318.0,-482.0,606.0,-96.0,0.0,0.0,0.0
19:33:06.055000,-30.0,-126.0,349.0,-469.0,565.0,-98.0,0.0,0.0,0.0
19:33:06.060000,-28.0,-151.0,346.0,-469.0,565.0,-98.0,0.0,0.0,0.0
19:33:06.065000,-29.0,-176.0,333.0,-423.0,511.0,-111.0,0.0,0.0,0.0
19:33:06.069000,-35.0,-195.0,305.0,-423.0,511.0,-111.0,0.0,0.0,0.0
19:33:06.074000,-46.0,-210.0,270.0,-390.0,515.0,-128.0,0.0,0.0,0.0
19:33:06.079000,-46.0,-210.0,270.0,-390.0,515.0,-128.0,0.0,0.0,0.0
19:33:06.084000,-65.0,-216.0,230.0,-409.0,560.0,-142.0,0.0,0.0,0.0
19:33:06.088000,-91.0,-212.0,205.0,-409.0,560.0,-142.0,0.0,0.0,0.0
19:33:06.093000,-115.0,-199.0,189.0,-474.0,565.0,-158.0,0.0,0.0,0.0
19:33:06.098000,-135.0,-177.0,172.0,-474.0,565.0,-158.0,0.0,0.0,0.0
19:33:06.102000,-149.0,-152.0,156.0,-535.0,515.0,-172.0,0.0,0.0,0.0
19:33:06.107000,-160.0,-122.0,157.0,-535.0,515.0,-172.0,0.0,0.0,0.0
19:33:06.112000,-154.0,-93.0,158.0,-564.0,432.0,-172.0,0.0,0.0,0.0
19:33:06.116000,-136.0,-65.0,161.0,-564.0,432.0,-172.0,0.0,0.0,0.0
19:33:06.121000,-103.0,-42.0,157.0,-553.0,317.0,-166.0,0.0,0.0,0.0
19:33:06.126000,-67.0,-25.0,159.0,-553.0,317.0,-166.0,0.0,0.0,0.0
19:33:06.131000,-37.0,-14.0,159.0,-542.0,255.0,-152.0,0.0,0.0,0.0
19:33:06.135000,-21.0,-7.0,145.0,-542.0,255.0,-152.0,0.0,0.0,0.0
19:33:06.140000,-16.0,-7.0,122.0,-542.0,255.0,-152.0,0.0,0.0,0.0
19:33:06.145000,-15.0,-13.0,101.0,-540.0,283.0,-121.0,0.0,0.0,0.0
19:33:06.149000,-16.0,-18.0,70.0,-540.0,283.0,-121.0,0.0,0.0,0.0
19:33:06.154000,-19.0,-20.0,29.0,-526.0,330.0,-89.0,0.0,0.0,0.0
19:33:06.159000,-21.0,-17.0,-9.0,-526.0,330.0,-89.0,0.0,0.0,0.0
19:33:06.163000,-16.0,-9.0,-33.0,-544.0,354.0,-62.0,0.0,0.0,0.0
19:33:06.168000,-2.0,9.0,-42.0,-544.0,354.0,-62.0,0.0,0.0,0.0
19:33:06.173000,18.0,34.0,-46.0,-614.0,324.0,-46.0,0.0,0.0,0.0
19:33:06.178000,42.0,68.0,-45.0,-614.0,324.0,-46.0,0.0,0.0,0.0
19:33:06.182000,42.0,68.0,-45.0,-716.0,285.0,-46.0,0.0,0.0,0.0
19:33:06.187000,63.0,108.0,-37.0,-716.0,285.0,-46.0,0.0,0.0,0.0
19:33:06.192000,76.0,151.0,-25.0,-807.0,295.0,-56.0,0.0,0.0,0.0
19:33:06.196000,81.0,187.0,-11.0,-807.0,295.0,-56.0,0.0,0.0,0.0
19:33:06.201000,80.0,212.0,-2.0,-824.0,319.0,-60.0,0.0,0.0,0.0
19:33:06.206000,73.0,225.0,3.0,-824.0,319.0,-60.0,0.0,0.0,0.0
19:33:06.210000,63.0,226.0,9.0,-743.0,325.0,-59.0,0.0,0.0,0.0
19:33:06.215000,39.0,221.0,14.0,-743.0,325.0,-59.0,0.0,0.0,0.0
19:33:06.220000,0.0,213.0,18.0,-633.0,323.0,-69.0,0.0,0.0,0.0
19:33:06.225000,-46.0,202.0,17.0,-633.0,323.0,-69.0,0.0,0.0,0.0
19:33:06.229000,-86.0,191.0,-5.0,-572.0,264.0,-75.0,0.0,0.0,0.0
19:33:06.234000,-100.0,179.0,-42.0,-572.0,264.0,-75.0,0.0,0.0,0.0
19:33:06.239000,-84.0,164.0,-78.0,-578.0,93.0,-76.0,0.0,0.0,0.0
19:33:06.243000,-45.0,147.0,-121.0,-578.0,93.0,-76.0,0.0,0.0,0.0
19:33:06.248000,2.0,135.0,-172.0,-578.0,93.0,-76.0,0.0,0.0,0.0
19:33:06.253000,40.0,128.0,-221.0,-669.0,-29.0,-94.0,0.0,0.0,0.0
19:33:06.257000,65.0,123.0,-253.0,-669.0,-29.0,-94.0,0.0,0.0,0.0
19:33:06.262000,73.0,121.0,-261.0,-794.0,11.0,-119.0,0.0,0.0,0.0
19:33:06.267000,61.0,121.0,-254.0,-794.0,11.0,-119.0,0.0,0.0,0.0
19:33:06.272000,26.0,126.0,-246.0,-847.0,120.0,-129.0,0.0,0.0,0.0
19:33:06.276000,-18.0,130.0,-244.0,-847.0,120.0,-129.0,0.0,0.0,0.0
19:33:06.281000,-54.0,135.0,-243.0,-809.0,188.0,-121.0,0.0,0.0,0.0
19:33:06.286000,-72.0,140.0,-245.0,-809.0,188.0,-121.0,0.0,0.0,0.0
19:33:06.290000,-79.0,147.0,-243.0,-758.0,153.0,-115.0,0.0,0.0,0.0
19:33:06.295000,-79.0,147.0,-243.0,-758.0,153.0,-115.0,0.0,0.0,0.0
19:33:06.299000,-76.0,156.0,-234.0,-772.0,67.0,-126.0,0.0,0.0,0.0
19:33:06.304000,-58.0,162.0,-224.0,-772.0,67.0,-126.0,0.0,0.0,0.0
19:33:06.309000,-26.0,168.0,-211.0,-822.0,-38.0,-135.0,0.0,0.0,0.0
19:33:06.314000,11.0,173.0,-198.0,-822.0,-38.0,-135.0,0.0,0.0,0.0
19:33:06.319000,42.0,178.0,-201.0,-850.0,-106.0,-138.0,0.0,0.0,0.0
19:33:06.323000,58.0,180.0,-221.0,-850.0,-106.0,-138.0,0.0,0.0,0.0
19:33:06.328000,60.0,179.0,-249.0,-836.0,-72.0,-139.0,0.0,0.0,0.0
19:33:06.333000,58.0,174.0,-274.0,-836.0,-72.0,-139.0,0.0,0.0,0.0
19:33:06.337000,56.0,166.0,-301.0,-786.0,-26.0,-146.0,0.0,0.0,0.0
19:33:06.342000,56.0,152.0,-333.0,-786.0,-26.0,-146.0,0.0,0.0,0.0
19:33:06.347000,66.0,132.0,-364.0,-757.0,-32.0,-164.0,0.0,0.0,0.0
19:33:06.351000,87.0,106.0,-389.0,-757.0,-32.0,-164.0,0.0,0.0,0.0
19:33:06.356000,112.0,76.0,-408.0,-757.0,-52.0,-181.0,0.0,0.0,0.0
19:33:06.361000,137.0,42.0,-414.0,-749.0,-52.0,-181.0,0.0,0.0,0.0
19:33:06.366000,167.0,4.0,-400.0,-749.0,-52.0,-181.0,0.0,0.0,0.0
19:33:06.370000,191.0,-37.0,-378.0,-720.0,-41.0,-193.0,0.0,0.0,0.0
19:33:06.375000,198.0,-77.0,-361.0,-720.0,-41.0,-193.0,0.0,0.0,0.0
19:33:06.380000,184.0,-116.0,-345.0,-699.0,46.0,-204.0,0.0,0.0,0.0
19:33:06.384000,157.0,-154.0,-323.0,-699.0,46.0,-204.0,0.0,0.0,0.0
19:33:06.389000,123.0,-191.0,-295.0,-698.0,158.0,-204.0,0.0,0.0,0.0
19:33:06.394000,85.0,-227.0,-257.0,-698.0,158.0,-204.0,0.0,0.0,0.0
19:33:06.398000,49.0,-262.0,-217.0,-683.0,190.0,-194.0,0.0,0.0,0.0
19:33:06.403000,15.0,-292.0,-193.0,-683.0,190.0,-194.0,0.0,0.0,0.0
19:33:06.408000,15.0,-292.0,-193.0,-673.0,165.0,-192.0,0.0,0.0,0.0
19:33:06.413000,-9.0,-317.0,-186.0,-673.0,165.0,-192.0,0.0,0.0,0.0
19:33:06.417000,-23.0,-333.0,-194.0,-694.0,121.0,-196.0,0.0,0.0,0.0
19:33:06.422000,-25.0,-340.0,-212.0,-694.0,121.0,-196.0,0.0,0.0,0.0
19:33:06.427000,-15.0,-339.0,-229.0,-728.0,65.0,-186.0,0.0,0.0,0.0
19:33:06.431000,4.0,-333.0,-240.0,-728.0,65.0,-186.0,0.0,0.0,0.0
19:33:06.436000,34.0,-321.0,-247.0,-767.0,21.0,-157.0,0.0,0.0,0.0
19:33:06.441000,62.0,-307.0,-249.0,-767.0,21.0,-157.0,0.0,0.0,0.0
19:33:06.445000,84.0,-294.0,-243.0,-807.0,35.0,-108.0,0.0,0.0,0.0
19:33:06.450000,95.0,-284.0,-227.0,-807.0,35.0,-108.0,0.0,0.0,0.0
19:33:06.455000,91.0,-275.0,-210.0,-829.0,139.0,-60.0,0.0,0.0,0.0
19:33:06.460000,72.0,-262.0,-191.0,-829.0,139.0,-60.0,0.0,0.0,0.0
19:33:06.464000,46.0,-247.0,-170.0,-839.0,266.0,-35.0,0.0,0.0,0.0
19:33:06.469000,24.0,-229.0,-135.0,-839.0,266.0,-35.0,0.0,0.0,0.0
19:33:06.474000,8.0,-207.0,-87.0,-839.0,266.0,-35.0,0.0,0.0,0.0
19:33:06.478000,-2.0,-182.0,-30.0,-854.0,304.0,-35.0,0.0,0.0,0.0
19:33:06.483000,-7.0,-157.0,28.0,-854.0,304.0,-35.0,0.0,0.0,0.0
19:33:06.488000,-4.0,-132.0,83.0,-882.0,264.0,-54.0,0.0,0.0,0.0
19:33:06.492000,6.0,-110.0,138.0,-882.0,264.0,-54.0,0.0,0.0,0.0
19:33:06.497000,24.0,-90.0,186.0,-908.0,185.0,-88.0,0.0,0.0,0.0
19:33:06.502000,42.0,-74.0,220.0,-908.0,185.0,-88.0,0.0,0.0,0.0
19:33:06.507000,58.0,-65.0,236.0,-914.0,111.0,-130.0,0.0,0.0,0.0
19:33:06.511000,72.0,-60.0,238.0,-914.0,111.0,-130.0,0.0,0.0,0.0
19:33:06.516000,72.0,-60.0,238.0,-877.0,108.0,-168.0,0.0,0.0,0.0
19:33:06.521000,78.0,-60.0,232.0,-877.0,108.0,-168.0,0.0,0.0,0.0
19:33:06.525000,81.0,-65.0,221.0,-787.0,148.0,-194.0,0.0,0.0,0.0
19:33:06.530000,85.0,-76.0,208.0,-787.0,148.0,-194.0,0.0,0.0,0.0
19:33:06.535000,84.0,-91.0,191.0,-693.0,203.0,-208.0,0.0,0.0,0.0
19:33:06.539000,82.0,-109.0,175.0,-693.0,203.0,-208.0,0.0,0.0,0.0
19:33:06.544000,80.0,-133.0,170.0,-640.0,261.0,-207.0,0.0,0.0,0.0
19:33:06.549000,77.0,-157.0,177.0,-640.0,261.0,-207.0,0.0,0.0,0.0
19:33:06.554000,74.0,-182.0,198.0,-623.0,298.0,-197.0,0.0,0.0,0.0
19:33:06.558000,67.0,-206.0,224.0,-623.0,298.0,-197.0,0.0,0.0,0.0
19:33:06.563000,56.0,-228.0,245.0,-628.0,331.0,-180.0,0.0,0.0,0.0
19:33:06.568000,42.0,-249.0,262.0,-628.0,331.0,-180.0,0.0,0.0,0.0
19:33:06.572000,26.0,-272.0,279.0,-637.0,368.0,-166.0,0.0,0.0,0.0
19:33:06.577000,9.0,-294.0,294.0,-637.0,368.0,-166.0,0.0,0.0,0.0
19:33:06.582000,-5.0,-317.0,308.0,-637.0,368.0,-166.0,0.0,0.0,0.0
19:33:06.586000,-16.0,-338.0,318.0,-650.0,388.0,-161.0,0.0,0.0,0.0
19:33:06.591000,-29.0,-354.0,329.0,-650.0,388.0,-161.0,0.0,0.0,0.0
19:33:06.596000,-44.0,-366.0,347.0,-676.0,391.0,-159.0,0.0,0.0,0.0
19:33:06.601000,-60.0,-375.0,369.0,-676.0,391.0,-159.0,0.0,0.0,0.0
19:33:06.605000,-79.0,-378.0,390.0,-698.0,399.0,-153.0,0.0,0.0,0.0
19:33:06.610000,-103.0,-375.0,413.0,-698.0,399.0,-153.0,0.0,0.0,0.0
19:33:06.615000,-133.0,-368.0,445.0,-716.0,431.0,-148.0,0.0,0.0,0.0
19:33:06.619000,-163.0,-353.0,480.0,-716.0,431.0,-148.0,0.0,0.0,0.0
19:33:06.624000,-163.0,-353.0,480.0,-742.0,458.0,-148.0,0.0,0.0,0.0
19:33:06.629000,-193.0,-329.0,512.0,-742.0,458.0,-148.0,0.0,0.0,0.0
19:33:06.633000,-221.0,-298.0,536.0,-781.0,464.0,-150.0,0.0,0.0,0.0
19:33:06.638000,-246.0,-266.0,557.0,-781.0,464.0,-150.0,0.0,0.0,0.0
19:33:06.643000,-270.0,-227.0,574.0,-822.0,456.0,-150.0,0.0,0.0,0.0
19:33:06.648000,-293.0,-190.0,585.0,-822.0,456.0,-150.0,0.0,0.0,0.0
19:33:06.652000,-296.0,-157.0,590.0,-825.0,370.0,-142.0,0.0,0.0,0.0
19:33:06.657000,-273.0,-128.0,588.0,-825.0,370.0,-142.0,0.0,0.0,0.0
19:33:06.662000,-231.0,-106.0,569.0,-777.0,216.0,-130.0,0.0,0.0,0.0
19:33:06.666000,-179.0,-92.0,536.0,-777.0,216.0,-130.0,0.0,0.0,0.0
19:33:06.671000,-122.0,-84.0,504.0,-718.0,118.0,-111.0,0.0,0.0,0.0
19:33:06.676000,-60.0,-79.0,481.0,-718.0,118.0,-111.0,0.0,0.0,0.0
19:33:06.680000,15.0,-84.0,462.0,-674.0,47.0,-91.0,0.0,0.0,0.0
19:33:06.685000,93.0,-93.0,444.0,-674.0,47.0,-91.0,0.0,0.0,0.0
19:33:06.690000,160.0,-95.0,431.0,-674.0,47.0,-91.0,0.0,0.0,0.0
19:33:06.695000,214.0,-100.0,422.0,-652.0,-15.0,-76.0,0.0,0.0,0.0
19:33:06.699000,256.0,-110.0,418.0,-652.0,-15.0,-76.0,0.0,0.0,0.0
19:33:06.704000,286.0,-119.0,419.0,-673.0,25.0,-55.0,0.0,0.0,0.0
19:33:06.709000,308.0,-133.0,422.0,-673.0,25.0,-55.0,0.0,0.0,0.0
19:33:06.713000,327.0,-147.0,434.0,-703.0,116.0,-32.0,0.0,0.0,0.0
19:33:06.718000,338.0,-156.0,445.0,-703.0,116.0,-32.0,0.0,0.0,0.0
19:33:06.723000,347.0,-164.0,461.0,-704.0,167.0,-17.0,0.0,0.0,0.0
19:33:06.727000,343.0,-166.0,478.0,-704.0,167.0,-17.0,0.0,0.0,0.0
19:33:06.732000,343.0,-166.0,478.0,-726.0,212.0,-12.0,0.0,0.0,0.0
19:33:06.737000,326.0,-169.0,511.0,-726.0,212.0,-12.0,0.0,0.0,0.0
19:33:06.742000,301.0,-164.0,562.0,-764.0,266.0,-17.0,0.0,0.0,0.0
19:33:06.746000,265.0,-160.0,620.0,-764.0,266.0,-17.0,0.0,0.0,0.0
19:33:06.751000,226.0,-154.0,667.0,-782.0,309.0,-32.0,0.0,0.0,0.0
19:33:06.756000,189.0,-149.0,704.0,-782.0,309.0,-32.0,0.0,0.0,0.0
19:33:06.760000,149.0,-140.0,734.0,-789.0,331.0,-48.0,0.0,0.0,0.0
19:33:06.765000,105.0,-131.0,770.0,-789.0,331.0,-48.0,0.0,0.0,0.0
19:33:06.770000,66.0,-121.0,821.0,-785.0,310.0,-58.0,0.0,0.0,0.0
19:33:06.774000,42.0,-111.0,884.0,-785.0,310.0,-58.0,0.0,0.0,0.0
19:33:06.779000,28.0,-93.0,935.0,-786.0,244.0,-79.0,0.0,0.0,0.0
19:33:06.784000,16.0,-63.0,966.0,-786.0,244.0,-79.0,0.0,0.0,0.0
19:33:06.789000,0.0,-35.0,991.0,-815.0,208.0,-105.0,0.0,0.0,0.0
19:33:06.793000,-13.0,5.0,1030.0,-815.0,208.0,-105.0,0.0,0.0,0.0
19:33:06.798000,-2.0,32.0,1033.0,-815.0,208.0,-105.0,0.0,0.0,0.0
19:33:06.803000,-20.0,74.0,976.0,-867.0,242.0,-124.0,0.0,0.0,0.0
19:33:06.807000,-32.0,100.0,912.0,-867.0,242.0,-124.0,0.0,0.0,0.0
19:33:06.812000,-53.0,125.0,919.0,-929.0,325.0,-138.0,0.0,0.0,0.0
19:33:06.817000,-73.0,147.0,956.0,-929.0,325.0,-138.0,0.0,0.0,0.0
19:33:06.821000,-98.0,168.0,855.0,-1006.0,419.0,-151.0,0.0,0.0,0.0
19:33:06.826000,-102.0,191.0,582.0,-1006.0,419.0,-151.0,0.0,0.0,0.0
19:33:06.831000,-105.0,202.0,352.0,-924.0,495.0,-178.0,0.0,0.0,0.0
