hh:mm:ss.ms,gyroX[mdps],gyroY[mdps],gyroZ[mdps],accX[mg],accY[mg],accZ[mg],magX[mG],magY[mG],magZ[mG]
19:32:25.549000,121.0,247.0,-83.0,-1247.0,790.0,-124.0,0.0,0.0,0.0
19:32:25.553000,85.0,289.0,12.0,-1381.0,600.0,-99.0,0.0,0.0,0.0
19:32:25.558000,-139.0,361.0,-102.0,-1381.0,600.0,-99.0,0.0,0.0,0.0
19:32:25.563000,-107.0,336.0,-212.0,-1547.0,438.0,-109.0,0.0,0.0,0.0
19:32:25.567000,-151.0,364.0,-222.0,-1547.0,438.0,-109.0,0.0,0.0,0.0
19:32:25.572000,-163.0,383.0,-141.0,-1472.0,351.0,-162.0,0.0,0.0,0.0
19:32:25.577000,-82.0,340.0,-49.0,-1472.0,351.0,-162.0,0.0,0.0,0.0
19:32:25.582000,-126.0,338.0,-45.0,-1304.0,443.0,-168.0,0.0,0.0,0.0
19:32:25.586000,-197.0,337.0,-167.0,-1304.0,443.0,-168.0,0.0,0.0,0.0
19:32:25.591000,-211.0,338.0,-226.0,-1064.0,507.0,-200.0,0.0,0.0,0.0
19:32:25.596000,-157.0,299.0,-135.0,-1064.0,507.0,-200.0,0.0,0.0,0.0
19:32:25.600000,-143.0,266.0,-46.0,-927.0,411.0,-235.0,0.0,0.0,0.0
19:32:25.605000,-153.0,230.0,-67.0,-927.0,411.0,-235.0,0.0,0.0,0.0
19:32:25.610000,-69.0,183.0,-74.0,-927.0,411.0,-235.0,0.0,0.0,0.0
19:32:25.614000,-8.0,167.0,-86.0,-994.0,342.0,-257.0,0.0,0.0,0.0
19:32:25.619000,-67.0,161.0,-172.0,-994.0,342.0,-257.0,0.0,0.0,0.0
19:32:25.624000,-30.0,123.0,-263.0,-992.0,373.0,-281.0,0.0,0.0,0.0
19:32:25.628000,0.0,98.0,-259.0,-992.0,373.0,-281.0,0.0,0.0,0.0
19:32:25.633000,0.0,107.0,-192.0,-853.0,391.0,-287.0,0.0,0.0,0.0
19:32:25.638000,23.0,109.0,-163.0,-853.0,391.0,-287.0,0.0,0.0,0.0
19:32:25.643000,-11.0,126.0,-222.0,-820.0,370.0,-312.0,0.0,0.0,0.0
19:32:25.647000,-31.0,143.0,-319.0,-820.0,370.0,-312.0,0.0,0.0,0.0
19:32:25.652000,-18.0,151.0,-357.0,-875.0,451.0,-319.0,0.0,0.0,0.0
19:32:25.656000,-18.0,151.0,-357.0,-875.0,451.0,-319.0,0.0,0.0,0.0
19:32:25.661000,-21.0,149.0,-340.0,-860.0,503.0,-318.0,0.0,0.0,0.0
19:32:25.666000,-5.0,152.0,-336.0,-860.0,503.0,-318.0,0.0,0.0,0.0
19:32:25.671000,13.0,134.0,-336.0,-872.0,437.0,-325.0,0.0,0.0,0.0
19:32:25.675000,55.0,102.0,-352.0,-872.0,437.0,-325.0,0.0,0.0,0.0
19:32:25.680000,61.0,70.0,-355.0,-865.0,432.0,-324.0,0.0,0.0,0.0
19:32:25.685000,60.0,27.0,-344.0,-865.0,432.0,-324.0,0.0,0.0,0.0
19:32:25.690000,65.0,-12.0,-334.0,-745.0,514.0,-314.0,0.0,0.0,0.0
19:32:25.694000,50.0,-50.0,-316.0,-745.0,514.0,-314.0,0.0,0.0,0.0
19:32:25.698000,60.0,-100.0,-285.0,-649.0,625.0,-314.0,0.0,0.0,0.0
19:32:25.704000,18.0,-140.0,-231.0,-649.0,625.0,-314.0,0.0,0.0,0.0
19:32:25.708000,-46.0,-165.0,-235.0,-656.0,724.0,-283.0,0.0,0.0,0.0
19:32:25.713000,-91.0,-170.0,-268.0,-656.0,724.0,-283.0,0.0,0.0,0.0
19:32:25.718000,-112.0,-182.0,-209.0,-656.0,698.0,-283.0,0.0,0.0,0.0
19:32:25.722000,-119.0,-189.0,-122.0,-643.0,698.0,-245.0,0.0,0.0,0.0
19:32:25.727000,-131.0,-178.0,-112.0,-643.0,698.0,-245.0,0.0,0.0,0.0
19:32:25.732000,-119.0,-161.0,-131.0,-662.0,656.0,-247.0,0.0,0.0,0.0
19:32:25.737000,-105.0,-154.0,-86.0,-662.0,656.0,-247.0,0.0,0.0,0.0
19:32:25.741000,-95.0,-142.0,-19.0,-775.0,592.0,-244.0,0.0,0.0,0.0
19:32:25.746000,-47.0,-137.0,45.0,-775.0,592.0,-244.0,0.0,0.0,0.0
19:32:25.751000,9.0,-134.0,91.0,-843.0,387.0,-238.0,0.0,0.0,0.0
19:32:25.755000,63.0,-132.0,77.0,-843.0,387.0,-238.0,0.0,0.0,0.0
19:32:25.760000,117.0,-143.0,31.0,-796.0,254.0,-237.0,0.0,0.0,0.0
19:32:25.765000,117.0,-143.0,31.0,-796.0,254.0,-237.0,0.0,0.0,0.0
19:32:25.769000,163.0,-158.0,-4.0,-643.0,290.0,-219.0,0.0,0.0,0.0
19:32:25.774000,163.0,-154.0,-12.0,-643.0,290.0,-219.0,0.0,0.0,0.0
19:32:25.779000,155.0,-170.0,-36.0,-478.0,404.0,-193.0,0.0,0.0,0.0
19:32:25.784000,140.0,-172.0,-108.0,-478.0,404.0,-193.0,0.0,0.0,0.0
19:32:25.788000,97.0,-147.0,-211.0,-398.0,569.0,-160.0,0.0,0.0,0.0
19:32:25.793000,41.0,-136.0,-293.0,-398.0,569.0,-160.0,0.0,0.0,0.0
19:32:25.798000,-16.0,-129.0,-329.0,-366.0,648.0,-134.0,0.0,0.0,0.0
19:32:25.802000,-68.0,-100.0,-360.0,-366.0,648.0,-134.0,0.0,0.0,0.0
19:32:25.807000,-112.0,-77.0,-396.0,-417.0,611.0,-135.0,0.0,0.0,0.0
19:32:25.812000,-140.0,-57.0,-441.0,-417.0,611.0,-135.0,0.0,0.0,0.0
19:32:25.816000,-138.0,-44.0,-462.0,-491.0,514.0,-158.0,0.0,0.0,0.0
19:32:25.821000,-124.0,-31.0,-431.0,-491.0,514.0,-158.0,0.0,0.0,0.0
19:32:25.826000,-96.0,-18.0,-393.0,-522.0,368.0,-184.0,0.0,0.0,0.0
19:32:25.831000,-56.0,-3.0,-371.0,-522.0,368.0,-184.0,0.0,0.0,0.0
19:32:25.835000,-13.0,1.0,-360.0,-522.0,368.0,-184.0,0.0,0.0,0.0
19:32:25.840000,15.0,2.0,-364.0,-550.0,314.0,-193.0,0.0,0.0,0.0
19:32:25.845000,40.0,-5.0,-359.0,-550.0,314.0,-193.0,0.0,0.0,0.0
19:32:25.849000,53.0,-24.0,-321.0,-512.0,368.0,-176.0,0.0,0.0,0.0
19:32:25.854000,69.0,-44.0,-276.0,-512.0,368.0,-176.0,0.0,0.0,0.0
19:32:25.859000,85.0,-67.0,-243.0,-455.0,424.0,-155.0,0.0,0.0,0.0
19:32:25.863000,80.0,-88.0,-223.0,-455.0,424.0,-155.0,0.0,0.0,0.0
19:32:25.868000,74.0,-109.0,-203.0,-440.0,482.0,-134.0,0.0,0.0,0.0
19:32:25.873000,60.0,-119.0,-196.0,-440.0,482.0,-134.0,0.0,0.0,0.0
19:32:25.878000,60.0,-119.0,-196.0,-435.0,567.0,-114.0,0.0,0.0,0.0
19:32:25.882000,29.0,-121.0,-182.0,-435.0,567.0,-114.0,0.0,0.0,0.0
19:32:25.887000,-1.0,-119.0,-154.0,-457.0,629.0,-113.0,0.0,0.0,0.0
19:32:25.891000,-25.0,-122.0,-135.0,-457.0,629.0,-113.0,0.0,0.0,0.0
19:32:25.896000,-53.0,-115.0,-115.0,-558.0,646.0,-117.0,0.0,0.0,0.0
19:32:25.901000,-79.0,-104.0,-79.0,-558.0,646.0,-117.0,0.0,0.0,0.0
19:32:25.906000,-104.0,-99.0,-34.0,-681.0,636.0,-118.0,0.0,0.0,0.0
19:32:25.910000,-126.0,-91.0,9.0,-681.0,636.0,-118.0,0.0,0.0,0.0
19:32:25.915000,-144.0,-81.0,44.0,-752.0,600.0,-117.0,0.0,0.0,0.0
19:32:25.920000,-158.0,-67.0,80.0,-752.0,600.0,-117.0,0.0,0.0,0.0
19:32:25.925000,-172.0,-51.0,119.0,-772.0,535.0,-116.0,0.0,0.0,0.0
19:32:25.929000,-197.0,-39.0,150.0,-772.0,535.0,-116.0,0.0,0.0,0.0
19:32:25.934000,-228.0,-25.0,170.0,-779.0,452.0,-114.0,0.0,0.0,0.0
19:32:25.939000,-260.0,-8.0,177.0,-779.0,452.0,-114.0,0.0,0.0,0.0
19:32:25.943000,-286.0,8.0,174.0,-779.0,452.0,-114.0,0.0,0.0,0.0
19:32:25.948000,-294.0,21.0,168.0,-785.0,299.0,-111.0,0.0,0.0,0.0
19:32:25.953000,-289.0,36.0,142.0,-785.0,299.0,-111.0,0.0,0.0,0.0
19:32:25.957000,-267.0,53.0,78.0,-792.0,73.0,-117.0,0.0,0.0,0.0
19:32:25.962000,-232.0,69.0,-5.0,-792.0,73.0,-117.0,0.0,0.0,0.0
19:32:25.967000,-186.0,82.0,-97.0,-812.0,-96.0,-141.0,0.0,0.0,0.0
19:32:25.972000,-135.0,95.0,-196.0,-812.0,-96.0,-141.0,0.0,0.0,0.0
19:32:25.976000,-79.0,104.0,-282.0,-837.0,-151.0,-173.0,0.0,0.0,0.0
19:32:25.981000,-23.0,110.0,-342.0,-837.0,-151.0,-173.0,0.0,0.0,0.0
19:32:25.986000,-23.0,110.0,-342.0,-861.0,-128.0,-205.0,0.0,0.0,0.0
19:32:25.990000,31.0,114.0,-391.0,-861.0,-128.0,-205.0,0.0,0.0,0.0
19:32:25.995000,76.0,112.0,-433.0,-887.0,-40.0,-232.0,0.0,0.0,0.0
19:32:26.000000,109.0,107.0,-447.0,-887.0,-40.0,-232.0,0.0,0.0,0.0
19:32:26.004000,132.0,100.0,-424.0,-884.0,68.0,-238.0,0.0,0.0,0.0
19:32:26.009000,144.0,91.0,-386.0,-884.0,68.0,-238.0,0.0,0.0,0.0
19:32:26.014000,147.0,77.0,-343.0,-833.0,108.0,-213.0,0.0,0.0,0.0
19:32:26.019000,149.0,58.0,-294.0,-833.0,108.0,-213.0,0.0,0.0,0.0
19:32:26.023000,148.0,32.0,-237.0,-746.0,69.0,-160.0,0.0,0.0,0.0
19:32:26.028000,137.0,2.0,-178.0,-746.0,69.0,-160.0,0.0,0.0,0.0
19:32:26.033000,126.0,-26.0,-138.0,-667.0,1.0,-91.0,0.0,0.0,0.0
19:32:26.037000,116.0,-49.0,-126.0,-667.0,1.0,-91.0,0.0,0.0,0.0
19:32:26.042000,105.0,-61.0,-154.0,-641.0,-40.0,-41.0,0.0,0.0,0.0
19:32:26.047000,93.0,-69.0,-217.0,-641.0,-40.0,-41.0,0.0,0.0,0.0
19:32:26.051000,79.0,-70.0,-294.0,-641.0,-40.0,-41.0,0.0,0.0,0.0
19:32:26.056000,69.0,-67.0,-368.0,-672.0,-32.0,-15.0,0.0,0.0,0.0
19:32:26.061000,58.0,-56.0,-435.0,-672.0,-32.0,-15.0,0.0,0.0,0.0
19:32:26.066000,53.0,-38.0,-494.0,-733.0,-1.0,-11.0,0.0,0.0,0.0
19:32:26.070000,45.0,-15.0,-540.0,-733.0,-1.0,-11.0,0.0,0.0,0.0
19:32:26.075000,37.0,11.0,-566.0,-783.0,52.0,-34.0,0.0,0.0,0.0
19:32:26.080000,36.0,37.0,-570.0,-783.0,52.0,-34.0,0.0,0.0,0.0
19:32:26.084000,48.0,60.0,-550.0,-797.0,109.0,-71.0,0.0,0.0,0.0
19:32:26.089000,69.0,77.0,-514.0,-797.0,109.0,-71.0,0.0,0.0,0.0
19:32:26.094000,69.0,77.0,-514.0,-787.0,144.0,-109.0,0.0,0.0,0.0
19:32:26.098000,91.0,86.0,-464.0,-787.0,144.0,-109.0,0.0,0.0,0.0
19:32:26.103000,102.0,91.0,-399.0,-779.0,216.0,-142.0,0.0,0.0,0.0
19:32:26.108000,100.0,93.0,-314.0,-779.0,216.0,-142.0,0.0,0.0,0.0
19:32:26.113000,83.0,92.0,-222.0,-763.0,318.0,-163.0,0.0,0.0,0.0
19:32:26.117000,49.0,92.0,-140.0,-763.0,318.0,-163.0,0.0,0.0,0.0
19:32:26.122000,7.0,90.0,-72.0,-728.0,384.0,-170.0,0.0,0.0,0.0
19:32:26.126000,-30.0,87.0,-18.0,-728.0,384.0,-170.0,0.0,0.0,0.0
19:32:26.131000,-60.0,85.0,16.0,-679.0,376.0,-179.0,0.0,0.0,0.0
19:32:26.136000,-84.0,79.0,35.0,-679.0,376.0,-179.0,0.0,0.0,0.0
19:32:26.141000,-100.0,71.0,49.0,-653.0,333.0,-195.0,0.0,0.0,0.0
19:32:26.145000,-107.0,60.0,60.0,-653.0,333.0,-195.0,0.0,0.0,0.0
19:32:26.150000,-111.0,50.0,77.0,-686.0,291.0,-211.0,0.0,0.0,0.0
19:32:26.155000,-112.0,35.0,100.0,-686.0,291.0,-211.0,0.0,0.0,0.0
19:32:26.160000,-108.0,16.0,123.0,-686.0,291.0,-211.0,0.0,0.0,0.0
19:32:26.164000,-99.0,-4.0,142.0,-732.0,239.0,-216.0,0.0,0.0,0.0
19:32:26.169000,-86.0,-28.0,155.0,-732.0,239.0,-216.0,0.0,0.0,0.0
19:32:26.174000,-70.0,-56.0,168.0,-732.0,177.0,-213.0,0.0,0.0,0.0
19:32:26.178000,-49.0,-85.0,181.0,-718.0,127.0,-213.0,0.0,0.0,0.0
19:32:26.183000,-34.0,-116.0,189.0,-718.0,127.0,-213.0,0.0,0.0,0.0
19:32:26.188000,-28.0,-144.0,191.0,-718.0,127.0,-213.0,0.0,0.0,0.0
19:32:26.192000,-31.0,-172.0,189.0,-754.0,143.0,-219.0,0.0,0.0,0.0
19:32:26.197000,-39.0,-199.0,185.0,-754.0,143.0,-219.0,0.0,0.0,0.0
19:32:26.202000,-48.0,-225.0,185.0,-809.0,199.0,-224.0,0.0,0.0,0.0
19:32:26.207000,-48.0,-225.0,185.0,-809.0,199.0,-224.0,0.0,0.0,0.0
19:32:26.211000,-53.0,-249.0,192.0,-814.0,210.0,-226.0,0.0,0.0,0.0
19:32:26.216000,-56.0,-274.0,200.0,-814.0,210.0,-226.0,0.0,0.0,0.0
19:32:26.221000,-55.0,-294.0,211.0,-770.0,196.0,-229.0,0.0,0.0,0.0
19:32:26.225000,-52.0,-310.0,224.0,-770.0,196.0,-229.0,0.0,0.0,0.0
19:32:26.230000,-51.0,-317.0,234.0,-752.0,229.0,-238.0,0.0,0.0,0.0
19:32:26.235000,-56.0,-319.0,245.0,-752.0,229.0,-238.0,0.0,0.0,0.0
19:32:26.239000,-63.0,-320.0,259.0,-798.0,295.0,-245.0,0.0,0.0,0.0
19:32:26.244000,-68.0,-320.0,285.0,-798.0,295.0,-245.0,0.0,0.0,0.0
19:32:26.249000,-66.0,-324.0,331.0,-826.0,306.0,-243.0,0.0,0.0,0.0
19:32:26.254000,-59.0,-333.0,395.0,-826.0,306.0,-243.0,0.0,0.0,0.0
19:32:26.258000,-48.0,-347.0,470.0,-774.0,253.0,-227.0,0.0,0.0,0.0
19:32:26.263000,-33.0,-363.0,546.0,-774.0,253.0,-227.0,0.0,0.0,0.0
19:32:26.268000,-24.0,-378.0,613.0,-774.0,253.0,-227.0,0.0,0.0,0.0
19:32:26.272000,-24.0,-395.0,673.0,-697.0,229.0,-195.0,0.0,0.0,0.0
19:32:26.277000,-29.0,-412.0,728.0,-697.0,229.0,-195.0,0.0,0.0,0.0
19:32:26.282000,-37.0,-426.0,774.0,-654.0,234.0,-157.0,0.0,0.0,0.0
19:32:26.286000,-46.0,-436.0,810.0,-654.0,234.0,-157.0,0.0,0.0,0.0
19:32:26.291000,-56.0,-443.0,826.0,-641.0,215.0,-120.0,0.0,0.0,0.0
19:32:26.296000,-65.0,-446.0,817.0,-641.0,215.0,-120.0,0.0,0.0,0.0
19:32:26.301000,-72.0,-446.0,786.0,-653.0,198.0,-94.0,0.0,0.0,0.0
19:32:26.305000,-75.0,-445.0,741.0,-653.0,198.0,-94.0,0.0,0.0,0.0
19:32:26.310000,-77.0,-443.0,688.0,-667.0,214.0,-80.0,0.0,0.0,0.0
19:32:26.315000,-77.0,-443.0,688.0,-667.0,214.0,-80.0,0.0,0.0,0.0
19:32:26.319000,-77.0,-439.0,638.0,-664.0,254.0,-74.0,0.0,0.0,0.0
19:32:26.324000,-79.0,-432.0,595.0,-664.0,254.0,-74.0,0.0,0.0,0.0
19:32:26.329000,-81.0,-422.0,562.0,-669.0,306.0,-74.0,0.0,0.0,0.0
19:32:26.333000,-87.0,-407.0,543.0,-669.0,306.0,-74.0,0.0,0.0,0.0
19:32:26.338000,-100.0,-389.0,541.0,-701.0,360.0,-82.0,0.0,0.0,0.0
19:32:26.343000,-117.0,-369.0,555.0,-701.0,360.0,-82.0,0.0,0.0,0.0
19:32:26.348000,-137.0,-348.0,583.0,-749.0,408.0,-101.0,0.0,0.0,0.0
19:32:26.352000,-158.0,-326.0,623.0,-749.0,408.0,-101.0,0.0,0.0,0.0
19:32:26.357000,-177.0,-298.0,666.0,-791.0,420.0,-125.0,0.0,0.0,0.0
19:32:26.361000,-196.0,-272.0,703.0,-791.0,420.0,-125.0,0.0,0.0,0.0
19:32:26.366000,-214.0,-249.0,729.0,-821.0,416.0,-139.0,0.0,0.0,0.0
19:32:26.371000,-233.0,-228.0,745.0,-821.0,416.0,-139.0,0.0,0.0,0.0
19:32:26.376000,-249.0,-210.0,756.0,-821.0,416.0,-139.0,0.0,0.0,0.0
19:32:26.380000,-261.0,-194.0,764.0,-837.0,404.0,-141.0,0.0,0.0,0.0
19:32:26.385000,-268.0,-181.0,768.0,-837.0,404.0,-141.0,0.0,0.0,0.0
19:32:26.390000,-273.0,-172.0,773.0,-838.0,359.0,-141.0,0.0,0.0,0.0
19:32:26.395000,-273.0,-164.0,777.0,-838.0,359.0,-141.0,0.0,0.0,0.0
19:32:26.399000,-269.0,-154.0,772.0,-842.0,295.0,-142.0,0.0,0.0,0.0
19:32:26.404000,-273.0,-144.0,758.0,-842.0,295.0,-142.0,0.0,0.0,0.0
19:32:26.409000,-277.0,-134.0,742.0,-865.0,259.0,-140.0,0.0,0.0,0.0
19:32:26.413000,-280.0,-126.0,728.0,-865.0,259.0,-140.0,0.0,0.0,0.0
19:32:26.418000,-277.0,-117.0,711.0,-871.0,227.0,-130.0,0.0,0.0,0.0
19:32:26.423000,-277.0,-117.0,711.0,-871.0,227.0,-130.0,0.0,0.0,0.0
19:32:26.427000,-275.0,-107.0,695.0,-840.0,177.0,-119.0,0.0,0.0,0.0
19:32:26.432000,-271.0,-98.0,678.0,-840.0,177.0,-119.0,0.0,0.0,0.0
19:32:26.437000,-266.0,-94.0,655.0,-808.0,142.0,-111.0,0.0,0.0,0.0
19:32:26.442000,-255.0,-90.0,625.0,-808.0,142.0,-111.0,0.0,0.0,0.0
19:32:26.446000,-244.0,-86.0,589.0,-799.0,122.0,-109.0,0.0,0.0,0.0
19:32:26.451000,-235.0,-86.0,550.0,-799.0,122.0,-109.0,0.0,0.0,0.0
19:32:26.456000,-226.0,-93.0,514.0,-816.0,103.0,-110.0,0.0,0.0,0.0
19:32:26.460000,-214.0,-102.0,486.0,-816.0,103.0,-110.0,0.0,0.0,0.0
19:32:26.465000,-197.0,-109.0,460.0,-826.0,60.0,-108.0,0.0,0.0,0.0
19:32:26.470000,-175.0,-119.0,434.0,-826.0,60.0,-108.0,0.0,0.0,0.0
19:32:26.474000,-149.0,-128.0,405.0,-816.0,18.0,-111.0,0.0,0.0,0.0
19:32:26.479000,-122.0,-137.0,375.0,-816.0,18.0,-111.0,0.0,0.0,0.0
19:32:26.484000,-91.0,-146.0,349.0,-816.0,7.0,-115.0,0.0,0.0,0.0
19:32:26.489000,-60.0,-149.0,317.0,-808.0,7.0,-115.0,0.0,0.0,0.0
19:32:26.493000,-32.0,-153.0,282.0,-808.0,7.0,-115.0,0.0,0.0,0.0
19:32:26.498000,-10.0,-158.0,253.0,-817.0,21.0,-116.0,0.0,0.0,0.0
19:32:26.503000,4.0,-166.0,229.0,-817.0,21.0,-116.0,0.0,0.0,0.0
19:32:26.507000,7.0,-168.0,211.0,-810.0,69.0,-105.0,0.0,0.0,0.0
19:32:26.512000,5.0,-169.0,192.0,-810.0,69.0,-105.0,0.0,0.0,0.0
19:32:26.517000,-2.0,-172.0,180.0,-783.0,125.0,-87.0,0.0,0.0,0.0
19:32:26.521000,-7.0,-175.0,164.0,-783.0,125.0,-87.0,0.0,0.0,0.0
19:32:26.526000,-30.0,-172.0,149.0,-783.0,159.0,-73.0,0.0,0.0,0.0
19:32:26.531000,-53.0,-173.0,168.0,-783.0,159.0,-73.0,0.0,0.0,0.0
19:32:26.536000,-53.0,-173.0,168.0,-772.0,183.0,-67.0,0.0,0.0,0.0
19:32:26.540000,-72.0,-172.0,198.0,-772.0,183.0,-67.0,0.0,0.0,0.0
19:32:26.545000,-89.0,-173.0,219.0,-731.0,194.0,-63.0,0.0,0.0,0.0
19:32:26.550000,-107.0,-175.0,233.0,-731.0,194.0,-63.0,0.0,0.0,0.0
19:32:26.554000,-121.0,-174.0,242.0,-701.0,184.0,-52.0,0.0,0.0,0.0
19:32:26.559000,-126.0,-165.0,234.0,-701.0,184.0,-52.0,0.0,0.0,0.0
19:32:26.564000,-135.0,-159.0,231.0,-688.0,148.0,-51.0,0.0,0.0,0.0
19:32:26.568000,-128.0,-133.0,241.0,-688.0,148.0,-51.0,0.0,0.0,0.0
19:32:26.573000,-107.0,-115.0,226.0,-725.0,146.0,-79.0,0.0,0.0,0.0
19:32:26.578000,-88.0,-110.0,161.0,-725.0,146.0,-79.0,0.0,0.0,0.0
19:32:26.583000,-98.0,-81.0,79.0,-909.0,192.0,-111.0,0.0,0.0,0.0
19:32:26.587000,-91.0,-52.0,147.0,-909.0,192.0,-111.0,0.0,0.0,0.0
19:32:26.592000,-33.0,-24.0,265.0,-854.0,279.0,-143.0,0.0,0.0,0.0
19:32:26.596000,6.0,11.0,283.0,-854.0,279.0,-143.0,0.0,0.0,0.0
19:32:26.601000,5.0,27.0,231.0,-854.0,279.0,-143.0,0.0,0.0,0.0
19:32:26.606000,14.0,32.0,203.0,-680.0,403.0,-148.0,0.0,0.0,0.0
19:32:26.611000,24.0,39.0,183.0,-680.0,403.0,-148.0,0.0,0.0,0.0
19:32:26.615000,34.0,44.0,205.0,-808.0,447.0,-140.0,0.0,0.0,0.0
19:32:26.620000,49.0,40.0,297.0,-808.0,447.0,-140.0,0.0,0.0,0.0
19:32:26.625000,46.0,37.0,390.0,-944.0,447.0,-156.0,0.0,0.0,0.0
19:32:26.630000,32.0,29.0,453.0,-944.0,447.0,-156.0,0.0,0.0,0.0
19:32:26.634000,17.0,22.0,500.0,-990.0,529.0,-175.0,0.0,0.0,0.0
19:32:26.639000,-9.0,2.0,552.0,-990.0,529.0,-175.0,0.0,0.0,0.0
19:32:26.644000,-9.0,2.0,552.0,-1034.0,634.0,-195.0,0.0,0.0,0.0
19:32:26.648000,-41.0,3.0,615.0,-1034.0,634.0,-195.0,0.0,0.0,0.0
19:32:26.652000,-68.0,-14.0,646.0,-1044.0,660.0,-207.0,0.0,0.0,0.0
19:32:26.658000,-100.0,-32.0,688.0,-1044.0,660.0,-207.0,0.0,0.0,0.0
19:32:26.662000,-126.0,-58.0,727.0,-1113.0,556.0,-194.0,0.0,0.0,0.0
19:32:26.667000,-137.0,-92.0,767.0,-1113.0,556.0,-194.0,0.0,0.0,0.0
19:32:26.672000,-141.0,-127.0,791.0,-1217.0,348.0,-160.0,0.0,0.0,0.0
19:32:26.677000,-137.0,-164.0,772.0,-1217.0,348.0,-160.0,0.0,0.0,0.0
19:32:26.681000,-105.0,-188.0,730.0,-1196.0,177.0,-146.0,0.0,0.0,0.0
19:32:26.686000,-72.0,-203.0,676.0,-1196.0,177.0,-146.0,0.0,0.0,0.0
19:32:26.691000,-26.0,-191.0,499.0,-1239.0,203.0,-173.0,0.0,0.0,0.0
19:32:26.695000,4.0,-177.0,332.0,-1239.0,203.0,-173.0,0.0,0.0,0.0
19:32:26.700000,40.0,-170.0,273.0,-1361.0,293.0,-197.0,0.0,0.0,0.0
19:32:26.705000,39.0,-167.0,287.0,-1361.0,293.0,-197.0,0.0,0.0,0.0
19:32:26.709000,64.0,-147.0,275.0,-1361.0,293.0,-197.0,0.0,0.0,0.0
19:32:26.714000,70.0,-131.0,199.0,-1509.0,365.0,-215.0,0.0,0.0,0.0
19:32:26.719000,77.0,-99.0,146.0,-1509.0,365.0,-215.0,0.0,0.0,0.0
19:32:26.724000,88.0,-76.0,129.0,-1688.0,390.0,-224.0,0.0,0.0,0.0
19:32:26.728000,106.0,-63.0,72.0,-1688.0,390.0,-224.0,0.0,0.0,0.0
19:32:26.733000,100.0,-49.0,13.0,-1726.0,252.0,-195.0,0.0,0.0,0.0
19:32:26.738000,129.0,-25.0,-44.0,-1726.0,252.0,-195.0,0.0,0.0,0.0
19:32:26.742000,146.0,-16.0,-69.0,-1540.0,97.0,-156.0,0.0,0.0,0.0
19:32:26.747000,147.0,-23.0,-49.0,-1540.0,97.0,-156.0,0.0,0.0,0.0
19:32:26.752000,147.0,-23.0,-49.0,-1308.0,32.0,-106.0,0.0,0.0,0.0
19:32:26.756000,172.0,-57.0,53.0,-1308.0,32.0,-106.0,0.0,0.0,0.0
19:32:26.761000,147.0,-66.0,166.0,-1182.0,-70.0,-65.0,0.0,0.0,0.0
19:32:26.766000,127.0,-65.0,255.0,-1182.0,-70.0,-65.0,0.0,0.0,0.0
19:32:26.771000,126.0,-67.0,308.0,-1104.0,-194.0,-45.0,0.0,0.0,0.0
19:32:26.775000,107.0,-70.0,379.0,-1104.0,-194.0,-45.0,0.0,0.0,0.0
19:32:26.780000,102.0,-74.0,466.0,-1021.0,-262.0,-15.0,0.0,0.0,0.0
19:32:26.785000,81.0,-78.0,521.0,-1021.0,-262.0,-15.0,0.0,0.0,0.0
19:32:26.789000,68.0,-84.0,564.0,-948.0,-323.0,14.0,0.0,0.0,0.0
19:32:26.794000,44.0,-88.0,570.0,-948.0,-323.0,14.0,0.0,0.0,0.0
19:32:26.799000,15.0,-89.0,557.0,-919.0,-383.0,33.0,0.0,0.0,0.0
19:32:26.803000,12.0,-88.0,520.0,-919.0,-383.0,33.0,0.0,0.0,0.0
19:32:26.808000,-11.0,-79.0,480.0,-928.0,-463.0,38.0,0.0,0.0,0.0
19:32:26.813000,-23.0,-69.0,433.0,-928.0,-463.0,38.0,0.0,0.0,0.0
19:32:26.818000,-18.0,-60.0,330.0,-928.0,-463.0,38.0,0.0,0.0,0.0
19:32:26.822000,-20.0,-46.0,177.0,-1012.0,-488.0,26.0,0.0,0.0,0.0
19:32:26.827000,-35.0,-32.0,47.0,-1012.0,-488.0,26.0,0.0,0.0,0.0
19:32:26.831000,-30.0,-21.0,-49.0,-1118.0,-464.0,7.0,0.0,0.0,0.0
19:32:26.836000,-20.0,-16.0,-116.0,-1118.0,-464.0,7.0,0.0,0.0,0.0
19:32:26.841000,-10.0,-11.0,-178.0,-1176.0,-443.0,-11.0,0.0,0.0,0.0
19:32:26.846000,-3.0,-2.0,-249.0,-1176.0,-443.0,-11.0,0.0,0.0,0.0
19:32:26.850000,22.0,-2.0,-280.0,-1233.0,-421.0,-25.0,0.0,0.0,0.0
19:32:26.855000,28.0,-11.0,-272.0,-1233.0,-421.0,-25.0,0.0,0.0,0.0
19:32:26.860000,41.0,-12.0,-274.0,-1235.0,-385.0,-33.0,0.0,0.0,0.0
19:32:26.865000,41.0,-12.0,-274.0,-1235.0,-385.0,-33.0,0.0,0.0,0.0
19:32:26.869000,52.0,-15.0,-278.0,-1212.0,-310.0,-34.0,0.0,0.0,0.0
19:32:26.874000,39.0,-19.0,-290.0,-1212.0,-310.0,-34.0,0.0,0.0,0.0
19:32:26.879000,83.0,-20.0,-323.0,-1240.0,-212.0,-45.0,0.0,0.0,0.0
19:32:26.883000,65.0,-21.0,-364.0,-1240.0,-212.0,-45.0,0.0,0.0,0.0
19:32:26.888000,38.0,-21.0,-364.0,-1251.0,-101.0,-46.0,0.0,0.0,0.0
19:32:26.893000,28.0,-21.0,-317.0,-1251.0,-101.0,-46.0,0.0,0.0,0.0
19:32:26.897000,18.0,-28.0,-259.0,-1229.0,-6.0,-26.0,0.0,0.0,0.0
19:32:26.902000,-20.0,-35.0,-228.0,-1229.0,-6.0,-26.0,0.0,0.0,0.0
19:32:26.907000,-14.0,-45.0,-221.0,-1201.0,-26.0,-23.0,0.0,0.0,0.0
19:32:26.912000,-39.0,-50.0,-247.0,-1201.0,-26.0,-23.0,0.0,0.0,0.0
19:32:26.916000,-39.0,-56.0,-239.0,-1187.0,-140.0,-29.0,0.0,0.0,0.0
19:32:26.921000,-16.0,-69.0,-154.0,-1187.0,-140.0,-29.0,0.0,0.0,0.0
19:32:26.926000,41.0,-86.0,-42.0,-1187.0,-140.0,-29.0,0.0,0.0,0.0
19:32:26.930000,96.0,-122.0,27.0,-1176.0,-227.0,-9.0,0.0,0.0,0.0
19:32:26.935000,114.0,-165.0,102.0,-1176.0,-227.0,-9.0,0.0,0.0,0.0
19:32:26.940000,178.0,-209.0,205.0,-1126.0,-318.0,68.0,0.0,0.0,0.0
19:32:26.944000,269.0,-239.0,256.0,-1126.0,-318.0,68.0,0.0,0.0,0.0
19:32:26.949000,312.0,-276.0,256.0,-1100.0,-392.0,143.0,0.0,0.0,0.0
19:32:26.954000,330.0,-308.0,247.0,-1100.0,-392.0,143.0,0.0,0.0,0.0
19:32:26.959000,312.0,-319.0,176.0,-1168.0,-280.0,193.0,0.0,0.0,0.0
19:32:26.963000,250.0,-319.0,120.0,-1168.0,-280.0,193.0,0.0,0.0,0.0
19:32:26.968000,129.0,-305.0,198.0,-1260.0,-101.0,233.0,0.0,0.0,0.0
19:32:26.973000,129.0,-305.0,198.0,-1260.0,-101.0,233.0,0.0,0.0,0.0
19:32:26.977000,4.0,-284.0,279.0,-1285.0,-4.0,226.0,0.0,0.0,0.0
19:32:26.982000,-135.0,-246.0,219.0,-1285.0,-4.0,226.0,0.0,0.0,0.0
19:32:26.987000,-322.0,-193.0,84.0,-1268.0,171.0,203.0,0.0,0.0,0.0
19:32:26.991000,-501.0,-153.0,12.0,-1268.0,171.0,203.0,0.0,0.0,0.0
19:32:26.996000,-623.0,-106.0,-21.0,-1235.0,227.0,177.0,0.0,0.0,0.0
19:32:27.001000,-699.0,-69.0,-72.0,-1235.0,227.0,177.0,0.0,0.0,0.0
19:32:27.006000,-762.0,-41.0,-69.0,-1197.0,12.0,144.0,0.0,0.0,0.0
19:32:27.010000,-782.0,-16.0,-25.0,-1197.0,12.0,144.0,0.0,0.0,0.0
19:32:27.015000,-788.0,16.0,-16.0,-1188.0,-187.0,107.0,0.0,0.0,0.0
19:32:27.020000,-770.0,46.0,-47.0,-1188.0,-187.0,107.0,0.0,0.0,0.0
19:32:27.024000,-748.0,60.0,16.0,-1172.0,-279.0,71.0,0.0,0.0,0.0
19:32:27.029000,-673.0,63.0,215.0,-1172.0,-279.0,71.0,0.0,0.0,0.0
19:32:27.034000,-602.0,77.0,349.0,-1172.0,-279.0,71.0,0.0,0.0,0.0
19:32:27.038000,-401.0,105.0,271.0,-1124.0,-160.0,34.0,0.0,0.0,0.0
19:32:27.043000,-219.0,128.0,225.0,-1124.0,-160.0,34.0,0.0,0.0,0.0
19:32:27.048000,-348.0,107.0,402.0,-884.0,-36.0,-22.0,0.0,0.0,0.0
19:32:27.053000,-338.0,67.0,636.0,-884.0,-36.0,-22.0,0.0,0.0,0.0
19:32:27.057000,-218.0,22.0,739.0,-627.0,-279.0,-42.0,0.0,0.0,0.0
19:32:27.062000,-224.0,15.0,662.0,-627.0,-279.0,-42.0,0.0,0.0,0.0
19:32:27.066000,-224.0,15.0,662.0,-736.0,-413.0,-30.0,0.0,0.0,0.0
19:32:27.071000,-282.0,29.0,316.0,-736.0,-413.0,-30.0,0.0,0.0,0.0
19:32:27.076000,-65.0,-22.0,223.0,-955.0,-357.0,-19.0,0.0,0.0,0.0
19:32:27.081000,-65.0,-22.0,223.0,-955.0,-357.0,-19.0,0.0,0.0,0.0
19:32:27.085000,24.0,-5.0,261.0,-952.0,-357.0,-3.0,0.0,0.0,0.0
19:32:27.090000,-4.0,-7.0,419.0,-952.0,-357.0,-3.0,0.0,0.0,0.0
19:32:27.095000,11.0,0.0,441.0,-792.0,-226.0,29.0,0.0,0.0,0.0
19:32:27.100000,-30.0,5.0,458.0,-792.0,-226.0,29.0,0.0,0.0,0.0
19:32:27.104000,-61.0,-16.0,593.0,-696.0,-178.0,86.0,0.0,0.0,0.0
19:32:27.109000,-81.0,-17.0,634.0,-696.0,-178.0,86.0,0.0,0.0,0.0
19:32:27.114000,-64.0,-5.0,562.0,-830.0,-206.0,80.0,0.0,0.0,0.0
19:32:27.118000,-59.0,0.0,452.0,-830.0,-206.0,80.0,0.0,0.0,0.0
19:32:27.123000,-76.0,2.0,417.0,-1057.0,-213.0,40.0,0.0,0.0,0.0
19:32:27.128000,-102.0,10.0,438.0,-1057.0,-213.0,40.0,0.0,0.0,0.0
19:32:27.132000,-144.0,25.0,399.0,-1140.0,-242.0,27.0,0.0,0.0,0.0
19:32:27.137000,-180.0,52.0,308.0,-1140.0,-242.0,27.0,0.0,0.0,0.0
19:32:27.142000,-206.0,69.0,260.0,-1140.0,-212.0,27.0,0.0,0.0,0.0
19:32:27.147000,-249.0,83.0,271.0,-1050.0,-212.0,9.0,0.0,0.0,0.0
19:32:27.151000,-281.0,100.0,263.0,-1050.0,-212.0,9.0,0.0,0.0,0.0
19:32:27.156000,-302.0,117.0,215.0,-932.0,-196.0,0.0,0.0,0.0,0.0
19:32:27.161000,-357.0,112.0,196.0,-932.0,-196.0,0.0,0.0,0.0,0.0
19:32:27.165000,-380.0,119.0,198.0,-887.0,-175.0,17.0,0.0,0.0,0.0
19:32:27.170000,-383.0,125.0,237.0,-887.0,-175.0,17.0,0.0,0.0,0.0
19:32:27.175000,-394.0,114.0,301.0,-875.0,-177.0,22.0,0.0,0.0,0.0
19:32:27.179000,-394.0,108.0,349.0,-875.0,-177.0,22.0,0.0,0.0,0.0
19:32:27.184000,-383.0,100.0,380.0,-917.0,-273.0,18.0,0.0,0.0,0.0
19:32:27.189000,-383.0,100.0,380.0,-917.0,-273.0,18.0,0.0,0.0,0.0
19:32:27.194000,-361.0,93.0,361.0,-980.0,-371.0,27.0,0.0,0.0,0.0
19:32:27.198000,-314.0,90.0,319.0,-980.0,-371.0,27.0,0.0,0.0,0.0
19:32:27.203000,-280.0,90.0,306.0,-940.0,-396.0,31.0,0.0,0.0,0.0
19:32:27.208000,-266.0,85.0,345.0,-940.0,-396.0,31.0,0.0,0.0,0.0
19:32:27.212000,-232.0,90.0,375.0,-905.0,-384.0,38.0,0.0,0.0,0.0
19:32:27.217000,-233.0,97.0,366.0,-905.0,-384.0,38.0,0.0,0.0,0.0
19:32:27.222000,-214.0,105.0,353.0,-951.0,-379.0,44.0,0.0,0.0,0.0
19:32:27.226000,-203.0,123.0,339.0,-951.0,-379.0,44.0,0.0,0.0,0.0
19:32:27.231000,-200.0,142.0,268.0,-1006.0,-344.0,46.0,0.0,0.0,0.0
19:32:27.236000,-186.0,160.0,166.0,-1006.0,-344.0,46.0,0.0,0.0,0.0
19:32:27.240000,-166.0,169.0,133.0,-984.0,-317.0,42.0,0.0,0.0,0.0
19:32:27.245000,-146.0,164.0,114.0,-984.0,-317.0,42.0,0.0,0.0,0.0
19:32:27.250000,-135.0,155.0,67.0,-888.0,-346.0,41.0,0.0,0.0,0.0
19:32:27.255000,-101.0,146.0,58.0,-888.0,-346.0,41.0,0.0,0.0,0.0
19:32:27.259000,-74.0,143.0,77.0,-888.0,-346.0,41.0,0.0,0.0,0.0
19:32:27.264000,-61.0,126.0,76.0,-842.0,-345.0,42.0,0.0,0.0,0.0
19:32:27.269000,-56.0,115.0,127.0,-842.0,-345.0,42.0,0.0,0.0,0.0
19:32:27.273000,-82.0,100.0,156.0,-838.0,-300.0,54.0,0.0,0.0,0.0
19:32:27.278000,-92.0,85.0,163.0,-838.0,-300.0,54.0,0.0,0.0,0.0
19:32:27.283000,-96.0,67.0,181.0,-811.0,-261.0,70.0,0.0,0.0,0.0
19:32:27.287000,-121.0,62.0,183.0,-811.0,-261.0,70.0,0.0,0.0,0.0
19:32:27.292000,-151.0,63.0,165.0,-784.0,-223.0,78.0,0.0,0.0,0.0
19:32:27.297000,-182.0,70.0,149.0,-784.0,-223.0,78.0,0.0,0.0,0.0
19:32:27.301000,-182.0,70.0,149.0,-799.0,-162.0,78.0,0.0,0.0,0.0
19:32:27.306000,-221.0,77.0,189.0,-799.0,-162.0,78.0,0.0,0.0,0.0
19:32:27.311000,-266.0,82.0,257.0,-794.0,-99.0,62.0,0.0,0.0,0.0
19:32:27.316000,-300.0,89.0,306.0,-794.0,-99.0,62.0,0.0,0.0,0.0
19:32:27.320000,-367.0,88.0,302.0,-845.0,-63.0,46.0,0.0,0.0,0.0
19:32:27.325000,-417.0,91.0,259.0,-845.0,-63.0,46.0,0.0,0.0,0.0
19:32:27.330000,-460.0,91.0,184.0,-940.0,-50.0,32.0,0.0,0.0,0.0
19:32:27.334000,-540.0,87.0,140.0,-940.0,-50.0,32.0,0.0,0.0,0.0
19:32:27.339000,-591.0,70.0,135.0,-954.0,-154.0,23.0,0.0,0.0,0.0
19:32:27.344000,-496.0,-146.0,398.0,-954.0,-154.0,23.0,0.0,0.0,0.0
19:32:27.349000,-392.0,-615.0,1248.0,-891.0,-735.0,-9.0,0.0,0.0,0.0
19:32:27.353000,-219.0,-179.0,989.0,-891.0,-735.0,-9.0,0.0,0.0,0.0
19:32:27.358000,-147.0,-42.0,398.0,-959.0,-536.0,-48.0,0.0,0.0,0.0
19:32:27.363000,-264.0,-37.0,394.0,-959.0,-536.0,-48.0,0.0,0.0,0.0
19:32:27.367000,-501.0,17.0,366.0,-959.0,-536.0,-48.0,0.0,0.0,0.0
19:32:27.372000,-559.0,53.0,-14.0,-1024.0,58.0,-20.0,0.0,0.0,0.0
19:32:27.377000,-537.0,53.0,-410.0,-928.0,118.0,-25.0,0.0,0.0,0.0
19:32:27.381000,-551.0,37.0,-499.0,-928.0,118.0,-25.0,0.0,0.0,0.0
19:32:27.386000,-562.0,33.0,-339.0,-928.0,118.0,-25.0,0.0,0.0,0.0
19:32:27.391000,-552.0,35.0,-185.0,-865.0,-34.0,-82.0,0.0,0.0,0.0
19:32:27.396000,-542.0,41.0,-166.0,-865.0,-34.0,-82.0,0.0,0.0,0.0
19:32:27.400000,-555.0,67.0,-260.0,-963.0,-259.0,-99.0,0.0,0.0,0.0
19:32:27.405000,-575.0,90.0,-401.0,-963.0,-259.0,-99.0,0.0,0.0,0.0
19:32:27.410000,-575.0,90.0,-401.0,-1069.0,-71.0,-127.0,0.0,0.0,0.0
19:32:27.414000,-597.0,92.0,-525.0,-1069.0,-71.0,-127.0,0.0,0.0,0.0
19:32:27.419000,-629.0,88.0,-637.0,-1009.0,77.0,-158.0,0.0,0.0,0.0
19:32:27.424000,-665.0,65.0,-752.0,-1009.0,77.0,-158.0,0.0,0.0,0.0
19:32:27.428000,-716.0,30.0,-819.0,-849.0,86.0,-161.0,0.0,0.0,0.0
19:32:27.433000,-731.0,-21.0,-844.0,-849.0,86.0,-161.0,0.0,0.0,0.0
19:32:27.438000,-758.0,-86.0,-823.0,-666.0,145.0,-157.0,0.0,0.0,0.0
19:32:27.443000,-851.0,-111.0,-744.0,-666.0,145.0,-157.0,0.0,0.0,0.0
19:32:27.447000,-938.0,-109.0,-633.0,-662.0,162.0,-167.0,0.0,0.0,0.0
19:32:27.452000,-957.0,-118.0,-530.0,-662.0,162.0,-167.0,0.0,0.0,0.0
19:32:27.457000,-939.0,-144.0,-499.0,-883.0,20.0,-187.0,0.0,0.0,0.0
19:32:27.461000,-917.0,-165.0,-520.0,-883.0,20.0,-187.0,0.0,0.0,0.0
19:32:27.466000,-893.0,-185.0,-523.0,-1044.0,-91.0,-173.0,0.0,0.0,0.0
19:32:27.471000,-886.0,-211.0,-485.0,-1044.0,-91.0,-173.0,0.0,0.0,0.0
19:32:27.475000,-875.0,-225.0,-403.0,-1044.0,-91.0,-173.0,0.0,0.0,0.0
19:32:27.480000,-884.0,-232.0,-340.0,-1009.0,-108.0,-143.0,0.0,0.0,0.0
19:32:27.485000,-880.0,-233.0,-356.0,-1009.0,-108.0,-143.0,0.0,0.0,0.0
19:32:27.490000,-877.0,-215.0,-406.0,-926.0,-2.0,-145.0,0.0,0.0,0.0
19:32:27.494000,-861.0,-200.0,-397.0,-926.0,-2.0,-145.0,0.0,0.0,0.0
19:32:27.499000,-831.0,-179.0,-290.0,-897.0,25.0,-172.0,0.0,0.0,0.0
19:32:27.504000,-756.0,-149.0,-171.0,-897.0,25.0,-172.0,0.0,0.0,0.0
19:32:27.508000,-679.0,-119.0,-103.0,-943.0,-102.0,-201.0,0.0,0.0,0.0
19:32:27.513000,-648.0,-104.0,-49.0,-943.0,-102.0,-201.0,0.0,0.0,0.0
19:32:27.518000,-648.0,-104.0,-49.0,-978.0,-162.0,-206.0,0.0,0.0,0.0
19:32:27.522000,-633.0,-81.0,19.0,-978.0,-162.0,-206.0,0.0,0.0,0.0
19:32:27.527000,-608.0,-44.0,-27.0,-1025.0,-38.0,-188.0,0.0,0.0,0.0
19:32:27.532000,-662.0,33.0,-258.0,-1025.0,-38.0,-188.0,0.0,0.0,0.0
19:32:27.536000,-777.0,56.0,-547.0,-1007.0,289.0,-157.0,0.0,0.0,0.0
19:32:27.541000,-861.0,22.0,-508.0,-1007.0,289.0,-157.0,0.0,0.0,0.0
19:32:27.546000,-865.0,-7.0,-233.0,-804.0,212.0,-153.0,0.0,0.0,0.0
19:32:27.551000,-814.0,-19.0,-47.0,-804.0,212.0,-153.0,0.0,0.0,0.0
19:32:27.555000,-792.0,-28.0,-4.0,-791.0,-5.0,-212.0,0.0,0.0,0.0
19:32:27.560000,-779.0,-2.0,-55.0,-791.0,-5.0,-212.0,0.0,0.0,0.0
19:32:27.565000,-751.0,1.0,-125.0,-1009.0,136.0,-292.0,0.0,0.0,0.0
19:32:27.569000,-756.0,-42.0,-130.0,-1009.0,136.0,-292.0,0.0,0.0,0.0
19:32:27.574000,-749.0,-80.0,-289.0,-1209.0,142.0,-288.0,0.0,0.0,0.0
19:32:27.579000,-751.0,-137.0,-431.0,-1209.0,142.0,-288.0,0.0,0.0,0.0
19:32:27.584000,-750.0,-172.0,-475.0,-1209.0,142.0,-288.0,0.0,0.0,0.0
19:32:27.588000,-732.0,-228.0,-479.0,-1321.0,-155.0,-148.0,0.0,0.0,0.0
19:32:27.593000,-688.0,-312.0,-511.0,-1321.0,-155.0,-148.0,0.0,0.0,0.0
19:32:27.598000,-668.0,-380.0,-531.0,-1259.0,-387.0,-57.0,0.0,0.0,0.0
19:32:27.602000,-679.0,-423.0,-518.0,-1259.0,-387.0,-57.0,0.0,0.0,0.0
19:32:27.606000,-737.0,-438.0,-518.0,-1143.0,-166.0,-61.0,0.0,0.0,0.0
19:32:27.612000,-795.0,-450.0,-551.0,-1143.0,-166.0,-61.0,0.0,0.0,0.0
19:32:27.616000,-842.0,-444.0,-583.0,-1072.0,176.0,-29.0,0.0,0.0,0.0
19:32:27.621000,-854.0,-430.0,-624.0,-1072.0,176.0,-29.0,0.0,0.0,0.0
19:32:27.626000,-858.0,-424.0,-665.0,-1013.0,221.0,25.0,0.0,0.0,0.0
19:32:27.631000,-858.0,-424.0,-665.0,-1013.0,221.0,25.0,0.0,0.0,0.0
19:32:27.635000,-870.0,-413.0,-729.0,-989.0,90.0,65.0,0.0,0.0,0.0
19:32:27.640000,-882.0,-413.0,-772.0,-989.0,90.0,65.0,0.0,0.0,0.0
19:32:27.645000,-881.0,-411.0,-807.0,-975.0,69.0,90.0,0.0,0.0,0.0
19:32:27.649000,-877.0,-410.0,-833.0,-975.0,69.0,90.0,0.0,0.0,0.0
19:32:27.654000,-889.0,-415.0,-816.0,-958.0,91.0,106.0,0.0,0.0,0.0
19:32:27.659000,-870.0,-421.0,-748.0,-958.0,91.0,106.0,0.0,0.0,0.0
19:32:27.663000,-825.0,-473.0,-609.0,-1180.0,55.0,81.0,0.0,0.0,0.0
19:32:27.668000,-763.0,-534.0,-624.0,-1180.0,55.0,81.0,0.0,0.0,0.0
19:32:27.673000,-764.0,-601.0,-756.0,-1395.0,227.0,61.0,0.0,0.0,0.0
19:32:27.678000,-828.0,-644.0,-711.0,-1395.0,227.0,61.0,0.0,0.0,0.0
19:32:27.682000,-850.0,-604.0,-579.0,-1301.0,187.0,135.0,0.0,0.0,0.0
19:32:27.687000,-821.0,-573.0,-564.0,-1301.0,187.0,135.0,0.0,0.0,0.0
19:32:27.692000,-802.0,-585.0,-611.0,-1301.0,187.0,135.0,0.0,0.0,0.0
19:32:27.696000,-828.0,-533.0,-555.0,-1154.0,-118.0,228.0,0.0,0.0,0.0
19:32:27.701000,-788.0,-436.0,-475.0,-1154.0,-118.0,228.0,0.0,0.0,0.0
19:32:27.706000,-828.0,-305.0,-469.0,-1335.0,-173.0,235.0,0.0,0.0,0.0
19:32:27.710000,-931.0,-245.0,-298.0,-1335.0,-173.0,235.0,0.0,0.0,0.0
19:32:27.715000,-909.0,-255.0,-217.0,-1466.0,-20.0,252.0,0.0,0.0,0.0
19:32:27.720000,-877.0,-246.0,-315.0,-1466.0,-20.0,252.0,0.0,0.0,0.0
19:32:27.725000,-829.0,-230.0,-407.0,-1190.0,60.0,323.0,0.0,0.0,0.0
19:32:27.729000,-795.0,-207.0,-550.0,-1190.0,60.0,323.0,0.0,0.0,0.0
19:32:27.734000,-804.0,-168.0,-752.0,-1128.0,105.0,357.0,0.0,0.0,0.0
19:32:27.739000,-804.0,-168.0,-752.0,-1128.0,105.0,357.0,0.0,0.0,0.0
19:32:27.743000,-811.0,-130.0,-938.0,-1286.0,205.0,383.0,0.0,0.0,0.0
19:32:27.748000,-813.0,-99.0,-985.0,-1286.0,205.0,383.0,0.0,0.0,0.0
19:32:27.753000,-793.0,-91.0,-903.0,-1324.0,37.0,411.0,0.0,0.0,0.0
19:32:27.757000,-751.0,-109.0,-810.0,-1324.0,37.0,411.0,0.0,0.0,0.0
19:32:27.762000,-730.0,-140.0,-625.0,-1432.0,-152.0,426.0,0.0,0.0,0.0
19:32:27.767000,-761.0,-105.0,-584.0,-1432.0,-152.0,426.0,0.0,0.0,0.0
19:32:27.771000,-800.0,-51.0,-489.0,-1580.0,26.0,400.0,0.0,0.0,0.0
19:32:27.776000,-863.0,-80.0,-304.0,-1580.0,26.0,400.0,0.0,0.0,0.0
19:32:27.781000,-833.0,-156.0,144.0,-1217.0,144.0,367.0,0.0,0.0,0.0
19:32:27.786000,-737.0,-186.0,351.0,-1217.0,144.0,367.0,0.0,0.0,0.0
19:32:27.790000,-546.0,-198.0,730.0,-822.0,79.0,318.0,0.0,0.0,0.0
19:32:27.795000,-519.0,-191.0,910.0,-822.0,79.0,318.0,0.0,0.0,0.0
19:32:27.800000,-634.0,-105.0,738.0,-822.0,79.0,318.0,0.0,0.0,0.0
19:32:27.804000,-737.0,-7.0,297.0,-1173.0,143.0,309.0,0.0,0.0,0.0
19:32:27.809000,-760.0,71.0,-144.0,-1173.0,143.0,309.0,0.0,0.0,0.0
19:32:27.814000,-826.0,116.0,-444.0,-1335.0,150.0,339.0,0.0,0.0,0.0
19:32:27.819000,-921.0,128.0,-587.0,-1335.0,150.0,339.0,0.0,0.0,0.0
19:32:27.823000,-980.0,140.0,-687.0,-886.0,105.0,369.0,0.0,0.0,0.0
19:32:27.828000,-982.0,143.0,-849.0,-886.0,105.0,369.0,0.0,0.0,0.0
19:32:27.833000,-1016.0,158.0,-973.0,-654.0,86.0,355.0,0.0,0.0,0.0
19:32:27.837000,-1078.0,184.0,-1054.0,-654.0,86.0,355.0,0.0,0.0,0.0
19:32:27.842000,-1129.0,214.0,-1162.0,-808.0,133.0,292.0,0.0,0.0,0.0
19:32:27.847000,-1129.0,214.0,-1162.0,-808.0,133.0,292.0,0.0,0.0,0.0
19:32:27.851000,-1175.0,240.0,-1353.0,-1046.0,215.0,266.0,0.0,0.0,0.0
19:32:27.856000,-1213.0,239.0,-1579.0,-1046.0,215.0,266.0,0.0,0.0,0.0
19:32:27.861000,-1271.0,238.0,-1742.0,-1221.0,294.0,232.0,0.0,0.0,0.0
19:32:27.866000,-1362.0,258.0,-1856.0,-1221.0,294.0,232.0,0.0,0.0,0.0
19:32:27.870000,-1425.0,273.0,-1763.0,-1242.0,338.0,165.0,0.0,0.0,0.0
19:32:27.875000,-1530.0,294.0,-1591.0,-1242.0,338.0,165.0,0.0,0.0,0.0
19:32:27.880000,-1526.0,214.0,-1342.0,-1169.0,239.0,80.0,0.0,0.0,0.0
19:32:27.884000,-1500.0,147.0,-976.0,-1169.0,239.0,80.0,0.0,0.0,0.0
19:32:27.889000,-1521.0,106.0,-758.0,-1153.0,162.0,21.0,0.0,0.0,0.0
19:32:27.894000,-1520.0,63.0,-739.0,-1153.0,162.0,21.0,0.0,0.0,0.0
19:32:27.898000,-1502.0,18.0,-790.0,-1092.0,241.0,-27.0,0.0,0.0,0.0
19:32:27.903000,-1486.0,-28.0,-807.0,-1092.0,241.0,-27.0,0.0,0.0,0.0
19:32:27.908000,-1463.0,-84.0,-788.0,-905.0,301.0,-61.0,0.0,0.0,0.0
19:32:27.913000,-1433.0,-142.0,-765.0,-905.0,301.0,-61.0,0.0,0.0,0.0
19:32:27.917000,-1411.0,-187.0,-771.0,-905.0,301.0,-61.0,0.0,0.0,0.0
19:32:27.922000,-1393.0,-223.0,-778.0,-807.0,289.0,-81.0,0.0,0.0,0.0
19:32:27.927000,-1384.0,-250.0,-809.0,-807.0,289.0,-81.0,0.0,0.0,0.0
19:32:27.931000,-1379.0,-271.0,-816.0,-872.0,311.0,-93.0,0.0,0.0,0.0
19:32:27.936000,-1368.0,-284.0,-777.0,-872.0,311.0,-93.0,0.0,0.0,0.0
19:32:27.941000,-1379.0,-271.0,-744.0,-899.0,288.0,-82.0,0.0,0.0,0.0
19:32:27.945000,-1619.0,-63.0,-709.0,-899.0,288.0,-82.0,0.0,0.0,0.0
19:32:27.950000,-1808.0,-33.0,-987.0,-937.0,293.0,-44.0,0.0,0.0,0.0
19:32:27.955000,-1409.0,-216.0,-967.0,-937.0,293.0,-44.0,0.0,0.0,0.0
19:32:27.960000,-1409.0,-216.0,-967.0,-894.0,231.0,-72.0,0.0,0.0,0.0
19:32:27.964000,-1295.0,-303.0,-718.0,-894.0,231.0,-72.0,0.0,0.0,0.0
19:32:27.969000,-1185.0,-350.0,-881.0,-866.0,91.0,-94.0,0.0,0.0,0.0
