hh:mm:ss.ms,gyroX[mdps],gyroY[mdps],gyroZ[mdps],accX[mg],accY[mg],accZ[mg],magX[mG],magY[mG],magZ[mG]
19:33:07.498000,-99.0,150.0,357.0,-582.0,464.0,-88.0,0.0,0.0,0.0
19:33:07.503000,-99.0,150.0,357.0,-582.0,464.0,-88.0,0.0,0.0,0.0
19:33:07.508000,-81.0,137.0,359.0,-549.0,423.0,-81.0,0.0,0.0,0.0
19:33:07.512000,-61.0,120.0,358.0,-549.0,423.0,-81.0,0.0,0.0,0.0
19:33:07.516000,-42.0,102.0,333.0,-493.0,406.0,-86.0,0.0,0.0,0.0
19:33:07.522000,-30.0,82.0,291.0,-493.0,406.0,-86.0,0.0,0.0,0.0
19:33:07.526000,-28.0,65.0,243.0,-445.0,442.0,-111.0,0.0,0.0,0.0
19:33:07.531000,-37.0,51.0,174.0,-445.0,442.0,-111.0,0.0,0.0,0.0
19:33:07.536000,-53.0,37.0,113.0,-433.0,498.0,-136.0,0.0,0.0,0.0
19:33:07.540000,-77.0,28.0,70.0,-433.0,498.0,-136.0,0.0,0.0,0.0
19:33:07.545000,-103.0,21.0,38.0,-436.0,521.0,-157.0,0.0,0.0,0.0
19:33:07.550000,-133.0,23.0,9.0,-436.0,521.0,-157.0,0.0,0.0,0.0
19:33:07.555000,-164.0,30.0,-23.0,-451.0,526.0,-173.0,0.0,0.0,0.0
19:33:07.559000,-193.0,36.0,-43.0,-451.0,526.0,-173.0,0.0,0.0,0.0
19:33:07.564000,-214.0,42.0,-53.0,-451.0,526.0,-173.0,0.0,0.0,0.0
19:33:07.569000,-221.0,44.0,-60.0,-469.0,488.0,-181.0,0.0,0.0,0.0
19:33:07.573000,-215.0,46.0,-72.0,-469.0,488.0,-181.0,0.0,0.0,0.0
19:33:07.578000,-193.0,46.0,-86.0,-465.0,393.0,-174.0,0.0,0.0,0.0
19:33:07.583000,-165.0,47.0,-105.0,-465.0,393.0,-174.0,0.0,0.0,0.0
19:33:07.587000,-135.0,44.0,-129.0,-450.0,323.0,-154.0,0.0,0.0,0.0
19:33:07.592000,-100.0,40.0,-151.0,-450.0,323.0,-154.0,0.0,0.0,0.0
19:33:07.597000,-60.0,35.0,-167.0,-447.0,306.0,-128.0,0.0,0.0,0.0
19:33:07.602000,-23.0,28.0,-181.0,-447.0,306.0,-128.0,0.0,0.0,0.0
19:33:07.606000,13.0,20.0,-191.0,-463.0,304.0,-98.0,0.0,0.0,0.0
19:33:07.611000,13.0,20.0,-191.0,-463.0,304.0,-98.0,0.0,0.0,0.0
19:33:07.616000,44.0,15.0,-190.0,-482.0,314.0,-73.0,0.0,0.0,0.0
19:33:07.620000,67.0,13.0,-177.0,-482.0,314.0,-73.0,0.0,0.0,0.0
19:33:07.625000,77.0,14.0,-158.0,-505.0,357.0,-64.0,0.0,0.0,0.0
19:33:07.630000,76.0,19.0,-138.0,-505.0,357.0,-64.0,0.0,0.0,0.0
19:33:07.634000,62.0,27.0,-120.0,-540.0,432.0,-79.0,0.0,0.0,0.0
19:33:07.639000,42.0,42.0,-107.0,-540.0,432.0,-79.0,0.0,0.0,0.0
19:33:07.644000,12.0,58.0,-97.0,-596.0,508.0,-115.0,0.0,0.0,0.0
19:33:07.649000,-18.0,73.0,-79.0,-596.0,508.0,-115.0,0.0,0.0,0.0
19:33:07.653000,-45.0,87.0,-47.0,-650.0,518.0,-158.0,0.0,0.0,0.0
19:33:07.658000,-65.0,100.0,2.0,-650.0,518.0,-158.0,0.0,0.0,0.0
19:33:07.663000,-79.0,114.0,65.0,-662.0,433.0,-193.0,0.0,0.0,0.0
19:33:07.667000,-90.0,124.0,118.0,-662.0,433.0,-193.0,0.0,0.0,0.0
19:33:07.671000,-96.0,128.0,156.0,-662.0,433.0,-193.0,0.0,0.0,0.0
19:33:07.677000,-101.0,127.0,179.0,-640.0,318.0,-216.0,0.0,0.0,0.0
19:33:07.681000,-105.0,119.0,185.0,-640.0,318.0,-216.0,0.0,0.0,0.0
19:33:07.686000,-116.0,105.0,175.0,-621.0,229.0,-230.0,0.0,0.0,0.0
19:33:07.691000,-133.0,86.0,152.0,-621.0,229.0,-230.0,0.0,0.0,0.0
19:33:07.696000,-151.0,64.0,121.0,-640.0,174.0,-235.0,0.0,0.0,0.0
19:33:07.700000,-161.0,40.0,88.0,-640.0,174.0,-235.0,0.0,0.0,0.0
19:33:07.705000,-161.0,16.0,53.0,-688.0,107.0,-225.0,0.0,0.0,0.0
19:33:07.710000,-145.0,-8.0,9.0,-688.0,107.0,-225.0,0.0,0.0,0.0
19:33:07.714000,-116.0,-32.0,-44.0,-742.0,13.0,-203.0,0.0,0.0,0.0
19:33:07.719000,-116.0,-32.0,-44.0,-742.0,13.0,-203.0,0.0,0.0,0.0
19:33:07.724000,-81.0,-53.0,-97.0,-813.0,-40.0,-175.0,0.0,0.0,0.0
19:33:07.728000,-47.0,-70.0,-139.0,-813.0,-40.0,-175.0,0.0,0.0,0.0
19:33:07.733000,-23.0,-84.0,-167.0,-894.0,-14.0,-142.0,0.0,0.0,0.0
19:33:07.738000,-15.0,-93.0,-182.0,-894.0,-14.0,-142.0,0.0,0.0,0.0
19:33:07.743000,-22.0,-98.0,-186.0,-963.0,66.0,-104.0,0.0,0.0,0.0
19:33:07.747000,-47.0,-98.0,-184.0,-963.0,66.0,-104.0,0.0,0.0,0.0
19:33:07.752000,-81.0,-93.0,-182.0,-984.0,130.0,-69.0,0.0,0.0,0.0
19:33:07.757000,-109.0,-82.0,-186.0,-984.0,130.0,-69.0,0.0,0.0,0.0
19:33:07.761000,-126.0,-67.0,-198.0,-975.0,108.0,-50.0,0.0,0.0,0.0
19:33:07.766000,-125.0,-50.0,-214.0,-975.0,108.0,-50.0,0.0,0.0,0.0
19:33:07.771000,-106.0,-32.0,-224.0,-986.0,8.0,-45.0,0.0,0.0,0.0
19:33:07.775000,-74.0,-16.0,-226.0,-986.0,8.0,-45.0,0.0,0.0,0.0
19:33:07.780000,-39.0,0.0,-222.0,-986.0,-85.0,-46.0,0.0,0.0,0.0
19:33:07.785000,-7.0,14.0,-215.0,-1004.0,-85.0,-46.0,0.0,0.0,0.0
19:33:07.790000,13.0,20.0,-211.0,-1004.0,-85.0,-46.0,0.0,0.0,0.0
19:33:07.794000,21.0,19.0,-212.0,-980.0,-93.0,-51.0,0.0,0.0,0.0
19:33:07.799000,13.0,11.0,-218.0,-980.0,-93.0,-51.0,0.0,0.0,0.0
19:33:07.804000,-2.0,-4.0,-228.0,-901.0,-10.0,-61.0,0.0,0.0,0.0
19:33:07.808000,-18.0,-21.0,-245.0,-901.0,-10.0,-61.0,0.0,0.0,0.0
19:33:07.813000,-28.0,-39.0,-264.0,-798.0,59.0,-74.0,0.0,0.0,0.0
19:33:07.818000,-32.0,-57.0,-291.0,-798.0,59.0,-74.0,0.0,0.0,0.0
19:33:07.822000,-27.0,-74.0,-324.0,-725.0,58.0,-99.0,0.0,0.0,0.0
19:33:07.827000,-6.0,-92.0,-355.0,-725.0,58.0,-99.0,0.0,0.0,0.0
19:33:07.832000,-6.0,-92.0,-355.0,-707.0,35.0,-138.0,0.0,0.0,0.0
19:33:07.837000,25.0,-108.0,-382.0,-707.0,35.0,-138.0,0.0,0.0,0.0
19:33:07.841000,63.0,-121.0,-396.0,-737.0,22.0,-171.0,0.0,0.0,0.0
19:33:07.846000,98.0,-130.0,-387.0,-737.0,22.0,-171.0,0.0,0.0,0.0
19:33:07.851000,125.0,-135.0,-357.0,-780.0,44.0,-187.0,0.0,0.0,0.0
19:33:07.855000,142.0,-140.0,-317.0,-780.0,44.0,-187.0,0.0,0.0,0.0
19:33:07.860000,146.0,-142.0,-274.0,-813.0,114.0,-205.0,0.0,0.0,0.0
19:33:07.865000,135.0,-144.0,-228.0,-813.0,114.0,-205.0,0.0,0.0,0.0
19:33:07.869000,107.0,-153.0,-179.0,-833.0,200.0,-225.0,0.0,0.0,0.0
19:33:07.874000,71.0,-163.0,-121.0,-833.0,200.0,-225.0,0.0,0.0,0.0
19:33:07.879000,35.0,-173.0,-65.0,-812.0,214.0,-228.0,0.0,0.0,0.0
19:33:07.884000,4.0,-184.0,-33.0,-812.0,214.0,-228.0,0.0,0.0,0.0
19:33:07.888000,-18.0,-193.0,-28.0,-761.0,176.0,-223.0,0.0,0.0,0.0
19:33:07.893000,-37.0,-200.0,-42.0,-761.0,176.0,-223.0,0.0,0.0,0.0
19:33:07.898000,-46.0,-205.0,-63.0,-761.0,176.0,-223.0,0.0,0.0,0.0
19:33:07.902000,-44.0,-210.0,-78.0,-737.0,163.0,-222.0,0.0,0.0,0.0
19:33:07.906000,-31.0,-214.0,-83.0,-737.0,163.0,-222.0,0.0,0.0,0.0
19:33:07.912000,-14.0,-217.0,-74.0,-757.0,159.0,-217.0,0.0,0.0,0.0
19:33:07.916000,0.0,-220.0,-47.0,-757.0,159.0,-217.0,0.0,0.0,0.0
19:33:07.921000,4.0,-222.0,2.0,-797.0,168.0,-206.0,0.0,0.0,0.0
19:33:07.926000,0.0,-228.0,75.0,-797.0,168.0,-206.0,0.0,0.0,0.0
19:33:07.931000,-12.0,-238.0,156.0,-811.0,184.0,-190.0,0.0,0.0,0.0
19:33:07.935000,-35.0,-252.0,226.0,-811.0,184.0,-190.0,0.0,0.0,0.0
19:33:07.940000,-35.0,-252.0,226.0,-777.0,173.0,-173.0,0.0,0.0,0.0
19:33:07.945000,-68.0,-271.0,278.0,-777.0,173.0,-173.0,0.0,0.0,0.0
19:33:07.949000,-107.0,-289.0,301.0,-728.0,173.0,-168.0,0.0,0.0,0.0
19:33:07.954000,-147.0,-305.0,291.0,-728.0,173.0,-168.0,0.0,0.0,0.0
19:33:07.959000,-177.0,-317.0,252.0,-705.0,177.0,-181.0,0.0,0.0,0.0
19:33:07.963000,-186.0,-325.0,211.0,-705.0,177.0,-181.0,0.0,0.0,0.0
19:33:07.968000,-177.0,-324.0,183.0,-734.0,109.0,-204.0,0.0,0.0,0.0
19:33:07.973000,-156.0,-318.0,173.0,-734.0,109.0,-204.0,0.0,0.0,0.0
19:33:07.978000,-128.0,-310.0,180.0,-809.0,22.0,-224.0,0.0,0.0,0.0
19:33:07.982000,-104.0,-297.0,198.0,-809.0,22.0,-224.0,0.0,0.0,0.0
19:33:07.987000,-89.0,-284.0,226.0,-850.0,0.0,-227.0,0.0,0.0,0.0
19:33:07.992000,-83.0,-273.0,262.0,-850.0,0.0,-227.0,0.0,0.0,0.0
19:33:07.996000,-86.0,-268.0,286.0,-816.0,33.0,-215.0,0.0,0.0,0.0
19:33:08.000000,-97.0,-268.0,293.0,-816.0,33.0,-215.0,0.0,0.0,0.0
19:33:08.006000,-113.0,-271.0,284.0,-816.0,33.0,-215.0,0.0,0.0,0.0
19:33:08.010000,-134.0,-273.0,261.0,-746.0,97.0,-193.0,0.0,0.0,0.0
19:33:08.015000,-152.0,-273.0,219.0,-746.0,97.0,-193.0,0.0,0.0,0.0
19:33:08.020000,-162.0,-271.0,159.0,-694.0,137.0,-168.0,0.0,0.0,0.0
19:33:08.025000,-164.0,-269.0,93.0,-694.0,137.0,-168.0,0.0,0.0,0.0
19:33:08.029000,-160.0,-264.0,42.0,-705.0,146.0,-156.0,0.0,0.0,0.0
19:33:08.034000,-152.0,-260.0,11.0,-705.0,146.0,-156.0,0.0,0.0,0.0
19:33:08.039000,-143.0,-253.0,-8.0,-759.0,170.0,-155.0,0.0,0.0,0.0
19:33:08.043000,-133.0,-246.0,-18.0,-759.0,170.0,-155.0,0.0,0.0,0.0
19:33:08.048000,-133.0,-246.0,-18.0,-781.0,211.0,-155.0,0.0,0.0,0.0
19:33:08.053000,-121.0,-239.0,-9.0,-781.0,211.0,-155.0,0.0,0.0,0.0
19:33:08.057000,-108.0,-230.0,14.0,-735.0,247.0,-153.0,0.0,0.0,0.0
19:33:08.062000,-100.0,-221.0,44.0,-735.0,247.0,-153.0,0.0,0.0,0.0
19:33:08.067000,-96.0,-213.0,74.0,-668.0,298.0,-143.0,0.0,0.0,0.0
19:33:08.072000,-96.0,-210.0,108.0,-668.0,298.0,-143.0,0.0,0.0,0.0
19:33:08.076000,-97.0,-206.0,140.0,-614.0,357.0,-137.0,0.0,0.0,0.0
19:33:08.081000,-100.0,-201.0,167.0,-614.0,357.0,-137.0,0.0,0.0,0.0
19:33:08.086000,-111.0,-193.0,184.0,-600.0,422.0,-147.0,0.0,0.0,0.0
19:33:08.090000,-128.0,-184.0,200.0,-600.0,422.0,-147.0,0.0,0.0,0.0
19:33:08.095000,-147.0,-175.0,226.0,-624.0,483.0,-178.0,0.0,0.0,0.0
19:33:08.100000,-161.0,-167.0,258.0,-624.0,483.0,-178.0,0.0,0.0,0.0
19:33:08.104000,-171.0,-159.0,292.0,-646.0,478.0,-221.0,0.0,0.0,0.0
19:33:08.109000,-172.0,-153.0,331.0,-646.0,478.0,-221.0,0.0,0.0,0.0
19:33:08.114000,-170.0,-147.0,366.0,-646.0,478.0,-221.0,0.0,0.0,0.0
19:33:08.119000,-169.0,-141.0,398.0,-670.0,438.0,-253.0,0.0,0.0,0.0
19:33:08.123000,-170.0,-133.0,427.0,-670.0,438.0,-253.0,0.0,0.0,0.0
19:33:08.128000,-169.0,-122.0,455.0,-698.0,405.0,-271.0,0.0,0.0,0.0
19:33:08.133000,-157.0,-113.0,473.0,-698.0,405.0,-271.0,0.0,0.0,0.0
19:33:08.137000,-133.0,-105.0,483.0,-716.0,341.0,-273.0,0.0,0.0,0.0
19:33:08.141000,-97.0,-99.0,491.0,-716.0,341.0,-273.0,0.0,0.0,0.0
19:33:08.147000,-51.0,-95.0,496.0,-723.0,235.0,-254.0,0.0,0.0,0.0
19:33:08.151000,-2.0,-93.0,499.0,-723.0,235.0,-254.0,0.0,0.0,0.0
19:33:08.156000,-2.0,-93.0,499.0,-720.0,156.0,-222.0,0.0,0.0,0.0
19:33:08.161000,40.0,-91.0,508.0,-720.0,156.0,-222.0,0.0,0.0,0.0
19:33:08.166000,74.0,-87.0,526.0,-703.0,147.0,-184.0,0.0,0.0,0.0
19:33:08.170000,100.0,-83.0,552.0,-703.0,147.0,-184.0,0.0,0.0,0.0
19:33:08.175000,117.0,-81.0,585.0,-680.0,181.0,-136.0,0.0,0.0,0.0
19:33:08.180000,133.0,-81.0,625.0,-680.0,181.0,-136.0,0.0,0.0,0.0
19:33:08.184000,150.0,-79.0,667.0,-673.0,205.0,-92.0,0.0,0.0,0.0
19:33:08.189000,161.0,-75.0,696.0,-673.0,205.0,-92.0,0.0,0.0,0.0
19:33:08.194000,168.0,-74.0,724.0,-696.0,228.0,-56.0,0.0,0.0,0.0
19:33:08.198000,170.0,-79.0,760.0,-696.0,228.0,-56.0,0.0,0.0,0.0
19:33:08.203000,168.0,-79.0,800.0,-729.0,273.0,-29.0,0.0,0.0,0.0
19:33:08.208000,151.0,-75.0,836.0,-729.0,273.0,-29.0,0.0,0.0,0.0
19:33:08.213000,126.0,-74.0,872.0,-749.0,337.0,-13.0,0.0,0.0,0.0
19:33:08.217000,91.0,-69.0,926.0,-749.0,337.0,-13.0,0.0,0.0,0.0
19:33:08.222000,60.0,-70.0,988.0,-749.0,337.0,-13.0,0.0,0.0,0.0
19:33:08.227000,53.0,-63.0,1029.0,-773.0,330.0,0.0,0.0,0.0,0.0
19:33:08.231000,65.0,-57.0,1018.0,-773.0,330.0,0.0,0.0,0.0,0.0
19:33:08.236000,78.0,-50.0,1003.0,-834.0,216.0,-6.0,0.0,0.0,0.0
19:33:08.241000,103.0,-35.0,1044.0,-834.0,216.0,-6.0,0.0,0.0,0.0
19:33:08.245000,139.0,-22.0,1095.0,-901.0,65.0,-25.0,0.0,0.0,0.0
19:33:08.250000,209.0,17.0,1008.0,-901.0,65.0,-25.0,0.0,0.0,0.0
19:33:08.255000,300.0,30.0,934.0,-938.0,-3.0,-73.0,0.0,0.0,0.0
19:33:08.260000,305.0,67.0,879.0,-938.0,-3.0,-73.0,0.0,0.0,0.0
19:33:08.264000,294.0,93.0,791.0,-997.0,109.0,-117.0,0.0,0.0,0.0
19:33:08.269000,294.0,93.0,791.0,-997.0,109.0,-117.0,0.0,0.0,0.0
19:33:08.274000,297.0,114.0,800.0,-1100.0,304.0,-137.0,0.0,0.0,0.0
19:33:08.278000,275.0,137.0,874.0,-1100.0,304.0,-137.0,0.0,0.0,0.0
19:33:08.283000,282.0,186.0,882.0,-1064.0,477.0,-179.0,0.0,0.0,0.0
19:33:08.288000,200.0,194.0,866.0,-1064.0,477.0,-179.0,0.0,0.0,0.0
19:33:08.292000,135.0,198.0,879.0,-942.0,622.0,-232.0,0.0,0.0,0.0
19:33:08.297000,91.0,190.0,859.0,-942.0,622.0,-232.0,0.0,0.0,0.0
19:33:08.302000,30.0,172.0,814.0,-951.0,723.0,-280.0,0.0,0.0,0.0
19:33:08.307000,-20.0,142.0,793.0,-951.0,723.0,-280.0,0.0,0.0,0.0
19:33:08.311000,-10.0,117.0,794.0,-912.0,679.0,-321.0,0.0,0.0,0.0
19:33:08.316000,-1.0,84.0,797.0,-912.0,679.0,-321.0,0.0,0.0,0.0
19:33:08.321000,14.0,53.0,694.0,-844.0,568.0,-345.0,0.0,0.0,0.0
19:33:08.325000,68.0,28.0,513.0,-844.0,568.0,-345.0,0.0,0.0,0.0
19:33:08.330000,131.0,13.0,380.0,-844.0,568.0,-345.0,0.0,0.0,0.0
19:33:08.335000,168.0,-2.0,317.0,-889.0,541.0,-336.0,0.0,0.0,0.0
19:33:08.339000,206.0,-11.0,314.0,-889.0,541.0,-336.0,0.0,0.0,0.0
19:33:08.344000,223.0,-18.0,312.0,-975.0,531.0,-293.0,0.0,0.0,0.0
19:33:08.349000,237.0,-15.0,329.0,-975.0,531.0,-293.0,0.0,0.0,0.0
19:33:08.354000,245.0,9.0,310.0,-1104.0,550.0,-228.0,0.0,0.0,0.0
19:33:08.358000,198.0,44.0,204.0,-1104.0,550.0,-228.0,0.0,0.0,0.0
19:33:08.363000,145.0,87.0,54.0,-1256.0,646.0,-147.0,0.0,0.0,0.0
19:33:08.368000,86.0,128.0,-81.0,-1256.0,646.0,-147.0,0.0,0.0,0.0
19:33:08.372000,28.0,182.0,-137.0,-1426.0,632.0,-68.0,0.0,0.0,0.0
19:33:08.376000,28.0,182.0,-137.0,-1426.0,632.0,-68.0,0.0,0.0,0.0
19:33:08.382000,17.0,227.0,-158.0,-1469.0,526.0,-50.0,0.0,0.0,0.0
19:33:08.386000,-20.0,267.0,-282.0,-1469.0,526.0,-50.0,0.0,0.0,0.0
19:33:08.391000,-44.0,315.0,-522.0,-1473.0,406.0,-81.0,0.0,0.0,0.0
19:33:08.396000,-35.0,347.0,-702.0,-1473.0,406.0,-81.0,0.0,0.0,0.0
19:33:08.401000,-18.0,375.0,-706.0,-1506.0,162.0,-125.0,0.0,0.0,0.0
19:33:08.405000,39.0,403.0,-639.0,-1506.0,162.0,-125.0,0.0,0.0,0.0
19:33:08.410000,101.0,397.0,-623.0,-1476.0,-15.0,-151.0,0.0,0.0,0.0
19:33:08.415000,162.0,400.0,-680.0,-1476.0,-15.0,-151.0,0.0,0.0,0.0
19:33:08.419000,199.0,404.0,-807.0,-1427.0,-62.0,-145.0,0.0,0.0,0.0
19:33:08.424000,215.0,385.0,-841.0,-1427.0,-62.0,-145.0,0.0,0.0,0.0
19:33:08.429000,238.0,361.0,-753.0,-1252.0,-79.0,-132.0,0.0,0.0,0.0
19:33:08.433000,238.0,331.0,-653.0,-1252.0,-79.0,-132.0,0.0,0.0,0.0
19:33:08.438000,200.0,305.0,-612.0,-1252.0,-79.0,-132.0,0.0,0.0,0.0
19:33:08.443000,167.0,275.0,-618.0,-1063.0,-64.0,-114.0,0.0,0.0,0.0
19:33:08.448000,154.0,237.0,-555.0,-1063.0,-64.0,-114.0,0.0,0.0,0.0
19:33:08.452000,123.0,205.0,-452.0,-942.0,-161.0,-97.0,0.0,0.0,0.0
19:33:08.457000,109.0,174.0,-396.0,-942.0,-161.0,-97.0,0.0,0.0,0.0
19:33:08.462000,100.0,157.0,-440.0,-842.0,-322.0,-104.0,0.0,0.0,0.0
19:33:08.466000,88.0,140.0,-548.0,-842.0,-322.0,-104.0,0.0,0.0,0.0
19:33:08.471000,84.0,128.0,-697.0,-843.0,-294.0,-118.0,0.0,0.0,0.0
19:33:08.476000,81.0,121.0,-823.0,-843.0,-294.0,-118.0,0.0,0.0,0.0
19:33:08.480000,81.0,121.0,-823.0,-933.0,-119.0,-136.0,0.0,0.0,0.0
19:33:08.485000,75.0,116.0,-940.0,-933.0,-119.0,-136.0,0.0,0.0,0.0
19:33:08.490000,65.0,100.0,-1017.0,-1036.0,59.0,-162.0,0.0,0.0,0.0
19:33:08.495000,55.0,79.0,-1071.0,-1036.0,59.0,-162.0,0.0,0.0,0.0
19:33:08.499000,22.0,71.0,-1113.0,-1137.0,171.0,-169.0,0.0,0.0,0.0
19:33:08.504000,-20.0,82.0,-1136.0,-1137.0,171.0,-169.0,0.0,0.0,0.0
19:33:08.509000,1.0,79.0,-1134.0,-1159.0,155.0,-171.0,0.0,0.0,0.0
19:33:08.513000,21.0,67.0,-1075.0,-1159.0,155.0,-171.0,0.0,0.0,0.0
19:33:08.518000,-92.0,49.0,-1008.0,-1164.0,124.0,-138.0,0.0,0.0,0.0
19:33:08.523000,-69.0,49.0,-1025.0,-1164.0,124.0,-138.0,0.0,0.0,0.0
19:33:08.527000,-37.0,53.0,-1026.0,-1179.0,116.0,-119.0,0.0,0.0,0.0
19:33:08.532000,-32.0,56.0,-995.0,-1179.0,116.0,-119.0,0.0,0.0,0.0
19:33:08.537000,-49.0,63.0,-996.0,-1179.0,170.0,-146.0,0.0,0.0,0.0
19:33:08.542000,-36.0,68.0,-1006.0,-1179.0,170.0,-146.0,0.0,0.0,0.0
19:33:08.546000,-28.0,73.0,-1020.0,-1225.0,350.0,-158.0,0.0,0.0,0.0
19:33:08.551000,-48.0,91.0,-1066.0,-1225.0,350.0,-158.0,0.0,0.0,0.0
19:33:08.556000,-57.0,108.0,-1028.0,-1225.0,350.0,-158.0,0.0,0.0,0.0
19:33:08.560000,-42.0,123.0,-963.0,-1275.0,422.0,-183.0,0.0,0.0,0.0
19:33:08.565000,-11.0,133.0,-929.0,-1275.0,422.0,-183.0,0.0,0.0,0.0
19:33:08.570000,-3.0,140.0,-893.0,-1328.0,395.0,-226.0,0.0,0.0,0.0
19:33:08.574000,-9.0,153.0,-865.0,-1328.0,395.0,-226.0,0.0,0.0,0.0
19:33:08.579000,2.0,165.0,-761.0,-1346.0,499.0,-265.0,0.0,0.0,0.0
19:33:08.584000,37.0,175.0,-688.0,-1346.0,499.0,-265.0,0.0,0.0,0.0
19:33:08.589000,15.0,184.0,-681.0,-1283.0,593.0,-283.0,0.0,0.0,0.0
19:33:08.593000,25.0,186.0,-655.0,-1283.0,593.0,-283.0,0.0,0.0,0.0
19:33:08.598000,25.0,186.0,-655.0,-1174.0,491.0,-294.0,0.0,0.0,0.0
19:33:08.603000,56.0,178.0,-527.0,-1174.0,491.0,-294.0,0.0,0.0,0.0
19:33:08.607000,64.0,170.0,-394.0,-1093.0,379.0,-306.0,0.0,0.0,0.0
19:33:08.611000,102.0,175.0,-376.0,-1093.0,379.0,-306.0,0.0,0.0,0.0
19:33:08.617000,132.0,161.0,-420.0,-1090.0,398.0,-319.0,0.0,0.0,0.0
19:33:08.621000,119.0,147.0,-401.0,-1090.0,398.0,-319.0,0.0,0.0,0.0
19:33:08.626000,150.0,128.0,-332.0,-1077.0,417.0,-334.0,0.0,0.0,0.0
19:33:08.631000,203.0,106.0,-357.0,-1077.0,417.0,-334.0,0.0,0.0,0.0
19:33:08.636000,213.0,92.0,-415.0,-1031.0,495.0,-337.0,0.0,0.0,0.0
19:33:08.640000,201.0,68.0,-415.0,-1031.0,495.0,-337.0,0.0,0.0,0.0
19:33:08.645000,177.0,56.0,-375.0,-982.0,579.0,-330.0,0.0,0.0,0.0
19:33:08.650000,182.0,28.0,-297.0,-982.0,579.0,-330.0,0.0,0.0,0.0
19:33:08.654000,166.0,28.0,-245.0,-961.0,578.0,-326.0,0.0,0.0,0.0
19:33:08.659000,203.0,8.0,-206.0,-961.0,578.0,-326.0,0.0,0.0,0.0
19:33:08.664000,198.0,-14.0,-165.0,-961.0,578.0,-326.0,0.0,0.0,0.0
19:33:08.668000,184.0,-25.0,-188.0,-1002.0,647.0,-323.0,0.0,0.0,0.0
19:33:08.673000,117.0,-32.0,-190.0,-1002.0,647.0,-323.0,0.0,0.0,0.0
19:33:08.678000,77.0,-42.0,-145.0,-1056.0,706.0,-305.0,0.0,0.0,0.0
19:33:08.683000,36.0,-51.0,-86.0,-1056.0,706.0,-305.0,0.0,0.0,0.0
19:33:08.687000,2.0,-57.0,-5.0,-1036.0,730.0,-283.0,0.0,0.0,0.0
19:33:08.692000,-19.0,-58.0,-3.0,-1036.0,730.0,-283.0,0.0,0.0,0.0
19:33:08.697000,-14.0,-60.0,-97.0,-968.0,783.0,-270.0,0.0,0.0,0.0
19:33:08.701000,9.0,-80.0,-109.0,-968.0,783.0,-270.0,0.0,0.0,0.0
19:33:08.706000,9.0,-80.0,-109.0,-950.0,815.0,-253.0,0.0,0.0,0.0
19:33:08.711000,-11.0,-84.0,-24.0,-950.0,815.0,-253.0,0.0,0.0,0.0
19:33:08.715000,-7.0,-82.0,41.0,-1016.0,758.0,-248.0,0.0,0.0,0.0
19:33:08.720000,43.0,-98.0,73.0,-1016.0,758.0,-248.0,0.0,0.0,0.0
19:33:08.725000,-13.0,-86.0,91.0,-1113.0,684.0,-242.0,0.0,0.0,0.0
19:33:08.730000,-9.0,-75.0,114.0,-1113.0,684.0,-242.0,0.0,0.0,0.0
19:33:08.734000,-33.0,-51.0,179.0,-1135.0,683.0,-236.0,0.0,0.0,0.0
19:33:08.739000,-18.0,-34.0,228.0,-1135.0,683.0,-236.0,0.0,0.0,0.0
19:33:08.744000,9.0,-28.0,231.0,-1175.0,721.0,-234.0,0.0,0.0,0.0
19:33:08.748000,-35.0,5.0,231.0,-1175.0,721.0,-234.0,0.0,0.0,0.0
19:33:08.753000,-18.0,13.0,250.0,-1251.0,715.0,-221.0,0.0,0.0,0.0
19:33:08.758000,-36.0,21.0,305.0,-1251.0,715.0,-221.0,0.0,0.0,0.0
19:33:08.762000,-70.0,48.0,371.0,-1297.0,585.0,-210.0,0.0,0.0,0.0
19:33:08.767000,-37.0,53.0,381.0,-1297.0,585.0,-210.0,0.0,0.0,0.0
19:33:08.772000,-28.0,72.0,466.0,-1297.0,585.0,-210.0,0.0,0.0,0.0
19:33:08.777000,-28.0,82.0,582.0,-1293.0,406.0,-209.0,0.0,0.0,0.0
19:33:08.781000,-21.0,83.0,602.0,-1293.0,406.0,-209.0,0.0,0.0,0.0
19:33:08.786000,-2.0,95.0,534.0,-1260.0,302.0,-225.0,0.0,0.0,0.0
19:33:08.791000,-2.0,95.0,438.0,-1260.0,302.0,-225.0,0.0,0.0,0.0
19:33:08.795000,7.0,112.0,366.0,-1267.0,315.0,-253.0,0.0,0.0,0.0
19:33:08.800000,1.0,114.0,361.0,-1267.0,315.0,-253.0,0.0,0.0,0.0
19:33:08.805000,4.0,123.0,354.0,-1235.0,345.0,-280.0,0.0,0.0,0.0
19:33:08.809000,2.0,123.0,247.0,-1235.0,345.0,-280.0,0.0,0.0,0.0
19:33:08.814000,2.0,123.0,247.0,-1234.0,381.0,-318.0,0.0,0.0,0.0
19:33:08.819000,0.0,136.0,128.0,-1234.0,381.0,-318.0,0.0,0.0,0.0
19:33:08.824000,11.0,120.0,76.0,-1212.0,432.0,-361.0,0.0,0.0,0.0
19:33:08.828000,-24.0,90.0,133.0,-1212.0,432.0,-361.0,0.0,0.0,0.0
19:33:08.833000,-12.0,74.0,176.0,-1107.0,443.0,-371.0,0.0,0.0,0.0
19:33:08.838000,-14.0,61.0,149.0,-1107.0,443.0,-371.0,0.0,0.0,0.0
19:33:08.842000,-8.0,51.0,97.0,-1010.0,446.0,-342.0,0.0,0.0,0.0
19:33:08.846000,11.0,44.0,94.0,-1010.0,446.0,-342.0,0.0,0.0,0.0
19:33:08.852000,32.0,32.0,101.0,-911.0,429.0,-299.0,0.0,0.0,0.0
19:33:08.856000,32.0,17.0,88.0,-911.0,429.0,-299.0,0.0,0.0,0.0
19:33:08.861000,43.0,5.0,41.0,-878.0,473.0,-254.0,0.0,0.0,0.0
19:33:08.866000,13.0,-3.0,-4.0,-878.0,473.0,-254.0,0.0,0.0,0.0
19:33:08.871000,-19.0,-11.0,-44.0,-851.0,581.0,-209.0,0.0,0.0,0.0
19:33:08.875000,-40.0,-16.0,-27.0,-851.0,581.0,-209.0,0.0,0.0,0.0
19:33:08.880000,-56.0,-18.0,64.0,-851.0,581.0,-209.0,0.0,0.0,0.0
19:33:08.885000,-60.0,-13.0,143.0,-803.0,602.0,-179.0,0.0,0.0,0.0
19:33:08.889000,-84.0,-7.0,163.0,-803.0,602.0,-179.0,0.0,0.0,0.0
19:33:08.894000,-126.0,2.0,106.0,-887.0,592.0,-160.0,0.0,0.0,0.0
19:33:08.899000,-184.0,10.0,5.0,-887.0,592.0,-160.0,0.0,0.0,0.0
19:33:08.903000,-233.0,3.0,-71.0,-969.0,631.0,-144.0,0.0,0.0,0.0
19:33:08.908000,-262.0,-8.0,-96.0,-969.0,631.0,-144.0,0.0,0.0,0.0
19:33:08.913000,-289.0,-21.0,-77.0,-829.0,631.0,-142.0,0.0,0.0,0.0
19:33:08.917000,-311.0,-30.0,-79.0,-829.0,631.0,-142.0,0.0,0.0,0.0
19:33:08.922000,-338.0,-33.0,-122.0,-693.0,606.0,-158.0,0.0,0.0,0.0
19:33:08.927000,-338.0,-33.0,-122.0,-693.0,606.0,-158.0,0.0,0.0,0.0
19:33:08.932000,-347.0,-37.0,-161.0,-707.0,585.0,-175.0,0.0,0.0,0.0
19:33:08.936000,-333.0,-41.0,-171.0,-707.0,585.0,-175.0,0.0,0.0,0.0
19:33:08.941000,-309.0,-45.0,-128.0,-675.0,482.0,-192.0,0.0,0.0,0.0
19:33:08.946000,-269.0,-51.0,-56.0,-675.0,482.0,-192.0,0.0,0.0,0.0
19:33:08.950000,-216.0,-58.0,-2.0,-610.0,401.0,-220.0,0.0,0.0,0.0
19:33:08.954000,-172.0,-60.0,27.0,-610.0,401.0,-220.0,0.0,0.0,0.0
19:33:08.960000,-132.0,-67.0,66.0,-614.0,415.0,-246.0,0.0,0.0,0.0
19:33:08.964000,-98.0,-72.0,109.0,-614.0,415.0,-246.0,0.0,0.0,0.0
19:33:08.969000,-73.0,-80.0,173.0,-612.0,424.0,-260.0,0.0,0.0,0.0
19:33:08.974000,-55.0,-87.0,229.0,-612.0,424.0,-260.0,0.0,0.0,0.0
19:33:08.979000,-49.0,-98.0,270.0,-566.0,422.0,-274.0,0.0,0.0,0.0
19:33:08.983000,-51.0,-115.0,290.0,-566.0,422.0,-274.0,0.0,0.0,0.0
19:33:08.988000,-65.0,-135.0,295.0,-566.0,422.0,-274.0,0.0,0.0,0.0
19:33:08.993000,-91.0,-156.0,292.0,-495.0,480.0,-290.0,0.0,0.0,0.0
19:33:08.997000,-123.0,-175.0,276.0,-495.0,480.0,-290.0,0.0,0.0,0.0
19:33:09.002000,-156.0,-196.0,259.0,-449.0,552.0,-303.0,0.0,0.0,0.0
19:33:09.007000,-193.0,-213.0,245.0,-449.0,552.0,-303.0,0.0,0.0,0.0
19:33:09.011000,-230.0,-224.0,227.0,-460.0,562.0,-312.0,0.0,0.0,0.0
19:33:09.016000,-261.0,-231.0,200.0,-460.0,562.0,-312.0,0.0,0.0,0.0
19:33:09.021000,-287.0,-233.0,190.0,-508.0,521.0,-313.0,0.0,0.0,0.0
19:33:09.026000,-306.0,-233.0,190.0,-508.0,521.0,-313.0,0.0,0.0,0.0
19:33:09.030000,-310.0,-229.0,170.0,-559.0,433.0,-300.0,0.0,0.0,0.0
19:33:09.035000,-310.0,-229.0,170.0,-559.0,433.0,-300.0,0.0,0.0,0.0
19:33:09.040000,-300.0,-227.0,158.0,-566.0,287.0,-279.0,0.0,0.0,0.0
19:33:09.044000,-274.0,-226.0,161.0,-566.0,287.0,-279.0,0.0,0.0,0.0
19:33:09.049000,-236.0,-228.0,148.0,-532.0,158.0,-246.0,0.0,0.0,0.0
19:33:09.054000,-196.0,-232.0,111.0,-532.0,158.0,-246.0,0.0,0.0,0.0
19:33:09.058000,-157.0,-239.0,61.0,-481.0,124.0,-202.0,0.0,0.0,0.0
19:33:09.063000,-121.0,-245.0,6.0,-481.0,124.0,-202.0,0.0,0.0,0.0
19:33:09.068000,-95.0,-247.0,-51.0,-446.0,183.0,-161.0,0.0,0.0,0.0
19:33:09.073000,-84.0,-245.0,-109.0,-446.0,183.0,-161.0,0.0,0.0,0.0
19:33:09.077000,-86.0,-239.0,-156.0,-460.0,300.0,-130.0,0.0,0.0,0.0
19:33:09.081000,-94.0,-232.0,-194.0,-460.0,300.0,-130.0,0.0,0.0,0.0
19:33:09.087000,-103.0,-216.0,-222.0,-512.0,384.0,-112.0,0.0,0.0,0.0
19:33:09.091000,-105.0,-197.0,-237.0,-512.0,384.0,-112.0,0.0,0.0,0.0
19:33:09.096000,-100.0,-170.0,-242.0,-512.0,384.0,-112.0,0.0,0.0,0.0
19:33:09.101000,-98.0,-139.0,-244.0,-589.0,409.0,-108.0,0.0,0.0,0.0
19:33:09.105000,-99.0,-103.0,-238.0,-589.0,409.0,-108.0,0.0,0.0,0.0
19:33:09.110000,-99.0,-65.0,-220.0,-687.0,434.0,-92.0,0.0,0.0,0.0
19:33:09.115000,-95.0,-25.0,-194.0,-687.0,434.0,-92.0,0.0,0.0,0.0
19:33:09.120000,-91.0,14.0,-162.0,-733.0,410.0,-60.0,0.0,0.0,0.0
19:33:09.124000,-88.0,49.0,-128.0,-733.0,410.0,-60.0,0.0,0.0,0.0
19:33:09.129000,-92.0,84.0,-105.0,-707.0,348.0,-31.0,0.0,0.0,0.0
19:33:09.134000,-104.0,119.0,-102.0,-707.0,348.0,-31.0,0.0,0.0,0.0
19:33:09.138000,-119.0,147.0,-114.0,-667.0,337.0,-15.0,0.0,0.0,0.0
19:33:09.143000,-119.0,147.0,-114.0,-667.0,337.0,-15.0,0.0,0.0,0.0
19:33:09.148000,-133.0,173.0,-138.0,-650.0,354.0,-21.0,0.0,0.0,0.0
19:33:09.152000,-150.0,198.0,-172.0,-650.0,354.0,-21.0,0.0,0.0,0.0
19:33:09.157000,-168.0,219.0,-201.0,-683.0,352.0,-51.0,0.0,0.0,0.0
19:33:09.162000,-183.0,238.0,-224.0,-683.0,352.0,-51.0,0.0,0.0,0.0
19:33:09.167000,-193.0,255.0,-242.0,-761.0,309.0,-92.0,0.0,0.0,0.0
19:33:09.171000,-195.0,268.0,-256.0,-761.0,309.0,-92.0,0.0,0.0,0.0
19:33:09.176000,-184.0,276.0,-265.0,-821.0,219.0,-134.0,0.0,0.0,0.0
19:33:09.181000,-164.0,277.0,-269.0,-821.0,219.0,-134.0,0.0,0.0,0.0
19:33:09.185000,-137.0,268.0,-272.0,-829.0,152.0,-172.0,0.0,0.0,0.0
19:33:09.190000,-109.0,250.0,-275.0,-829.0,152.0,-172.0,0.0,0.0,0.0
19:33:09.195000,-89.0,226.0,-279.0,-821.0,181.0,-199.0,0.0,0.0,0.0
19:33:09.199000,-86.0,196.0,-275.0,-821.0,181.0,-199.0,0.0,0.0,0.0
19:33:09.204000,-98.0,167.0,-262.0,-821.0,270.0,-199.0,0.0,0.0,0.0
19:33:09.209000,-122.0,137.0,-244.0,-835.0,270.0,-205.0,0.0,0.0,0.0
19:33:09.214000,-153.0,107.0,-224.0,-835.0,270.0,-205.0,0.0,0.0,0.0
19:33:09.218000,-179.0,84.0,-209.0,-844.0,295.0,-181.0,0.0,0.0,0.0
19:33:09.223000,-194.0,66.0,-200.0,-844.0,295.0,-181.0,0.0,0.0,0.0
19:33:09.228000,-193.0,56.0,-198.0,-835.0,195.0,-141.0,0.0,0.0,0.0
19:33:09.232000,-179.0,57.0,-208.0,-835.0,195.0,-141.0,0.0,0.0,0.0
19:33:09.237000,-151.0,65.0,-231.0,-888.0,37.0,-105.0,0.0,0.0,0.0
19:33:09.242000,-112.0,81.0,-263.0,-888.0,37.0,-105.0,0.0,0.0,0.0
19:33:09.246000,-70.0,105.0,-300.0,-1005.0,-107.0,-83.0,0.0,0.0,0.0
19:33:09.251000,-70.0,105.0,-300.0,-1005.0,-107.0,-83.0,0.0,0.0,0.0
19:33:09.256000,-31.0,128.0,-343.0,-1103.0,-176.0,-74.0,0.0,0.0,0.0
19:33:09.261000,2.0,150.0,-385.0,-1103.0,-176.0,-74.0,0.0,0.0,0.0
19:33:09.265000,34.0,163.0,-422.0,-1100.0,-150.0,-71.0,0.0,0.0,0.0
19:33:09.270000,66.0,161.0,-455.0,-1100.0,-150.0,-71.0,0.0,0.0,0.0
19:33:09.275000,98.0,151.0,-487.0,-1015.0,-66.0,-83.0,0.0,0.0,0.0
19:33:09.279000,122.0,135.0,-511.0,-1015.0,-66.0,-83.0,0.0,0.0,0.0
19:33:09.284000,130.0,115.0,-520.0,-966.0,37.0,-97.0,0.0,0.0,0.0
19:33:09.289000,123.0,93.0,-511.0,-966.0,37.0,-97.0,0.0,0.0,0.0
19:33:09.293000,112.0,69.0,-492.0,-931.0,68.0,-93.0,0.0,0.0,0.0
19:33:09.298000,102.0,43.0,-473.0,-931.0,68.0,-93.0,0.0,0.0,0.0
19:33:09.303000,94.0,18.0,-475.0,-854.0,67.0,-93.0,0.0,0.0,0.0
19:33:09.308000,81.0,-6.0,-498.0,-854.0,67.0,-93.0,0.0,0.0,0.0
19:33:09.312000,72.0,-30.0,-527.0,-824.0,113.0,-112.0,0.0,0.0,0.0
19:33:09.316000,75.0,-52.0,-542.0,-824.0,113.0,-112.0,0.0,0.0,0.0
19:33:09.322000,95.0,-74.0,-539.0,-824.0,113.0,-112.0,0.0,0.0,0.0
19:33:09.326000,121.0,-95.0,-522.0,-853.0,110.0,-144.0,0.0,0.0,0.0
19:33:09.331000,138.0,-113.0,-494.0,-853.0,110.0,-144.0,0.0,0.0,0.0
19:33:09.336000,151.0,-133.0,-452.0,-862.0,110.0,-178.0,0.0,0.0,0.0
19:33:09.340000,161.0,-153.0,-396.0,-862.0,110.0,-178.0,0.0,0.0,0.0
19:33:09.345000,170.0,-172.0,-330.0,-817.0,192.0,-216.0,0.0,0.0,0.0
19:33:09.350000,173.0,-194.0,-255.0,-817.0,192.0,-216.0,0.0,0.0,0.0
19:33:09.355000,174.0,-219.0,-165.0,-760.0,286.0,-253.0,0.0,0.0,0.0
19:33:09.359000,172.0,-251.0,-61.0,-760.0,286.0,-253.0,0.0,0.0,0.0
19:33:09.364000,172.0,-251.0,-61.0,-733.0,357.0,-268.0,0.0,0.0,0.0
19:33:09.369000,161.0,-289.0,49.0,-733.0,357.0,-268.0,0.0,0.0,0.0
19:33:09.373000,139.0,-333.0,167.0,-700.0,398.0,-243.0,0.0,0.0,0.0
19:33:09.378000,112.0,-379.0,286.0,-700.0,398.0,-243.0,0.0,0.0,0.0
19:33:09.383000,85.0,-422.0,389.0,-625.0,370.0,-180.0,0.0,0.0,0.0
19:33:09.387000,63.0,-455.0,463.0,-625.0,370.0,-180.0,0.0,0.0,0.0
19:33:09.392000,43.0,-477.0,506.0,-583.0,322.0,-121.0,0.0,0.0,0.0
19:33:09.397000,20.0,-489.0,530.0,-583.0,322.0,-121.0,0.0,0.0,0.0
19:33:09.402000,0.0,-489.0,557.0,-636.0,308.0,-97.0,0.0,0.0,0.0
19:33:09.406000,-12.0,-483.0,591.0,-636.0,308.0,-97.0,0.0,0.0,0.0
19:33:09.411000,-14.0,-469.0,630.0,-710.0,265.0,-105.0,0.0,0.0,0.0
19:33:09.416000,-8.0,-447.0,676.0,-710.0,265.0,-105.0,0.0,0.0,0.0
19:33:09.420000,-4.0,-416.0,730.0,-745.0,223.0,-120.0,0.0,0.0,0.0
19:33:09.425000,-14.0,-383.0,794.0,-745.0,223.0,-120.0,0.0,0.0,0.0
19:33:09.429000,-39.0,-359.0,871.0,-737.0,235.0,-107.0,0.0,0.0,0.0
19:33:09.434000,-65.0,-341.0,967.0,-737.0,235.0,-107.0,0.0,0.0,0.0
19:33:09.439000,-79.0,-326.0,1069.0,-737.0,235.0,-107.0,0.0,0.0,0.0
19:33:09.444000,-80.0,-309.0,1152.0,-683.0,160.0,-83.0,0.0,0.0,0.0
19:33:09.449000,-81.0,-292.0,1194.0,-683.0,160.0,-83.0,0.0,0.0,0.0
19:33:09.453000,-89.0,-277.0,1199.0,-717.0,46.0,-97.0,0.0,0.0,0.0
19:33:09.458000,-97.0,-266.0,1178.0,-717.0,46.0,-97.0,0.0,0.0,0.0
19:33:09.463000,-99.0,-263.0,1139.0,-833.0,4.0,-132.0,0.0,0.0,0.0
19:33:09.467000,-99.0,-264.0,1085.0,-833.0,4.0,-132.0,0.0,0.0,0.0
19:33:09.472000,-99.0,-264.0,1085.0,-842.0,-7.0,-161.0,0.0,0.0,0.0
19:33:09.477000,-105.0,-266.0,1022.0,-842.0,-7.0,-161.0,0.0,0.0,0.0
19:33:09.481000,-116.0,-270.0,957.0,-745.0,33.0,-188.0,0.0,0.0,0.0
19:33:09.486000,-128.0,-276.0,895.0,-745.0,33.0,-188.0,0.0,0.0,0.0
19:33:09.491000,-140.0,-284.0,835.0,-644.0,86.0,-216.0,0.0,0.0,0.0
19:33:09.496000,-150.0,-297.0,782.0,-644.0,86.0,-216.0,0.0,0.0,0.0
19:33:09.500000,-149.0,-312.0,748.0,-555.0,86.0,-240.0,0.0,0.0,0.0
19:33:09.505000,-137.0,-331.0,733.0,-555.0,86.0,-240.0,0.0,0.0,0.0
19:33:09.510000,-117.0,-352.0,736.0,-481.0,71.0,-250.0,0.0,0.0,0.0
19:33:09.514000,-91.0,-377.0,753.0,-481.0,71.0,-250.0,0.0,0.0,0.0
19:33:09.519000,-65.0,-401.0,774.0,-473.0,86.0,-246.0,0.0,0.0,0.0
19:33:09.524000,-41.0,-422.0,800.0,-473.0,86.0,-246.0,0.0,0.0,0.0
19:33:09.528000,-20.0,-438.0,829.0,-514.0,120.0,-231.0,0.0,0.0,0.0
19:33:09.533000,-7.0,-446.0,854.0,-514.0,120.0,-231.0,0.0,0.0,0.0
19:33:09.538000,-7.0,-445.0,868.0,-514.0,120.0,-231.0,0.0,0.0,0.0
19:33:09.543000,-22.0,-437.0,870.0,-563.0,193.0,-204.0,0.0,0.0,0.0
19:33:09.547000,-47.0,-424.0,868.0,-622.0,291.0,-171.0,0.0,0.0,0.0
19:33:09.551000,-78.0,-410.0,870.0,-622.0,291.0,-171.0,0.0,0.0,0.0
19:33:09.557000,-103.0,-394.0,875.0,-622.0,291.0,-171.0,0.0,0.0,0.0
19:33:09.561000,-124.0,-373.0,873.0,-670.0,322.0,-143.0,0.0,0.0,0.0
19:33:09.566000,-146.0,-351.0,851.0,-670.0,322.0,-143.0,0.0,0.0,0.0
19:33:09.571000,-163.0,-326.0,811.0,-704.0,294.0,-114.0,0.0,0.0,0.0
19:33:09.575000,-174.0,-301.0,764.0,-704.0,294.0,-114.0,0.0,0.0,0.0
19:33:09.580000,-174.0,-301.0,764.0,-716.0,252.0,-83.0,0.0,0.0,0.0
19:33:09.585000,-180.0,-277.0,716.0,-716.0,252.0,-83.0,0.0,0.0,0.0
19:33:09.590000,-184.0,-250.0,667.0,-711.0,208.0,-60.0,0.0,0.0,0.0
19:33:09.594000,-190.0,-224.0,614.0,-711.0,208.0,-60.0,0.0,0.0,0.0
19:33:09.599000,-199.0,-198.0,564.0,-723.0,190.0,-37.0,0.0,0.0,0.0
19:33:09.604000,-206.0,-172.0,517.0,-723.0,190.0,-37.0,0.0,0.0,0.0
19:33:09.608000,-206.0,-149.0,476.0,-741.0,155.0,-16.0,0.0,0.0,0.0
19:33:09.613000,-198.0,-128.0,441.0,-741.0,155.0,-16.0,0.0,0.0,0.0
19:33:09.618000,-185.0,-110.0,417.0,-748.0,98.0,-7.0,0.0,0.0,0.0
19:33:09.622000,-171.0,-95.0,408.0,-748.0,98.0,-7.0,0.0,0.0,0.0
19:33:09.627000,-160.0,-79.0,410.0,-748.0,79.0,-8.0,0.0,0.0,0.0
19:33:09.632000,-151.0,-67.0,415.0,-748.0,79.0,-8.0,0.0,0.0,0.0
19:33:09.637000,-147.0,-59.0,428.0,-758.0,96.0,-10.0,0.0,0.0,0.0
19:33:09.641000,-142.0,-52.0,459.0,-758.0,96.0,-10.0,0.0,0.0,0.0
19:33:09.646000,-138.0,-42.0,493.0,-758.0,96.0,-10.0,0.0,0.0,0.0
19:33:09.651000,-133.0,-32.0,532.0,-777.0,107.0,-12.0,0.0,0.0,0.0
19:33:09.655000,-133.0,-19.0,557.0,-777.0,107.0,-12.0,0.0,0.0,0.0
19:33:09.660000,-130.0,-9.0,597.0,-792.0,97.0,-11.0,0.0,0.0,0.0
19:33:09.665000,-127.0,0.0,659.0,-792.0,97.0,-11.0,0.0,0.0,0.0
19:33:09.669000,-120.0,13.0,709.0,-788.0,56.0,-13.0,0.0,0.0,0.0
19:33:09.674000,-109.0,24.0,711.0,-788.0,56.0,-13.0,0.0,0.0,0.0
19:33:09.679000,-102.0,39.0,708.0,-811.0,17.0,-23.0,0.0,0.0,0.0
19:33:09.684000,-90.0,42.0,749.0,-811.0,17.0,-23.0,0.0,0.0,0.0
19:33:09.688000,-69.0,28.0,774.0,-859.0,7.0,-31.0,0.0,0.0,0.0
19:33:09.693000,-69.0,28.0,774.0,-859.0,7.0,-31.0,0.0,0.0,0.0
19:33:09.698000,-60.0,8.0,781.0,-910.0,30.0,-32.0,0.0,0.0,0.0
19:33:09.702000,-40.0,7.0,630.0,-910.0,30.0,-32.0,0.0,0.0,0.0
19:33:09.707000,-21.0,5.0,643.0,-774.0,14.0,-45.0,0.0,0.0,0.0
19:33:09.712000,-35.0,-13.0,949.0,-774.0,14.0,-45.0,0.0,0.0,0.0
19:33:09.716000,-26.0,-39.0,1105.0,-697.0,34.0,-64.0,0.0,0.0,0.0
19:33:09.721000,-1.0,-63.0,947.0,-697.0,34.0,-64.0,0.0,0.0,0.0
19:33:09.726000,16.0,-53.0,839.0,-729.0,135.0,-91.0,0.0,0.0,0.0
19:33:09.731000,-11.0,-58.0,835.0,-729.0,135.0,-91.0,0.0,0.0,0.0
19:33:09.735000,-4.0,-74.0,814.0,-695.0,195.0,-121.0,0.0,0.0,0.0
19:33:09.740000,24.0,-88.0,770.0,-695.0,195.0,-121.0,0.0,0.0,0.0
19:33:09.745000,40.0,-95.0,791.0,-715.0,202.0,-145.0,0.0,0.0,0.0
19:33:09.749000,47.0,-102.0,814.0,-715.0,202.0,-145.0,0.0,0.0,0.0
19:33:09.754000,60.0,-121.0,772.0,-715.0,202.0,-145.0,0.0,0.0,0.0
19:33:09.759000,76.0,-142.0,720.0,-764.0,223.0,-173.0,0.0,0.0,0.0
19:33:09.763000,128.0,-159.0,730.0,-764.0,223.0,-173.0,0.0,0.0,0.0
19:33:09.768000,165.0,-177.0,760.0,-925.0,228.0,-199.0,0.0,0.0,0.0
19:33:09.773000,194.0,-200.0,775.0,-925.0,228.0,-199.0,0.0,0.0,0.0
19:33:09.778000,217.0,-230.0,821.0,-1038.0,261.0,-212.0,0.0,0.0,0.0
19:33:09.782000,242.0,-262.0,849.0,-1038.0,261.0,-212.0,0.0,0.0,0.0
19:33:09.786000,242.0,-262.0,849.0,-1089.0,346.0,-197.0,0.0,0.0,0.0
19:33:09.792000,289.0,-307.0,800.0,-1089.0,346.0,-197.0,0.0,0.0,0.0
19:33:09.796000,295.0,-324.0,801.0,-1153.0,372.0,-164.0,0.0,0.0,0.0
19:33:09.801000,295.0,-324.0,801.0,-1153.0,372.0,-164.0,0.0,0.0,0.0
19:33:09.806000,297.0,-326.0,852.0,-1226.0,376.0,-139.0,0.0,0.0,0.0
19:33:09.810000,295.0,-325.0,898.0,-1226.0,376.0,-139.0,0.0,0.0,0.0
19:33:09.815000,281.0,-322.0,900.0,-1340.0,367.0,-108.0,0.0,0.0,0.0
19:33:09.820000,273.0,-308.0,896.0,-1340.0,367.0,-108.0,0.0,0.0,0.0
19:33:09.825000,256.0,-287.0,854.0,-1405.0,370.0,-71.0,0.0,0.0,0.0
19:33:09.829000,213.0,-247.0,721.0,-1405.0,370.0,-71.0,0.0,0.0,0.0
19:33:09.834000,156.0,-194.0,522.0,-1533.0,383.0,-35.0,0.0,0.0,0.0
19:33:09.839000,110.0,-136.0,367.0,-1533.0,383.0,-35.0,0.0,0.0,0.0
19:33:09.843000,89.0,-76.0,340.0,-1695.0,290.0,-13.0,0.0,0.0,0.0
19:33:09.848000,65.0,-9.0,331.0,-1695.0,290.0,-13.0,0.0,0.0,0.0
19:33:09.853000,53.0,53.0,245.0,-1762.0,116.0,-17.0,0.0,0.0,0.0
19:33:09.857000,35.0,107.0,9.0,-1762.0,116.0,-17.0,0.0,0.0,0.0
19:33:09.862000,72.0,156.0,-294.0,-1762.0,116.0,-17.0,0.0,0.0,0.0
19:33:09.867000,70.0,205.0,-455.0,-1733.0,-21.0,-34.0,0.0,0.0,0.0
19:33:09.872000,66.0,232.0,-486.0,-1733.0,-21.0,-34.0,0.0,0.0,0.0
19:33:09.876000,71.0,265.0,-431.0,-1530.0,-133.0,-58.0,0.0,0.0,0.0
19:33:09.881000,83.0,290.0,-335.0,-1530.0,-133.0,-58.0,0.0,0.0,0.0
19:33:09.886000,79.0,312.0,-278.0,-1288.0,-158.0,-88.0,0.0,0.0,0.0
19:33:09.890000,105.0,326.0,-298.0,-1288.0,-158.0,-88.0,0.0,0.0,0.0
19:33:09.895000,114.0,340.0,-364.0,-1268.0,-181.0,-119.0,0.0,0.0,0.0
19:33:09.900000,121.0,346.0,-407.0,-1268.0,-181.0,-119.0,0.0,0.0,0.0
19:33:09.904000,157.0,351.0,-469.0,-1346.0,-348.0,-130.0,0.0,0.0,0.0
19:33:09.909000,157.0,351.0,-469.0,-1346.0,-348.0,-130.0,0.0,0.0,0.0
19:33:09.914000,201.0,344.0,-510.0,-1231.0,-537.0,-118.0,0.0,0.0,0.0
19:33:09.919000,222.0,324.0,-493.0,-1231.0,-537.0,-118.0,0.0,0.0,0.0
