hh:mm:ss.ms,gyroX[mdps],gyroY[mdps],gyroZ[mdps],accX[mg],accY[mg],accZ[mg],magX[mG],magY[mG],magZ[mG]
19:32:57.211000,-64.0,135.0,52.0,-1018.0,422.0,-328.0,0.0,0.0,0.0
19:32:57.215000,-7.0,91.0,58.0,-1431.0,281.0,-311.0,0.0,0.0,0.0
19:32:57.220000,53.0,72.0,174.0,-1431.0,281.0,-311.0,0.0,0.0,0.0
19:32:57.225000,138.0,66.0,238.0,-1202.0,118.0,-321.0,0.0,0.0,0.0
19:32:57.229000,192.0,44.0,159.0,-1202.0,118.0,-321.0,0.0,0.0,0.0
19:32:57.234000,210.0,29.0,49.0,-885.0,329.0,-318.0,0.0,0.0,0.0
19:32:57.239000,211.0,17.0,-56.0,-885.0,329.0,-318.0,0.0,0.0,0.0
19:32:57.243000,210.0,-9.0,-58.0,-854.0,516.0,-268.0,0.0,0.0,0.0
19:32:57.248000,205.0,-15.0,7.0,-854.0,516.0,-268.0,0.0,0.0,0.0
19:32:57.253000,200.0,-8.0,53.0,-923.0,505.0,-234.0,0.0,0.0,0.0
19:32:57.258000,176.0,0.0,25.0,-923.0,505.0,-234.0,0.0,0.0,0.0
19:32:57.262000,129.0,25.0,-32.0,-983.0,586.0,-204.0,0.0,0.0,0.0
19:32:57.267000,78.0,37.0,-21.0,-983.0,586.0,-204.0,0.0,0.0,0.0
19:32:57.272000,45.0,53.0,2.0,-983.0,586.0,-204.0,0.0,0.0,0.0
19:32:57.276000,25.0,64.0,-1.0,-972.0,629.0,-170.0,0.0,0.0,0.0
19:32:57.281000,21.0,71.0,-9.0,-972.0,629.0,-170.0,0.0,0.0,0.0
19:32:57.286000,17.0,74.0,-11.0,-922.0,537.0,-152.0,0.0,0.0,0.0
19:32:57.290000,0.0,66.0,-4.0,-922.0,537.0,-152.0,0.0,0.0,0.0
19:32:57.295000,-16.0,56.0,-13.0,-873.0,508.0,-140.0,0.0,0.0,0.0
19:32:57.300000,-37.0,42.0,-53.0,-873.0,508.0,-140.0,0.0,0.0,0.0
19:32:57.305000,-68.0,32.0,-29.0,-840.0,557.0,-127.0,0.0,0.0,0.0
19:32:57.309000,-75.0,16.0,-6.0,-840.0,557.0,-127.0,0.0,0.0,0.0
19:32:57.314000,-75.0,16.0,-6.0,-813.0,571.0,-139.0,0.0,0.0,0.0
19:32:57.319000,-98.0,0.0,-22.0,-813.0,571.0,-139.0,0.0,0.0,0.0
19:32:57.323000,-126.0,-11.0,-39.0,-795.0,599.0,-162.0,0.0,0.0,0.0
19:32:57.328000,-154.0,-21.0,-58.0,-795.0,599.0,-162.0,0.0,0.0,0.0
19:32:57.333000,-182.0,-32.0,-44.0,-775.0,593.0,-171.0,0.0,0.0,0.0
19:32:57.337000,-191.0,-48.0,17.0,-775.0,593.0,-171.0,0.0,0.0,0.0
19:32:57.342000,-195.0,-57.0,77.0,-720.0,482.0,-178.0,0.0,0.0,0.0
19:32:57.347000,-186.0,-68.0,91.0,-720.0,482.0,-178.0,0.0,0.0,0.0
19:32:57.352000,-177.0,-80.0,70.0,-618.0,422.0,-194.0,0.0,0.0,0.0
19:32:57.356000,-172.0,-89.0,59.0,-618.0,422.0,-194.0,0.0,0.0,0.0
19:32:57.361000,-156.0,-96.0,72.0,-504.0,420.0,-207.0,0.0,0.0,0.0
19:32:57.366000,-129.0,-103.0,56.0,-504.0,420.0,-207.0,0.0,0.0,0.0
19:32:57.370000,-103.0,-107.0,23.0,-445.0,400.0,-215.0,0.0,0.0,0.0
19:32:57.375000,-86.0,-111.0,3.0,-445.0,400.0,-215.0,0.0,0.0,0.0
19:32:57.380000,-75.0,-114.0,-16.0,-445.0,400.0,-215.0,0.0,0.0,0.0
19:32:57.384000,-84.0,-114.0,-40.0,-449.0,449.0,-208.0,0.0,0.0,0.0
19:32:57.389000,-109.0,-112.0,-60.0,-449.0,449.0,-208.0,0.0,0.0,0.0
19:32:57.394000,-147.0,-107.0,-68.0,-464.0,551.0,-184.0,0.0,0.0,0.0
19:32:57.399000,-189.0,-96.0,-55.0,-464.0,551.0,-184.0,0.0,0.0,0.0
19:32:57.403000,-226.0,-79.0,-39.0,-455.0,588.0,-158.0,0.0,0.0,0.0
19:32:57.408000,-254.0,-58.0,-38.0,-455.0,588.0,-158.0,0.0,0.0,0.0
19:32:57.413000,-272.0,-34.0,-51.0,-468.0,540.0,-147.0,0.0,0.0,0.0
19:32:57.417000,-272.0,-34.0,-51.0,-468.0,540.0,-147.0,0.0,0.0,0.0
19:32:57.422000,-270.0,9.0,-65.0,-530.0,464.0,-147.0,0.0,0.0,0.0
19:32:57.427000,-270.0,9.0,-65.0,-530.0,464.0,-147.0,0.0,0.0,0.0
19:32:57.431000,-247.0,26.0,-67.0,-576.0,363.0,-152.0,0.0,0.0,0.0
19:32:57.436000,-210.0,38.0,-70.0,-576.0,363.0,-152.0,0.0,0.0,0.0
19:32:57.441000,-167.0,45.0,-79.0,-559.0,282.0,-161.0,0.0,0.0,0.0
19:32:57.446000,-123.0,49.0,-93.0,-559.0,282.0,-161.0,0.0,0.0,0.0
19:32:57.450000,-90.0,49.0,-103.0,-505.0,298.0,-164.0,0.0,0.0,0.0
19:32:57.455000,-67.0,44.0,-108.0,-505.0,298.0,-164.0,0.0,0.0,0.0
19:32:57.460000,-56.0,35.0,-114.0,-467.0,389.0,-160.0,0.0,0.0,0.0
19:32:57.464000,-57.0,21.0,-122.0,-467.0,389.0,-160.0,0.0,0.0,0.0
19:32:57.469000,-73.0,6.0,-125.0,-474.0,494.0,-144.0,0.0,0.0,0.0
19:32:57.474000,-100.0,-7.0,-119.0,-474.0,494.0,-144.0,0.0,0.0,0.0
19:32:57.478000,-127.0,-16.0,-106.0,-512.0,537.0,-116.0,0.0,0.0,0.0
19:32:57.483000,-144.0,-27.0,-86.0,-512.0,537.0,-116.0,0.0,0.0,0.0
19:32:57.488000,-151.0,-33.0,-60.0,-512.0,537.0,-116.0,0.0,0.0,0.0
19:32:57.493000,-148.0,-34.0,-27.0,-553.0,467.0,-94.0,0.0,0.0,0.0
19:32:57.497000,-141.0,-27.0,6.0,-553.0,467.0,-94.0,0.0,0.0,0.0
19:32:57.502000,-132.0,-18.0,35.0,-594.0,376.0,-84.0,0.0,0.0,0.0
19:32:57.507000,-119.0,-9.0,53.0,-594.0,376.0,-84.0,0.0,0.0,0.0
19:32:57.511000,-106.0,2.0,65.0,-638.0,330.0,-84.0,0.0,0.0,0.0
19:32:57.516000,-97.0,15.0,73.0,-638.0,330.0,-84.0,0.0,0.0,0.0
19:32:57.521000,-95.0,28.0,74.0,-657.0,310.0,-96.0,0.0,0.0,0.0
19:32:57.525000,-106.0,37.0,69.0,-657.0,310.0,-96.0,0.0,0.0,0.0
19:32:57.530000,-128.0,44.0,58.0,-638.0,325.0,-109.0,0.0,0.0,0.0
19:32:57.535000,-128.0,44.0,58.0,-638.0,325.0,-109.0,0.0,0.0,0.0
19:32:57.540000,-163.0,45.0,42.0,-613.0,351.0,-124.0,0.0,0.0,0.0
19:32:57.544000,-203.0,44.0,30.0,-613.0,351.0,-124.0,0.0,0.0,0.0
19:32:57.549000,-238.0,42.0,25.0,-597.0,293.0,-138.0,0.0,0.0,0.0
19:32:57.554000,-254.0,43.0,23.0,-597.0,293.0,-138.0,0.0,0.0,0.0
19:32:57.558000,-250.0,46.0,22.0,-592.0,112.0,-151.0,0.0,0.0,0.0
19:32:57.563000,-226.0,51.0,10.0,-592.0,112.0,-151.0,0.0,0.0,0.0
19:32:57.568000,-189.0,60.0,-13.0,-617.0,-69.0,-162.0,0.0,0.0,0.0
19:32:57.572000,-142.0,67.0,-35.0,-617.0,-69.0,-162.0,0.0,0.0,0.0
19:32:57.577000,-93.0,77.0,-53.0,-669.0,-157.0,-167.0,0.0,0.0,0.0
19:32:57.582000,-49.0,79.0,-71.0,-669.0,-157.0,-167.0,0.0,0.0,0.0
19:32:57.587000,-16.0,78.0,-96.0,-718.0,-135.0,-163.0,0.0,0.0,0.0
19:32:57.591000,-2.0,72.0,-126.0,-718.0,-135.0,-163.0,0.0,0.0,0.0
19:32:57.596000,-5.0,58.0,-149.0,-718.0,-135.0,-163.0,0.0,0.0,0.0
19:32:57.601000,-23.0,41.0,-161.0,-713.0,-8.0,-149.0,0.0,0.0,0.0
19:32:57.605000,-46.0,20.0,-157.0,-713.0,-8.0,-149.0,0.0,0.0,0.0
19:32:57.610000,-68.0,-1.0,-140.0,-651.0,123.0,-129.0,0.0,0.0,0.0
19:32:57.615000,-85.0,-16.0,-118.0,-651.0,123.0,-129.0,0.0,0.0,0.0
19:32:57.619000,-98.0,-27.0,-94.0,-619.0,165.0,-109.0,0.0,0.0,0.0
19:32:57.624000,-105.0,-28.0,-69.0,-619.0,165.0,-109.0,0.0,0.0,0.0
19:32:57.629000,-107.0,-25.0,-41.0,-666.0,116.0,-89.0,0.0,0.0,0.0
19:32:57.634000,-104.0,-16.0,-19.0,-666.0,116.0,-89.0,0.0,0.0,0.0
19:32:57.638000,-95.0,-5.0,-15.0,-745.0,21.0,-79.0,0.0,0.0,0.0
19:32:57.643000,-95.0,-5.0,-15.0,-745.0,21.0,-79.0,0.0,0.0,0.0
19:32:57.648000,-84.0,7.0,-34.0,-805.0,-35.0,-84.0,0.0,0.0,0.0
19:32:57.652000,-77.0,18.0,-68.0,-805.0,-35.0,-84.0,0.0,0.0,0.0
19:32:57.657000,-74.0,28.0,-107.0,-834.0,-13.0,-100.0,0.0,0.0,0.0
19:32:57.662000,-73.0,35.0,-143.0,-834.0,-13.0,-100.0,0.0,0.0,0.0
19:32:57.666000,-60.0,37.0,-166.0,-820.0,-7.0,-125.0,0.0,0.0,0.0
19:32:57.671000,-36.0,35.0,-182.0,-820.0,-7.0,-125.0,0.0,0.0,0.0
19:32:57.676000,-5.0,24.0,-195.0,-765.0,-30.0,-158.0,0.0,0.0,0.0
19:32:57.680000,23.0,9.0,-201.0,-765.0,-30.0,-158.0,0.0,0.0,0.0
19:32:57.685000,43.0,-12.0,-193.0,-703.0,16.0,-195.0,0.0,0.0,0.0
19:32:57.690000,58.0,-42.0,-165.0,-703.0,16.0,-195.0,0.0,0.0,0.0
19:32:57.695000,75.0,-77.0,-123.0,-664.0,80.0,-224.0,0.0,0.0,0.0
19:32:57.699000,93.0,-118.0,-74.0,-664.0,80.0,-224.0,0.0,0.0,0.0
19:32:57.704000,103.0,-158.0,-21.0,-664.0,120.0,-230.0,0.0,0.0,0.0
19:32:57.709000,96.0,-194.0,47.0,-668.0,120.0,-230.0,0.0,0.0,0.0
19:32:57.713000,74.0,-226.0,126.0,-668.0,120.0,-230.0,0.0,0.0,0.0
19:32:57.718000,45.0,-254.0,200.0,-722.0,148.0,-212.0,0.0,0.0,0.0
19:32:57.723000,16.0,-270.0,249.0,-722.0,112.0,-181.0,0.0,0.0,0.0
19:32:57.727000,-9.0,-277.0,270.0,-816.0,112.0,-177.0,0.0,0.0,0.0
19:32:57.732000,-32.0,-274.0,270.0,-816.0,112.0,-177.0,0.0,0.0,0.0
19:32:57.737000,-50.0,-265.0,259.0,-933.0,46.0,-132.0,0.0,0.0,0.0
19:32:57.742000,-56.0,-251.0,242.0,-933.0,46.0,-132.0,0.0,0.0,0.0
19:32:57.746000,-53.0,-232.0,222.0,-1021.0,-2.0,-82.0,0.0,0.0,0.0
19:32:57.751000,-39.0,-232.0,222.0,-1021.0,-2.0,-82.0,0.0,0.0,0.0
19:32:57.756000,-39.0,-210.0,197.0,-1053.0,-24.0,-44.0,0.0,0.0,0.0
19:32:57.760000,-19.0,-188.0,174.0,-1053.0,-24.0,-44.0,0.0,0.0,0.0
19:32:57.765000,-2.0,-170.0,170.0,-1051.0,13.0,-31.0,0.0,0.0,0.0
19:32:57.770000,13.0,-158.0,198.0,-1051.0,13.0,-31.0,0.0,0.0,0.0
19:32:57.774000,23.0,-150.0,256.0,-996.0,63.0,-29.0,0.0,0.0,0.0
19:32:57.779000,23.0,-147.0,333.0,-996.0,63.0,-29.0,0.0,0.0,0.0
19:32:57.784000,22.0,-149.0,422.0,-875.0,56.0,-21.0,0.0,0.0,0.0
19:32:57.789000,19.0,-152.0,490.0,-875.0,56.0,-21.0,0.0,0.0,0.0
19:32:57.793000,13.0,-156.0,520.0,-790.0,18.0,-22.0,0.0,0.0,0.0
19:32:57.798000,6.0,-154.0,520.0,-790.0,18.0,-22.0,0.0,0.0,0.0
19:32:57.803000,4.0,-147.0,505.0,-824.0,-27.0,-53.0,0.0,0.0,0.0
19:32:57.807000,17.0,-138.0,485.0,-824.0,-27.0,-53.0,0.0,0.0,0.0
19:32:57.812000,39.0,-125.0,466.0,-924.0,-72.0,-107.0,0.0,0.0,0.0
19:32:57.817000,63.0,-111.0,447.0,-924.0,-72.0,-107.0,0.0,0.0,0.0
19:32:57.821000,86.0,-100.0,438.0,-924.0,-72.0,-107.0,0.0,0.0,0.0
19:32:57.826000,102.0,-97.0,446.0,-980.0,-58.0,-157.0,0.0,0.0,0.0
19:32:57.831000,109.0,-100.0,477.0,-980.0,-58.0,-157.0,0.0,0.0,0.0
19:32:57.836000,100.0,-114.0,528.0,-898.0,5.0,-184.0,0.0,0.0,0.0
19:32:57.840000,73.0,-133.0,592.0,-898.0,5.0,-184.0,0.0,0.0,0.0
19:32:57.845000,40.0,-150.0,658.0,-697.0,75.0,-176.0,0.0,0.0,0.0
19:32:57.850000,21.0,-165.0,709.0,-697.0,75.0,-176.0,0.0,0.0,0.0
19:32:57.854000,25.0,-175.0,718.0,-509.0,41.0,-141.0,0.0,0.0,0.0
19:32:57.859000,49.0,-177.0,675.0,-509.0,41.0,-141.0,0.0,0.0,0.0
19:32:57.864000,49.0,-177.0,675.0,-529.0,-83.0,-117.0,0.0,0.0,0.0
19:32:57.868000,86.0,-168.0,602.0,-529.0,-83.0,-117.0,0.0,0.0,0.0
19:32:57.873000,134.0,-153.0,524.0,-758.0,-141.0,-127.0,0.0,0.0,0.0
19:32:57.878000,182.0,-132.0,444.0,-758.0,-141.0,-127.0,0.0,0.0,0.0
19:32:57.883000,223.0,-109.0,355.0,-987.0,-86.0,-153.0,0.0,0.0,0.0
19:32:57.887000,253.0,-85.0,268.0,-987.0,-86.0,-153.0,0.0,0.0,0.0
19:32:57.892000,270.0,-62.0,199.0,-1048.0,45.0,-163.0,0.0,0.0,0.0
19:32:57.897000,276.0,-36.0,156.0,-1048.0,45.0,-163.0,0.0,0.0,0.0
19:32:57.911000,198.0,24.0,170.0,-784.0,345.0,-127.0,0.0,0.0,0.0
19:32:57.915000,159.0,30.0,206.0,-784.0,345.0,-127.0,0.0,0.0,0.0
19:32:57.920000,126.0,27.0,231.0,-660.0,385.0,-125.0,0.0,0.0,0.0
19:32:57.925000,105.0,15.0,240.0,-660.0,385.0,-125.0,0.0,0.0,0.0
19:32:57.930000,90.0,-4.0,233.0,-660.0,385.0,-125.0,0.0,0.0,0.0
19:32:57.934000,70.0,-25.0,215.0,-611.0,359.0,-157.0,0.0,0.0,0.0
19:32:57.939000,42.0,-47.0,194.0,-611.0,359.0,-157.0,0.0,0.0,0.0
19:32:57.944000,11.0,-69.0,172.0,-650.0,352.0,-189.0,0.0,0.0,0.0
19:32:57.948000,-16.0,-90.0,149.0,-650.0,352.0,-189.0,0.0,0.0,0.0
19:32:57.953000,-35.0,-108.0,122.0,-718.0,338.0,-201.0,0.0,0.0,0.0
19:32:57.958000,-52.0,-118.0,85.0,-718.0,338.0,-201.0,0.0,0.0,0.0
19:32:57.962000,-73.0,-116.0,44.0,-752.0,285.0,-207.0,0.0,0.0,0.0
19:32:57.967000,-92.0,-112.0,18.0,-752.0,285.0,-207.0,0.0,0.0,0.0
19:32:57.971000,-92.0,-112.0,18.0,-758.0,244.0,-205.0,0.0,0.0,0.0
19:32:57.977000,-98.0,-106.0,9.0,-758.0,244.0,-205.0,0.0,0.0,0.0
19:32:57.981000,-102.0,-91.0,4.0,-724.0,191.0,-198.0,0.0,0.0,0.0
19:32:57.986000,-99.0,-70.0,-1.0,-724.0,191.0,-198.0,0.0,0.0,0.0
19:32:57.991000,-90.0,-44.0,-3.0,-687.0,138.0,-193.0,0.0,0.0,0.0
19:32:57.995000,-60.0,-30.0,11.0,-687.0,138.0,-193.0,0.0,0.0,0.0
19:32:58.000000,-28.0,-9.0,37.0,-660.0,86.0,-188.0,0.0,0.0,0.0
19:32:58.005000,4.0,15.0,68.0,-660.0,86.0,-188.0,0.0,0.0,0.0
19:32:58.009000,35.0,34.0,137.0,-629.0,73.0,-181.0,0.0,0.0,0.0
19:32:58.014000,63.0,54.0,221.0,-629.0,73.0,-181.0,0.0,0.0,0.0
19:32:58.019000,78.0,74.0,247.0,-650.0,142.0,-167.0,0.0,0.0,0.0
19:32:58.024000,95.0,77.0,265.0,-650.0,142.0,-167.0,0.0,0.0,0.0
19:32:58.028000,98.0,91.0,313.0,-673.0,177.0,-146.0,0.0,0.0,0.0
19:32:58.033000,102.0,99.0,361.0,-673.0,177.0,-146.0,0.0,0.0,0.0
19:32:58.038000,119.0,96.0,377.0,-733.0,171.0,-111.0,0.0,0.0,0.0
19:32:58.042000,149.0,73.0,354.0,-733.0,171.0,-111.0,0.0,0.0,0.0
19:32:58.046000,165.0,73.0,452.0,-733.0,171.0,-111.0,0.0,0.0,0.0
19:32:58.052000,164.0,50.0,604.0,-863.0,142.0,-68.0,0.0,0.0,0.0
19:32:58.056000,126.0,81.0,220.0,-863.0,142.0,-68.0,0.0,0.0,0.0
19:32:58.061000,136.0,126.0,135.0,-934.0,202.0,-33.0,0.0,0.0,0.0
19:32:58.066000,97.0,137.0,262.0,-934.0,202.0,-33.0,0.0,0.0,0.0
19:32:58.071000,86.0,144.0,235.0,-612.0,263.0,2.0,0.0,0.0,0.0
19:32:58.075000,82.0,161.0,142.0,-612.0,263.0,2.0,0.0,0.0,0.0
19:32:58.080000,82.0,161.0,142.0,-397.0,263.0,-1.0,0.0,0.0,0.0
19:32:58.085000,88.0,169.0,117.0,-397.0,263.0,-1.0,0.0,0.0,0.0
19:32:58.089000,93.0,175.0,83.0,-611.0,381.0,-74.0,0.0,0.0,0.0
19:32:58.094000,112.0,163.0,96.0,-611.0,381.0,-74.0,0.0,0.0,0.0
19:32:58.099000,131.0,144.0,185.0,-790.0,500.0,-155.0,0.0,0.0,0.0
19:32:58.103000,155.0,130.0,267.0,-790.0,500.0,-155.0,0.0,0.0,0.0
19:32:58.108000,184.0,124.0,296.0,-876.0,553.0,-207.0,0.0,0.0,0.0
19:32:58.113000,204.0,116.0,320.0,-876.0,553.0,-207.0,0.0,0.0,0.0
19:32:58.118000,209.0,96.0,389.0,-849.0,643.0,-225.0,0.0,0.0,0.0
19:32:58.122000,210.0,72.0,507.0,-849.0,643.0,-225.0,0.0,0.0,0.0
19:32:58.127000,184.0,51.0,627.0,-764.0,771.0,-221.0,0.0,0.0,0.0
19:32:58.132000,136.0,25.0,677.0,-764.0,771.0,-221.0,0.0,0.0,0.0
19:32:58.136000,88.0,1.0,653.0,-766.0,857.0,-221.0,0.0,0.0,0.0
19:32:58.141000,32.0,-14.0,542.0,-766.0,857.0,-221.0,0.0,0.0,0.0
19:32:58.146000,-2.0,-30.0,403.0,-766.0,857.0,-221.0,0.0,0.0,0.0
19:32:58.150000,-22.0,-45.0,307.0,-808.0,840.0,-232.0,0.0,0.0,0.0
19:32:58.155000,-33.0,-58.0,235.0,-808.0,840.0,-232.0,0.0,0.0,0.0
19:32:58.160000,-27.0,-69.0,146.0,-854.0,751.0,-251.0,0.0,0.0,0.0
19:32:58.165000,-4.0,-77.0,44.0,-854.0,751.0,-251.0,0.0,0.0,0.0
19:32:58.169000,10.0,-78.0,-59.0,-976.0,688.0,-273.0,0.0,0.0,0.0
19:32:58.174000,23.0,-77.0,-123.0,-976.0,688.0,-273.0,0.0,0.0,0.0
19:32:58.179000,40.0,-76.0,-173.0,-1107.0,620.0,-278.0,0.0,0.0,0.0
19:32:58.183000,53.0,-67.0,-213.0,-1107.0,620.0,-278.0,0.0,0.0,0.0
19:32:58.188000,52.0,-54.0,-214.0,-1239.0,561.0,-261.0,0.0,0.0,0.0
19:32:58.193000,52.0,-54.0,-214.0,-1239.0,561.0,-261.0,0.0,0.0,0.0
19:32:58.197000,36.0,-37.0,-235.0,-1304.0,539.0,-241.0,0.0,0.0,0.0
19:32:58.202000,16.0,-19.0,-277.0,-1304.0,539.0,-241.0,0.0,0.0,0.0
19:32:58.207000,-2.0,0.0,-331.0,-1309.0,470.0,-216.0,0.0,0.0,0.0
19:32:58.212000,-19.0,16.0,-368.0,-1309.0,470.0,-216.0,0.0,0.0,0.0
19:32:58.216000,-29.0,30.0,-396.0,-1301.0,324.0,-160.0,0.0,0.0,0.0
19:32:58.221000,-44.0,50.0,-448.0,-1301.0,324.0,-160.0,0.0,0.0,0.0
19:32:58.226000,-38.0,56.0,-490.0,-1287.0,168.0,-89.0,0.0,0.0,0.0
19:32:58.230000,-16.0,70.0,-491.0,-1287.0,168.0,-89.0,0.0,0.0,0.0
19:32:58.235000,0.0,88.0,-555.0,-1222.0,101.0,-66.0,0.0,0.0,0.0
19:32:58.240000,2.0,99.0,-628.0,-1222.0,101.0,-66.0,0.0,0.0,0.0
19:32:58.244000,-28.0,119.0,-606.0,-1133.0,26.0,-71.0,0.0,0.0,0.0
19:32:58.249000,-37.0,123.0,-541.0,-1133.0,26.0,-71.0,0.0,0.0,0.0
19:32:58.254000,-29.0,127.0,-415.0,-1133.0,26.0,-71.0,0.0,0.0,0.0
19:32:58.259000,-28.0,133.0,-340.0,-1103.0,-79.0,-88.0,0.0,0.0,0.0
19:32:58.263000,-27.0,149.0,-333.0,-1103.0,-79.0,-88.0,0.0,0.0,0.0
19:32:58.268000,-7.0,161.0,-312.0,-1154.0,-140.0,-120.0,0.0,0.0,0.0
19:32:58.273000,14.0,179.0,-289.0,-1154.0,-140.0,-120.0,0.0,0.0,0.0
19:32:58.277000,39.0,198.0,-296.0,-1240.0,-158.0,-170.0,0.0,0.0,0.0
19:32:58.282000,63.0,217.0,-359.0,-1240.0,-158.0,-170.0,0.0,0.0,0.0
19:32:58.287000,59.0,233.0,-440.0,-1307.0,-60.0,-224.0,0.0,0.0,0.0
19:32:58.291000,46.0,254.0,-511.0,-1307.0,-60.0,-224.0,0.0,0.0,0.0
19:32:58.296000,122.0,242.0,-535.0,-1341.0,36.0,-249.0,0.0,0.0,0.0
19:32:58.301000,122.0,242.0,-535.0,-1341.0,36.0,-249.0,0.0,0.0,0.0
19:32:58.306000,115.0,240.0,-516.0,-1328.0,27.0,-257.0,0.0,0.0,0.0
19:32:58.310000,137.0,232.0,-520.0,-1328.0,27.0,-257.0,0.0,0.0,0.0
19:32:58.315000,130.0,226.0,-539.0,-1315.0,1.0,-258.0,0.0,0.0,0.0
19:32:58.320000,155.0,227.0,-567.0,-1315.0,1.0,-258.0,0.0,0.0,0.0
19:32:58.324000,188.0,221.0,-581.0,-1316.0,19.0,-256.0,0.0,0.0,0.0
19:32:58.329000,193.0,210.0,-587.0,-1316.0,19.0,-256.0,0.0,0.0,0.0
19:32:58.334000,192.0,200.0,-604.0,-1348.0,84.0,-256.0,0.0,0.0,0.0
19:32:58.338000,210.0,193.0,-627.0,-1348.0,84.0,-256.0,0.0,0.0,0.0
19:32:58.343000,234.0,175.0,-567.0,-1386.0,278.0,-249.0,0.0,0.0,0.0
19:32:58.348000,257.0,162.0,-680.0,-1386.0,278.0,-249.0,0.0,0.0,0.0
19:32:58.353000,210.0,169.0,-772.0,-1326.0,371.0,-234.0,0.0,0.0,0.0
19:32:58.357000,189.0,161.0,-679.0,-1326.0,371.0,-234.0,0.0,0.0,0.0
19:32:58.362000,214.0,137.0,-667.0,-1326.0,371.0,-234.0,0.0,0.0,0.0
19:32:58.367000,200.0,116.0,-652.0,-1261.0,310.0,-239.0,0.0,0.0,0.0
19:32:58.371000,177.0,98.0,-628.0,-1261.0,310.0,-239.0,0.0,0.0,0.0
19:32:58.376000,137.0,86.0,-632.0,-1262.0,386.0,-260.0,0.0,0.0,0.0
19:32:58.381000,116.0,71.0,-611.0,-1262.0,386.0,-260.0,0.0,0.0,0.0
19:32:58.385000,129.0,53.0,-514.0,-1233.0,423.0,-275.0,0.0,0.0,0.0
19:32:58.390000,123.0,42.0,-510.0,-1233.0,423.0,-275.0,0.0,0.0,0.0
19:32:58.395000,114.0,25.0,-541.0,-1255.0,478.0,-288.0,0.0,0.0,0.0
19:32:58.432000,102.0,-29.0,-249.0,-1079.0,454.0,-291.0,0.0,0.0,0.0
19:32:58.437000,92.0,-35.0,-216.0,-1079.0,454.0,-291.0,0.0,0.0,0.0
19:32:58.442000,70.0,-42.0,-231.0,-1083.0,494.0,-291.0,0.0,0.0,0.0
19:32:58.447000,99.0,-52.0,-234.0,-1083.0,494.0,-291.0,0.0,0.0,0.0
19:32:58.451000,104.0,-75.0,-215.0,-1111.0,530.0,-295.0,0.0,0.0,0.0
19:32:58.456000,90.0,-98.0,-226.0,-1111.0,530.0,-295.0,0.0,0.0,0.0
19:32:58.461000,88.0,-112.0,-202.0,-1123.0,554.0,-313.0,0.0,0.0,0.0
19:32:58.465000,123.0,-129.0,-172.0,-1123.0,554.0,-313.0,0.0,0.0,0.0
19:32:58.470000,110.0,-158.0,-141.0,-1159.0,579.0,-316.0,0.0,0.0,0.0
19:32:58.475000,77.0,-175.0,-105.0,-1159.0,579.0,-316.0,0.0,0.0,0.0
19:32:58.479000,81.0,-188.0,-121.0,-1159.0,579.0,-316.0,0.0,0.0,0.0
19:32:58.484000,97.0,-196.0,-149.0,-1176.0,608.0,-301.0,0.0,0.0,0.0
19:32:58.488000,117.0,-210.0,-135.0,-1120.0,601.0,-282.0,0.0,0.0,0.0
19:32:58.494000,102.0,-206.0,-117.0,-1120.0,601.0,-282.0,0.0,0.0,0.0
19:32:58.498000,109.0,-217.0,-77.0,-1120.0,601.0,-282.0,0.0,0.0,0.0
19:32:58.503000,130.0,-210.0,-56.0,-1103.0,563.0,-269.0,0.0,0.0,0.0
19:32:58.508000,156.0,-214.0,-55.0,-1103.0,563.0,-269.0,0.0,0.0,0.0
19:32:58.512000,121.0,-201.0,-4.0,-1147.0,579.0,-258.0,0.0,0.0,0.0
19:32:58.517000,102.0,-194.0,36.0,-1147.0,579.0,-258.0,0.0,0.0,0.0
19:32:58.522000,102.0,-194.0,36.0,-1178.0,584.0,-224.0,0.0,0.0,0.0
19:32:58.526000,95.0,-184.0,69.0,-1178.0,584.0,-224.0,0.0,0.0,0.0
19:32:58.531000,86.0,-166.0,102.0,-1198.0,541.0,-192.0,0.0,0.0,0.0
19:32:58.536000,79.0,-151.0,127.0,-1198.0,541.0,-192.0,0.0,0.0,0.0
19:32:58.541000,53.0,-122.0,114.0,-1182.0,532.0,-168.0,0.0,0.0,0.0
19:32:58.545000,8.0,-89.0,111.0,-1182.0,532.0,-168.0,0.0,0.0,0.0
19:32:58.550000,-47.0,-70.0,149.0,-1140.0,519.0,-138.0,0.0,0.0,0.0
19:32:58.555000,-82.0,-57.0,192.0,-1140.0,519.0,-138.0,0.0,0.0,0.0
19:32:58.559000,-92.0,-58.0,196.0,-1145.0,523.0,-122.0,0.0,0.0,0.0
19:32:58.564000,-112.0,-49.0,151.0,-1145.0,523.0,-122.0,0.0,0.0,0.0
19:32:58.569000,-171.0,-41.0,86.0,-1195.0,522.0,-109.0,0.0,0.0,0.0
19:32:58.573000,-207.0,-27.0,23.0,-1195.0,522.0,-109.0,0.0,0.0,0.0
19:32:58.578000,-181.0,-3.0,58.0,-1150.0,442.0,-102.0,0.0,0.0,0.0
19:32:58.583000,-200.0,22.0,161.0,-1150.0,442.0,-102.0,0.0,0.0,0.0
19:32:58.588000,-151.0,27.0,200.0,-1150.0,442.0,-102.0,0.0,0.0,0.0
19:32:58.592000,-107.0,39.0,226.0,-1125.0,340.0,-127.0,0.0,0.0,0.0
19:32:58.597000,-47.0,42.0,329.0,-1125.0,340.0,-127.0,0.0,0.0,0.0
19:32:58.602000,-60.0,70.0,316.0,-1224.0,242.0,-149.0,0.0,0.0,0.0
19:32:58.606000,-25.0,91.0,142.0,-1224.0,242.0,-149.0,0.0,0.0,0.0
19:32:58.611000,-53.0,90.0,54.0,-1266.0,242.0,-162.0,0.0,0.0,0.0
19:32:58.616000,-21.0,93.0,36.0,-1266.0,242.0,-162.0,0.0,0.0,0.0
19:32:58.620000,40.0,112.0,50.0,-1202.0,357.0,-196.0,0.0,0.0,0.0
19:32:58.625000,-4.0,100.0,113.0,-1202.0,357.0,-196.0,0.0,0.0,0.0
19:32:58.630000,-4.0,100.0,113.0,-1073.0,476.0,-225.0,0.0,0.0,0.0
19:32:58.635000,-29.0,100.0,61.0,-1073.0,476.0,-225.0,0.0,0.0,0.0
19:32:58.639000,-44.0,91.0,-26.0,-1081.0,561.0,-244.0,0.0,0.0,0.0
19:32:58.644000,-63.0,76.0,-76.0,-1081.0,561.0,-244.0,0.0,0.0,0.0
19:32:58.649000,-99.0,64.0,-53.0,-1145.0,561.0,-259.0,0.0,0.0,0.0
19:32:58.653000,-99.0,42.0,7.0,-1145.0,561.0,-259.0,0.0,0.0,0.0
19:32:58.658000,-91.0,14.0,49.0,-1071.0,489.0,-262.0,0.0,0.0,0.0
19:32:58.663000,-91.0,-14.0,21.0,-1071.0,489.0,-262.0,0.0,0.0,0.0
19:32:58.667000,-74.0,-42.0,-12.0,-950.0,451.0,-273.0,0.0,0.0,0.0
19:32:58.672000,-62.0,-77.0,-21.0,-950.0,451.0,-273.0,0.0,0.0,0.0
19:32:58.677000,-51.0,-100.0,-35.0,-859.0,489.0,-281.0,0.0,0.0,0.0
19:32:58.682000,-46.0,-118.0,-24.0,-859.0,489.0,-281.0,0.0,0.0,0.0
19:32:58.686000,-32.0,-133.0,18.0,-856.0,531.0,-265.0,0.0,0.0,0.0
19:32:58.691000,-23.0,-137.0,35.0,-856.0,531.0,-265.0,0.0,0.0,0.0
19:32:58.696000,-11.0,-130.0,11.0,-856.0,531.0,-265.0,0.0,0.0,0.0
19:32:58.700000,-15.0,-108.0,-24.0,-919.0,546.0,-233.0,0.0,0.0,0.0
19:32:58.705000,-28.0,-84.0,-15.0,-919.0,546.0,-233.0,0.0,0.0,0.0
19:32:58.710000,-41.0,-55.0,10.0,-972.0,602.0,-187.0,0.0,0.0,0.0
19:32:58.714000,-62.0,-25.0,19.0,-972.0,602.0,-187.0,0.0,0.0,0.0
19:32:58.719000,-86.0,8.0,28.0,-966.0,672.0,-141.0,0.0,0.0,0.0
19:32:58.724000,-104.0,39.0,53.0,-966.0,672.0,-141.0,0.0,0.0,0.0
19:32:58.729000,-114.0,63.0,90.0,-895.0,652.0,-123.0,0.0,0.0,0.0
19:32:58.733000,-110.0,80.0,121.0,-895.0,652.0,-123.0,0.0,0.0,0.0
19:32:58.738000,-110.0,80.0,121.0,-753.0,585.0,-139.0,0.0,0.0,0.0
19:32:58.743000,-108.0,93.0,88.0,-753.0,585.0,-139.0,0.0,0.0,0.0
19:32:58.747000,-102.0,86.0,37.0,-639.0,572.0,-172.0,0.0,0.0,0.0
19:32:58.752000,-98.0,73.0,28.0,-639.0,572.0,-172.0,0.0,0.0,0.0
19:32:58.757000,-88.0,55.0,65.0,-561.0,551.0,-213.0,0.0,0.0,0.0
19:32:58.761000,-65.0,33.0,100.0,-561.0,551.0,-213.0,0.0,0.0,0.0
19:32:58.766000,-36.0,9.0,105.0,-514.0,532.0,-256.0,0.0,0.0,0.0
19:32:58.771000,-12.0,-15.0,115.0,-514.0,532.0,-256.0,0.0,0.0,0.0
19:32:58.776000,4.0,-36.0,136.0,-568.0,564.0,-275.0,0.0,0.0,0.0
19:32:58.780000,14.0,-56.0,180.0,-568.0,564.0,-275.0,0.0,0.0,0.0
19:32:58.785000,21.0,-78.0,247.0,-675.0,564.0,-268.0,0.0,0.0,0.0
19:32:58.790000,17.0,-100.0,313.0,-675.0,564.0,-268.0,0.0,0.0,0.0
19:32:58.794000,14.0,-125.0,392.0,-749.0,499.0,-244.0,0.0,0.0,0.0
19:32:58.799000,15.0,-150.0,463.0,-749.0,499.0,-244.0,0.0,0.0,0.0
19:32:58.804000,16.0,-171.0,492.0,-749.0,499.0,-244.0,0.0,0.0,0.0
19:32:58.808000,8.0,-187.0,479.0,-711.0,414.0,-213.0,0.0,0.0,0.0
19:32:58.813000,-8.0,-197.0,450.0,-711.0,414.0,-213.0,0.0,0.0,0.0
19:32:58.818000,-25.0,-201.0,410.0,-574.0,395.0,-175.0,0.0,0.0,0.0
19:32:58.823000,-45.0,-197.0,338.0,-574.0,395.0,-175.0,0.0,0.0,0.0
19:32:58.827000,-62.0,-182.0,242.0,-460.0,431.0,-140.0,0.0,0.0,0.0
19:32:58.832000,-81.0,-156.0,142.0,-460.0,431.0,-140.0,0.0,0.0,0.0
19:32:58.837000,-107.0,-121.0,68.0,-481.0,472.0,-119.0,0.0,0.0,0.0
19:32:58.841000,-128.0,-85.0,18.0,-481.0,472.0,-119.0,0.0,0.0,0.0
19:32:58.846000,-145.0,-45.0,-14.0,-593.0,470.0,-98.0,0.0,0.0,0.0
19:32:58.851000,-145.0,-45.0,-14.0,-593.0,470.0,-98.0,0.0,0.0,0.0
19:32:58.855000,-154.0,-7.0,-39.0,-666.0,406.0,-81.0,0.0,0.0,0.0
19:32:58.860000,-154.0,24.0,-65.0,-666.0,406.0,-81.0,0.0,0.0,0.0
19:32:58.865000,-147.0,47.0,-84.0,-643.0,339.0,-70.0,0.0,0.0,0.0
19:32:58.870000,-135.0,64.0,-97.0,-643.0,339.0,-70.0,0.0,0.0,0.0
19:32:58.874000,-116.0,72.0,-109.0,-552.0,294.0,-67.0,0.0,0.0,0.0
19:32:58.879000,-93.0,74.0,-129.0,-552.0,294.0,-67.0,0.0,0.0,0.0
19:32:58.884000,-67.0,73.0,-152.0,-466.0,262.0,-85.0,0.0,0.0,0.0
19:32:58.888000,-43.0,71.0,-183.0,-466.0,262.0,-85.0,0.0,0.0,0.0
19:32:58.893000,-31.0,69.0,-224.0,-440.0,292.0,-103.0,0.0,0.0,0.0
19:32:58.897000,-30.0,65.0,-266.0,-440.0,292.0,-103.0,0.0,0.0,0.0
19:32:58.902000,-37.0,59.0,-291.0,-442.0,371.0,-94.0,0.0,0.0,0.0
19:32:58.907000,-42.0,53.0,-294.0,-442.0,371.0,-94.0,0.0,0.0,0.0
19:32:58.911000,-40.0,52.0,-285.0,-445.0,407.0,-74.0,0.0,0.0,0.0
19:32:58.917000,-38.0,57.0,-274.0,-445.0,407.0,-74.0,0.0,0.0,0.0
19:32:58.921000,-37.0,64.0,-259.0,-445.0,407.0,-74.0,0.0,0.0,0.0
19:32:58.926000,-44.0,76.0,-240.0,-500.0,435.0,-61.0,0.0,0.0,0.0
19:32:58.931000,-58.0,90.0,-210.0,-500.0,435.0,-61.0,0.0,0.0,0.0
19:32:58.935000,-81.0,103.0,-171.0,-603.0,494.0,-52.0,0.0,0.0,0.0
19:32:58.940000,-114.0,115.0,-130.0,-603.0,494.0,-52.0,0.0,0.0,0.0
19:32:58.945000,-159.0,127.0,-93.0,-703.0,544.0,-39.0,0.0,0.0,0.0
19:32:58.949000,-212.0,137.0,-53.0,-703.0,544.0,-39.0,0.0,0.0,0.0
19:32:58.954000,-261.0,145.0,-11.0,-769.0,540.0,-25.0,0.0,0.0,0.0
19:32:58.959000,-261.0,145.0,-11.0,-769.0,540.0,-25.0,0.0,0.0,0.0
19:32:58.964000,-298.0,149.0,24.0,-787.0,444.0,-24.0,0.0,0.0,0.0
19:32:58.968000,-318.0,151.0,47.0,-787.0,444.0,-24.0,0.0,0.0,0.0
19:32:58.973000,-319.0,154.0,57.0,-772.0,299.0,-54.0,0.0,0.0,0.0
19:32:58.978000,-304.0,161.0,58.0,-772.0,299.0,-54.0,0.0,0.0,0.0
19:32:58.982000,-279.0,167.0,45.0,-761.0,165.0,-107.0,0.0,0.0,0.0
19:32:58.987000,-245.0,169.0,16.0,-761.0,165.0,-107.0,0.0,0.0,0.0
19:32:58.992000,-203.0,164.0,-16.0,-732.0,39.0,-159.0,0.0,0.0,0.0
19:32:58.996000,-152.0,154.0,-60.0,-732.0,39.0,-159.0,0.0,0.0,0.0
19:32:59.001000,-98.0,140.0,-119.0,-653.0,-34.0,-195.0,0.0,0.0,0.0
19:32:59.006000,-50.0,119.0,-189.0,-653.0,-34.0,-195.0,0.0,0.0,0.0
19:32:59.011000,-11.0,93.0,-259.0,-580.0,-4.0,-207.0,0.0,0.0,0.0
19:32:59.015000,14.0,65.0,-323.0,-580.0,-4.0,-207.0,0.0,0.0,0.0
19:32:59.020000,25.0,33.0,-374.0,-580.0,-4.0,-207.0,0.0,0.0,0.0
19:32:59.025000,18.0,2.0,-403.0,-604.0,95.0,-200.0,0.0,0.0,0.0
19:32:59.029000,0.0,-25.0,-411.0,-604.0,95.0,-200.0,0.0,0.0,0.0
19:32:59.034000,-26.0,-50.0,-407.0,-722.0,181.0,-176.0,0.0,0.0,0.0
19:32:59.039000,-54.0,-71.0,-400.0,-722.0,181.0,-176.0,0.0,0.0,0.0
19:32:59.043000,-76.0,-86.0,-392.0,-845.0,196.0,-137.0,0.0,0.0,0.0
19:32:59.048000,-91.0,-93.0,-384.0,-845.0,196.0,-137.0,0.0,0.0,0.0
19:32:59.053000,-102.0,-92.0,-374.0,-911.0,154.0,-99.0,0.0,0.0,0.0
19:32:59.058000,-108.0,-86.0,-364.0,-911.0,154.0,-99.0,0.0,0.0,0.0
19:32:59.062000,-110.0,-76.0,-347.0,-943.0,103.0,-78.0,0.0,0.0,0.0
19:32:59.067000,-110.0,-76.0,-347.0,-943.0,103.0,-78.0,0.0,0.0,0.0
19:32:59.072000,-107.0,-63.0,-321.0,-959.0,54.0,-73.0,0.0,0.0,0.0
19:32:59.076000,-101.0,-46.0,-296.0,-959.0,54.0,-73.0,0.0,0.0,0.0
19:32:59.081000,-94.0,-31.0,-287.0,-935.0,30.0,-86.0,0.0,0.0,0.0
19:32:59.086000,-90.0,-19.0,-294.0,-935.0,30.0,-86.0,0.0,0.0,0.0
19:32:59.090000,-86.0,-9.0,-301.0,-860.0,45.0,-116.0,0.0,0.0,0.0
19:32:59.095000,-74.0,-4.0,-299.0,-860.0,45.0,-116.0,0.0,0.0,0.0
19:32:59.100000,-62.0,-4.0,-289.0,-782.0,57.0,-147.0,0.0,0.0,0.0
19:32:59.105000,-50.0,-7.0,-273.0,-782.0,57.0,-147.0,0.0,0.0,0.0
19:32:59.109000,-45.0,-14.0,-258.0,-778.0,83.0,-168.0,0.0,0.0,0.0
19:32:59.114000,-46.0,-26.0,-244.0,-778.0,83.0,-168.0,0.0,0.0,0.0
19:32:59.119000,-49.0,-46.0,-221.0,-812.0,114.0,-175.0,0.0,0.0,0.0
19:32:59.123000,-51.0,-71.0,-196.0,-812.0,114.0,-175.0,0.0,0.0,0.0
19:32:59.128000,-53.0,-100.0,-176.0,-812.0,136.0,-184.0,0.0,0.0,0.0
19:32:59.133000,-63.0,-129.0,-168.0,-823.0,136.0,-184.0,0.0,0.0,0.0
19:32:59.137000,-75.0,-163.0,-160.0,-823.0,136.0,-184.0,0.0,0.0,0.0
19:32:59.142000,-80.0,-198.0,-146.0,-832.0,172.0,-195.0,0.0,0.0,0.0
19:32:59.147000,-70.0,-231.0,-128.0,-832.0,172.0,-195.0,0.0,0.0,0.0
19:32:59.152000,-45.0,-259.0,-111.0,-833.0,141.0,-209.0,0.0,0.0,0.0
19:32:59.156000,-12.0,-284.0,-94.0,-833.0,141.0,-209.0,0.0,0.0,0.0
19:32:59.161000,22.0,-301.0,-79.0,-842.0,75.0,-230.0,0.0,0.0,0.0
19:32:59.166000,56.0,-311.0,-51.0,-842.0,75.0,-230.0,0.0,0.0,0.0
19:32:59.170000,83.0,-321.0,-4.0,-884.0,69.0,-254.0,0.0,0.0,0.0
19:32:59.175000,83.0,-321.0,-4.0,-884.0,69.0,-254.0,0.0,0.0,0.0
19:32:59.180000,101.0,-336.0,55.0,-923.0,105.0,-265.0,0.0,0.0,0.0
19:32:59.184000,109.0,-351.0,123.0,-923.0,105.0,-265.0,0.0,0.0,0.0
19:32:59.189000,102.0,-366.0,193.0,-915.0,172.0,-253.0,0.0,0.0,0.0
19:32:59.194000,82.0,-384.0,275.0,-915.0,172.0,-253.0,0.0,0.0,0.0
19:32:59.199000,53.0,-406.0,364.0,-866.0,237.0,-221.0,0.0,0.0,0.0
19:32:59.203000,25.0,-429.0,434.0,-866.0,237.0,-221.0,0.0,0.0,0.0
19:32:59.208000,0.0,-457.0,481.0,-836.0,238.0,-178.0,0.0,0.0,0.0
19:32:59.213000,-25.0,-480.0,518.0,-836.0,238.0,-178.0,0.0,0.0,0.0
19:32:59.217000,-50.0,-501.0,549.0,-851.0,175.0,-132.0,0.0,0.0,0.0
19:32:59.222000,-73.0,-516.0,576.0,-851.0,175.0,-132.0,0.0,0.0,0.0
19:32:59.227000,-93.0,-527.0,589.0,-890.0,109.0,-91.0,0.0,0.0,0.0
19:32:59.231000,-109.0,-530.0,594.0,-890.0,109.0,-91.0,0.0,0.0,0.0
19:32:59.236000,-121.0,-525.0,583.0,-934.0,71.0,-76.0,0.0,0.0,0.0
19:32:59.241000,-126.0,-512.0,564.0,-934.0,71.0,-76.0,0.0,0.0,0.0
19:32:59.246000,-122.0,-494.0,550.0,-934.0,71.0,-76.0,0.0,0.0,0.0
19:32:59.250000,-112.0,-471.0,536.0,-977.0,36.0,-82.0,0.0,0.0,0.0
19:32:59.255000,-94.0,-445.0,534.0,-977.0,36.0,-82.0,0.0,0.0,0.0
19:32:59.260000,-72.0,-419.0,554.0,-995.0,3.0,-102.0,0.0,0.0,0.0
19:32:59.264000,-55.0,-392.0,593.0,-995.0,3.0,-102.0,0.0,0.0,0.0
19:32:59.269000,-40.0,-368.0,644.0,-959.0,8.0,-125.0,0.0,0.0,0.0
19:32:59.274000,-32.0,-348.0,703.0,-959.0,8.0,-125.0,0.0,0.0,0.0
19:32:59.278000,-32.0,-337.0,763.0,-857.0,64.0,-137.0,0.0,0.0,0.0
19:32:59.283000,-32.0,-337.0,820.0,-857.0,64.0,-137.0,0.0,0.0,0.0
19:32:59.288000,-32.0,-337.0,820.0,-700.0,126.0,-134.0,0.0,0.0,0.0
19:32:59.292000,-39.0,-342.0,882.0,-700.0,126.0,-134.0,0.0,0.0,0.0
19:32:59.297000,-53.0,-347.0,950.0,-566.0,190.0,-119.0,0.0,0.0,0.0
19:32:59.302000,-73.0,-354.0,1016.0,-566.0,190.0,-119.0,0.0,0.0,0.0
19:32:59.307000,-92.0,-364.0,1075.0,-521.0,240.0,-98.0,0.0,0.0,0.0
19:32:59.311000,-107.0,-375.0,1122.0,-521.0,240.0,-98.0,0.0,0.0,0.0
19:32:59.316000,-114.0,-385.0,1160.0,-525.0,223.0,-77.0,0.0,0.0,0.0
19:32:59.321000,-113.0,-394.0,1198.0,-525.0,223.0,-77.0,0.0,0.0,0.0
19:32:59.325000,-108.0,-401.0,1232.0,-535.0,176.0,-58.0,0.0,0.0,0.0
19:32:59.330000,-99.0,-405.0,1256.0,-535.0,176.0,-58.0,0.0,0.0,0.0
19:32:59.335000,-87.0,-401.0,1269.0,-572.0,159.0,-42.0,0.0,0.0,0.0
19:32:59.339000,-81.0,-387.0,1267.0,-572.0,159.0,-42.0,0.0,0.0,0.0
19:32:59.344000,-81.0,-370.0,1254.0,-634.0,167.0,-30.0,0.0,0.0,0.0
19:32:59.349000,-84.0,-356.0,1229.0,-634.0,167.0,-30.0,0.0,0.0,0.0
19:32:59.354000,-84.0,-341.0,1189.0,-634.0,167.0,-30.0,0.0,0.0,0.0
19:32:59.358000,-79.0,-325.0,1131.0,-683.0,155.0,-24.0,0.0,0.0,0.0
19:32:59.363000,-81.0,-303.0,1064.0,-683.0,155.0,-24.0,0.0,0.0,0.0
19:32:59.368000,-88.0,-283.0,999.0,-733.0,146.0,-28.0,0.0,0.0,0.0
19:32:59.372000,-102.0,-270.0,946.0,-733.0,146.0,-28.0,0.0,0.0,0.0
19:32:59.377000,-119.0,-255.0,907.0,-828.0,154.0,-31.0,0.0,0.0,0.0
19:32:59.382000,-133.0,-237.0,872.0,-828.0,154.0,-31.0,0.0,0.0,0.0
19:32:59.386000,-133.0,-237.0,872.0,-921.0,139.0,-35.0,0.0,0.0,0.0
19:32:59.391000,-160.0,-198.0,815.0,-921.0,139.0,-35.0,0.0,0.0,0.0
19:32:59.396000,-160.0,-198.0,815.0,-945.0,127.0,-43.0,0.0,0.0,0.0
19:32:59.401000,-175.0,-180.0,795.0,-945.0,127.0,-43.0,0.0,0.0,0.0
19:32:59.405000,-188.0,-166.0,787.0,-905.0,125.0,-47.0,0.0,0.0,0.0
19:32:59.410000,-192.0,-155.0,791.0,-905.0,125.0,-47.0,0.0,0.0,0.0
19:32:59.415000,-202.0,-139.0,798.0,-854.0,110.0,-50.0,0.0,0.0,0.0
19:32:59.419000,-210.0,-128.0,821.0,-854.0,110.0,-50.0,0.0,0.0,0.0
19:32:59.424000,-212.0,-121.0,850.0,-804.0,86.0,-48.0,0.0,0.0,0.0
19:32:59.429000,-217.0,-112.0,879.0,-804.0,86.0,-48.0,0.0,0.0,0.0
19:32:59.433000,-214.0,-116.0,893.0,-738.0,65.0,-36.0,0.0,0.0,0.0
19:32:59.438000,-214.0,-119.0,909.0,-738.0,65.0,-36.0,0.0,0.0,0.0
19:32:59.443000,-210.0,-123.0,938.0,-651.0,20.0,-20.0,0.0,0.0,0.0
19:32:59.448000,-188.0,-127.0,960.0,-651.0,20.0,-20.0,0.0,0.0,0.0
19:32:59.452000,-154.0,-133.0,940.0,-651.0,20.0,-20.0,0.0,0.0,0.0
19:32:59.457000,-137.0,-135.0,916.0,-604.0,-26.0,-16.0,0.0,0.0,0.0
19:32:59.462000,-124.0,-130.0,921.0,-604.0,-26.0,-16.0,0.0,0.0,0.0
19:32:59.466000,-107.0,-132.0,918.0,-578.0,-2.0,-14.0,0.0,0.0,0.0
19:32:59.471000,-88.0,-126.0,884.0,-578.0,-2.0,-14.0,0.0,0.0,0.0
19:32:59.476000,-57.0,-133.0,837.0,-576.0,31.0,-3.0,0.0,0.0,0.0
19:32:59.480000,-32.0,-127.0,793.0,-576.0,31.0,-3.0,0.0,0.0,0.0
19:32:59.485000,-18.0,-135.0,786.0,-617.0,14.0,9.0,0.0,0.0,0.0
19:32:59.490000,-2.0,-151.0,816.0,-617.0,14.0,9.0,0.0,0.0,0.0
19:32:59.495000,12.0,-160.0,952.0,-796.0,-28.0,30.0,0.0,0.0,0.0
19:32:59.499000,94.0,-161.0,963.0,-796.0,-28.0,30.0,0.0,0.0,0.0
19:32:59.504000,94.0,-161.0,963.0,-852.0,-49.0,41.0,0.0,0.0,0.0
19:32:59.509000,114.0,-140.0,803.0,-852.0,-49.0,41.0,0.0,0.0,0.0
19:32:59.513000,118.0,-128.0,735.0,-667.0,-31.0,70.0,0.0,0.0,0.0
19:32:59.518000,90.0,-134.0,665.0,-667.0,-31.0,70.0,0.0,0.0,0.0
19:32:59.523000,78.0,-95.0,713.0,-545.0,-65.0,103.0,0.0,0.0,0.0
19:32:59.527000,69.0,-86.0,873.0,-545.0,-65.0,103.0,0.0,0.0,0.0
19:32:59.532000,49.0,-77.0,1047.0,-487.0,-126.0,106.0,0.0,0.0,0.0
19:32:59.537000,19.0,-55.0,1166.0,-487.0,-126.0,106.0,0.0,0.0,0.0
19:32:59.542000,-4.0,-36.0,1169.0,-615.0,-82.0,77.0,0.0,0.0,0.0
19:32:59.546000,-48.0,-8.0,1085.0,-615.0,-82.0,77.0,0.0,0.0,0.0
19:32:59.551000,-101.0,16.0,985.0,-854.0,18.0,15.0,0.0,0.0,0.0
19:32:59.556000,-143.0,39.0,947.0,-854.0,18.0,15.0,0.0,0.0,0.0
19:32:59.560000,-170.0,48.0,927.0,-1001.0,82.0,-54.0,0.0,0.0,0.0
19:32:59.565000,-169.0,41.0,865.0,-1001.0,82.0,-54.0,0.0,0.0,0.0
19:32:59.570000,-158.0,41.0,795.0,-1001.0,82.0,-54.0,0.0,0.0,0.0
19:32:59.574000,-150.0,39.0,779.0,-1070.0,116.0,-133.0,0.0,0.0,0.0
19:32:59.579000,-131.0,31.0,764.0,-1070.0,116.0,-133.0,0.0,0.0,0.0
19:32:59.584000,-122.0,17.0,721.0,-1105.0,173.0,-195.0,0.0,0.0,0.0
19:32:59.589000,-109.0,-7.0,706.0,-1105.0,173.0,-195.0,0.0,0.0,0.0
19:32:59.593000,-74.0,-34.0,816.0,-1187.0,206.0,-227.0,0.0,0.0,0.0
19:32:59.598000,-39.0,-63.0,886.0,-1187.0,206.0,-227.0,0.0,0.0,0.0
19:32:59.603000,-3.0,-86.0,870.0,-1244.0,139.0,-239.0,0.0,0.0,0.0
19:32:59.607000,30.0,-109.0,839.0,-1244.0,139.0,-239.0,0.0,0.0,0.0
19:32:59.612000,44.0,-129.0,808.0,-1283.0,114.0,-237.0,0.0,0.0,0.0
19:32:59.617000,44.0,-129.0,808.0,-1283.0,114.0,-237.0,0.0,0.0,0.0
19:32:59.621000,49.0,-140.0,757.0,-1372.0,140.0,-216.0,0.0,0.0,0.0
19:32:59.626000,42.0,-149.0,721.0,-1372.0,140.0,-216.0,0.0,0.0,0.0
19:32:59.631000,41.0,-145.0,679.0,-1489.0,86.0,-181.0,0.0,0.0,0.0
19:32:59.636000,34.0,-130.0,495.0,-1489.0,86.0,-181.0,0.0,0.0,0.0
19:32:59.640000,26.0,-102.0,142.0,-1662.0,-13.0,-128.0,0.0,0.0,0.0
19:32:59.645000,39.0,-77.0,-140.0,-1662.0,-13.0,-128.0,0.0,0.0,0.0
19:32:59.650000,70.0,-69.0,-216.0,-1614.0,-81.0,-76.0,0.0,0.0,0.0
19:32:59.654000,84.0,-67.0,-93.0,-1614.0,-81.0,-76.0,0.0,0.0,0.0
19:32:59.659000,75.0,-51.0,49.0,-1364.0,-11.0,-47.0,0.0,0.0,0.0
19:32:59.664000,91.0,-32.0,-26.0,-1364.0,-11.0,-47.0,0.0,0.0,0.0
19:32:59.668000,106.0,-14.0,-243.0,-1407.0,14.0,-27.0,0.0,0.0,0.0
19:32:59.673000,119.0,18.0,-403.0,-1407.0,14.0,-27.0,0.0,0.0,0.0
