hh:mm:ss.ms,gyroX[mdps],gyroY[mdps],gyroZ[mdps],accX[mg],accY[mg],accZ[mg],magX[mG],magY[mG],magZ[mG]
19:33:00.275000,7.0,-326.0,147.0,-416.0,607.0,-161.0,0.0,0.0,0.0
19:33:00.279000,-14.0,-336.0,113.0,-430.0,635.0,-167.0,0.0,0.0,0.0
19:33:00.284000,-41.0,-341.0,87.0,-430.0,635.0,-167.0,0.0,0.0,0.0
19:33:00.289000,-76.0,-342.0,77.0,-489.0,678.0,-176.0,0.0,0.0,0.0
19:33:00.294000,-117.0,-336.0,78.0,-489.0,678.0,-176.0,0.0,0.0,0.0
19:33:00.298000,-165.0,-327.0,84.0,-566.0,712.0,-169.0,0.0,0.0,0.0
19:33:00.303000,-207.0,-318.0,101.0,-566.0,712.0,-169.0,0.0,0.0,0.0
19:33:00.308000,-245.0,-308.0,140.0,-622.0,687.0,-161.0,0.0,0.0,0.0
19:33:00.312000,-276.0,-298.0,185.0,-622.0,687.0,-161.0,0.0,0.0,0.0
19:33:00.317000,-289.0,-294.0,222.0,-622.0,565.0,-153.0,0.0,0.0,0.0
19:33:00.322000,-280.0,-297.0,259.0,-622.0,565.0,-153.0,0.0,0.0,0.0
19:33:00.326000,-248.0,-314.0,283.0,-538.0,397.0,-130.0,0.0,0.0,0.0
19:33:00.331000,-204.0,-335.0,277.0,-538.0,397.0,-130.0,0.0,0.0,0.0
19:33:00.336000,-161.0,-354.0,254.0,-538.0,397.0,-130.0,0.0,0.0,0.0
19:33:00.341000,-126.0,-367.0,226.0,-410.0,308.0,-87.0,0.0,0.0,0.0
19:33:00.345000,-109.0,-369.0,191.0,-410.0,308.0,-87.0,0.0,0.0,0.0
19:33:00.350000,-116.0,-359.0,158.0,-337.0,365.0,-25.0,0.0,0.0,0.0
19:33:00.355000,-143.0,-334.0,128.0,-337.0,365.0,-25.0,0.0,0.0,0.0
19:33:00.359000,-186.0,-296.0,110.0,-390.0,497.0,33.0,0.0,0.0,0.0
19:33:00.364000,-228.0,-247.0,119.0,-390.0,497.0,33.0,0.0,0.0,0.0
19:33:00.369000,-256.0,-194.0,140.0,-532.0,548.0,62.0,0.0,0.0,0.0
19:33:00.373000,-265.0,-136.0,158.0,-532.0,548.0,62.0,0.0,0.0,0.0
19:33:00.378000,-259.0,-80.0,168.0,-678.0,440.0,70.0,0.0,0.0,0.0
19:33:00.383000,-259.0,-80.0,168.0,-678.0,440.0,70.0,0.0,0.0,0.0
19:33:00.388000,-242.0,-26.0,175.0,-774.0,264.0,60.0,0.0,0.0,0.0
19:33:00.392000,-211.0,21.0,190.0,-774.0,264.0,60.0,0.0,0.0,0.0
19:33:00.397000,-169.0,58.0,198.0,-789.0,98.0,-1.0,0.0,0.0,0.0
19:33:00.402000,-126.0,86.0,172.0,-789.0,98.0,-1.0,0.0,0.0,0.0
19:33:00.406000,-94.0,102.0,119.0,-761.0,48.0,-97.0,0.0,0.0,0.0
19:33:00.411000,-68.0,105.0,68.0,-761.0,48.0,-97.0,0.0,0.0,0.0
19:33:00.416000,-44.0,97.0,29.0,-694.0,75.0,-181.0,0.0,0.0,0.0
19:33:00.420000,-20.0,81.0,-11.0,-694.0,75.0,-181.0,0.0,0.0,0.0
19:33:00.425000,-3.0,59.0,-53.0,-613.0,87.0,-248.0,0.0,0.0,0.0
19:33:00.430000,7.0,34.0,-86.0,-613.0,87.0,-248.0,0.0,0.0,0.0
19:33:00.435000,17.0,6.0,-105.0,-566.0,102.0,-286.0,0.0,0.0,0.0
19:33:00.439000,27.0,-23.0,-115.0,-566.0,102.0,-286.0,0.0,0.0,0.0
19:33:00.444000,39.0,-51.0,-119.0,-566.0,102.0,-286.0,0.0,0.0,0.0
19:33:00.449000,55.0,-74.0,-118.0,-558.0,98.0,-295.0,0.0,0.0,0.0
19:33:00.453000,70.0,-97.0,-113.0,-616.0,76.0,-276.0,0.0,0.0,0.0
19:33:00.458000,84.0,-116.0,-105.0,-616.0,76.0,-276.0,0.0,0.0,0.0
19:33:00.463000,99.0,-132.0,-94.0,-616.0,76.0,-276.0,0.0,0.0,0.0
19:33:00.467000,109.0,-144.0,-88.0,-705.0,48.0,-228.0,0.0,0.0,0.0
19:33:00.472000,112.0,-154.0,-91.0,-705.0,48.0,-228.0,0.0,0.0,0.0
19:33:00.477000,109.0,-163.0,-107.0,-762.0,43.0,-167.0,0.0,0.0,0.0
19:33:00.482000,94.0,-170.0,-124.0,-762.0,43.0,-167.0,0.0,0.0,0.0
19:33:00.486000,72.0,-174.0,-138.0,-789.0,78.0,-105.0,0.0,0.0,0.0
19:33:00.491000,72.0,-174.0,-138.0,-789.0,78.0,-105.0,0.0,0.0,0.0
19:33:00.496000,45.0,-174.0,-147.0,-814.0,111.0,-51.0,0.0,0.0,0.0
19:33:00.500000,20.0,-167.0,-152.0,-814.0,111.0,-51.0,0.0,0.0,0.0
19:33:00.505000,-2.0,-151.0,-162.0,-846.0,103.0,-13.0,0.0,0.0,0.0
19:33:00.510000,-20.0,-130.0,-172.0,-846.0,103.0,-13.0,0.0,0.0,0.0
19:33:00.514000,-28.0,-107.0,-181.0,-863.0,55.0,-1.0,0.0,0.0,0.0
19:33:00.519000,-28.0,-84.0,-189.0,-863.0,55.0,-1.0,0.0,0.0,0.0
19:33:00.524000,-21.0,-63.0,-196.0,-848.0,-2.0,-10.0,0.0,0.0,0.0
19:33:00.529000,-11.0,-42.0,-204.0,-848.0,-2.0,-10.0,0.0,0.0,0.0
19:33:00.533000,-1.0,-24.0,-212.0,-816.0,-27.0,-27.0,0.0,0.0,0.0
19:33:00.538000,2.0,-8.0,-222.0,-816.0,-27.0,-27.0,0.0,0.0,0.0
19:33:00.543000,0.0,3.0,-230.0,-782.0,-5.0,-37.0,0.0,0.0,0.0
19:33:00.547000,-4.0,9.0,-231.0,-782.0,-5.0,-37.0,0.0,0.0,0.0
19:33:00.552000,-5.0,10.0,-221.0,-782.0,7.0,-37.0,0.0,0.0,0.0
19:33:00.557000,-2.0,9.0,-210.0,-751.0,7.0,-34.0,0.0,0.0,0.0
19:33:00.561000,-2.0,7.0,-208.0,-751.0,7.0,-34.0,0.0,0.0,0.0
19:33:00.566000,-7.0,2.0,-218.0,-756.0,3.0,-32.0,0.0,0.0,0.0
19:33:00.571000,-11.0,-3.0,-234.0,-756.0,3.0,-32.0,0.0,0.0,0.0
19:33:00.576000,-9.0,-12.0,-245.0,-786.0,13.0,-34.0,0.0,0.0,0.0
19:33:00.580000,11.0,-23.0,-252.0,-786.0,13.0,-34.0,0.0,0.0,0.0
19:33:00.585000,46.0,-32.0,-263.0,-793.0,-6.0,-37.0,0.0,0.0,0.0
19:33:00.590000,92.0,-40.0,-280.0,-793.0,-6.0,-37.0,0.0,0.0,0.0
19:33:00.594000,146.0,-44.0,-289.0,-815.0,-36.0,-46.0,0.0,0.0,0.0
19:33:00.599000,146.0,-44.0,-289.0,-815.0,-36.0,-46.0,0.0,0.0,0.0
19:33:00.604000,192.0,-44.0,-277.0,-887.0,-7.0,-58.0,0.0,0.0,0.0
19:33:00.608000,227.0,-40.0,-245.0,-887.0,-7.0,-58.0,0.0,0.0,0.0
19:33:00.613000,249.0,-37.0,-188.0,-962.0,54.0,-62.0,0.0,0.0,0.0
19:33:00.618000,260.0,-40.0,-110.0,-962.0,54.0,-62.0,0.0,0.0,0.0
19:33:00.623000,254.0,-53.0,-21.0,-985.0,82.0,-43.0,0.0,0.0,0.0
19:33:00.627000,231.0,-72.0,67.0,-985.0,82.0,-43.0,0.0,0.0,0.0
19:33:00.632000,186.0,-99.0,142.0,-951.0,113.0,-10.0,0.0,0.0,0.0
19:33:00.637000,122.0,-130.0,183.0,-951.0,113.0,-10.0,0.0,0.0,0.0
19:33:00.641000,48.0,-164.0,187.0,-902.0,199.0,21.0,0.0,0.0,0.0
19:33:00.646000,-22.0,-198.0,158.0,-902.0,199.0,21.0,0.0,0.0,0.0
19:33:00.651000,-70.0,-228.0,116.0,-861.0,202.0,44.0,0.0,0.0,0.0
19:33:00.655000,-84.0,-249.0,80.0,-861.0,202.0,44.0,0.0,0.0,0.0
19:33:00.660000,-73.0,-259.0,58.0,-875.0,74.0,45.0,0.0,0.0,0.0
19:33:00.665000,-48.0,-254.0,51.0,-875.0,74.0,45.0,0.0,0.0,0.0
19:33:00.670000,-18.0,-235.0,55.0,-875.0,74.0,45.0,0.0,0.0,0.0
19:33:00.674000,14.0,-207.0,79.0,-971.0,-8.0,26.0,0.0,0.0,0.0
19:33:00.679000,45.0,-170.0,115.0,-971.0,-8.0,26.0,0.0,0.0,0.0
19:33:00.684000,66.0,-135.0,171.0,-1060.0,20.0,-6.0,0.0,0.0,0.0
19:33:00.688000,75.0,-107.0,262.0,-1060.0,20.0,-6.0,0.0,0.0,0.0
19:33:00.693000,79.0,-87.0,373.0,-1051.0,74.0,-33.0,0.0,0.0,0.0
19:33:00.698000,77.0,-75.0,489.0,-1051.0,74.0,-33.0,0.0,0.0,0.0
19:33:00.702000,56.0,-74.0,602.0,-935.0,122.0,-49.0,0.0,0.0,0.0
19:33:00.707000,19.0,-87.0,698.0,-935.0,122.0,-49.0,0.0,0.0,0.0
19:33:00.712000,19.0,-87.0,698.0,-806.0,207.0,-63.0,0.0,0.0,0.0
19:33:00.717000,-25.0,-114.0,777.0,-806.0,207.0,-63.0,0.0,0.0,0.0
19:33:00.721000,-60.0,-148.0,848.0,-705.0,232.0,-79.0,0.0,0.0,0.0
19:33:00.726000,-87.0,-186.0,905.0,-705.0,232.0,-79.0,0.0,0.0,0.0
19:33:00.731000,-105.0,-224.0,952.0,-641.0,153.0,-100.0,0.0,0.0,0.0
19:33:00.735000,-123.0,-257.0,983.0,-641.0,153.0,-100.0,0.0,0.0,0.0
19:33:00.740000,-135.0,-282.0,998.0,-618.0,90.0,-120.0,0.0,0.0,0.0
19:33:00.745000,-136.0,-304.0,1000.0,-618.0,90.0,-120.0,0.0,0.0,0.0
19:33:00.749000,-128.0,-319.0,1006.0,-580.0,48.0,-144.0,0.0,0.0,0.0
19:33:00.754000,-118.0,-330.0,1026.0,-580.0,48.0,-144.0,0.0,0.0,0.0
19:33:00.759000,-104.0,-339.0,1063.0,-553.0,9.0,-161.0,0.0,0.0,0.0
19:33:00.764000,-91.0,-350.0,1113.0,-553.0,9.0,-161.0,0.0,0.0,0.0
19:33:00.768000,-80.0,-359.0,1161.0,-587.0,3.0,-162.0,0.0,0.0,0.0
19:33:00.773000,-77.0,-367.0,1195.0,-587.0,3.0,-162.0,0.0,0.0,0.0
19:33:00.778000,-81.0,-378.0,1225.0,-587.0,3.0,-162.0,0.0,0.0,0.0
19:33:00.782000,-96.0,-387.0,1242.0,-637.0,51.0,-148.0,0.0,0.0,0.0
19:33:00.787000,-116.0,-397.0,1252.0,-637.0,51.0,-148.0,0.0,0.0,0.0
19:33:00.792000,-140.0,-402.0,1250.0,-643.0,129.0,-122.0,0.0,0.0,0.0
19:33:00.796000,-163.0,-401.0,1232.0,-643.0,129.0,-122.0,0.0,0.0,0.0
19:33:00.801000,-182.0,-391.0,1200.0,-619.0,179.0,-87.0,0.0,0.0,0.0
19:33:00.806000,-200.0,-372.0,1157.0,-619.0,179.0,-87.0,0.0,0.0,0.0
19:33:00.811000,-209.0,-352.0,1108.0,-616.0,198.0,-63.0,0.0,0.0,0.0
19:33:00.815000,-216.0,-328.0,1050.0,-616.0,198.0,-63.0,0.0,0.0,0.0
19:33:00.820000,-216.0,-328.0,1050.0,-658.0,215.0,-59.0,0.0,0.0,0.0
19:33:00.824000,-226.0,-292.0,996.0,-658.0,215.0,-59.0,0.0,0.0,0.0
19:33:00.829000,-233.0,-251.0,952.0,-721.0,205.0,-58.0,0.0,0.0,0.0
19:33:00.834000,-231.0,-207.0,921.0,-721.0,205.0,-58.0,0.0,0.0,0.0
19:33:00.839000,-216.0,-161.0,891.0,-772.0,134.0,-68.0,0.0,0.0,0.0
19:33:00.843000,-193.0,-112.0,858.0,-772.0,134.0,-68.0,0.0,0.0,0.0
19:33:00.848000,-168.0,-63.0,819.0,-803.0,60.0,-96.0,0.0,0.0,0.0
19:33:00.853000,-140.0,-14.0,769.0,-803.0,60.0,-96.0,0.0,0.0,0.0
19:33:00.858000,-113.0,33.0,710.0,-823.0,28.0,-123.0,0.0,0.0,0.0
19:33:00.862000,-83.0,79.0,660.0,-823.0,28.0,-123.0,0.0,0.0,0.0
19:33:00.867000,-48.0,118.0,617.0,-819.0,-12.0,-140.0,0.0,0.0,0.0
19:33:00.872000,-15.0,156.0,562.0,-819.0,-12.0,-140.0,0.0,0.0,0.0
19:33:00.876000,4.0,193.0,514.0,-801.0,-52.0,-147.0,0.0,0.0,0.0
19:33:00.881000,51.0,214.0,494.0,-801.0,-52.0,-147.0,0.0,0.0,0.0
19:33:00.886000,95.0,242.0,493.0,-801.0,-52.0,-147.0,0.0,0.0,0.0
19:33:00.890000,133.0,261.0,504.0,-764.0,-100.0,-153.0,0.0,0.0,0.0
19:33:00.895000,161.0,272.0,522.0,-764.0,-100.0,-153.0,0.0,0.0,0.0
19:33:00.900000,212.0,262.0,549.0,-748.0,-115.0,-144.0,0.0,0.0,0.0
19:33:00.904000,208.0,270.0,573.0,-748.0,-115.0,-144.0,0.0,0.0,0.0
19:33:00.909000,193.0,272.0,621.0,-738.0,-50.0,-122.0,0.0,0.0,0.0
19:33:00.914000,192.0,249.0,650.0,-738.0,-50.0,-122.0,0.0,0.0,0.0
19:33:00.919000,170.0,226.0,662.0,-723.0,54.0,-103.0,0.0,0.0,0.0
19:33:00.923000,137.0,200.0,683.0,-723.0,54.0,-103.0,0.0,0.0,0.0
19:33:00.928000,137.0,200.0,683.0,-696.0,143.0,-84.0,0.0,0.0,0.0
19:33:00.933000,102.0,165.0,704.0,-696.0,143.0,-84.0,0.0,0.0,0.0
19:33:00.937000,67.0,122.0,705.0,-687.0,182.0,-66.0,0.0,0.0,0.0
19:33:00.942000,38.0,94.0,686.0,-687.0,182.0,-66.0,0.0,0.0,0.0
19:33:00.947000,23.0,47.0,730.0,-652.0,134.0,-45.0,0.0,0.0,0.0
19:33:00.951000,27.0,16.0,793.0,-652.0,134.0,-45.0,0.0,0.0,0.0
19:33:00.956000,39.0,-14.0,739.0,-501.0,62.0,-25.0,0.0,0.0,0.0
19:33:00.961000,37.0,-31.0,674.0,-501.0,62.0,-25.0,0.0,0.0,0.0
19:33:00.966000,37.0,-49.0,668.0,-396.0,17.0,-6.0,0.0,0.0,0.0
19:33:00.970000,27.0,-62.0,683.0,-396.0,17.0,-6.0,0.0,0.0,0.0
19:33:00.975000,36.0,-72.0,650.0,-400.0,0.0,5.0,0.0,0.0,0.0
19:33:00.980000,37.0,-82.0,654.0,-400.0,0.0,5.0,0.0,0.0,0.0
19:33:00.984000,46.0,-90.0,702.0,-493.0,0.0,14.0,0.0,0.0,0.0
19:33:00.989000,51.0,-88.0,726.0,-493.0,0.0,14.0,0.0,0.0,0.0
19:33:00.994000,51.0,-79.0,713.0,-493.0,0.0,14.0,0.0,0.0,0.0
19:33:00.998000,47.0,-68.0,703.0,-640.0,-4.0,20.0,0.0,0.0,0.0
19:33:01.003000,25.0,-56.0,683.0,-640.0,-4.0,20.0,0.0,0.0,0.0
19:33:01.008000,-2.0,-41.0,640.0,-759.0,47.0,10.0,0.0,0.0,0.0
19:33:01.013000,-25.0,-32.0,599.0,-759.0,47.0,10.0,0.0,0.0,0.0
19:33:01.017000,-45.0,-30.0,555.0,-869.0,139.0,-18.0,0.0,0.0,0.0
19:33:01.022000,-70.0,-37.0,529.0,-869.0,139.0,-18.0,0.0,0.0,0.0
19:33:01.027000,-79.0,-63.0,536.0,-1017.0,222.0,-61.0,0.0,0.0,0.0
19:33:01.031000,-88.0,-88.0,528.0,-1017.0,222.0,-61.0,0.0,0.0,0.0
19:33:01.036000,-77.0,-119.0,488.0,-1128.0,277.0,-111.0,0.0,0.0,0.0
19:33:01.041000,-77.0,-119.0,488.0,-1128.0,277.0,-111.0,0.0,0.0,0.0
19:33:01.045000,-73.0,-157.0,452.0,-1143.0,310.0,-147.0,0.0,0.0,0.0
19:33:01.050000,-65.0,-192.0,452.0,-1143.0,310.0,-147.0,0.0,0.0,0.0
19:33:01.055000,-70.0,-221.0,432.0,-1190.0,373.0,-155.0,0.0,0.0,0.0
19:33:01.060000,-81.0,-256.0,441.0,-1190.0,373.0,-155.0,0.0,0.0,0.0
19:33:01.064000,-116.0,-285.0,533.0,-1308.0,415.0,-141.0,0.0,0.0,0.0
19:33:01.069000,-156.0,-303.0,649.0,-1308.0,415.0,-141.0,0.0,0.0,0.0
19:33:01.074000,-166.0,-312.0,687.0,-1428.0,352.0,-129.0,0.0,0.0,0.0
19:33:01.078000,-175.0,-315.0,640.0,-1428.0,352.0,-129.0,0.0,0.0,0.0
19:33:01.083000,-165.0,-321.0,529.0,-1488.0,286.0,-137.0,0.0,0.0,0.0
19:33:01.088000,-166.0,-290.0,278.0,-1488.0,286.0,-137.0,0.0,0.0,0.0
19:33:01.092000,-180.0,-244.0,-5.0,-1499.0,207.0,-151.0,0.0,0.0,0.0
19:33:01.097000,-130.0,-227.0,-142.0,-1499.0,207.0,-151.0,0.0,0.0,0.0
19:33:01.102000,-75.0,-204.0,-205.0,-1499.0,207.0,-151.0,0.0,0.0,0.0
19:33:01.107000,-28.0,-171.0,-254.0,-1615.0,-25.0,-168.0,0.0,0.0,0.0
19:33:01.111000,28.0,-128.0,-300.0,-1615.0,-25.0,-168.0,0.0,0.0,0.0
19:33:01.116000,109.0,-79.0,-445.0,-1783.0,-265.0,-199.0,0.0,0.0,0.0
19:33:01.121000,156.0,-33.0,-746.0,-1783.0,-265.0,-199.0,0.0,0.0,0.0
19:33:01.125000,203.0,19.0,-1010.0,-1808.0,-237.0,-163.0,0.0,0.0,0.0
19:33:01.130000,256.0,57.0,-1080.0,-1808.0,-237.0,-163.0,0.0,0.0,0.0
19:33:01.135000,297.0,62.0,-954.0,-1620.0,-121.0,-75.0,0.0,0.0,0.0
19:33:01.139000,350.0,111.0,-870.0,-1620.0,-121.0,-75.0,0.0,0.0,0.0
19:33:01.144000,326.0,123.0,-962.0,-1428.0,-51.0,-26.0,0.0,0.0,0.0
19:33:01.149000,326.0,123.0,-962.0,-1428.0,-51.0,-26.0,0.0,0.0,0.0
19:33:01.154000,263.0,165.0,-1094.0,-1444.0,1.0,9.0,0.0,0.0,0.0
19:33:01.158000,237.0,197.0,-1175.0,-1444.0,1.0,9.0,0.0,0.0,0.0
19:33:01.163000,237.0,221.0,-1172.0,-1468.0,-82.0,23.0,0.0,0.0,0.0
19:33:01.168000,190.0,257.0,-1131.0,-1468.0,-82.0,23.0,0.0,0.0,0.0
19:33:01.172000,177.0,259.0,-1114.0,-1366.0,-191.0,28.0,0.0,0.0,0.0
19:33:01.177000,152.0,263.0,-1073.0,-1366.0,-191.0,28.0,0.0,0.0,0.0
19:33:01.182000,102.0,261.0,-948.0,-1153.0,-279.0,44.0,0.0,0.0,0.0
19:33:01.186000,99.0,245.0,-816.0,-1153.0,-279.0,44.0,0.0,0.0,0.0
19:33:01.191000,98.0,243.0,-651.0,-974.0,-429.0,35.0,0.0,0.0,0.0
19:33:01.196000,96.0,233.0,-489.0,-974.0,-429.0,35.0,0.0,0.0,0.0
19:33:01.201000,135.0,233.0,-448.0,-947.0,-521.0,3.0,0.0,0.0,0.0
19:33:01.205000,205.0,239.0,-466.0,-947.0,-521.0,3.0,0.0,0.0,0.0
19:33:01.210000,173.0,249.0,-459.0,-947.0,-521.0,3.0,0.0,0.0,0.0
19:33:01.215000,202.0,246.0,-447.0,-966.0,-438.0,-17.0,0.0,0.0,0.0
19:33:01.219000,207.0,252.0,-472.0,-966.0,-438.0,-17.0,0.0,0.0,0.0
19:33:01.224000,170.0,273.0,-505.0,-1017.0,-278.0,-50.0,0.0,0.0,0.0
19:33:01.229000,103.0,297.0,-585.0,-1017.0,-278.0,-50.0,0.0,0.0,0.0
19:33:01.233000,58.0,313.0,-695.0,-1147.0,-47.0,-76.0,0.0,0.0,0.0
19:33:01.238000,49.0,346.0,-760.0,-1147.0,-47.0,-76.0,0.0,0.0,0.0
19:33:01.243000,24.0,373.0,-774.0,-1293.0,105.0,-97.0,0.0,0.0,0.0
19:33:01.247000,24.0,373.0,-774.0,-1293.0,105.0,-97.0,0.0,0.0,0.0
19:33:01.252000,-4.0,413.0,-880.0,-1363.0,40.0,-114.0,0.0,0.0,0.0
19:33:01.257000,-4.0,413.0,-880.0,-1363.0,40.0,-114.0,0.0,0.0,0.0
19:33:01.262000,-16.0,429.0,-928.0,-1355.0,-79.0,-113.0,0.0,0.0,0.0
19:33:01.266000,7.0,438.0,-935.0,-1355.0,-79.0,-113.0,0.0,0.0,0.0
19:33:01.271000,37.0,452.0,-938.0,-1304.0,-101.0,-121.0,0.0,0.0,0.0
19:33:01.276000,19.0,471.0,-918.0,-1304.0,-101.0,-121.0,0.0,0.0,0.0
19:33:01.280000,51.0,472.0,-913.0,-1330.0,-84.0,-131.0,0.0,0.0,0.0
19:33:01.285000,64.0,457.0,-864.0,-1330.0,-84.0,-131.0,0.0,0.0,0.0
19:33:01.290000,107.0,443.0,-781.0,-1336.0,-111.0,-142.0,0.0,0.0,0.0
19:33:01.295000,119.0,439.0,-745.0,-1336.0,-111.0,-142.0,0.0,0.0,0.0
19:33:01.299000,130.0,432.0,-783.0,-1295.0,-62.0,-162.0,0.0,0.0,0.0
19:33:01.303000,182.0,413.0,-842.0,-1295.0,-62.0,-162.0,0.0,0.0,0.0
19:33:01.309000,208.0,394.0,-851.0,-1269.0,-25.0,-201.0,0.0,0.0,0.0
19:33:01.313000,244.0,382.0,-821.0,-1269.0,-25.0,-201.0,0.0,0.0,0.0
19:33:01.318000,255.0,375.0,-868.0,-1269.0,54.0,-232.0,0.0,0.0,0.0
19:33:01.323000,255.0,364.0,-950.0,-1260.0,54.0,-232.0,0.0,0.0,0.0
19:33:01.327000,238.0,345.0,-947.0,-1260.0,54.0,-232.0,0.0,0.0,0.0
19:33:01.332000,196.0,325.0,-873.0,-1276.0,195.0,-235.0,0.0,0.0,0.0
19:33:01.337000,175.0,305.0,-800.0,-1276.0,195.0,-235.0,0.0,0.0,0.0
19:33:01.342000,168.0,286.0,-765.0,-1205.0,228.0,-228.0,0.0,0.0,0.0
19:33:01.346000,144.0,275.0,-704.0,-1205.0,228.0,-228.0,0.0,0.0,0.0
19:33:01.351000,109.0,265.0,-641.0,-1184.0,246.0,-227.0,0.0,0.0,0.0
19:33:01.356000,105.0,253.0,-589.0,-1184.0,246.0,-227.0,0.0,0.0,0.0
19:33:01.360000,84.0,249.0,-511.0,-1152.0,301.0,-222.0,0.0,0.0,0.0
19:33:01.364000,84.0,249.0,-511.0,-1152.0,301.0,-222.0,0.0,0.0,0.0
19:33:01.370000,46.0,250.0,-457.0,-1074.0,323.0,-220.0,0.0,0.0,0.0
19:33:01.374000,35.0,266.0,-506.0,-1074.0,323.0,-220.0,0.0,0.0,0.0
19:33:01.379000,10.0,287.0,-690.0,-1058.0,333.0,-250.0,0.0,0.0,0.0
19:33:01.384000,-33.0,287.0,-829.0,-1058.0,333.0,-250.0,0.0,0.0,0.0
19:33:01.389000,-87.0,266.0,-756.0,-1037.0,344.0,-292.0,0.0,0.0,0.0
19:33:01.393000,-101.0,247.0,-572.0,-1037.0,344.0,-292.0,0.0,0.0,0.0
19:33:01.398000,-107.0,228.0,-400.0,-1089.0,351.0,-339.0,0.0,0.0,0.0
19:33:01.403000,-91.0,218.0,-301.0,-1089.0,351.0,-339.0,0.0,0.0,0.0
19:33:01.407000,-89.0,218.0,-420.0,-1033.0,440.0,-415.0,0.0,0.0,0.0
19:33:01.412000,-92.0,216.0,-585.0,-1033.0,440.0,-415.0,0.0,0.0,0.0
19:33:01.417000,-88.0,191.0,-665.0,-887.0,487.0,-428.0,0.0,0.0,0.0
19:33:01.421000,-55.0,148.0,-603.0,-887.0,487.0,-428.0,0.0,0.0,0.0
19:33:01.426000,11.0,131.0,-542.0,-977.0,389.0,-429.0,0.0,0.0,0.0
19:33:01.431000,50.0,130.0,-566.0,-977.0,389.0,-429.0,0.0,0.0,0.0
19:33:01.436000,112.0,101.0,-591.0,-977.0,389.0,-429.0,0.0,0.0,0.0
19:33:01.440000,144.0,62.0,-513.0,-1422.0,366.0,-451.0,0.0,0.0,0.0
19:33:01.445000,170.0,21.0,-329.0,-1422.0,366.0,-451.0,0.0,0.0,0.0
19:33:01.450000,224.0,-68.0,-123.0,-1823.0,446.0,-393.0,0.0,0.0,0.0
19:33:01.454000,264.0,-137.0,65.0,-1823.0,446.0,-393.0,0.0,0.0,0.0
19:33:01.459000,294.0,-170.0,158.0,-1638.0,314.0,-335.0,0.0,0.0,0.0
19:33:01.464000,327.0,-189.0,208.0,-1638.0,314.0,-335.0,0.0,0.0,0.0
19:33:01.468000,320.0,-202.0,269.0,-1221.0,188.0,-308.0,0.0,0.0,0.0
19:33:01.473000,303.0,-181.0,161.0,-1221.0,188.0,-308.0,0.0,0.0,0.0
19:33:01.478000,303.0,-181.0,161.0,-1002.0,335.0,-269.0,0.0,0.0,0.0
19:33:01.483000,212.0,-139.0,-116.0,-1002.0,335.0,-269.0,0.0,0.0,0.0
19:33:01.487000,133.0,-122.0,-203.0,-916.0,385.0,-238.0,0.0,0.0,0.0
19:33:01.492000,120.0,-112.0,-113.0,-916.0,385.0,-238.0,0.0,0.0,0.0
19:33:01.497000,74.0,-95.0,-163.0,-1056.0,381.0,-226.0,0.0,0.0,0.0
19:33:01.501000,56.0,-77.0,-287.0,-1056.0,381.0,-226.0,0.0,0.0,0.0
19:33:01.506000,25.0,-69.0,-371.0,-1295.0,333.0,-222.0,0.0,0.0,0.0
19:33:01.511000,44.0,-58.0,-347.0,-1295.0,333.0,-222.0,0.0,0.0,0.0
19:33:01.515000,78.0,-59.0,-303.0,-1348.0,180.0,-224.0,0.0,0.0,0.0
19:33:01.520000,148.0,-58.0,-325.0,-1348.0,180.0,-224.0,0.0,0.0,0.0
19:33:01.525000,198.0,-60.0,-324.0,-1310.0,100.0,-210.0,0.0,0.0,0.0
19:33:01.530000,310.0,-69.0,-341.0,-1310.0,100.0,-210.0,0.0,0.0,0.0
19:33:01.534000,380.0,-55.0,-359.0,-1272.0,163.0,-193.0,0.0,0.0,0.0
19:33:01.539000,440.0,-35.0,-297.0,-1272.0,163.0,-193.0,0.0,0.0,0.0
19:33:01.544000,428.0,-19.0,-203.0,-1272.0,163.0,-193.0,0.0,0.0,0.0
19:33:01.548000,398.0,8.0,-146.0,-1264.0,346.0,-177.0,0.0,0.0,0.0
19:33:01.553000,320.0,31.0,-98.0,-1264.0,346.0,-177.0,0.0,0.0,0.0
19:33:01.558000,240.0,65.0,-117.0,-1309.0,528.0,-147.0,0.0,0.0,0.0
19:33:01.562000,148.0,92.0,-114.0,-1309.0,528.0,-147.0,0.0,0.0,0.0
19:33:01.567000,69.0,113.0,-119.0,-1343.0,657.0,-124.0,0.0,0.0,0.0
19:33:01.572000,-7.0,153.0,-184.0,-1343.0,657.0,-124.0,0.0,0.0,0.0
19:33:01.577000,-44.0,168.0,-239.0,-1279.0,646.0,-121.0,0.0,0.0,0.0
19:33:01.581000,-71.0,175.0,-279.0,-1279.0,646.0,-121.0,0.0,0.0,0.0
19:33:01.586000,-71.0,175.0,-279.0,-1092.0,534.0,-136.0,0.0,0.0,0.0
19:33:01.591000,-66.0,172.0,-296.0,-1092.0,534.0,-136.0,0.0,0.0,0.0
19:33:01.595000,-70.0,152.0,-355.0,-961.0,451.0,-155.0,0.0,0.0,0.0
19:33:01.600000,-52.0,130.0,-404.0,-961.0,451.0,-155.0,0.0,0.0,0.0
19:33:01.605000,-30.0,112.0,-401.0,-887.0,396.0,-181.0,0.0,0.0,0.0
19:33:01.609000,5.0,87.0,-330.0,-887.0,396.0,-181.0,0.0,0.0,0.0
19:33:01.614000,36.0,67.0,-291.0,-836.0,392.0,-211.0,0.0,0.0,0.0
19:33:01.619000,44.0,46.0,-295.0,-836.0,392.0,-211.0,0.0,0.0,0.0
19:33:01.624000,46.0,35.0,-305.0,-858.0,495.0,-224.0,0.0,0.0,0.0
19:33:01.628000,32.0,28.0,-306.0,-858.0,495.0,-224.0,0.0,0.0,0.0
19:33:01.633000,14.0,26.0,-280.0,-836.0,594.0,-221.0,0.0,0.0,0.0
19:33:01.638000,-8.0,26.0,-264.0,-836.0,594.0,-221.0,0.0,0.0,0.0
19:33:01.642000,-39.0,28.0,-270.0,-788.0,645.0,-213.0,0.0,0.0,0.0
19:33:01.647000,-75.0,36.0,-267.0,-788.0,645.0,-213.0,0.0,0.0,0.0
19:33:01.652000,-104.0,45.0,-259.0,-752.0,649.0,-210.0,0.0,0.0,0.0
19:33:01.656000,-117.0,51.0,-239.0,-752.0,649.0,-210.0,0.0,0.0,0.0
19:33:01.661000,-116.0,55.0,-228.0,-752.0,649.0,-210.0,0.0,0.0,0.0
19:33:01.666000,-96.0,52.0,-214.0,-710.0,568.0,-216.0,0.0,0.0,0.0
19:33:01.671000,-59.0,42.0,-199.0,-710.0,568.0,-216.0,0.0,0.0,0.0
19:33:01.675000,-8.0,27.0,-195.0,-657.0,437.0,-224.0,0.0,0.0,0.0
19:33:01.680000,51.0,8.0,-187.0,-657.0,437.0,-224.0,0.0,0.0,0.0
19:33:01.685000,112.0,-9.0,-186.0,-585.0,339.0,-223.0,0.0,0.0,0.0
19:33:01.689000,170.0,-27.0,-203.0,-585.0,339.0,-223.0,0.0,0.0,0.0
19:33:01.694000,350.0,-27.0,-203.0,-523.0,352.0,-216.0,0.0,0.0,0.0
19:33:01.699000,212.0,-43.0,-228.0,-523.0,352.0,-216.0,0.0,0.0,0.0
19:33:01.703000,235.0,-51.0,-245.0,-510.0,467.0,-200.0,0.0,0.0,0.0
19:33:01.708000,238.0,-57.0,-242.0,-510.0,467.0,-200.0,0.0,0.0,0.0
19:33:01.713000,232.0,-63.0,-226.0,-542.0,578.0,-167.0,0.0,0.0,0.0
19:33:01.718000,221.0,-66.0,-206.0,-542.0,578.0,-167.0,0.0,0.0,0.0
19:33:01.722000,207.0,-67.0,-179.0,-560.0,604.0,-128.0,0.0,0.0,0.0
19:33:01.727000,195.0,-68.0,-161.0,-560.0,604.0,-128.0,0.0,0.0,0.0
19:33:01.732000,182.0,-72.0,-148.0,-547.0,591.0,-92.0,0.0,0.0,0.0
19:33:01.736000,165.0,-75.0,-134.0,-547.0,591.0,-92.0,0.0,0.0,0.0
19:33:01.741000,147.0,-77.0,-126.0,-518.0,600.0,-65.0,0.0,0.0,0.0
19:33:01.746000,128.0,-73.0,-130.0,-518.0,600.0,-65.0,0.0,0.0,0.0
19:33:01.750000,101.0,-67.0,-133.0,-495.0,632.0,-50.0,0.0,0.0,0.0
19:33:01.755000,71.0,-58.0,-140.0,-495.0,632.0,-50.0,0.0,0.0,0.0
19:33:01.760000,35.0,-49.0,-157.0,-495.0,632.0,-50.0,0.0,0.0,0.0
19:33:01.765000,-3.0,-37.0,-177.0,-489.0,663.0,-42.0,0.0,0.0,0.0
19:33:01.769000,-41.0,-23.0,-191.0,-489.0,663.0,-42.0,0.0,0.0,0.0
19:33:01.773000,-77.0,-7.0,-196.0,-468.0,650.0,-40.0,0.0,0.0,0.0
19:33:01.779000,-107.0,9.0,-186.0,-468.0,650.0,-40.0,0.0,0.0,0.0
19:33:01.783000,-135.0,26.0,-167.0,-443.0,606.0,-52.0,0.0,0.0,0.0
19:33:01.788000,-159.0,42.0,-148.0,-443.0,606.0,-52.0,0.0,0.0,0.0
19:33:01.793000,-179.0,56.0,-130.0,-453.0,558.0,-80.0,0.0,0.0,0.0
19:33:01.797000,-190.0,64.0,-112.0,-453.0,558.0,-80.0,0.0,0.0,0.0
19:33:01.802000,-191.0,66.0,-92.0,-467.0,505.0,-111.0,0.0,0.0,0.0
19:33:01.807000,-191.0,66.0,-92.0,-467.0,505.0,-111.0,0.0,0.0,0.0
19:33:01.812000,-180.0,61.0,-63.0,-441.0,444.0,-133.0,0.0,0.0,0.0
19:33:01.816000,-160.0,49.0,-27.0,-441.0,444.0,-133.0,0.0,0.0,0.0
19:33:01.821000,-137.0,33.0,8.0,-404.0,411.0,-135.0,0.0,0.0,0.0
19:33:01.826000,-114.0,16.0,41.0,-404.0,411.0,-135.0,0.0,0.0,0.0
19:33:01.830000,-97.0,-1.0,72.0,-403.0,431.0,-122.0,0.0,0.0,0.0
19:33:01.835000,-91.0,-19.0,94.0,-403.0,431.0,-122.0,0.0,0.0,0.0
19:33:01.840000,-94.0,-34.0,118.0,-427.0,476.0,-107.0,0.0,0.0,0.0
19:33:01.844000,-102.0,-45.0,149.0,-427.0,476.0,-107.0,0.0,0.0,0.0
19:33:01.849000,-114.0,-56.0,175.0,-466.0,515.0,-99.0,0.0,0.0,0.0
19:33:01.854000,-128.0,-64.0,194.0,-466.0,515.0,-99.0,0.0,0.0,0.0
19:33:01.859000,-139.0,-70.0,214.0,-522.0,519.0,-98.0,0.0,0.0,0.0
19:33:01.863000,-144.0,-74.0,242.0,-522.0,519.0,-98.0,0.0,0.0,0.0
19:33:01.868000,-141.0,-74.0,275.0,-522.0,519.0,-98.0,0.0,0.0,0.0
19:33:01.873000,-135.0,-73.0,305.0,-584.0,462.0,-103.0,0.0,0.0,0.0
19:33:01.877000,-135.0,-68.0,331.0,-584.0,462.0,-103.0,0.0,0.0,0.0
19:33:01.882000,-141.0,-62.0,361.0,-641.0,402.0,-112.0,0.0,0.0,0.0
19:33:01.887000,-152.0,-56.0,393.0,-641.0,402.0,-112.0,0.0,0.0,0.0
19:33:01.891000,-164.0,-53.0,425.0,-680.0,352.0,-117.0,0.0,0.0,0.0
19:33:01.896000,-177.0,-51.0,447.0,-680.0,352.0,-117.0,0.0,0.0,0.0
19:33:01.901000,-189.0,-52.0,457.0,-678.0,249.0,-114.0,0.0,0.0,0.0
19:33:01.906000,-203.0,-58.0,451.0,-678.0,249.0,-114.0,0.0,0.0,0.0
19:33:01.910000,-216.0,-71.0,422.0,-641.0,135.0,-102.0,0.0,0.0,0.0
19:33:01.915000,-216.0,-71.0,422.0,-641.0,135.0,-102.0,0.0,0.0,0.0
19:33:01.920000,-224.0,-86.0,370.0,-601.0,67.0,-90.0,0.0,0.0,0.0
19:33:01.924000,-222.0,-107.0,308.0,-601.0,67.0,-90.0,0.0,0.0,0.0
19:33:01.929000,-212.0,-130.0,243.0,-607.0,20.0,-88.0,0.0,0.0,0.0
19:33:01.934000,-195.0,-155.0,179.0,-607.0,20.0,-88.0,0.0,0.0,0.0
19:33:01.938000,-174.0,-179.0,121.0,-664.0,-23.0,-95.0,0.0,0.0,0.0
19:33:01.943000,-152.0,-202.0,67.0,-664.0,-23.0,-95.0,0.0,0.0,0.0
19:33:01.948000,-136.0,-219.0,23.0,-714.0,-35.0,-99.0,0.0,0.0,0.0
19:33:01.953000,-129.0,-231.0,-9.0,-714.0,-35.0,-99.0,0.0,0.0,0.0
19:33:01.957000,-133.0,-235.0,-32.0,-743.0,6.0,-94.0,0.0,0.0,0.0
19:33:01.962000,-142.0,-228.0,-51.0,-743.0,6.0,-94.0,0.0,0.0,0.0
19:33:01.967000,-147.0,-216.0,-64.0,-781.0,41.0,-76.0,0.0,0.0,0.0
19:33:01.971000,-139.0,-196.0,-74.0,-781.0,41.0,-76.0,0.0,0.0,0.0
19:33:01.976000,-119.0,-170.0,-82.0,-781.0,10.0,-76.0,0.0,0.0,0.0
19:33:01.981000,-92.0,-140.0,-81.0,-832.0,13.0,-51.0,0.0,0.0,0.0
19:33:01.985000,-67.0,-107.0,-65.0,-832.0,13.0,-51.0,0.0,0.0,0.0
19:33:01.990000,-47.0,-77.0,-37.0,-881.0,-23.0,-20.0,0.0,0.0,0.0
19:33:01.995000,-42.0,-47.0,-12.0,-881.0,-23.0,-20.0,0.0,0.0,0.0
19:33:02.000000,-58.0,-21.0,5.0,-917.0,16.0,8.0,0.0,0.0,0.0
19:33:02.004000,-85.0,0.0,21.0,-917.0,16.0,8.0,0.0,0.0,0.0
19:33:02.009000,-112.0,19.0,29.0,-921.0,105.0,21.0,0.0,0.0,0.0
19:33:02.014000,-128.0,36.0,25.0,-921.0,105.0,21.0,0.0,0.0,0.0
19:33:02.018000,-123.0,49.0,16.0,-873.0,114.0,13.0,0.0,0.0,0.0
19:33:02.023000,-123.0,49.0,16.0,-873.0,114.0,13.0,0.0,0.0,0.0
19:33:02.028000,-106.0,62.0,4.0,-808.0,26.0,-24.0,0.0,0.0,0.0
19:33:02.032000,-74.0,73.0,-14.0,-808.0,26.0,-24.0,0.0,0.0,0.0
19:33:02.037000,-28.0,82.0,-35.0,-769.0,-75.0,-84.0,0.0,0.0,0.0
19:33:02.042000,23.0,88.0,-57.0,-769.0,-75.0,-84.0,0.0,0.0,0.0
19:33:02.047000,77.0,86.0,-78.0,-753.0,-115.0,-150.0,0.0,0.0,0.0
19:33:02.051000,124.0,77.0,-94.0,-753.0,-115.0,-150.0,0.0,0.0,0.0
19:33:02.056000,156.0,58.0,-102.0,-744.0,-48.0,-206.0,0.0,0.0,0.0
19:33:02.061000,177.0,30.0,-93.0,-744.0,-48.0,-206.0,0.0,0.0,0.0
19:33:02.065000,189.0,-7.0,-65.0,-721.0,55.0,-246.0,0.0,0.0,0.0
19:33:02.070000,188.0,-54.0,-20.0,-721.0,55.0,-246.0,0.0,0.0,0.0
19:33:02.075000,175.0,-112.0,42.0,-681.0,135.0,-266.0,0.0,0.0,0.0
19:33:02.079000,142.0,-172.0,113.0,-681.0,135.0,-266.0,0.0,0.0,0.0
19:33:02.084000,93.0,-234.0,182.0,-642.0,204.0,-256.0,0.0,0.0,0.0
19:33:02.089000,35.0,-298.0,238.0,-642.0,204.0,-256.0,0.0,0.0,0.0
19:33:02.094000,-23.0,-354.0,269.0,-642.0,204.0,-256.0,0.0,0.0,0.0
19:33:02.098000,-71.0,-398.0,284.0,-627.0,234.0,-222.0,0.0,0.0,0.0
19:33:02.103000,-105.0,-426.0,293.0,-627.0,234.0,-222.0,0.0,0.0,0.0
19:33:02.108000,-122.0,-438.0,304.0,-687.0,176.0,-187.0,0.0,0.0,0.0
19:33:02.112000,-124.0,-436.0,310.0,-687.0,176.0,-187.0,0.0,0.0,0.0
19:33:02.117000,-113.0,-421.0,304.0,-832.0,62.0,-146.0,0.0,0.0,0.0
19:33:02.122000,-95.0,-400.0,293.0,-832.0,62.0,-146.0,0.0,0.0,0.0
19:33:02.126000,-77.0,-371.0,288.0,-982.0,2.0,-98.0,0.0,0.0,0.0
19:33:02.131000,-65.0,-338.0,305.0,-982.0,2.0,-98.0,0.0,0.0,0.0
19:33:02.136000,-65.0,-338.0,305.0,-1075.0,19.0,-62.0,0.0,0.0,0.0
19:33:02.141000,-60.0,-305.0,342.0,-1075.0,19.0,-62.0,0.0,0.0,0.0
19:33:02.145000,-59.0,-271.0,389.0,-1110.0,29.0,-45.0,0.0,0.0,0.0
19:33:02.150000,-62.0,-242.0,443.0,-1110.0,29.0,-45.0,0.0,0.0,0.0
19:33:02.155000,-70.0,-221.0,491.0,-1076.0,23.0,-51.0,0.0,0.0,0.0
19:33:02.159000,-87.0,-212.0,522.0,-1076.0,23.0,-51.0,0.0,0.0,0.0
19:33:02.164000,-112.0,-211.0,534.0,-961.0,73.0,-79.0,0.0,0.0,0.0
19:33:02.169000,-140.0,-219.0,538.0,-961.0,73.0,-79.0,0.0,0.0,0.0
19:33:02.173000,-168.0,-234.0,547.0,-810.0,139.0,-116.0,0.0,0.0,0.0
19:33:02.178000,-189.0,-254.0,567.0,-810.0,139.0,-116.0,0.0,0.0,0.0
19:33:02.183000,-197.0,-275.0,601.0,-697.0,127.0,-155.0,0.0,0.0,0.0
19:33:02.188000,-191.0,-298.0,646.0,-697.0,127.0,-155.0,0.0,0.0,0.0
19:33:02.192000,-175.0,-316.0,688.0,-652.0,51.0,-185.0,0.0,0.0,0.0
19:33:02.197000,-152.0,-331.0,739.0,-652.0,51.0,-185.0,0.0,0.0,0.0
19:33:02.202000,-123.0,-340.0,808.0,-652.0,51.0,-185.0,0.0,0.0,0.0
19:33:02.206000,-83.0,-341.0,872.0,-656.0,-49.0,-192.0,0.0,0.0,0.0
19:33:02.211000,-42.0,-337.0,918.0,-656.0,-49.0,-192.0,0.0,0.0,0.0
19:33:02.216000,-6.0,-325.0,930.0,-718.0,-143.0,-175.0,0.0,0.0,0.0
19:33:02.220000,18.0,-310.0,908.0,-718.0,-143.0,-175.0,0.0,0.0,0.0
19:33:02.225000,27.0,-296.0,864.0,-813.0,-153.0,-133.0,0.0,0.0,0.0
19:33:02.230000,30.0,-285.0,802.0,-813.0,-153.0,-133.0,0.0,0.0,0.0
19:33:02.235000,18.0,-275.0,716.0,-866.0,-66.0,-75.0,0.0,0.0,0.0
19:33:02.239000,-2.0,-267.0,632.0,-866.0,-66.0,-75.0,0.0,0.0,0.0
19:33:02.244000,-2.0,-267.0,632.0,-879.0,67.0,-15.0,0.0,0.0,0.0
19:33:02.249000,-29.0,-259.0,555.0,-879.0,67.0,-15.0,0.0,0.0,0.0
19:33:02.253000,-58.0,-249.0,487.0,-878.0,184.0,32.0,0.0,0.0,0.0
19:33:02.257000,-95.0,-239.0,426.0,-878.0,184.0,32.0,0.0,0.0,0.0
19:33:02.263000,-131.0,-230.0,378.0,-886.0,259.0,57.0,0.0,0.0,0.0
19:33:02.267000,-167.0,-219.0,352.0,-886.0,259.0,57.0,0.0,0.0,0.0
19:33:02.272000,-191.0,-211.0,341.0,-897.0,286.0,54.0,0.0,0.0,0.0
19:33:02.277000,-204.0,-206.0,340.0,-897.0,286.0,54.0,0.0,0.0,0.0
19:33:02.282000,-206.0,-203.0,343.0,-899.0,268.0,24.0,0.0,0.0,0.0
19:33:02.286000,-198.0,-200.0,350.0,-899.0,268.0,24.0,0.0,0.0,0.0
19:33:02.291000,-177.0,-193.0,361.0,-895.0,210.0,-13.0,0.0,0.0,0.0
19:33:02.296000,-150.0,-179.0,364.0,-895.0,210.0,-13.0,0.0,0.0,0.0
19:33:02.300000,-118.0,-163.0,361.0,-916.0,124.0,-51.0,0.0,0.0,0.0
19:33:02.305000,-78.0,-147.0,358.0,-916.0,124.0,-51.0,0.0,0.0,0.0
19:33:02.310000,-35.0,-134.0,351.0,-916.0,124.0,-51.0,0.0,0.0,0.0
19:33:02.314000,12.0,-119.0,345.0,-965.0,47.0,-73.0,0.0,0.0,0.0
19:33:02.319000,67.0,-102.0,343.0,-982.0,-29.0,-73.0,0.0,0.0,0.0
19:33:02.324000,132.0,-86.0,337.0,-982.0,-29.0,-73.0,0.0,0.0,0.0
19:33:02.329000,191.0,-72.0,324.0,-982.0,-29.0,-73.0,0.0,0.0,0.0
19:33:02.333000,232.0,-52.0,305.0,-938.0,-72.0,-65.0,0.0,0.0,0.0
19:33:02.338000,245.0,-28.0,287.0,-938.0,-72.0,-65.0,0.0,0.0,0.0
19:33:02.343000,237.0,-10.0,267.0,-867.0,16.0,-54.0,0.0,0.0,0.0
19:33:02.347000,221.0,9.0,256.0,-867.0,16.0,-54.0,0.0,0.0,0.0
19:33:02.352000,221.0,9.0,256.0,-797.0,147.0,-41.0,0.0,0.0,0.0
19:33:02.357000,200.0,27.0,245.0,-797.0,147.0,-41.0,0.0,0.0,0.0
19:33:02.361000,173.0,43.0,233.0,-726.0,189.0,-35.0,0.0,0.0,0.0
19:33:02.366000,141.0,60.0,233.0,-726.0,189.0,-35.0,0.0,0.0,0.0
19:33:02.371000,107.0,74.0,239.0,-664.0,198.0,-35.0,0.0,0.0,0.0
19:33:02.376000,66.0,86.0,244.0,-664.0,198.0,-35.0,0.0,0.0,0.0
19:33:02.380000,34.0,98.0,252.0,-620.0,232.0,-43.0,0.0,0.0,0.0
19:33:02.385000,7.0,105.0,242.0,-620.0,232.0,-43.0,0.0,0.0,0.0
19:33:02.390000,-23.0,115.0,236.0,-607.0,269.0,-55.0,0.0,0.0,0.0
19:33:02.394000,-38.0,120.0,261.0,-607.0,269.0,-55.0,0.0,0.0,0.0
19:33:02.399000,-32.0,120.0,298.0,-631.0,245.0,-62.0,0.0,0.0,0.0
19:33:02.404000,-25.0,126.0,345.0,-631.0,245.0,-62.0,0.0,0.0,0.0
19:33:02.408000,10.0,122.0,380.0,-675.0,169.0,-61.0,0.0,0.0,0.0
19:33:02.413000,60.0,120.0,407.0,-675.0,169.0,-61.0,0.0,0.0,0.0
19:33:02.418000,95.0,112.0,453.0,-675.0,169.0,-61.0,0.0,0.0,0.0
19:33:02.423000,123.0,118.0,520.0,-763.0,92.0,-56.0,0.0,0.0,0.0
19:33:02.427000,142.0,111.0,564.0,-763.0,92.0,-56.0,0.0,0.0,0.0
19:33:02.432000,163.0,124.0,655.0,-865.0,52.0,-32.0,0.0,0.0,0.0
19:33:02.437000,214.0,151.0,774.0,-865.0,52.0,-32.0,0.0,0.0,0.0
19:33:02.441000,192.0,182.0,697.0,-804.0,101.0,-6.0,0.0,0.0,0.0
19:33:02.446000,144.0,204.0,596.0,-804.0,101.0,-6.0,0.0,0.0,0.0
19:33:02.451000,87.0,223.0,539.0,-676.0,196.0,21.0,0.0,0.0,0.0
19:33:02.455000,36.0,243.0,527.0,-676.0,196.0,21.0,0.0,0.0,0.0
19:33:02.460000,4.0,253.0,515.0,-688.0,176.0,33.0,0.0,0.0,0.0
19:33:02.465000,4.0,253.0,515.0,-688.0,176.0,33.0,0.0,0.0,0.0
19:33:02.470000,5.0,263.0,457.0,-838.0,109.0,-15.0,0.0,0.0,0.0
19:33:02.474000,-3.0,270.0,401.0,-838.0,109.0,-15.0,0.0,0.0,0.0
19:33:02.479000,-23.0,268.0,393.0,-948.0,87.0,-97.0,0.0,0.0,0.0
19:33:02.484000,0.0,259.0,397.0,-948.0,87.0,-97.0,0.0,0.0,0.0
19:33:02.488000,26.0,246.0,307.0,-973.0,194.0,-191.0,0.0,0.0,0.0
19:33:02.493000,21.0,221.0,212.0,-973.0,194.0,-191.0,0.0,0.0,0.0
19:33:02.498000,-8.0,187.0,233.0,-988.0,383.0,-255.0,0.0,0.0,0.0
19:33:02.502000,-38.0,145.0,323.0,-988.0,383.0,-255.0,0.0,0.0,0.0
19:33:02.507000,-65.0,99.0,403.0,-1021.0,496.0,-284.0,0.0,0.0,0.0
19:33:02.512000,-109.0,51.0,446.0,-1021.0,496.0,-284.0,0.0,0.0,0.0
19:33:02.516000,-163.0,3.0,460.0,-1081.0,588.0,-292.0,0.0,0.0,0.0
19:33:02.521000,-216.0,-46.0,467.0,-1081.0,588.0,-292.0,0.0,0.0,0.0
19:33:02.526000,-233.0,-95.0,466.0,-1081.0,588.0,-292.0,0.0,0.0,0.0
19:33:02.531000,-252.0,-137.0,420.0,-1102.0,603.0,-275.0,0.0,0.0,0.0
19:33:02.535000,-261.0,-170.0,327.0,-1102.0,603.0,-275.0,0.0,0.0,0.0
19:33:02.540000,-250.0,-200.0,221.0,-1113.0,543.0,-258.0,0.0,0.0,0.0
19:33:02.545000,-219.0,-217.0,142.0,-1113.0,543.0,-258.0,0.0,0.0,0.0
19:33:02.549000,-174.0,-217.0,72.0,-1172.0,427.0,-277.0,0.0,0.0,0.0
19:33:02.554000,-120.0,-207.0,-23.0,-1172.0,427.0,-277.0,0.0,0.0,0.0
19:33:02.559000,-70.0,-186.0,-142.0,-1300.0,295.0,-289.0,0.0,0.0,0.0
19:33:02.563000,-21.0,-158.0,-268.0,-1300.0,295.0,-289.0,0.0,0.0,0.0
19:33:02.568000,3.0,-93.0,-444.0,-1452.0,266.0,-264.0,0.0,0.0,0.0
19:33:02.573000,3.0,-93.0,-444.0,-1452.0,266.0,-264.0,0.0,0.0,0.0
19:33:02.578000,61.0,-39.0,-623.0,-1614.0,258.0,-252.0,0.0,0.0,0.0
19:33:02.582000,105.0,5.0,-660.0,-1614.0,258.0,-252.0,0.0,0.0,0.0
19:33:02.587000,136.0,44.0,-565.0,-1655.0,126.0,-211.0,0.0,0.0,0.0
19:33:02.592000,177.0,75.0,-478.0,-1655.0,126.0,-211.0,0.0,0.0,0.0
19:33:02.596000,168.0,130.0,-490.0,-1445.0,119.0,-150.0,0.0,0.0,0.0
19:33:02.601000,228.0,165.0,-560.0,-1445.0,119.0,-150.0,0.0,0.0,0.0
19:33:02.606000,228.0,193.0,-647.0,-1221.0,311.0,-113.0,0.0,0.0,0.0
19:33:02.610000,225.0,219.0,-716.0,-1221.0,311.0,-113.0,0.0,0.0,0.0
19:33:02.615000,212.0,232.0,-752.0,-1180.0,302.0,-83.0,0.0,0.0,0.0
19:33:02.620000,166.0,242.0,-728.0,-1180.0,302.0,-83.0,0.0,0.0,0.0
19:33:02.625000,175.0,235.0,-686.0,-1206.0,79.0,-57.0,0.0,0.0,0.0
19:33:02.629000,165.0,228.0,-662.0,-1206.0,79.0,-57.0,0.0,0.0,0.0
19:33:02.634000,163.0,229.0,-623.0,-1206.0,79.0,-57.0,0.0,0.0,0.0
19:33:02.639000,155.0,223.0,-555.0,-1185.0,-78.0,-34.0,0.0,0.0,0.0
19:33:02.643000,144.0,218.0,-522.0,-1185.0,-78.0,-34.0,0.0,0.0,0.0
19:33:02.648000,133.0,213.0,-527.0,-1087.0,-138.0,-11.0,0.0,0.0,0.0
19:33:02.653000,102.0,200.0,-466.0,-1087.0,-138.0,-11.0,0.0,0.0,0.0
19:33:02.657000,89.0,194.0,-357.0,-917.0,-191.0,2.0,0.0,0.0,0.0
19:33:02.662000,84.0,198.0,-319.0,-917.0,-191.0,2.0,0.0,0.0,0.0
19:33:02.667000,85.0,197.0,-351.0,-825.0,-213.0,-11.0,0.0,0.0,0.0
19:33:02.672000,89.0,193.0,-402.0,-825.0,-213.0,-11.0,0.0,0.0,0.0
19:33:02.676000,95.0,186.0,-490.0,-884.0,-128.0,-46.0,0.0,0.0,0.0
19:33:02.681000,95.0,186.0,-490.0,-884.0,-128.0,-46.0,0.0,0.0,0.0
19:33:02.686000,91.0,191.0,-602.0,-993.0,23.0,-77.0,0.0,0.0,0.0
19:33:02.690000,94.0,193.0,-687.0,-993.0,23.0,-77.0,0.0,0.0,0.0
19:33:02.695000,102.0,197.0,-719.0,-1068.0,116.0,-111.0,0.0,0.0,0.0
