hh:mm:ss.ms,gyroX[mdps],gyroY[mdps],gyroZ[mdps],accX[mg],accY[mg],accZ[mg],magX[mG],magY[mG],magZ[mG]
19:32:10.251000,-72.0,207.0,-13.0,-1020.0,365.0,-468.0,0.0,0.0,0.0
19:32:10.256000,-42.0,156.0,39.0,-1020.0,365.0,-468.0,0.0,0.0,0.0
19:32:10.260000,-23.0,107.0,79.0,-897.0,391.0,-451.0,0.0,0.0,0.0
19:32:10.265000,-2.0,30.0,102.0,-897.0,391.0,-451.0,0.0,0.0,0.0
19:32:10.270000,-11.0,-27.0,103.0,-897.0,391.0,-451.0,0.0,0.0,0.0
19:32:10.275000,-14.0,-74.0,74.0,-838.0,438.0,-417.0,0.0,0.0,0.0
19:32:10.279000,-2.0,-117.0,41.0,-838.0,438.0,-417.0,0.0,0.0,0.0
19:32:10.284000,23.0,-158.0,11.0,-817.0,494.0,-379.0,0.0,0.0,0.0
19:32:10.288000,13.0,-189.0,-13.0,-880.0,569.0,-328.0,0.0,0.0,0.0
19:32:10.293000,-51.0,-206.0,-35.0,-880.0,569.0,-328.0,0.0,0.0,0.0
19:32:10.298000,-87.0,-232.0,-72.0,-880.0,569.0,-328.0,0.0,0.0,0.0
19:32:10.303000,-131.0,-228.0,-96.0,-995.0,611.0,-269.0,0.0,0.0,0.0
19:32:10.307000,-156.0,-227.0,-95.0,-995.0,611.0,-269.0,0.0,0.0,0.0
19:32:10.312000,-167.0,-198.0,-111.0,-1071.0,620.0,-249.0,0.0,0.0,0.0
19:32:10.317000,-167.0,-198.0,-111.0,-1071.0,620.0,-249.0,0.0,0.0,0.0
19:32:10.322000,-173.0,-178.0,-79.0,-1074.0,521.0,-236.0,0.0,0.0,0.0
19:32:10.326000,-142.0,-184.0,-42.0,-1074.0,521.0,-236.0,0.0,0.0,0.0
19:32:10.331000,-91.0,-192.0,-95.0,-1041.0,409.0,-227.0,0.0,0.0,0.0
19:32:10.336000,-31.0,-193.0,-158.0,-1041.0,409.0,-227.0,0.0,0.0,0.0
19:32:10.340000,38.0,-203.0,-187.0,-984.0,404.0,-224.0,0.0,0.0,0.0
19:32:10.345000,94.0,-195.0,-202.0,-984.0,404.0,-224.0,0.0,0.0,0.0
19:32:10.350000,143.0,-173.0,-170.0,-930.0,427.0,-215.0,0.0,0.0,0.0
19:32:10.354000,190.0,-158.0,-145.0,-930.0,427.0,-215.0,0.0,0.0,0.0
19:32:10.359000,245.0,-144.0,-174.0,-946.0,459.0,-196.0,0.0,0.0,0.0
19:32:10.364000,283.0,-131.0,-209.0,-946.0,459.0,-196.0,0.0,0.0,0.0
19:32:10.369000,296.0,-128.0,-218.0,-892.0,478.0,-161.0,0.0,0.0,0.0
19:32:10.373000,315.0,-121.0,-196.0,-892.0,478.0,-161.0,0.0,0.0,0.0
19:32:10.378000,320.0,-128.0,-156.0,-892.0,486.0,-139.0,0.0,0.0,0.0
19:32:10.383000,319.0,-143.0,-147.0,-715.0,486.0,-139.0,0.0,0.0,0.0
19:32:10.387000,301.0,-158.0,-157.0,-715.0,486.0,-139.0,0.0,0.0,0.0
19:32:10.391000,256.0,-178.0,-165.0,-552.0,551.0,-138.0,0.0,0.0,0.0
19:32:10.397000,197.0,-203.0,-186.0,-552.0,551.0,-138.0,0.0,0.0,0.0
19:32:10.401000,118.0,-222.0,-202.0,-437.0,688.0,-137.0,0.0,0.0,0.0
19:32:10.406000,37.0,-226.0,-225.0,-437.0,688.0,-137.0,0.0,0.0,0.0
19:32:10.411000,-49.0,-207.0,-235.0,-332.0,810.0,-147.0,0.0,0.0,0.0
19:32:10.416000,-125.0,-182.0,-231.0,-332.0,810.0,-147.0,0.0,0.0,0.0
19:32:10.420000,-200.0,-153.0,-210.0,-307.0,835.0,-183.0,0.0,0.0,0.0
19:32:10.425000,-261.0,-119.0,-171.0,-307.0,835.0,-183.0,0.0,0.0,0.0
19:32:10.430000,-261.0,-119.0,-171.0,-404.0,737.0,-221.0,0.0,0.0,0.0
19:32:10.434000,-302.0,-94.0,-129.0,-404.0,737.0,-221.0,0.0,0.0,0.0
19:32:10.439000,-317.0,-70.0,-74.0,-486.0,487.0,-258.0,0.0,0.0,0.0
19:32:10.444000,-294.0,-56.0,-2.0,-486.0,487.0,-258.0,0.0,0.0,0.0
19:32:10.448000,-245.0,-44.0,54.0,-463.0,153.0,-291.0,0.0,0.0,0.0
19:32:10.453000,-167.0,-57.0,89.0,-463.0,153.0,-291.0,0.0,0.0,0.0
19:32:10.458000,-81.0,-81.0,119.0,-381.0,-54.0,-298.0,0.0,0.0,0.0
19:32:10.463000,11.0,-116.0,128.0,-381.0,-54.0,-298.0,0.0,0.0,0.0
19:32:10.467000,86.0,-158.0,112.0,-335.0,11.0,-254.0,0.0,0.0,0.0
19:32:10.472000,134.0,-202.0,79.0,-335.0,11.0,-254.0,0.0,0.0,0.0
19:32:10.477000,157.0,-244.0,31.0,-354.0,276.0,-162.0,0.0,0.0,0.0
19:32:10.481000,156.0,-281.0,-16.0,-354.0,276.0,-162.0,0.0,0.0,0.0
19:32:10.486000,133.0,-308.0,-51.0,-404.0,532.0,-57.0,0.0,0.0,0.0
19:32:10.491000,91.0,-321.0,-69.0,-404.0,532.0,-57.0,0.0,0.0,0.0
19:32:10.495000,35.0,-324.0,-52.0,-404.0,532.0,-57.0,0.0,0.0,0.0
19:32:10.500000,-27.0,-316.0,-8.0,-496.0,659.0,40.0,0.0,0.0,0.0
19:32:10.505000,-84.0,-299.0,50.0,-496.0,659.0,40.0,0.0,0.0,0.0
19:32:10.510000,-133.0,-273.0,113.0,-636.0,626.0,106.0,0.0,0.0,0.0
19:32:10.514000,-177.0,-239.0,165.0,-636.0,626.0,106.0,0.0,0.0,0.0
19:32:10.519000,-208.0,-202.0,202.0,-786.0,495.0,123.0,0.0,0.0,0.0
19:32:10.524000,-233.0,-162.0,227.0,-786.0,495.0,123.0,0.0,0.0,0.0
19:32:10.528000,-247.0,-122.0,242.0,-897.0,364.0,106.0,0.0,0.0,0.0
19:32:10.533000,-253.0,-82.0,248.0,-897.0,364.0,106.0,0.0,0.0,0.0
19:32:10.538000,-253.0,-82.0,248.0,-932.0,254.0,66.0,0.0,0.0,0.0
19:32:10.542000,-252.0,-44.0,249.0,-932.0,254.0,66.0,0.0,0.0,0.0
19:32:10.547000,-239.0,-11.0,247.0,-892.0,148.0,9.0,0.0,0.0,0.0
19:32:10.552000,-224.0,18.0,237.0,-892.0,148.0,9.0,0.0,0.0,0.0
19:32:10.557000,-209.0,38.0,218.0,-804.0,83.0,-43.0,0.0,0.0,0.0
19:32:10.561000,-200.0,51.0,203.0,-804.0,83.0,-43.0,0.0,0.0,0.0
19:32:10.566000,-195.0,53.0,195.0,-673.0,53.0,-71.0,0.0,0.0,0.0
19:32:10.571000,-189.0,49.0,181.0,-673.0,53.0,-71.0,0.0,0.0,0.0
19:32:10.575000,-180.0,35.0,168.0,-516.0,-1.0,-77.0,0.0,0.0,0.0
19:32:10.580000,-165.0,15.0,166.0,-516.0,-1.0,-77.0,0.0,0.0,0.0
19:32:10.585000,-152.0,-4.0,165.0,-410.0,-47.0,-74.0,0.0,0.0,0.0
19:32:10.589000,-147.0,-21.0,161.0,-410.0,-47.0,-74.0,0.0,0.0,0.0
19:32:10.594000,-152.0,-35.0,147.0,-413.0,-31.0,-65.0,0.0,0.0,0.0
19:32:10.599000,-160.0,-44.0,137.0,-413.0,-31.0,-65.0,0.0,0.0,0.0
19:32:10.604000,-161.0,-53.0,138.0,-413.0,-31.0,-65.0,0.0,0.0,0.0
19:32:10.608000,-151.0,-60.0,144.0,-488.0,-40.0,-57.0,0.0,0.0,0.0
19:32:10.613000,-135.0,-67.0,149.0,-488.0,-40.0,-57.0,0.0,0.0,0.0
19:32:10.618000,-116.0,-72.0,154.0,-575.0,-94.0,-59.0,0.0,0.0,0.0
19:32:10.622000,-101.0,-75.0,161.0,-575.0,-94.0,-59.0,0.0,0.0,0.0
19:32:10.626000,-91.0,-72.0,175.0,-643.0,-104.0,-61.0,0.0,0.0,0.0
19:32:10.632000,-89.0,-63.0,188.0,-643.0,-104.0,-61.0,0.0,0.0,0.0
19:32:10.636000,-94.0,-52.0,192.0,-674.0,-66.0,-62.0,0.0,0.0,0.0
19:32:10.641000,-98.0,-41.0,184.0,-674.0,-66.0,-62.0,0.0,0.0,0.0
19:32:10.646000,-98.0,-41.0,184.0,-672.0,-24.0,-68.0,0.0,0.0,0.0
19:32:10.651000,-97.0,-34.0,168.0,-672.0,-24.0,-68.0,0.0,0.0,0.0
19:32:10.655000,-86.0,-29.0,150.0,-664.0,-14.0,-83.0,0.0,0.0,0.0
19:32:10.660000,-71.0,-26.0,139.0,-664.0,-14.0,-83.0,0.0,0.0,0.0
19:32:10.665000,-57.0,-25.0,132.0,-697.0,-8.0,-100.0,0.0,0.0,0.0
19:32:10.669000,-49.0,-25.0,129.0,-697.0,-8.0,-100.0,0.0,0.0,0.0
19:32:10.674000,-46.0,-28.0,142.0,-753.0,5.0,-107.0,0.0,0.0,0.0
19:32:10.679000,-47.0,-31.0,174.0,-753.0,5.0,-107.0,0.0,0.0,0.0
19:32:10.683000,-49.0,-39.0,220.0,-766.0,-7.0,-106.0,0.0,0.0,0.0
19:32:10.688000,-47.0,-56.0,263.0,-766.0,-7.0,-106.0,0.0,0.0,0.0
19:32:10.693000,-44.0,-78.0,294.0,-739.0,-26.0,-98.0,0.0,0.0,0.0
19:32:10.698000,-42.0,-102.0,317.0,-739.0,-26.0,-98.0,0.0,0.0,0.0
19:32:10.702000,-37.0,-128.0,333.0,-704.0,-29.0,-93.0,0.0,0.0,0.0
19:32:10.707000,-30.0,-158.0,338.0,-704.0,-29.0,-93.0,0.0,0.0,0.0
19:32:10.712000,-29.0,-191.0,342.0,-704.0,-29.0,-93.0,0.0,0.0,0.0
19:32:10.716000,-36.0,-228.0,358.0,-694.0,-6.0,-99.0,0.0,0.0,0.0
19:32:10.721000,-51.0,-268.0,389.0,-694.0,-6.0,-99.0,0.0,0.0,0.0
19:32:10.726000,-69.0,-303.0,434.0,-718.0,40.0,-103.0,0.0,0.0,0.0
19:32:10.730000,-84.0,-335.0,493.0,-718.0,40.0,-103.0,0.0,0.0,0.0
19:32:10.735000,-92.0,-367.0,567.0,-726.0,46.0,-99.0,0.0,0.0,0.0
19:32:10.740000,-87.0,-399.0,644.0,-726.0,46.0,-99.0,0.0,0.0,0.0
19:32:10.745000,-71.0,-429.0,712.0,-698.0,-12.0,-96.0,0.0,0.0,0.0
19:32:10.749000,-54.0,-457.0,766.0,-698.0,-12.0,-96.0,0.0,0.0,0.0
19:32:10.754000,-42.0,-457.0,766.0,-666.0,-60.0,-94.0,0.0,0.0,0.0
19:32:10.759000,-42.0,-485.0,822.0,-666.0,-60.0,-94.0,0.0,0.0,0.0
19:32:10.763000,-38.0,-508.0,889.0,-652.0,-50.0,-85.0,0.0,0.0,0.0
19:32:10.767000,-44.0,-529.0,956.0,-652.0,-50.0,-85.0,0.0,0.0,0.0
19:32:10.773000,-53.0,-548.0,1025.0,-659.0,-12.0,-76.0,0.0,0.0,0.0
19:32:10.777000,-73.0,-567.0,1092.0,-659.0,-12.0,-76.0,0.0,0.0,0.0
19:32:10.782000,-98.0,-587.0,1169.0,-664.0,19.0,-63.0,0.0,0.0,0.0
19:32:10.787000,-126.0,-608.0,1260.0,-664.0,19.0,-63.0,0.0,0.0,0.0
19:32:10.792000,-156.0,-625.0,1361.0,-629.0,14.0,-46.0,0.0,0.0,0.0
19:32:10.796000,-187.0,-643.0,1473.0,-629.0,14.0,-46.0,0.0,0.0,0.0
19:32:10.801000,-214.0,-665.0,1582.0,-582.0,-3.0,-29.0,0.0,0.0,0.0
19:32:10.806000,-243.0,-688.0,1696.0,-582.0,-3.0,-29.0,0.0,0.0,0.0
19:32:10.810000,-280.0,-713.0,1820.0,-554.0,-17.0,-7.0,0.0,0.0,0.0
19:32:10.815000,-315.0,-737.0,1948.0,-554.0,-17.0,-7.0,0.0,0.0,0.0
19:32:10.820000,-346.0,-758.0,2073.0,-554.0,-17.0,-7.0,0.0,0.0,0.0
19:32:10.824000,-366.0,-775.0,2188.0,-525.0,-75.0,18.0,0.0,0.0,0.0
19:32:10.829000,-376.0,-788.0,2277.0,-497.0,-173.0,40.0,0.0,0.0,0.0
19:32:10.834000,-380.0,-794.0,2340.0,-497.0,-173.0,40.0,0.0,0.0,0.0
19:32:10.839000,-380.0,-798.0,2397.0,-497.0,-173.0,40.0,0.0,0.0,0.0
19:32:10.843000,-371.0,-795.0,2419.0,-500.0,-276.0,56.0,0.0,0.0,0.0
19:32:10.848000,-360.0,-786.0,2403.0,-500.0,-276.0,56.0,0.0,0.0,0.0
19:32:10.853000,-354.0,-774.0,2368.0,-558.0,-350.0,60.0,0.0,0.0,0.0
19:32:10.857000,-352.0,-758.0,2324.0,-558.0,-350.0,60.0,0.0,0.0,0.0
19:32:10.861000,-352.0,-758.0,2324.0,-632.0,-381.0,64.0,0.0,0.0,0.0
19:32:10.867000,-343.0,-745.0,2268.0,-632.0,-381.0,64.0,0.0,0.0,0.0
19:32:10.871000,-328.0,-728.0,2191.0,-679.0,-374.0,64.0,0.0,0.0,0.0
19:32:10.876000,-319.0,-701.0,2088.0,-679.0,-374.0,64.0,0.0,0.0,0.0
19:32:10.881000,-314.0,-666.0,1969.0,-717.0,-308.0,62.0,0.0,0.0,0.0
19:32:10.886000,-310.0,-625.0,1854.0,-717.0,-308.0,62.0,0.0,0.0,0.0
19:32:10.890000,-299.0,-583.0,1743.0,-747.0,-251.0,64.0,0.0,0.0,0.0
19:32:10.895000,-282.0,-545.0,1638.0,-747.0,-251.0,64.0,0.0,0.0,0.0
19:32:10.900000,-266.0,-508.0,1535.0,-792.0,-251.0,57.0,0.0,0.0,0.0
19:32:10.904000,-251.0,-473.0,1444.0,-792.0,-251.0,57.0,0.0,0.0,0.0
19:32:10.909000,-235.0,-432.0,1374.0,-864.0,-291.0,45.0,0.0,0.0,0.0
19:32:10.914000,-210.0,-393.0,1305.0,-864.0,-291.0,45.0,0.0,0.0,0.0
19:32:10.918000,-175.0,-350.0,1230.0,-921.0,-372.0,32.0,0.0,0.0,0.0
19:32:10.923000,-131.0,-320.0,1143.0,-921.0,-372.0,32.0,0.0,0.0,0.0
19:32:10.928000,-93.0,-291.0,1049.0,-921.0,-372.0,32.0,0.0,0.0,0.0
19:32:10.933000,-58.0,-248.0,973.0,-963.0,-434.0,31.0,0.0,0.0,0.0
19:32:10.937000,-15.0,-210.0,879.0,-963.0,-434.0,31.0,0.0,0.0,0.0
19:32:10.942000,18.0,-178.0,774.0,-1025.0,-443.0,30.0,0.0,0.0,0.0
19:32:10.947000,37.0,-154.0,690.0,-1025.0,-443.0,30.0,0.0,0.0,0.0
19:32:10.951000,50.0,-128.0,627.0,-1086.0,-420.0,20.0,0.0,0.0,0.0
19:32:10.956000,57.0,-107.0,578.0,-1086.0,-420.0,20.0,0.0,0.0,0.0
19:32:10.961000,58.0,-84.0,522.0,-1087.0,-394.0,22.0,0.0,0.0,0.0
19:32:10.965000,45.0,-58.0,472.0,-1087.0,-394.0,22.0,0.0,0.0,0.0
19:32:10.970000,34.0,-26.0,413.0,-1070.0,-341.0,34.0,0.0,0.0,0.0
19:32:10.975000,34.0,-26.0,413.0,-1070.0,-341.0,34.0,0.0,0.0,0.0
19:32:10.980000,37.0,15.0,90.0,-1549.0,-263.0,35.0,0.0,0.0,0.0
19:32:10.984000,-54.0,68.0,-258.0,-1549.0,-263.0,35.0,0.0,0.0,0.0
19:32:10.989000,-216.0,39.0,457.0,-1463.0,-376.0,73.0,0.0,0.0,0.0
19:32:10.994000,-332.0,105.0,747.0,-1463.0,-376.0,73.0,0.0,0.0,0.0
19:32:10.998000,-346.0,60.0,564.0,-859.0,-354.0,86.0,0.0,0.0,0.0
19:32:11.003000,-266.0,71.0,145.0,-859.0,-354.0,86.0,0.0,0.0,0.0
19:32:11.008000,-202.0,23.0,-105.0,-661.0,-226.0,44.0,0.0,0.0,0.0
19:32:11.012000,-280.0,18.0,-56.0,-661.0,-226.0,44.0,0.0,0.0,0.0
19:32:11.017000,-337.0,14.0,143.0,-385.0,-362.0,2.0,0.0,0.0,0.0
19:32:11.022000,-291.0,28.0,161.0,-385.0,-362.0,2.0,0.0,0.0,0.0
19:32:11.027000,-252.0,32.0,140.0,-304.0,-461.0,-49.0,0.0,0.0,0.0
19:32:11.031000,-167.0,33.0,176.0,-304.0,-461.0,-49.0,0.0,0.0,0.0
19:32:11.036000,-72.0,28.0,209.0,-304.0,-488.0,-49.0,0.0,0.0,0.0
19:32:11.041000,-26.0,11.0,313.0,-359.0,-488.0,-61.0,0.0,0.0,0.0
19:32:11.045000,13.0,-23.0,520.0,-359.0,-488.0,-61.0,0.0,0.0,0.0
19:32:11.050000,87.0,-42.0,616.0,-415.0,-532.0,-11.0,0.0,0.0,0.0
19:32:11.055000,153.0,-54.0,599.0,-415.0,-532.0,-11.0,0.0,0.0,0.0
19:32:11.059000,200.0,-68.0,582.0,-509.0,-482.0,59.0,0.0,0.0,0.0
19:32:11.064000,212.0,-68.0,559.0,-509.0,-482.0,59.0,0.0,0.0,0.0
19:32:11.069000,207.0,-57.0,539.0,-582.0,-355.0,126.0,0.0,0.0,0.0
19:32:11.074000,162.0,-57.0,546.0,-582.0,-355.0,126.0,0.0,0.0,0.0
19:32:11.078000,113.0,-48.0,595.0,-571.0,-277.0,190.0,0.0,0.0,0.0
19:32:11.083000,113.0,-48.0,595.0,-571.0,-277.0,190.0,0.0,0.0,0.0
19:32:11.088000,57.0,-39.0,615.0,-544.0,-243.0,213.0,0.0,0.0,0.0
19:32:11.092000,8.0,-46.0,586.0,-544.0,-243.0,213.0,0.0,0.0,0.0
19:32:11.096000,-37.0,-36.0,568.0,-545.0,-257.0,180.0,0.0,0.0,0.0
19:32:11.102000,-27.0,-62.0,511.0,-545.0,-257.0,180.0,0.0,0.0,0.0
19:32:11.106000,4.0,-91.0,470.0,-568.0,-300.0,109.0,0.0,0.0,0.0
19:32:11.111000,-9.0,-63.0,437.0,-568.0,-300.0,109.0,0.0,0.0,0.0
19:32:11.116000,56.0,-39.0,429.0,-711.0,-309.0,25.0,0.0,0.0,0.0
19:32:11.121000,91.0,-26.0,476.0,-711.0,-309.0,25.0,0.0,0.0,0.0
19:32:11.125000,146.0,-68.0,553.0,-976.0,-377.0,-14.0,0.0,0.0,0.0
19:32:11.130000,244.0,-75.0,591.0,-976.0,-377.0,-14.0,0.0,0.0,0.0
19:32:11.135000,357.0,-60.0,614.0,-1197.0,-433.0,-66.0,0.0,0.0,0.0
19:32:11.139000,392.0,-21.0,567.0,-1197.0,-433.0,-66.0,0.0,0.0,0.0
19:32:11.144000,427.0,-25.0,442.0,-1322.0,-256.0,-114.0,0.0,0.0,0.0
19:32:11.149000,406.0,13.0,250.0,-1322.0,-256.0,-114.0,0.0,0.0,0.0
19:32:11.153000,345.0,39.0,2.0,-1322.0,-256.0,-114.0,0.0,0.0,0.0
19:32:11.158000,270.0,57.0,-245.0,-1435.0,30.0,-103.0,0.0,0.0,0.0
19:32:11.163000,208.0,60.0,-441.0,-1435.0,30.0,-103.0,0.0,0.0,0.0
19:32:11.167000,170.0,61.0,-637.0,-1463.0,175.0,-99.0,0.0,0.0,0.0
19:32:11.172000,133.0,58.0,-870.0,-1463.0,175.0,-99.0,0.0,0.0,0.0
19:32:11.177000,108.0,58.0,-1057.0,-1345.0,152.0,-79.0,0.0,0.0,0.0
19:32:11.182000,97.0,86.0,-1117.0,-1345.0,152.0,-79.0,0.0,0.0,0.0
19:32:11.186000,117.0,94.0,-1052.0,-1169.0,-75.0,-56.0,0.0,0.0,0.0
19:32:11.191000,172.0,90.0,-952.0,-1169.0,-75.0,-56.0,0.0,0.0,0.0
19:32:11.196000,172.0,90.0,-952.0,-1008.0,-416.0,-61.0,0.0,0.0,0.0
19:32:11.200000,219.0,126.0,-1082.0,-1008.0,-416.0,-61.0,0.0,0.0,0.0
19:32:11.205000,261.0,164.0,-1361.0,-1199.0,-504.0,-78.0,0.0,0.0,0.0
19:32:11.210000,366.0,164.0,-1563.0,-1199.0,-504.0,-78.0,0.0,0.0,0.0
19:32:11.214000,459.0,169.0,-1542.0,-1575.0,-476.0,-50.0,0.0,0.0,0.0
19:32:11.219000,444.0,153.0,-1449.0,-1575.0,-476.0,-50.0,0.0,0.0,0.0
19:32:11.224000,445.0,179.0,-1470.0,-1604.0,-184.0,31.0,0.0,0.0,0.0
19:32:11.229000,658.0,222.0,-1453.0,-1604.0,-184.0,31.0,0.0,0.0,0.0
19:32:11.233000,567.0,220.0,-1491.0,-1367.0,79.0,83.0,0.0,0.0,0.0
19:32:11.238000,37.0,267.0,-1162.0,-1367.0,79.0,83.0,0.0,0.0,0.0
19:32:11.242000,109.0,243.0,-903.0,-1222.0,-224.0,90.0,0.0,0.0,0.0
19:32:11.247000,56.0,300.0,-990.0,-1222.0,-224.0,90.0,0.0,0.0,0.0
19:32:11.252000,-4.0,363.0,-1025.0,-1319.0,-675.0,86.0,0.0,0.0,0.0
19:32:11.257000,-56.0,410.0,-941.0,-1319.0,-675.0,86.0,0.0,0.0,0.0
19:32:11.261000,-53.0,435.0,-980.0,-1319.0,-675.0,86.0,0.0,0.0,0.0
19:32:11.266000,-17.0,444.0,-1157.0,-1475.0,-888.0,88.0,0.0,0.0,0.0
19:32:11.271000,-7.0,465.0,-1311.0,-1475.0,-888.0,88.0,0.0,0.0,0.0
19:32:11.276000,-21.0,486.0,-1355.0,-1375.0,-903.0,96.0,0.0,0.0,0.0
19:32:11.280000,6.0,501.0,-1353.0,-1375.0,-903.0,96.0,0.0,0.0,0.0
19:32:11.285000,79.0,476.0,-1382.0,-1086.0,-948.0,100.0,0.0,0.0,0.0
19:32:11.290000,130.0,458.0,-1383.0,-1086.0,-948.0,100.0,0.0,0.0,0.0
19:32:11.294000,175.0,445.0,-1382.0,-915.0,-968.0,98.0,0.0,0.0,0.0
19:32:11.299000,227.0,440.0,-1393.0,-915.0,-968.0,98.0,0.0,0.0,0.0
19:32:11.304000,227.0,440.0,-1393.0,-836.0,-892.0,84.0,0.0,0.0,0.0
19:32:11.308000,257.0,426.0,-1394.0,-836.0,-892.0,84.0,0.0,0.0,0.0
19:32:11.313000,256.0,417.0,-1328.0,-719.0,-704.0,68.0,0.0,0.0,0.0
19:32:11.318000,260.0,403.0,-1295.0,-719.0,-704.0,68.0,0.0,0.0,0.0
19:32:11.323000,315.0,374.0,-1260.0,-752.0,-479.0,46.0,0.0,0.0,0.0
19:32:11.327000,355.0,319.0,-1144.0,-752.0,-479.0,46.0,0.0,0.0,0.0
19:32:11.331000,340.0,313.0,-985.0,-927.0,-365.0,18.0,0.0,0.0,0.0
19:32:11.337000,327.0,282.0,-864.0,-927.0,-365.0,18.0,0.0,0.0,0.0
19:32:11.341000,289.0,274.0,-754.0,-1065.0,-248.0,2.0,0.0,0.0,0.0
19:32:11.346000,208.0,287.0,-651.0,-1065.0,-248.0,2.0,0.0,0.0,0.0
19:32:11.351000,175.0,296.0,-612.0,-1240.0,-126.0,-12.0,0.0,0.0,0.0
19:32:11.355000,134.0,297.0,-640.0,-1240.0,-126.0,-12.0,0.0,0.0,0.0
19:32:11.360000,126.0,288.0,-697.0,-1352.0,-193.0,-34.0,0.0,0.0,0.0
19:32:11.365000,122.0,275.0,-735.0,-1352.0,-193.0,-34.0,0.0,0.0,0.0
19:32:11.370000,150.0,250.0,-756.0,-1352.0,-193.0,-34.0,0.0,0.0,0.0
19:32:11.374000,161.0,235.0,-757.0,-1270.0,-329.0,-60.0,0.0,0.0,0.0
19:32:11.379000,180.0,224.0,-750.0,-1270.0,-329.0,-60.0,0.0,0.0,0.0
19:32:11.384000,203.0,210.0,-718.0,-1100.0,-341.0,-82.0,0.0,0.0,0.0
19:32:11.388000,210.0,200.0,-675.0,-1100.0,-341.0,-82.0,0.0,0.0,0.0
19:32:11.393000,209.0,188.0,-634.0,-1045.0,-234.0,-107.0,0.0,0.0,0.0
19:32:11.398000,205.0,177.0,-603.0,-1045.0,-234.0,-107.0,0.0,0.0,0.0
19:32:11.402000,193.0,172.0,-598.0,-1112.0,-149.0,-132.0,0.0,0.0,0.0
19:32:11.407000,178.0,173.0,-604.0,-1112.0,-149.0,-132.0,0.0,0.0,0.0
19:32:11.412000,178.0,173.0,-604.0,-1206.0,-132.0,-155.0,0.0,0.0,0.0
19:32:11.417000,175.0,168.0,-604.0,-1206.0,-132.0,-155.0,0.0,0.0,0.0
19:32:11.421000,184.0,156.0,-590.0,-1283.0,-158.0,-174.0,0.0,0.0,0.0
19:32:11.426000,196.0,143.0,-571.0,-1283.0,-158.0,-174.0,0.0,0.0,0.0
19:32:11.431000,203.0,132.0,-543.0,-1311.0,-184.0,-182.0,0.0,0.0,0.0
19:32:11.435000,216.0,119.0,-515.0,-1311.0,-184.0,-182.0,0.0,0.0,0.0
19:32:11.440000,214.0,114.0,-518.0,-1306.0,-144.0,-183.0,0.0,0.0,0.0
19:32:11.445000,212.0,107.0,-538.0,-1306.0,-144.0,-183.0,0.0,0.0,0.0
19:32:11.449000,204.0,102.0,-545.0,-1288.0,-62.0,-179.0,0.0,0.0,0.0
19:32:11.454000,192.0,96.0,-536.0,-1288.0,-62.0,-179.0,0.0,0.0,0.0
19:32:11.459000,179.0,91.0,-514.0,-1266.0,-4.0,-167.0,0.0,0.0,0.0
19:32:11.464000,154.0,86.0,-503.0,-1266.0,-4.0,-167.0,0.0,0.0,0.0
19:32:11.468000,121.0,84.0,-504.0,-1259.0,33.0,-156.0,0.0,0.0,0.0
19:32:11.473000,94.0,78.0,-497.0,-1259.0,33.0,-156.0,0.0,0.0,0.0
19:32:11.478000,65.0,72.0,-465.0,-1259.0,33.0,-156.0,0.0,0.0,0.0
19:32:11.482000,43.0,65.0,-427.0,-1245.0,38.0,-148.0,0.0,0.0,0.0
19:32:11.487000,31.0,56.0,-393.0,-1245.0,38.0,-148.0,0.0,0.0,0.0
19:32:11.492000,23.0,48.0,-370.0,-1238.0,20.0,-143.0,0.0,0.0,0.0
19:32:11.496000,12.0,44.0,-366.0,-1238.0,20.0,-143.0,0.0,0.0,0.0
19:32:11.501000,6.0,42.0,-371.0,-1255.0,31.0,-140.0,0.0,0.0,0.0
19:32:11.506000,-4.0,43.0,-360.0,-1255.0,31.0,-140.0,0.0,0.0,0.0
19:32:11.511000,-11.0,39.0,-352.0,-1266.0,47.0,-131.0,0.0,0.0,0.0
19:32:11.515000,-18.0,39.0,-358.0,-1266.0,47.0,-131.0,0.0,0.0,0.0
19:32:11.520000,-6.0,35.0,-367.0,-1276.0,51.0,-126.0,0.0,0.0,0.0
19:32:11.525000,-6.0,35.0,-367.0,-1276.0,51.0,-126.0,0.0,0.0,0.0
19:32:11.529000,7.0,42.0,-367.0,-1256.0,30.0,-127.0,0.0,0.0,0.0
19:32:11.534000,28.0,52.0,-364.0,-1256.0,30.0,-127.0,0.0,0.0,0.0
19:32:11.539000,53.0,63.0,-356.0,-1240.0,3.0,-126.0,0.0,0.0,0.0
19:32:11.543000,78.0,74.0,-321.0,-1240.0,3.0,-126.0,0.0,0.0,0.0
19:32:11.548000,99.0,74.0,-295.0,-1279.0,-8.0,-128.0,0.0,0.0,0.0
19:32:11.553000,104.0,81.0,-290.0,-1279.0,-8.0,-128.0,0.0,0.0,0.0
19:32:11.558000,105.0,86.0,-276.0,-1288.0,-2.0,-128.0,0.0,0.0,0.0
19:32:11.562000,107.0,98.0,-281.0,-1288.0,-2.0,-128.0,0.0,0.0,0.0
19:32:11.566000,109.0,115.0,-270.0,-1271.0,-1.0,-119.0,0.0,0.0,0.0
19:32:11.572000,111.0,121.0,-252.0,-1271.0,-1.0,-119.0,0.0,0.0,0.0
19:32:11.576000,119.0,131.0,-235.0,-1255.0,-10.0,-120.0,0.0,0.0,0.0
19:32:11.581000,115.0,131.0,-215.0,-1255.0,-10.0,-120.0,0.0,0.0,0.0
19:32:11.586000,130.0,135.0,-253.0,-1255.0,-10.0,-120.0,0.0,0.0,0.0
19:32:11.590000,133.0,125.0,-262.0,-1187.0,-5.0,-134.0,0.0,0.0,0.0
19:32:11.595000,116.0,121.0,-249.0,-1071.0,-10.0,-137.0,0.0,0.0,0.0
19:32:11.600000,109.0,126.0,-297.0,-1071.0,-10.0,-137.0,0.0,0.0,0.0
19:32:11.605000,98.0,128.0,-364.0,-1071.0,-10.0,-137.0,0.0,0.0,0.0
19:32:11.609000,84.0,126.0,-412.0,-1016.0,-3.0,-141.0,0.0,0.0,0.0
19:32:11.614000,56.0,115.0,-433.0,-1016.0,-3.0,-141.0,0.0,0.0,0.0
19:32:11.619000,0.0,107.0,-432.0,-991.0,12.0,-150.0,0.0,0.0,0.0
19:32:11.623000,-37.0,97.0,-433.0,-991.0,12.0,-150.0,0.0,0.0,0.0
19:32:11.628000,-46.0,99.0,-431.0,-902.0,60.0,-155.0,0.0,0.0,0.0
19:32:11.633000,-46.0,99.0,-431.0,-902.0,60.0,-155.0,0.0,0.0,0.0
19:32:11.637000,-31.0,78.0,-410.0,-865.0,51.0,-163.0,0.0,0.0,0.0
19:32:11.642000,-37.0,54.0,-388.0,-865.0,51.0,-163.0,0.0,0.0,0.0
19:32:11.647000,-41.0,44.0,-401.0,-893.0,77.0,-162.0,0.0,0.0,0.0
19:32:11.652000,-49.0,43.0,-413.0,-893.0,77.0,-162.0,0.0,0.0,0.0
19:32:11.656000,-61.0,46.0,-394.0,-962.0,159.0,-157.0,0.0,0.0,0.0
19:32:11.661000,-72.0,51.0,-367.0,-962.0,159.0,-157.0,0.0,0.0,0.0
19:32:11.666000,-77.0,55.0,-345.0,-1022.0,132.0,-149.0,0.0,0.0,0.0
19:32:11.670000,-74.0,61.0,-312.0,-1022.0,132.0,-149.0,0.0,0.0,0.0
19:32:11.675000,-67.0,68.0,-272.0,-1009.0,106.0,-134.0,0.0,0.0,0.0
19:32:11.680000,-73.0,79.0,-250.0,-1009.0,106.0,-134.0,0.0,0.0,0.0
19:32:11.684000,-79.0,88.0,-252.0,-980.0,149.0,-114.0,0.0,0.0,0.0
19:32:11.689000,-74.0,103.0,-252.0,-980.0,149.0,-114.0,0.0,0.0,0.0
19:32:11.694000,-72.0,118.0,-244.0,-980.0,149.0,-114.0,0.0,0.0,0.0
19:32:11.699000,-63.0,133.0,-248.0,-994.0,186.0,-98.0,0.0,0.0,0.0
19:32:11.703000,-42.0,134.0,-263.0,-994.0,186.0,-98.0,0.0,0.0,0.0
19:32:11.708000,-11.0,141.0,-258.0,-1072.0,213.0,-101.0,0.0,0.0,0.0
19:32:11.713000,5.0,144.0,-196.0,-1072.0,213.0,-101.0,0.0,0.0,0.0
19:32:11.717000,18.0,144.0,-101.0,-1124.0,265.0,-105.0,0.0,0.0,0.0
19:32:11.722000,-1.0,151.0,-21.0,-1124.0,265.0,-105.0,0.0,0.0,0.0
19:32:11.727000,-2.0,136.0,26.0,-1138.0,334.0,-100.0,0.0,0.0,0.0
19:32:11.731000,-24.0,145.0,54.0,-1138.0,334.0,-100.0,0.0,0.0,0.0
19:32:11.736000,-30.0,143.0,44.0,-1176.0,397.0,-108.0,0.0,0.0,0.0
19:32:11.741000,-30.0,143.0,44.0,-1176.0,397.0,-108.0,0.0,0.0,0.0
19:32:11.746000,-44.0,140.0,16.0,-1226.0,405.0,-129.0,0.0,0.0,0.0
19:32:11.750000,-57.0,156.0,19.0,-1226.0,405.0,-129.0,0.0,0.0,0.0
19:32:11.755000,-70.0,170.0,14.0,-1274.0,388.0,-151.0,0.0,0.0,0.0
19:32:11.760000,-68.0,179.0,-23.0,-1274.0,388.0,-151.0,0.0,0.0,0.0
19:32:11.764000,-93.0,208.0,-7.0,-1302.0,343.0,-175.0,0.0,0.0,0.0
19:32:11.769000,-132.0,242.0,45.0,-1302.0,343.0,-175.0,0.0,0.0,0.0
19:32:11.774000,-158.0,255.0,56.0,-1302.0,304.0,-193.0,0.0,0.0,0.0
19:32:11.778000,-175.0,273.0,9.0,-1302.0,304.0,-193.0,0.0,0.0,0.0
19:32:11.783000,-183.0,284.0,-53.0,-1309.0,298.0,-218.0,0.0,0.0,0.0
19:32:11.788000,-163.0,270.0,-93.0,-1309.0,298.0,-218.0,0.0,0.0,0.0
19:32:11.793000,-128.0,263.0,-115.0,-1302.0,263.0,-269.0,0.0,0.0,0.0
19:32:11.797000,-88.0,264.0,-116.0,-1302.0,263.0,-269.0,0.0,0.0,0.0
19:32:11.801000,-48.0,252.0,-140.0,-1286.0,244.0,-322.0,0.0,0.0,0.0
19:32:11.807000,-30.0,221.0,-156.0,-1286.0,244.0,-322.0,0.0,0.0,0.0
19:32:11.811000,-34.0,217.0,-142.0,-1286.0,244.0,-322.0,0.0,0.0,0.0
19:32:11.816000,-30.0,191.0,-130.0,-1225.0,318.0,-362.0,0.0,0.0,0.0
19:32:11.821000,-63.0,158.0,-109.0,-1225.0,318.0,-362.0,0.0,0.0,0.0
19:32:11.825000,-99.0,153.0,-39.0,-1133.0,433.0,-384.0,0.0,0.0,0.0
19:32:11.830000,-124.0,134.0,3.0,-1133.0,433.0,-384.0,0.0,0.0,0.0
19:32:11.835000,-144.0,121.0,-1.0,-1074.0,472.0,-381.0,0.0,0.0,0.0
19:32:11.840000,-141.0,109.0,-55.0,-1074.0,472.0,-381.0,0.0,0.0,0.0
19:32:11.844000,-110.0,103.0,-51.0,-1016.0,397.0,-372.0,0.0,0.0,0.0
19:32:11.849000,-35.0,70.0,-57.0,-1016.0,397.0,-372.0,0.0,0.0,0.0
19:32:11.854000,-35.0,70.0,-57.0,-969.0,288.0,-345.0,0.0,0.0,0.0
19:32:11.858000,14.0,39.0,-79.0,-969.0,288.0,-345.0,0.0,0.0,0.0
19:32:11.863000,70.0,46.0,-92.0,-937.0,254.0,-327.0,0.0,0.0,0.0
19:32:11.868000,112.0,51.0,-58.0,-937.0,254.0,-327.0,0.0,0.0,0.0
19:32:11.872000,138.0,31.0,0.0,-930.0,253.0,-293.0,0.0,0.0,0.0
19:32:11.877000,134.0,23.0,-1.0,-930.0,253.0,-293.0,0.0,0.0,0.0
19:32:11.882000,174.0,9.0,-98.0,-921.0,327.0,-260.0,0.0,0.0,0.0
19:32:11.887000,189.0,-11.0,-218.0,-921.0,327.0,-260.0,0.0,0.0,0.0
19:32:11.891000,211.0,-26.0,-302.0,-849.0,448.0,-261.0,0.0,0.0,0.0
19:32:11.896000,225.0,-44.0,-337.0,-849.0,448.0,-261.0,0.0,0.0,0.0
19:32:11.901000,252.0,-76.0,-342.0,-803.0,461.0,-256.0,0.0,0.0,0.0
19:32:11.905000,283.0,-100.0,-337.0,-803.0,461.0,-256.0,0.0,0.0,0.0
19:32:11.910000,273.0,-105.0,-318.0,-849.0,449.0,-243.0,0.0,0.0,0.0
19:32:11.915000,263.0,-93.0,-334.0,-849.0,449.0,-243.0,0.0,0.0,0.0
19:32:11.919000,270.0,-108.0,-407.0,-849.0,449.0,-243.0,0.0,0.0,0.0
19:32:11.924000,259.0,-116.0,-486.0,-878.0,527.0,-217.0,0.0,0.0,0.0
19:32:11.929000,250.0,-102.0,-549.0,-878.0,527.0,-217.0,0.0,0.0,0.0
19:32:11.934000,245.0,-96.0,-551.0,-851.0,579.0,-188.0,0.0,0.0,0.0
19:32:11.938000,252.0,-87.0,-499.0,-851.0,579.0,-188.0,0.0,0.0,0.0
19:32:11.943000,254.0,-74.0,-401.0,-856.0,523.0,-166.0,0.0,0.0,0.0
19:32:11.947000,254.0,-74.0,-401.0,-856.0,523.0,-166.0,0.0,0.0,0.0
19:32:11.952000,251.0,-60.0,-254.0,-953.0,433.0,-143.0,0.0,0.0,0.0
19:32:11.957000,243.0,-49.0,-414.0,-953.0,433.0,-143.0,0.0,0.0,0.0
19:32:11.962000,243.0,-49.0,-414.0,-990.0,489.0,-123.0,0.0,0.0,0.0
19:32:11.966000,271.0,-70.0,-526.0,-990.0,489.0,-123.0,0.0,0.0,0.0
19:32:11.971000,290.0,-82.0,-441.0,-775.0,616.0,-109.0,0.0,0.0,0.0
19:32:11.976000,264.0,-102.0,-216.0,-775.0,616.0,-109.0,0.0,0.0,0.0
19:32:11.981000,202.0,-118.0,-51.0,-618.0,665.0,-86.0,0.0,0.0,0.0
19:32:11.985000,93.0,-132.0,-25.0,-618.0,665.0,-86.0,0.0,0.0,0.0
19:32:11.990000,6.0,-120.0,-104.0,-701.0,768.0,-65.0,0.0,0.0,0.0
19:32:11.995000,-85.0,-87.0,-200.0,-701.0,768.0,-65.0,0.0,0.0,0.0
19:32:11.999000,-151.0,-60.0,-247.0,-670.0,760.0,-60.0,0.0,0.0,0.0
19:32:12.004000,-214.0,-30.0,-191.0,-670.0,760.0,-60.0,0.0,0.0,0.0
19:32:12.009000,-270.0,13.0,-152.0,-571.0,578.0,-80.0,0.0,0.0,0.0
19:32:12.013000,-259.0,44.0,-180.0,-571.0,578.0,-80.0,0.0,0.0,0.0
19:32:12.018000,-247.0,67.0,-207.0,-607.0,369.0,-133.0,0.0,0.0,0.0
19:32:12.023000,-219.0,109.0,-278.0,-607.0,369.0,-133.0,0.0,0.0,0.0
19:32:12.028000,-159.0,117.0,-340.0,-607.0,369.0,-133.0,0.0,0.0,0.0
19:32:12.032000,-100.0,108.0,-333.0,-635.0,190.0,-192.0,0.0,0.0,0.0
19:32:12.036000,-46.0,105.0,-326.0,-635.0,190.0,-192.0,0.0,0.0,0.0
19:32:12.042000,4.0,90.0,-331.0,-581.0,101.0,-229.0,0.0,0.0,0.0
19:32:12.046000,39.0,65.0,-320.0,-581.0,101.0,-229.0,0.0,0.0,0.0
19:32:12.051000,72.0,30.0,-310.0,-512.0,130.0,-238.0,0.0,0.0,0.0
19:32:12.056000,95.0,-5.0,-298.0,-512.0,130.0,-238.0,0.0,0.0,0.0
19:32:12.060000,105.0,-37.0,-277.0,-457.0,270.0,-224.0,0.0,0.0,0.0
19:32:12.065000,97.0,-65.0,-264.0,-457.0,270.0,-224.0,0.0,0.0,0.0
19:32:12.070000,97.0,-65.0,-264.0,-442.0,446.0,-187.0,0.0,0.0,0.0
19:32:12.075000,70.0,-91.0,-235.0,-442.0,446.0,-187.0,0.0,0.0,0.0
19:32:12.079000,43.0,-109.0,-165.0,-466.0,538.0,-131.0,0.0,0.0,0.0
19:32:12.084000,16.0,-121.0,-81.0,-466.0,538.0,-131.0,0.0,0.0,0.0
19:32:12.089000,-8.0,-126.0,-19.0,-544.0,531.0,-80.0,0.0,0.0,0.0
19:32:12.093000,-37.0,-125.0,25.0,-544.0,531.0,-80.0,0.0,0.0,0.0
19:32:12.098000,-73.0,-122.0,76.0,-667.0,512.0,-36.0,0.0,0.0,0.0
19:32:12.103000,-110.0,-118.0,149.0,-667.0,512.0,-36.0,0.0,0.0,0.0
19:32:12.107000,-147.0,-109.0,209.0,-769.0,484.0,0.0,0.0,0.0,0.0
19:32:12.112000,-180.0,-99.0,238.0,-769.0,484.0,0.0,0.0,0.0,0.0
19:32:12.117000,-207.0,-84.0,265.0,-828.0,404.0,28.0,0.0,0.0,0.0
19:32:12.122000,-225.0,-74.0,295.0,-828.0,404.0,28.0,0.0,0.0,0.0
19:32:12.126000,-229.0,-68.0,307.0,-823.0,273.0,45.0,0.0,0.0,0.0
19:32:12.131000,-230.0,-59.0,308.0,-823.0,273.0,45.0,0.0,0.0,0.0
19:32:12.136000,-227.0,-57.0,316.0,-823.0,273.0,45.0,0.0,0.0,0.0
19:32:12.140000,-219.0,-55.0,321.0,-765.0,129.0,44.0,0.0,0.0,0.0
19:32:12.145000,-212.0,-52.0,305.0,-765.0,129.0,44.0,0.0,0.0,0.0
19:32:12.150000,-214.0,-49.0,302.0,-700.0,35.0,24.0,0.0,0.0,0.0
19:32:12.154000,-228.0,-38.0,307.0,-700.0,35.0,24.0,0.0,0.0,0.0
19:32:12.159000,-240.0,-26.0,313.0,-620.0,-14.0,6.0,0.0,0.0,0.0
19:32:12.164000,-249.0,-17.0,303.0,-620.0,-14.0,6.0,0.0,0.0,0.0
19:32:12.169000,-247.0,-12.0,277.0,-540.0,-75.0,-10.0,0.0,0.0,0.0
19:32:12.173000,-231.0,-11.0,235.0,-540.0,-75.0,-10.0,0.0,0.0,0.0
19:32:12.178000,-210.0,-18.0,196.0,-505.0,-132.0,-39.0,0.0,0.0,0.0
19:32:12.183000,-210.0,-18.0,196.0,-505.0,-132.0,-39.0,0.0,0.0,0.0
19:32:12.187000,-186.0,-27.0,172.0,-523.0,-138.0,-74.0,0.0,0.0,0.0
19:32:12.191000,-163.0,-37.0,154.0,-523.0,-138.0,-74.0,0.0,0.0,0.0
19:32:12.197000,-142.0,-48.0,154.0,-559.0,-105.0,-105.0,0.0,0.0,0.0
19:32:12.201000,-126.0,-61.0,175.0,-559.0,-105.0,-105.0,0.0,0.0,0.0
19:32:12.206000,-116.0,-69.0,214.0,-581.0,-77.0,-121.0,0.0,0.0,0.0
19:32:12.211000,-121.0,-71.0,256.0,-581.0,-77.0,-121.0,0.0,0.0,0.0
19:32:12.216000,-135.0,-72.0,287.0,-574.0,-90.0,-117.0,0.0,0.0,0.0
19:32:12.220000,-141.0,-77.0,310.0,-574.0,-90.0,-117.0,0.0,0.0,0.0
19:32:12.225000,-140.0,-84.0,315.0,-571.0,-138.0,-118.0,0.0,0.0,0.0
19:32:12.230000,-135.0,-94.0,292.0,-571.0,-138.0,-118.0,0.0,0.0,0.0
19:32:12.234000,-128.0,-101.0,242.0,-647.0,-133.0,-130.0,0.0,0.0,0.0
19:32:12.239000,-119.0,-107.0,180.0,-647.0,-133.0,-130.0,0.0,0.0,0.0
19:32:12.244000,-104.0,-114.0,130.0,-647.0,-133.0,-130.0,0.0,0.0,0.0
19:32:12.248000,-77.0,-131.0,98.0,-739.0,-119.0,-140.0,0.0,0.0,0.0
19:32:12.253000,-49.0,-150.0,88.0,-765.0,-144.0,-150.0,0.0,0.0,0.0
19:32:12.258000,-26.0,-173.0,104.0,-765.0,-144.0,-150.0,0.0,0.0,0.0
19:32:12.263000,-14.0,-196.0,133.0,-765.0,-144.0,-150.0,0.0,0.0,0.0
19:32:12.267000,-16.0,-217.0,166.0,-756.0,-125.0,-148.0,0.0,0.0,0.0
19:32:12.271000,-23.0,-245.0,191.0,-756.0,-125.0,-148.0,0.0,0.0,0.0
19:32:12.277000,-30.0,-276.0,230.0,-700.0,-60.0,-126.0,0.0,0.0,0.0
19:32:12.281000,-51.0,-312.0,281.0,-700.0,-60.0,-126.0,0.0,0.0,0.0
19:32:12.286000,-70.0,-346.0,320.0,-631.0,-7.0,-96.0,0.0,0.0,0.0
19:32:12.291000,-70.0,-346.0,320.0,-631.0,-7.0,-96.0,0.0,0.0,0.0
19:32:12.295000,-93.0,-378.0,339.0,-631.0,49.0,-64.0,0.0,0.0,0.0
19:32:12.300000,-124.0,-412.0,372.0,-631.0,49.0,-64.0,0.0,0.0,0.0
19:32:12.305000,-150.0,-441.0,434.0,-653.0,83.0,-40.0,0.0,0.0,0.0
19:32:12.310000,-170.0,-469.0,495.0,-653.0,83.0,-40.0,0.0,0.0,0.0
19:32:12.314000,-187.0,-498.0,567.0,-662.0,64.0,-30.0,0.0,0.0,0.0
19:32:12.319000,-203.0,-532.0,658.0,-662.0,64.0,-30.0,0.0,0.0,0.0
19:32:12.323000,-207.0,-568.0,766.0,-664.0,4.0,-24.0,0.0,0.0,0.0
19:32:12.328000,-200.0,-603.0,886.0,-664.0,4.0,-24.0,0.0,0.0,0.0
19:32:12.333000,-189.0,-634.0,1018.0,-639.0,-71.0,-23.0,0.0,0.0,0.0
19:32:12.338000,-179.0,-667.0,1150.0,-639.0,-71.0,-23.0,0.0,0.0,0.0
19:32:12.342000,-169.0,-696.0,1276.0,-607.0,-94.0,-19.0,0.0,0.0,0.0
19:32:12.347000,-163.0,-725.0,1402.0,-607.0,-94.0,-19.0,0.0,0.0,0.0
19:32:12.352000,-156.0,-753.0,1523.0,-607.0,-94.0,-19.0,0.0,0.0,0.0
19:32:12.357000,-149.0,-781.0,1635.0,-576.0,-81.0,-8.0,0.0,0.0,0.0
19:32:12.361000,-147.0,-805.0,1737.0,-576.0,-81.0,-8.0,0.0,0.0,0.0
19:32:12.366000,-156.0,-822.0,1829.0,-547.0,-68.0,9.0,0.0,0.0,0.0
19:32:12.371000,-177.0,-826.0,1917.0,-547.0,-45.0,9.0,0.0,0.0,0.0
19:32:12.375000,-208.0,-816.0,1997.0,-531.0,-45.0,36.0,0.0,0.0,0.0
19:32:12.380000,-239.0,-798.0,2054.0,-531.0,-45.0,36.0,0.0,0.0,0.0
19:32:12.385000,-258.0,-775.0,2083.0,-525.0,-56.0,64.0,0.0,0.0,0.0
19:32:12.389000,-270.0,-751.0,2102.0,-525.0,-56.0,64.0,0.0,0.0,0.0
19:32:12.394000,-274.0,-725.0,2126.0,-525.0,-142.0,75.0,0.0,0.0,0.0
19:32:12.399000,-274.0,-725.0,2126.0,-525.0,-142.0,75.0,0.0,0.0,0.0
19:32:12.404000,-275.0,-695.0,2159.0,-533.0,-242.0,72.0,0.0,0.0,0.0
19:32:12.408000,-278.0,-669.0,2195.0,-533.0,-242.0,72.0,0.0,0.0,0.0
19:32:12.413000,-276.0,-648.0,2232.0,-535.0,-305.0,60.0,0.0,0.0,0.0
19:32:12.418000,-270.0,-632.0,2275.0,-535.0,-305.0,60.0,0.0,0.0,0.0
19:32:12.422000,-263.0,-628.0,2326.0,-494.0,-382.0,59.0,0.0,0.0,0.0
19:32:12.427000,-248.0,-627.0,2384.0,-494.0,-382.0,59.0,0.0,0.0,0.0
19:32:12.432000,-230.0,-625.0,2434.0,-435.0,-507.0,76.0,0.0,0.0,0.0
19:32:12.436000,-205.0,-623.0,2458.0,-435.0,-507.0,76.0,0.0,0.0,0.0
19:32:12.441000,-177.0,-621.0,2430.0,-468.0,-580.0,91.0,0.0,0.0,0.0
19:32:12.446000,-153.0,-613.0,2341.0,-468.0,-580.0,91.0,0.0,0.0,0.0
19:32:12.451000,-142.0,-598.0,2210.0,-598.0,-487.0,97.0,0.0,0.0,0.0
19:32:12.455000,-142.0,-576.0,2059.0,-598.0,-487.0,97.0,0.0,0.0,0.0
19:32:12.460000,-147.0,-547.0,1888.0,-598.0,-307.0,109.0,0.0,0.0,0.0
19:32:12.465000,-149.0,-511.0,1708.0,-706.0,-307.0,109.0,0.0,0.0,0.0
19:32:12.469000,-143.0,-471.0,1533.0,-706.0,-307.0,109.0,0.0,0.0,0.0
19:32:12.474000,-133.0,-430.0,1379.0,-725.0,-167.0,121.0,0.0,0.0,0.0
19:32:12.479000,-120.0,-390.0,1269.0,-725.0,-167.0,121.0,0.0,0.0,0.0
19:32:12.483000,-98.0,-351.0,1215.0,-683.0,-109.0,112.0,0.0,0.0,0.0
19:32:12.488000,-67.0,-312.0,1215.0,-683.0,-109.0,112.0,0.0,0.0,0.0
19:32:12.493000,-32.0,-277.0,1250.0,-632.0,-168.0,84.0,0.0,0.0,0.0
19:32:12.498000,4.0,-245.0,1292.0,-632.0,-168.0,84.0,0.0,0.0,0.0
19:32:12.502000,43.0,-216.0,1323.0,-625.0,-274.0,42.0,0.0,0.0,0.0
19:32:12.506000,43.0,-216.0,1323.0,-625.0,-274.0,42.0,0.0,0.0,0.0
19:32:12.512000,79.0,-182.0,1335.0,-705.0,-319.0,-13.0,0.0,0.0,0.0
19:32:12.516000,102.0,-147.0,1325.0,-705.0,-319.0,-13.0,0.0,0.0,0.0
19:32:12.521000,113.0,-114.0,1296.0,-828.0,-336.0,-61.0,0.0,0.0,0.0
19:32:12.526000,123.0,-89.0,1267.0,-828.0,-336.0,-61.0,0.0,0.0,0.0
19:32:12.530000,130.0,-69.0,1246.0,-891.0,-456.0,-73.0,0.0,0.0,0.0
19:32:12.535000,172.0,-46.0,1192.0,-891.0,-456.0,-73.0,0.0,0.0,0.0
19:32:12.540000,229.0,-40.0,1052.0,-960.0,-584.0,-72.0,0.0,0.0,0.0
19:32:12.545000,262.0,-63.0,935.0,-960.0,-584.0,-72.0,0.0,0.0,0.0
19:32:12.549000,275.0,-67.0,898.0,-947.0,-599.0,-73.0,0.0,0.0,0.0
19:32:12.554000,296.0,-72.0,845.0,-947.0,-599.0,-73.0,0.0,0.0,0.0
19:32:12.559000,303.0,-77.0,728.0,-895.0,-497.0,-59.0,0.0,0.0,0.0
19:32:12.563000,345.0,-16.0,371.0,-895.0,-497.0,-59.0,0.0,0.0,0.0
19:32:12.568000,345.0,-29.0,-360.0,-1596.0,-484.0,-8.0,0.0,0.0,0.0
19:32:12.573000,238.0,137.0,-534.0,-1596.0,-484.0,-8.0,0.0,0.0,0.0
19:32:12.577000,-92.0,307.0,490.0,-1596.0,-484.0,-8.0,0.0,0.0,0.0
19:32:12.582000,-592.0,352.0,1605.0,-2214.0,-778.0,155.0,0.0,0.0,0.0
19:32:12.587000,-298.0,205.0,1138.0,-2214.0,-778.0,155.0,0.0,0.0,0.0
19:32:12.592000,-16.0,-284.0,802.0,-939.0,-602.0,218.0,0.0,0.0,0.0
19:32:12.596000,-37.0,-168.0,177.0,-939.0,-602.0,218.0,0.0,0.0,0.0
19:32:12.601000,-136.0,-42.0,-274.0,140.0,-141.0,114.0,0.0,0.0,0.0
19:32:12.606000,-249.0,-16.0,-338.0,140.0,-141.0,114.0,0.0,0.0,0.0
19:32:12.610000,-319.0,-12.0,-248.0,-45.0,-301.0,141.0,0.0,0.0,0.0
19:32:12.615000,-259.0,-49.0,-126.0,-45.0,-301.0,141.0,0.0,0.0,0.0
19:32:12.620000,-259.0,-49.0,-126.0,-212.0,-659.0,199.0,0.0,0.0,0.0
19:32:12.624000,-175.0,-74.0,-162.0,-212.0,-659.0,199.0,0.0,0.0,0.0
19:32:12.629000,-140.0,-70.0,-149.0,-509.0,-758.0,161.0,0.0,0.0,0.0
19:32:12.634000,-140.0,-57.0,46.0,-509.0,-758.0,161.0,0.0,0.0,0.0
19:32:12.639000,-142.0,-37.0,200.0,-735.0,-678.0,113.0,0.0,0.0,0.0
19:32:12.643000,-54.0,-4.0,178.0,-735.0,-678.0,113.0,0.0,0.0,0.0
19:32:12.648000,4.0,23.0,107.0,-726.0,-587.0,95.0,0.0,0.0,0.0
19:32:12.653000,81.0,44.0,42.0,-726.0,-587.0,95.0,0.0,0.0,0.0
19:32:12.657000,156.0,39.0,93.0,-585.0,-549.0,126.0,0.0,0.0,0.0
19:32:12.661000,192.0,36.0,213.0,-585.0,-549.0,126.0,0.0,0.0,0.0
19:32:12.667000,238.0,14.0,314.0,-577.0,-456.0,151.0,0.0,0.0,0.0
19:32:12.671000,266.0,0.0,382.0,-577.0,-456.0,151.0,0.0,0.0,0.0
