hh:mm:ss.ms,gyroX[mdps],gyroY[mdps],gyroZ[mdps],accX[mg],accY[mg],accZ[mg],magX[mG],magY[mG],magZ[mG]
19:33:01.459000,294.0,-170.0,158.0,-1638.0,314.0,-335.0,0.0,0.0,0.0
19:33:01.464000,327.0,-189.0,208.0,-1638.0,314.0,-335.0,0.0,0.0,0.0
19:33:01.468000,320.0,-202.0,269.0,-1221.0,188.0,-308.0,0.0,0.0,0.0
19:33:01.473000,303.0,-181.0,161.0,-1221.0,188.0,-308.0,0.0,0.0,0.0
19:33:01.478000,303.0,-181.0,161.0,-1002.0,335.0,-269.0,0.0,0.0,0.0
19:33:01.483000,212.0,-139.0,-116.0,-1002.0,335.0,-269.0,0.0,0.0,0.0
19:33:01.487000,133.0,-122.0,-203.0,-916.0,385.0,-238.0,0.0,0.0,0.0
19:33:01.492000,120.0,-112.0,-113.0,-916.0,385.0,-238.0,0.0,0.0,0.0
19:33:01.497000,74.0,-95.0,-163.0,-1056.0,381.0,-226.0,0.0,0.0,0.0
19:33:01.501000,56.0,-77.0,-287.0,-1056.0,381.0,-226.0,0.0,0.0,0.0
19:33:01.506000,25.0,-69.0,-371.0,-1295.0,333.0,-222.0,0.0,0.0,0.0
19:33:01.511000,44.0,-58.0,-347.0,-1295.0,333.0,-222.0,0.0,0.0,0.0
19:33:01.515000,78.0,-59.0,-303.0,-1348.0,180.0,-224.0,0.0,0.0,0.0
19:33:01.520000,148.0,-58.0,-325.0,-1348.0,180.0,-224.0,0.0,0.0,0.0
19:33:01.525000,198.0,-60.0,-324.0,-1310.0,100.0,-210.0,0.0,0.0,0.0
19:33:01.530000,310.0,-69.0,-341.0,-1310.0,100.0,-210.0,0.0,0.0,0.0
19:33:01.534000,380.0,-55.0,-359.0,-1272.0,163.0,-193.0,0.0,0.0,0.0
19:33:01.539000,440.0,-35.0,-297.0,-1272.0,163.0,-193.0,0.0,0.0,0.0
19:33:01.544000,428.0,-19.0,-203.0,-1272.0,163.0,-193.0,0.0,0.0,0.0
19:33:01.548000,398.0,8.0,-146.0,-1264.0,346.0,-177.0,0.0,0.0,0.0
19:33:01.553000,320.0,31.0,-98.0,-1264.0,346.0,-177.0,0.0,0.0,0.0
19:33:01.558000,240.0,65.0,-117.0,-1309.0,528.0,-147.0,0.0,0.0,0.0
19:33:01.562000,148.0,92.0,-114.0,-1309.0,528.0,-147.0,0.0,0.0,0.0
19:33:01.567000,69.0,113.0,-119.0,-1343.0,657.0,-124.0,0.0,0.0,0.0
19:33:01.572000,-7.0,153.0,-184.0,-1343.0,657.0,-124.0,0.0,0.0,0.0
19:33:01.577000,-44.0,168.0,-239.0,-1279.0,646.0,-121.0,0.0,0.0,0.0
19:33:01.581000,-71.0,175.0,-279.0,-1279.0,646.0,-121.0,0.0,0.0,0.0
19:33:01.586000,-71.0,175.0,-279.0,-1092.0,534.0,-136.0,0.0,0.0,0.0
19:33:01.591000,-66.0,172.0,-296.0,-1092.0,534.0,-136.0,0.0,0.0,0.0
19:33:01.595000,-70.0,152.0,-355.0,-961.0,451.0,-155.0,0.0,0.0,0.0
19:33:01.600000,-52.0,130.0,-404.0,-961.0,451.0,-155.0,0.0,0.0,0.0
19:33:01.605000,-30.0,112.0,-401.0,-887.0,396.0,-181.0,0.0,0.0,0.0
19:33:01.609000,5.0,87.0,-330.0,-887.0,396.0,-181.0,0.0,0.0,0.0
19:33:01.614000,36.0,67.0,-291.0,-836.0,392.0,-211.0,0.0,0.0,0.0
19:33:01.619000,44.0,46.0,-295.0,-836.0,392.0,-211.0,0.0,0.0,0.0
19:33:01.624000,46.0,35.0,-305.0,-858.0,495.0,-224.0,0.0,0.0,0.0
19:33:01.628000,32.0,28.0,-306.0,-858.0,495.0,-224.0,0.0,0.0,0.0
19:33:01.633000,14.0,26.0,-280.0,-836.0,594.0,-221.0,0.0,0.0,0.0
19:33:01.638000,-8.0,26.0,-264.0,-836.0,594.0,-221.0,0.0,0.0,0.0
19:33:01.642000,-39.0,28.0,-270.0,-788.0,645.0,-213.0,0.0,0.0,0.0
19:33:01.647000,-75.0,36.0,-267.0,-788.0,645.0,-213.0,0.0,0.0,0.0
19:33:01.652000,-104.0,45.0,-259.0,-752.0,649.0,-210.0,0.0,0.0,0.0
19:33:01.656000,-117.0,51.0,-239.0,-752.0,649.0,-210.0,0.0,0.0,0.0
19:33:01.661000,-116.0,55.0,-228.0,-752.0,649.0,-210.0,0.0,0.0,0.0
19:33:01.666000,-96.0,52.0,-214.0,-710.0,568.0,-216.0,0.0,0.0,0.0
19:33:01.671000,-59.0,42.0,-199.0,-710.0,568.0,-216.0,0.0,0.0,0.0
19:33:01.675000,-8.0,27.0,-195.0,-657.0,437.0,-224.0,0.0,0.0,0.0
19:33:01.680000,51.0,8.0,-187.0,-657.0,437.0,-224.0,0.0,0.0,0.0
19:33:01.685000,112.0,-9.0,-186.0,-585.0,339.0,-223.0,0.0,0.0,0.0
19:33:01.689000,170.0,-27.0,-203.0,-585.0,339.0,-223.0,0.0,0.0,0.0
19:33:01.694000,350.0,-27.0,-203.0,-523.0,352.0,-216.0,0.0,0.0,0.0
19:33:01.699000,212.0,-43.0,-228.0,-523.0,352.0,-216.0,0.0,0.0,0.0
19:33:01.703000,235.0,-51.0,-245.0,-510.0,467.0,-200.0,0.0,0.0,0.0
19:33:01.708000,238.0,-57.0,-242.0,-510.0,467.0,-200.0,0.0,0.0,0.0
19:33:01.713000,232.0,-63.0,-226.0,-542.0,578.0,-167.0,0.0,0.0,0.0
19:33:01.718000,221.0,-66.0,-206.0,-542.0,578.0,-167.0,0.0,0.0,0.0
19:33:01.722000,207.0,-67.0,-179.0,-560.0,604.0,-128.0,0.0,0.0,0.0
19:33:01.727000,195.0,-68.0,-161.0,-560.0,604.0,-128.0,0.0,0.0,0.0
19:33:01.732000,182.0,-72.0,-148.0,-547.0,591.0,-92.0,0.0,0.0,0.0
19:33:01.736000,165.0,-75.0,-134.0,-547.0,591.0,-92.0,0.0,0.0,0.0
19:33:01.741000,147.0,-77.0,-126.0,-518.0,600.0,-65.0,0.0,0.0,0.0
19:33:01.746000,128.0,-73.0,-130.0,-518.0,600.0,-65.0,0.0,0.0,0.0
19:33:01.750000,101.0,-67.0,-133.0,-495.0,632.0,-50.0,0.0,0.0,0.0
19:33:01.755000,71.0,-58.0,-140.0,-495.0,632.0,-50.0,0.0,0.0,0.0
19:33:01.760000,35.0,-49.0,-157.0,-495.0,632.0,-50.0,0.0,0.0,0.0
19:33:01.765000,-3.0,-37.0,-177.0,-489.0,663.0,-42.0,0.0,0.0,0.0
19:33:01.769000,-41.0,-23.0,-191.0,-489.0,663.0,-42.0,0.0,0.0,0.0
19:33:01.773000,-77.0,-7.0,-196.0,-468.0,650.0,-40.0,0.0,0.0,0.0
19:33:01.779000,-107.0,9.0,-186.0,-468.0,650.0,-40.0,0.0,0.0,0.0
19:33:01.783000,-135.0,26.0,-167.0,-443.0,606.0,-52.0,0.0,0.0,0.0
19:33:01.788000,-159.0,42.0,-148.0,-443.0,606.0,-52.0,0.0,0.0,0.0
19:33:01.793000,-179.0,56.0,-130.0,-453.0,558.0,-80.0,0.0,0.0,0.0
19:33:01.797000,-190.0,64.0,-112.0,-453.0,558.0,-80.0,0.0,0.0,0.0
19:33:01.802000,-191.0,66.0,-92.0,-467.0,505.0,-111.0,0.0,0.0,0.0
19:33:01.807000,-191.0,66.0,-92.0,-467.0,505.0,-111.0,0.0,0.0,0.0
19:33:01.812000,-180.0,61.0,-63.0,-441.0,444.0,-133.0,0.0,0.0,0.0
19:33:01.816000,-160.0,49.0,-27.0,-441.0,444.0,-133.0,0.0,0.0,0.0
19:33:01.821000,-137.0,33.0,8.0,-404.0,411.0,-135.0,0.0,0.0,0.0
19:33:01.826000,-114.0,16.0,41.0,-404.0,411.0,-135.0,0.0,0.0,0.0
19:33:01.830000,-97.0,-1.0,72.0,-403.0,431.0,-122.0,0.0,0.0,0.0
19:33:01.835000,-91.0,-19.0,94.0,-403.0,431.0,-122.0,0.0,0.0,0.0
19:33:01.840000,-94.0,-34.0,118.0,-427.0,476.0,-107.0,0.0,0.0,0.0
19:33:01.844000,-102.0,-45.0,149.0,-427.0,476.0,-107.0,0.0,0.0,0.0
19:33:01.849000,-114.0,-56.0,175.0,-466.0,515.0,-99.0,0.0,0.0,0.0
19:33:01.854000,-128.0,-64.0,194.0,-466.0,515.0,-99.0,0.0,0.0,0.0
19:33:01.859000,-139.0,-70.0,214.0,-522.0,519.0,-98.0,0.0,0.0,0.0
19:33:01.863000,-144.0,-74.0,242.0,-522.0,519.0,-98.0,0.0,0.0,0.0
19:33:01.868000,-141.0,-74.0,275.0,-522.0,519.0,-98.0,0.0,0.0,0.0
19:33:01.873000,-135.0,-73.0,305.0,-584.0,462.0,-103.0,0.0,0.0,0.0
19:33:01.877000,-135.0,-68.0,331.0,-584.0,462.0,-103.0,0.0,0.0,0.0
19:33:01.882000,-141.0,-62.0,361.0,-641.0,402.0,-112.0,0.0,0.0,0.0
19:33:01.887000,-152.0,-56.0,393.0,-641.0,402.0,-112.0,0.0,0.0,0.0
19:33:01.891000,-164.0,-53.0,425.0,-680.0,352.0,-117.0,0.0,0.0,0.0
19:33:01.896000,-177.0,-51.0,447.0,-680.0,352.0,-117.0,0.0,0.0,0.0
19:33:01.901000,-189.0,-52.0,457.0,-678.0,249.0,-114.0,0.0,0.0,0.0
19:33:01.906000,-203.0,-58.0,451.0,-678.0,249.0,-114.0,0.0,0.0,0.0
19:33:01.910000,-216.0,-71.0,422.0,-641.0,135.0,-102.0,0.0,0.0,0.0
19:33:01.915000,-216.0,-71.0,422.0,-641.0,135.0,-102.0,0.0,0.0,0.0
19:33:01.920000,-224.0,-86.0,370.0,-601.0,67.0,-90.0,0.0,0.0,0.0
19:33:01.924000,-222.0,-107.0,308.0,-601.0,67.0,-90.0,0.0,0.0,0.0
19:33:01.929000,-212.0,-130.0,243.0,-607.0,20.0,-88.0,0.0,0.0,0.0
19:33:01.934000,-195.0,-155.0,179.0,-607.0,20.0,-88.0,0.0,0.0,0.0
19:33:01.938000,-174.0,-179.0,121.0,-664.0,-23.0,-95.0,0.0,0.0,0.0
19:33:01.943000,-152.0,-202.0,67.0,-664.0,-23.0,-95.0,0.0,0.0,0.0
19:33:01.948000,-136.0,-219.0,23.0,-714.0,-35.0,-99.0,0.0,0.0,0.0
19:33:01.953000,-129.0,-231.0,-9.0,-714.0,-35.0,-99.0,0.0,0.0,0.0
19:33:01.957000,-133.0,-235.0,-32.0,-743.0,6.0,-94.0,0.0,0.0,0.0
19:33:01.962000,-142.0,-228.0,-51.0,-743.0,6.0,-94.0,0.0,0.0,0.0
19:33:01.967000,-147.0,-216.0,-64.0,-781.0,41.0,-76.0,0.0,0.0,0.0
19:33:01.971000,-139.0,-196.0,-74.0,-781.0,41.0,-76.0,0.0,0.0,0.0
19:33:01.976000,-119.0,-170.0,-82.0,-781.0,10.0,-76.0,0.0,0.0,0.0
19:33:01.981000,-92.0,-140.0,-81.0,-832.0,13.0,-51.0,0.0,0.0,0.0
19:33:01.985000,-67.0,-107.0,-65.0,-832.0,13.0,-51.0,0.0,0.0,0.0
19:33:01.990000,-47.0,-77.0,-37.0,-881.0,-23.0,-20.0,0.0,0.0,0.0
19:33:01.995000,-42.0,-47.0,-12.0,-881.0,-23.0,-20.0,0.0,0.0,0.0
19:33:02.000000,-58.0,-21.0,5.0,-917.0,16.0,8.0,0.0,0.0,0.0
19:33:02.004000,-85.0,0.0,21.0,-917.0,16.0,8.0,0.0,0.0,0.0
19:33:02.009000,-112.0,19.0,29.0,-921.0,105.0,21.0,0.0,0.0,0.0
19:33:02.014000,-128.0,36.0,25.0,-921.0,105.0,21.0,0.0,0.0,0.0
19:33:02.018000,-123.0,49.0,16.0,-873.0,114.0,13.0,0.0,0.0,0.0
19:33:02.023000,-123.0,49.0,16.0,-873.0,114.0,13.0,0.0,0.0,0.0
19:33:02.028000,-106.0,62.0,4.0,-808.0,26.0,-24.0,0.0,0.0,0.0
19:33:02.032000,-74.0,73.0,-14.0,-808.0,26.0,-24.0,0.0,0.0,0.0
19:33:02.037000,-28.0,82.0,-35.0,-769.0,-75.0,-84.0,0.0,0.0,0.0
19:33:02.042000,23.0,88.0,-57.0,-769.0,-75.0,-84.0,0.0,0.0,0.0
19:33:02.047000,77.0,86.0,-78.0,-753.0,-115.0,-150.0,0.0,0.0,0.0
19:33:02.051000,124.0,77.0,-94.0,-753.0,-115.0,-150.0,0.0,0.0,0.0
19:33:02.056000,156.0,58.0,-102.0,-744.0,-48.0,-206.0,0.0,0.0,0.0
19:33:02.061000,177.0,30.0,-93.0,-744.0,-48.0,-206.0,0.0,0.0,0.0
19:33:02.065000,189.0,-7.0,-65.0,-721.0,55.0,-246.0,0.0,0.0,0.0
19:33:02.070000,188.0,-54.0,-20.0,-721.0,55.0,-246.0,0.0,0.0,0.0
19:33:02.075000,175.0,-112.0,42.0,-681.0,135.0,-266.0,0.0,0.0,0.0
19:33:02.079000,142.0,-172.0,113.0,-681.0,135.0,-266.0,0.0,0.0,0.0
19:33:02.084000,93.0,-234.0,182.0,-642.0,204.0,-256.0,0.0,0.0,0.0
19:33:02.089000,35.0,-298.0,238.0,-642.0,204.0,-256.0,0.0,0.0,0.0
19:33:02.094000,-23.0,-354.0,269.0,-642.0,204.0,-256.0,0.0,0.0,0.0
19:33:02.098000,-71.0,-398.0,284.0,-627.0,234.0,-222.0,0.0,0.0,0.0
19:33:02.103000,-105.0,-426.0,293.0,-627.0,234.0,-222.0,0.0,0.0,0.0
19:33:02.108000,-122.0,-438.0,304.0,-687.0,176.0,-187.0,0.0,0.0,0.0
19:33:02.112000,-124.0,-436.0,310.0,-687.0,176.0,-187.0,0.0,0.0,0.0
19:33:02.117000,-113.0,-421.0,304.0,-832.0,62.0,-146.0,0.0,0.0,0.0
19:33:02.122000,-95.0,-400.0,293.0,-832.0,62.0,-146.0,0.0,0.0,0.0
19:33:02.126000,-77.0,-371.0,288.0,-982.0,2.0,-98.0,0.0,0.0,0.0
19:33:02.131000,-65.0,-338.0,305.0,-982.0,2.0,-98.0,0.0,0.0,0.0
19:33:02.136000,-65.0,-338.0,305.0,-1075.0,19.0,-62.0,0.0,0.0,0.0
19:33:02.141000,-60.0,-305.0,342.0,-1075.0,19.0,-62.0,0.0,0.0,0.0
19:33:02.145000,-59.0,-271.0,389.0,-1110.0,29.0,-45.0,0.0,0.0,0.0
19:33:02.150000,-62.0,-242.0,443.0,-1110.0,29.0,-45.0,0.0,0.0,0.0
19:33:02.155000,-70.0,-221.0,491.0,-1076.0,23.0,-51.0,0.0,0.0,0.0
19:33:02.159000,-87.0,-212.0,522.0,-1076.0,23.0,-51.0,0.0,0.0,0.0
19:33:02.164000,-112.0,-211.0,534.0,-961.0,73.0,-79.0,0.0,0.0,0.0
19:33:02.169000,-140.0,-219.0,538.0,-961.0,73.0,-79.0,0.0,0.0,0.0
19:33:02.173000,-168.0,-234.0,547.0,-810.0,139.0,-116.0,0.0,0.0,0.0
19:33:02.178000,-189.0,-254.0,567.0,-810.0,139.0,-116.0,0.0,0.0,0.0
19:33:02.183000,-197.0,-275.0,601.0,-697.0,127.0,-155.0,0.0,0.0,0.0
19:33:02.188000,-191.0,-298.0,646.0,-697.0,127.0,-155.0,0.0,0.0,0.0
19:33:02.192000,-175.0,-316.0,688.0,-652.0,51.0,-185.0,0.0,0.0,0.0
19:33:02.197000,-152.0,-331.0,739.0,-652.0,51.0,-185.0,0.0,0.0,0.0
19:33:02.202000,-123.0,-340.0,808.0,-652.0,51.0,-185.0,0.0,0.0,0.0
19:33:02.206000,-83.0,-341.0,872.0,-656.0,-49.0,-192.0,0.0,0.0,0.0
19:33:02.211000,-42.0,-337.0,918.0,-656.0,-49.0,-192.0,0.0,0.0,0.0
19:33:02.216000,-6.0,-325.0,930.0,-718.0,-143.0,-175.0,0.0,0.0,0.0
19:33:02.220000,18.0,-310.0,908.0,-718.0,-143.0,-175.0,0.0,0.0,0.0
19:33:02.225000,27.0,-296.0,864.0,-813.0,-153.0,-133.0,0.0,0.0,0.0
19:33:02.230000,30.0,-285.0,802.0,-813.0,-153.0,-133.0,0.0,0.0,0.0
19:33:02.235000,18.0,-275.0,716.0,-866.0,-66.0,-75.0,0.0,0.0,0.0
19:33:02.239000,-2.0,-267.0,632.0,-866.0,-66.0,-75.0,0.0,0.0,0.0
19:33:02.244000,-2.0,-267.0,632.0,-879.0,67.0,-15.0,0.0,0.0,0.0
19:33:02.249000,-29.0,-259.0,555.0,-879.0,67.0,-15.0,0.0,0.0,0.0
19:33:02.253000,-58.0,-249.0,487.0,-878.0,184.0,32.0,0.0,0.0,0.0
19:33:02.257000,-95.0,-239.0,426.0,-878.0,184.0,32.0,0.0,0.0,0.0
19:33:02.263000,-131.0,-230.0,378.0,-886.0,259.0,57.0,0.0,0.0,0.0
19:33:02.267000,-167.0,-219.0,352.0,-886.0,259.0,57.0,0.0,0.0,0.0
19:33:02.272000,-191.0,-211.0,341.0,-897.0,286.0,54.0,0.0,0.0,0.0
19:33:02.277000,-204.0,-206.0,340.0,-897.0,286.0,54.0,0.0,0.0,0.0
19:33:02.282000,-206.0,-203.0,343.0,-899.0,268.0,24.0,0.0,0.0,0.0
19:33:02.286000,-198.0,-200.0,350.0,-899.0,268.0,24.0,0.0,0.0,0.0
19:33:02.291000,-177.0,-193.0,361.0,-895.0,210.0,-13.0,0.0,0.0,0.0
19:33:02.296000,-150.0,-179.0,364.0,-895.0,210.0,-13.0,0.0,0.0,0.0
19:33:02.300000,-118.0,-163.0,361.0,-916.0,124.0,-51.0,0.0,0.0,0.0
19:33:02.305000,-78.0,-147.0,358.0,-916.0,124.0,-51.0,0.0,0.0,0.0
19:33:02.310000,-35.0,-134.0,351.0,-916.0,124.0,-51.0,0.0,0.0,0.0
19:33:02.314000,12.0,-119.0,345.0,-965.0,47.0,-73.0,0.0,0.0,0.0
19:33:02.319000,67.0,-102.0,343.0,-982.0,-29.0,-73.0,0.0,0.0,0.0
19:33:02.324000,132.0,-86.0,337.0,-982.0,-29.0,-73.0,0.0,0.0,0.0
19:33:02.329000,191.0,-72.0,324.0,-982.0,-29.0,-73.0,0.0,0.0,0.0
19:33:02.333000,232.0,-52.0,305.0,-938.0,-72.0,-65.0,0.0,0.0,0.0
19:33:02.338000,245.0,-28.0,287.0,-938.0,-72.0,-65.0,0.0,0.0,0.0
19:33:02.343000,237.0,-10.0,267.0,-867.0,16.0,-54.0,0.0,0.0,0.0
19:33:02.347000,221.0,9.0,256.0,-867.0,16.0,-54.0,0.0,0.0,0.0
19:33:02.352000,221.0,9.0,256.0,-797.0,147.0,-41.0,0.0,0.0,0.0
19:33:02.357000,200.0,27.0,245.0,-797.0,147.0,-41.0,0.0,0.0,0.0
19:33:02.361000,173.0,43.0,233.0,-726.0,189.0,-35.0,0.0,0.0,0.0
19:33:02.366000,141.0,60.0,233.0,-726.0,189.0,-35.0,0.0,0.0,0.0
19:33:02.371000,107.0,74.0,239.0,-664.0,198.0,-35.0,0.0,0.0,0.0
19:33:02.376000,66.0,86.0,244.0,-664.0,198.0,-35.0,0.0,0.0,0.0
19:33:02.380000,34.0,98.0,252.0,-620.0,232.0,-43.0,0.0,0.0,0.0
19:33:02.385000,7.0,105.0,242.0,-620.0,232.0,-43.0,0.0,0.0,0.0
19:33:02.390000,-23.0,115.0,236.0,-607.0,269.0,-55.0,0.0,0.0,0.0
19:33:02.394000,-38.0,120.0,261.0,-607.0,269.0,-55.0,0.0,0.0,0.0
19:33:02.399000,-32.0,120.0,298.0,-631.0,245.0,-62.0,0.0,0.0,0.0
19:33:02.404000,-25.0,126.0,345.0,-631.0,245.0,-62.0,0.0,0.0,0.0
19:33:02.408000,10.0,122.0,380.0,-675.0,169.0,-61.0,0.0,0.0,0.0
19:33:02.413000,60.0,120.0,407.0,-675.0,169.0,-61.0,0.0,0.0,0.0
19:33:02.418000,95.0,112.0,453.0,-675.0,169.0,-61.0,0.0,0.0,0.0
19:33:02.423000,123.0,118.0,520.0,-763.0,92.0,-56.0,0.0,0.0,0.0
19:33:02.427000,142.0,111.0,564.0,-763.0,92.0,-56.0,0.0,0.0,0.0
19:33:02.432000,163.0,124.0,655.0,-865.0,52.0,-32.0,0.0,0.0,0.0
19:33:02.437000,214.0,151.0,774.0,-865.0,52.0,-32.0,0.0,0.0,0.0
19:33:02.441000,192.0,182.0,697.0,-804.0,101.0,-6.0,0.0,0.0,0.0
19:33:02.446000,144.0,204.0,596.0,-804.0,101.0,-6.0,0.0,0.0,0.0
19:33:02.451000,87.0,223.0,539.0,-676.0,196.0,21.0,0.0,0.0,0.0
19:33:02.455000,36.0,243.0,527.0,-676.0,196.0,21.0,0.0,0.0,0.0
19:33:02.460000,4.0,253.0,515.0,-688.0,176.0,33.0,0.0,0.0,0.0
19:33:02.465000,4.0,253.0,515.0,-688.0,176.0,33.0,0.0,0.0,0.0
19:33:02.470000,5.0,263.0,457.0,-838.0,109.0,-15.0,0.0,0.0,0.0
19:33:02.474000,-3.0,270.0,401.0,-838.0,109.0,-15.0,0.0,0.0,0.0
19:33:02.479000,-23.0,268.0,393.0,-948.0,87.0,-97.0,0.0,0.0,0.0
19:33:02.484000,0.0,259.0,397.0,-948.0,87.0,-97.0,0.0,0.0,0.0
19:33:02.488000,26.0,246.0,307.0,-973.0,194.0,-191.0,0.0,0.0,0.0
19:33:02.493000,21.0,221.0,212.0,-973.0,194.0,-191.0,0.0,0.0,0.0
19:33:02.498000,-8.0,187.0,233.0,-988.0,383.0,-255.0,0.0,0.0,0.0
19:33:02.502000,-38.0,145.0,323.0,-988.0,383.0,-255.0,0.0,0.0,0.0
19:33:02.507000,-65.0,99.0,403.0,-1021.0,496.0,-284.0,0.0,0.0,0.0
19:33:02.512000,-109.0,51.0,446.0,-1021.0,496.0,-284.0,0.0,0.0,0.0
19:33:02.516000,-163.0,3.0,460.0,-1081.0,588.0,-292.0,0.0,0.0,0.0
19:33:02.521000,-216.0,-46.0,467.0,-1081.0,588.0,-292.0,0.0,0.0,0.0
19:33:02.526000,-233.0,-95.0,466.0,-1081.0,588.0,-292.0,0.0,0.0,0.0
19:33:02.531000,-252.0,-137.0,420.0,-1102.0,603.0,-275.0,0.0,0.0,0.0
19:33:02.535000,-261.0,-170.0,327.0,-1102.0,603.0,-275.0,0.0,0.0,0.0
19:33:02.540000,-250.0,-200.0,221.0,-1113.0,543.0,-258.0,0.0,0.0,0.0
19:33:02.545000,-219.0,-217.0,142.0,-1113.0,543.0,-258.0,0.0,0.0,0.0
19:33:02.549000,-174.0,-217.0,72.0,-1172.0,427.0,-277.0,0.0,0.0,0.0
19:33:02.554000,-120.0,-207.0,-23.0,-1172.0,427.0,-277.0,0.0,0.0,0.0
19:33:02.559000,-70.0,-186.0,-142.0,-1300.0,295.0,-289.0,0.0,0.0,0.0
19:33:02.563000,-21.0,-158.0,-268.0,-1300.0,295.0,-289.0,0.0,0.0,0.0
19:33:02.568000,3.0,-93.0,-444.0,-1452.0,266.0,-264.0,0.0,0.0,0.0
19:33:02.573000,3.0,-93.0,-444.0,-1452.0,266.0,-264.0,0.0,0.0,0.0
19:33:02.578000,61.0,-39.0,-623.0,-1614.0,258.0,-252.0,0.0,0.0,0.0
19:33:02.582000,105.0,5.0,-660.0,-1614.0,258.0,-252.0,0.0,0.0,0.0
19:33:02.587000,136.0,44.0,-565.0,-1655.0,126.0,-211.0,0.0,0.0,0.0
19:33:02.592000,177.0,75.0,-478.0,-1655.0,126.0,-211.0,0.0,0.0,0.0
19:33:02.596000,168.0,130.0,-490.0,-1445.0,119.0,-150.0,0.0,0.0,0.0
19:33:02.601000,228.0,165.0,-560.0,-1445.0,119.0,-150.0,0.0,0.0,0.0
19:33:02.606000,228.0,193.0,-647.0,-1221.0,311.0,-113.0,0.0,0.0,0.0
19:33:02.610000,225.0,219.0,-716.0,-1221.0,311.0,-113.0,0.0,0.0,0.0
19:33:02.615000,212.0,232.0,-752.0,-1180.0,302.0,-83.0,0.0,0.0,0.0
19:33:02.620000,166.0,242.0,-728.0,-1180.0,302.0,-83.0,0.0,0.0,0.0
19:33:02.625000,175.0,235.0,-686.0,-1206.0,79.0,-57.0,0.0,0.0,0.0
19:33:02.629000,165.0,228.0,-662.0,-1206.0,79.0,-57.0,0.0,0.0,0.0
19:33:02.634000,163.0,229.0,-623.0,-1206.0,79.0,-57.0,0.0,0.0,0.0
19:33:02.639000,155.0,223.0,-555.0,-1185.0,-78.0,-34.0,0.0,0.0,0.0
19:33:02.643000,144.0,218.0,-522.0,-1185.0,-78.0,-34.0,0.0,0.0,0.0
19:33:02.648000,133.0,213.0,-527.0,-1087.0,-138.0,-11.0,0.0,0.0,0.0
19:33:02.653000,102.0,200.0,-466.0,-1087.0,-138.0,-11.0,0.0,0.0,0.0
19:33:02.657000,89.0,194.0,-357.0,-917.0,-191.0,2.0,0.0,0.0,0.0
19:33:02.662000,84.0,198.0,-319.0,-917.0,-191.0,2.0,0.0,0.0,0.0
19:33:02.667000,85.0,197.0,-351.0,-825.0,-213.0,-11.0,0.0,0.0,0.0
19:33:02.672000,89.0,193.0,-402.0,-825.0,-213.0,-11.0,0.0,0.0,0.0
19:33:02.676000,95.0,186.0,-490.0,-884.0,-128.0,-46.0,0.0,0.0,0.0
19:33:02.681000,95.0,186.0,-490.0,-884.0,-128.0,-46.0,0.0,0.0,0.0
19:33:02.686000,91.0,191.0,-602.0,-993.0,23.0,-77.0,0.0,0.0,0.0
19:33:02.690000,94.0,193.0,-687.0,-993.0,23.0,-77.0,0.0,0.0,0.0
19:33:02.695000,102.0,197.0,-719.0,-1068.0,116.0,-111.0,0.0,0.0,0.0
19:33:02.700000,123.0,200.0,-753.0,-1068.0,116.0,-111.0,0.0,0.0,0.0
19:33:02.704000,114.0,211.0,-814.0,-1114.0,154.0,-136.0,0.0,0.0,0.0
19:33:02.709000,93.0,221.0,-828.0,-1114.0,154.0,-136.0,0.0,0.0,0.0
19:33:02.714000,79.0,220.0,-758.0,-1153.0,190.0,-133.0,0.0,0.0,0.0
19:33:02.719000,79.0,221.0,-667.0,-1153.0,190.0,-133.0,0.0,0.0,0.0
19:33:02.723000,71.0,231.0,-630.0,-1210.0,162.0,-114.0,0.0,0.0,0.0
19:33:02.728000,32.0,246.0,-596.0,-1210.0,162.0,-114.0,0.0,0.0,0.0
19:33:02.733000,14.0,264.0,-561.0,-1271.0,48.0,-118.0,0.0,0.0,0.0
19:33:02.737000,49.0,273.0,-539.0,-1271.0,48.0,-118.0,0.0,0.0,0.0
19:33:02.741000,75.0,283.0,-546.0,-1282.0,85.0,-146.0,0.0,0.0,0.0
19:33:02.747000,55.0,295.0,-621.0,-1282.0,85.0,-146.0,0.0,0.0,0.0
19:33:02.751000,66.0,309.0,-707.0,-1282.0,85.0,-146.0,0.0,0.0,0.0
19:33:02.756000,88.0,315.0,-715.0,-1272.0,285.0,-167.0,0.0,0.0,0.0
19:33:02.761000,63.0,319.0,-719.0,-1272.0,285.0,-167.0,0.0,0.0,0.0
19:33:02.766000,84.0,324.0,-695.0,-1278.0,352.0,-178.0,0.0,0.0,0.0
19:33:02.770000,100.0,323.0,-653.0,-1278.0,352.0,-178.0,0.0,0.0,0.0
19:33:02.775000,109.0,317.0,-624.0,-1299.0,341.0,-193.0,0.0,0.0,0.0
19:33:02.780000,114.0,314.0,-609.0,-1299.0,341.0,-193.0,0.0,0.0,0.0
19:33:02.784000,62.0,309.0,-602.0,-1321.0,354.0,-211.0,0.0,0.0,0.0
19:33:02.789000,51.0,304.0,-564.0,-1321.0,354.0,-211.0,0.0,0.0,0.0
19:33:02.794000,51.0,304.0,-564.0,-1296.0,298.0,-243.0,0.0,0.0,0.0
19:33:02.798000,106.0,285.0,-544.0,-1296.0,298.0,-243.0,0.0,0.0,0.0
19:33:02.803000,86.0,268.0,-510.0,-1200.0,349.0,-266.0,0.0,0.0,0.0
19:33:02.808000,45.0,256.0,-469.0,-1200.0,349.0,-266.0,0.0,0.0,0.0
19:33:02.813000,58.0,240.0,-369.0,-1085.0,488.0,-268.0,0.0,0.0,0.0
19:33:02.817000,23.0,234.0,-344.0,-1085.0,488.0,-268.0,0.0,0.0,0.0
19:33:02.822000,46.0,221.0,-387.0,-1058.0,457.0,-286.0,0.0,0.0,0.0
19:33:02.827000,32.0,213.0,-324.0,-1058.0,457.0,-286.0,0.0,0.0,0.0
19:33:02.831000,3.0,204.0,-243.0,-1130.0,436.0,-298.0,0.0,0.0,0.0
19:33:02.836000,-29.0,189.0,-241.0,-1130.0,436.0,-298.0,0.0,0.0,0.0
19:33:02.841000,-80.0,167.0,-297.0,-1192.0,481.0,-302.0,0.0,0.0,0.0
19:33:02.845000,-130.0,146.0,-390.0,-1192.0,481.0,-302.0,0.0,0.0,0.0
19:33:02.850000,-100.0,109.0,-425.0,-1144.0,514.0,-331.0,0.0,0.0,0.0
19:33:02.855000,-116.0,72.0,-418.0,-1144.0,514.0,-331.0,0.0,0.0,0.0
19:33:02.860000,-116.0,42.0,-375.0,-1066.0,576.0,-359.0,0.0,0.0,0.0
19:33:02.864000,-162.0,20.0,-302.0,-1066.0,576.0,-359.0,0.0,0.0,0.0
19:33:02.869000,-166.0,-14.0,-261.0,-1066.0,576.0,-359.0,0.0,0.0,0.0
19:33:02.874000,-161.0,-42.0,-275.0,-1112.0,596.0,-367.0,0.0,0.0,0.0
19:33:02.878000,-198.0,-62.0,-270.0,-1112.0,596.0,-367.0,0.0,0.0,0.0
19:33:02.883000,-196.0,-86.0,-189.0,-1166.0,496.0,-366.0,0.0,0.0,0.0
19:33:02.888000,-181.0,-115.0,-119.0,-1166.0,496.0,-366.0,0.0,0.0,0.0
19:33:02.892000,-166.0,-119.0,-128.0,-1169.0,418.0,-361.0,0.0,0.0,0.0
19:33:02.897000,-149.0,-119.0,-152.0,-1169.0,418.0,-361.0,0.0,0.0,0.0
19:33:02.902000,-149.0,-119.0,-152.0,-1179.0,396.0,-359.0,0.0,0.0,0.0
19:33:02.907000,-151.0,-115.0,-146.0,-1179.0,396.0,-359.0,0.0,0.0,0.0
19:33:02.911000,-137.0,-116.0,-130.0,-1148.0,390.0,-358.0,0.0,0.0,0.0
19:33:02.916000,-109.0,-119.0,-120.0,-1148.0,390.0,-358.0,0.0,0.0,0.0
19:33:02.921000,-72.0,-119.0,-115.0,-1140.0,392.0,-363.0,0.0,0.0,0.0
19:33:02.925000,-24.0,-111.0,-105.0,-1140.0,392.0,-363.0,0.0,0.0,0.0
19:33:02.930000,16.0,-100.0,-121.0,-1214.0,368.0,-362.0,0.0,0.0,0.0
19:33:02.935000,83.0,-96.0,-98.0,-1214.0,368.0,-362.0,0.0,0.0,0.0
19:33:02.939000,127.0,-104.0,-37.0,-1269.0,388.0,-338.0,0.0,0.0,0.0
19:33:02.944000,102.0,-106.0,-31.0,-1269.0,388.0,-338.0,0.0,0.0,0.0
19:33:02.949000,98.0,-109.0,-102.0,-1324.0,406.0,-305.0,0.0,0.0,0.0
19:33:02.954000,123.0,-114.0,-180.0,-1324.0,406.0,-305.0,0.0,0.0,0.0
19:33:02.958000,160.0,-102.0,-91.0,-1225.0,374.0,-281.0,0.0,0.0,0.0
19:33:02.963000,182.0,-98.0,51.0,-1225.0,374.0,-281.0,0.0,0.0,0.0
19:33:02.968000,177.0,-100.0,88.0,-1225.0,374.0,-281.0,0.0,0.0,0.0
19:33:02.972000,184.0,-82.0,51.0,-1073.0,365.0,-255.0,0.0,0.0,0.0
19:33:02.977000,198.0,-74.0,75.0,-1073.0,365.0,-255.0,0.0,0.0,0.0
19:33:02.982000,170.0,-59.0,52.0,-1155.0,387.0,-220.0,0.0,0.0,0.0
19:33:02.986000,147.0,-44.0,42.0,-1155.0,387.0,-220.0,0.0,0.0,0.0
19:33:02.991000,102.0,-33.0,133.0,-1261.0,357.0,-190.0,0.0,0.0,0.0
19:33:02.996000,99.0,-28.0,147.0,-1261.0,357.0,-190.0,0.0,0.0,0.0
19:33:03.001000,73.0,-20.0,88.0,-1309.0,314.0,-173.0,0.0,0.0,0.0
19:33:03.005000,68.0,-8.0,22.0,-1309.0,314.0,-173.0,0.0,0.0,0.0
19:33:03.010000,68.0,-8.0,22.0,-1360.0,342.0,-179.0,0.0,0.0,0.0
19:33:03.015000,50.0,2.0,-16.0,-1360.0,342.0,-179.0,0.0,0.0,0.0
19:33:03.019000,27.0,16.0,-85.0,-1332.0,415.0,-206.0,0.0,0.0,0.0
19:33:03.024000,23.0,25.0,-133.0,-1332.0,415.0,-206.0,0.0,0.0,0.0
19:33:03.029000,30.0,30.0,-162.0,-1260.0,475.0,-234.0,0.0,0.0,0.0
19:33:03.033000,7.0,43.0,-197.0,-1260.0,475.0,-234.0,0.0,0.0,0.0
19:33:03.038000,-21.0,53.0,-217.0,-1242.0,550.0,-251.0,0.0,0.0,0.0
19:33:03.043000,-48.0,58.0,-193.0,-1242.0,550.0,-251.0,0.0,0.0,0.0
19:33:03.048000,-73.0,55.0,-146.0,-1182.0,574.0,-234.0,0.0,0.0,0.0
19:33:03.052000,-67.0,47.0,-155.0,-1182.0,574.0,-234.0,0.0,0.0,0.0
19:33:03.057000,-78.0,46.0,-148.0,-1016.0,454.0,-204.0,0.0,0.0,0.0
19:33:03.062000,-51.0,45.0,-123.0,-1016.0,454.0,-204.0,0.0,0.0,0.0
19:33:03.066000,-33.0,42.0,-128.0,-896.0,354.0,-177.0,0.0,0.0,0.0
19:33:03.071000,-13.0,36.0,-118.0,-896.0,354.0,-177.0,0.0,0.0,0.0
19:33:03.076000,22.0,38.0,-149.0,-896.0,354.0,-177.0,0.0,0.0,0.0
19:33:03.080000,27.0,42.0,-181.0,-868.0,372.0,-154.0,0.0,0.0,0.0
19:33:03.085000,40.0,46.0,-170.0,-868.0,372.0,-154.0,0.0,0.0,0.0
19:33:03.090000,46.0,53.0,-198.0,-833.0,421.0,-141.0,0.0,0.0,0.0
19:33:03.095000,15.0,76.0,-263.0,-833.0,421.0,-141.0,0.0,0.0,0.0
19:33:03.099000,-11.0,90.0,-289.0,-799.0,541.0,-133.0,0.0,0.0,0.0
19:33:03.104000,-42.0,101.0,-268.0,-799.0,541.0,-133.0,0.0,0.0,0.0
19:33:03.109000,-68.0,113.0,-267.0,-744.0,650.0,-139.0,0.0,0.0,0.0
19:33:03.113000,-101.0,114.0,-270.0,-744.0,650.0,-139.0,0.0,0.0,0.0
19:33:03.118000,-101.0,114.0,-270.0,-694.0,691.0,-151.0,0.0,0.0,0.0
19:33:03.123000,-125.0,105.0,-241.0,-694.0,691.0,-151.0,0.0,0.0,0.0
19:33:03.127000,-126.0,88.0,-204.0,-660.0,676.0,-168.0,0.0,0.0,0.0
19:33:03.132000,-118.0,68.0,-156.0,-660.0,676.0,-168.0,0.0,0.0,0.0
19:33:03.137000,-102.0,45.0,-118.0,-625.0,611.0,-185.0,0.0,0.0,0.0
19:33:03.142000,-84.0,23.0,-81.0,-625.0,611.0,-185.0,0.0,0.0,0.0
19:33:03.146000,-66.0,-1.0,-16.0,-596.0,566.0,-184.0,0.0,0.0,0.0
19:33:03.151000,-51.0,-28.0,61.0,-596.0,566.0,-184.0,0.0,0.0,0.0
19:33:03.156000,-38.0,-53.0,146.0,-562.0,518.0,-176.0,0.0,0.0,0.0
19:33:03.160000,-20.0,-79.0,210.0,-562.0,518.0,-176.0,0.0,0.0,0.0
19:33:03.165000,-15.0,-104.0,256.0,-537.0,502.0,-164.0,0.0,0.0,0.0
19:33:03.170000,-25.0,-126.0,307.0,-537.0,502.0,-164.0,0.0,0.0,0.0
19:33:03.174000,-42.0,-144.0,332.0,-498.0,531.0,-162.0,0.0,0.0,0.0
19:33:03.179000,-70.0,-163.0,340.0,-498.0,531.0,-162.0,0.0,0.0,0.0
19:33:03.184000,-99.0,-183.0,350.0,-498.0,531.0,-162.0,0.0,0.0,0.0
19:33:03.189000,-122.0,-200.0,338.0,-446.0,543.0,-179.0,0.0,0.0,0.0
19:33:03.193000,-149.0,-209.0,305.0,-446.0,543.0,-179.0,0.0,0.0,0.0
19:33:03.198000,-171.0,-213.0,267.0,-415.0,507.0,-203.0,0.0,0.0,0.0
19:33:03.203000,-185.0,-210.0,233.0,-415.0,507.0,-203.0,0.0,0.0,0.0
19:33:03.207000,-198.0,-201.0,184.0,-396.0,459.0,-224.0,0.0,0.0,0.0
19:33:03.211000,-210.0,-191.0,118.0,-396.0,459.0,-224.0,0.0,0.0,0.0
19:33:03.217000,-222.0,-182.0,63.0,-402.0,473.0,-237.0,0.0,0.0,0.0
19:33:03.221000,-227.0,-173.0,29.0,-402.0,473.0,-237.0,0.0,0.0,0.0
19:33:03.226000,-224.0,-166.0,16.0,-423.0,486.0,-235.0,0.0,0.0,0.0
19:33:03.231000,-224.0,-166.0,16.0,-423.0,486.0,-235.0,0.0,0.0,0.0
19:33:03.236000,-215.0,-162.0,11.0,-422.0,427.0,-217.0,0.0,0.0,0.0
19:33:03.240000,-202.0,-159.0,23.0,-422.0,427.0,-217.0,0.0,0.0,0.0
19:33:03.245000,-186.0,-158.0,51.0,-421.0,384.0,-191.0,0.0,0.0,0.0
19:33:03.250000,-176.0,-158.0,77.0,-421.0,384.0,-191.0,0.0,0.0,0.0
19:33:03.254000,-170.0,-158.0,93.0,-450.0,377.0,-161.0,0.0,0.0,0.0
19:33:03.259000,-162.0,-157.0,109.0,-450.0,377.0,-161.0,0.0,0.0,0.0
19:33:03.264000,-151.0,-153.0,123.0,-473.0,339.0,-125.0,0.0,0.0,0.0
19:33:03.268000,-138.0,-142.0,123.0,-473.0,339.0,-125.0,0.0,0.0,0.0
19:33:03.273000,-123.0,-124.0,102.0,-480.0,297.0,-92.0,0.0,0.0,0.0
19:33:03.278000,-105.0,-100.0,65.0,-480.0,297.0,-92.0,0.0,0.0,0.0
19:33:03.283000,-81.0,-70.0,23.0,-522.0,297.0,-79.0,0.0,0.0,0.0
19:33:03.287000,-59.0,-39.0,-14.0,-522.0,297.0,-79.0,0.0,0.0,0.0
19:33:03.292000,-38.0,-9.0,-32.0,-522.0,297.0,-79.0,0.0,0.0,0.0
19:33:03.297000,-22.0,18.0,-33.0,-591.0,302.0,-77.0,0.0,0.0,0.0
19:33:03.301000,-10.0,43.0,-28.0,-591.0,302.0,-77.0,0.0,0.0,0.0
19:33:03.306000,-7.0,65.0,-23.0,-652.0,305.0,-73.0,0.0,0.0,0.0
19:33:03.311000,-17.0,86.0,-16.0,-652.0,305.0,-73.0,0.0,0.0,0.0
19:33:03.315000,-37.0,100.0,-9.0,-706.0,335.0,-68.0,0.0,0.0,0.0
19:33:03.320000,-51.0,109.0,0.0,-706.0,335.0,-68.0,0.0,0.0,0.0
19:33:03.325000,-55.0,115.0,1.0,-750.0,322.0,-53.0,0.0,0.0,0.0
19:33:03.330000,-50.0,121.0,-14.0,-750.0,322.0,-53.0,0.0,0.0,0.0
19:33:03.334000,-44.0,125.0,-48.0,-777.0,238.0,-36.0,0.0,0.0,0.0
19:33:03.339000,-44.0,125.0,-48.0,-777.0,238.0,-36.0,0.0,0.0,0.0
19:33:03.344000,-38.0,127.0,-89.0,-793.0,168.0,-33.0,0.0,0.0,0.0
19:33:03.348000,-31.0,130.0,-130.0,-793.0,168.0,-33.0,0.0,0.0,0.0
19:33:03.353000,-21.0,134.0,-172.0,-801.0,151.0,-58.0,0.0,0.0,0.0
19:33:03.358000,-11.0,140.0,-220.0,-801.0,151.0,-58.0,0.0,0.0,0.0
19:33:03.362000,-7.0,147.0,-271.0,-821.0,199.0,-103.0,0.0,0.0,0.0
19:33:03.367000,-6.0,155.0,-308.0,-821.0,199.0,-103.0,0.0,0.0,0.0
19:33:03.372000,-1.0,162.0,-322.0,-845.0,245.0,-141.0,0.0,0.0,0.0
19:33:03.377000,7.0,166.0,-312.0,-845.0,245.0,-141.0,0.0,0.0,0.0
19:33:03.381000,8.0,164.0,-291.0,-859.0,255.0,-165.0,0.0,0.0,0.0
19:33:03.386000,-7.0,157.0,-261.0,-859.0,255.0,-165.0,0.0,0.0,0.0
19:33:03.391000,-37.0,144.0,-218.0,-858.0,280.0,-159.0,0.0,0.0,0.0
19:33:03.395000,-75.0,129.0,-168.0,-858.0,280.0,-159.0,0.0,0.0,0.0
19:33:03.400000,-107.0,110.0,-137.0,-858.0,280.0,-159.0,0.0,0.0,0.0
19:33:03.405000,-126.0,95.0,-135.0,-841.0,214.0,-116.0,0.0,0.0,0.0
19:33:03.409000,-142.0,86.0,-161.0,-841.0,214.0,-116.0,0.0,0.0,0.0
19:33:03.414000,-153.0,85.0,-206.0,-862.0,56.0,-65.0,0.0,0.0,0.0
19:33:03.419000,-153.0,92.0,-264.0,-862.0,56.0,-65.0,0.0,0.0,0.0
19:33:03.424000,-135.0,107.0,-336.0,-928.0,-85.0,-34.0,0.0,0.0,0.0
19:33:03.428000,-101.0,129.0,-417.0,-928.0,-85.0,-34.0,0.0,0.0,0.0
19:33:03.433000,-61.0,153.0,-499.0,-983.0,-178.0,-31.0,0.0,0.0,0.0
19:33:03.438000,-19.0,176.0,-567.0,-983.0,-178.0,-31.0,0.0,0.0,0.0
19:33:03.442000,23.0,195.0,-614.0,-1004.0,-189.0,-54.0,0.0,0.0,0.0
19:33:03.447000,23.0,195.0,-614.0,-1004.0,-189.0,-54.0,0.0,0.0,0.0
19:33:03.452000,60.0,207.0,-627.0,-963.0,-140.0,-89.0,0.0,0.0,0.0
19:33:03.456000,86.0,207.0,-615.0,-963.0,-140.0,-89.0,0.0,0.0,0.0
19:33:03.461000,103.0,193.0,-594.0,-856.0,-46.0,-126.0,0.0,0.0,0.0
19:33:03.466000,110.0,168.0,-562.0,-856.0,-46.0,-126.0,0.0,0.0,0.0
19:33:03.471000,109.0,131.0,-520.0,-739.0,72.0,-157.0,0.0,0.0,0.0
19:33:03.475000,97.0,86.0,-478.0,-739.0,72.0,-157.0,0.0,0.0,0.0
19:33:03.480000,76.0,39.0,-439.0,-665.0,173.0,-176.0,0.0,0.0,0.0
19:33:03.485000,50.0,-4.0,-406.0,-665.0,173.0,-176.0,0.0,0.0,0.0
19:33:03.489000,21.0,-49.0,-379.0,-630.0,222.0,-192.0,0.0,0.0,0.0
19:33:03.494000,-2.0,-93.0,-355.0,-630.0,222.0,-192.0,0.0,0.0,0.0
19:33:03.499000,-20.0,-137.0,-329.0,-609.0,225.0,-211.0,0.0,0.0,0.0
19:33:03.503000,-32.0,-177.0,-301.0,-609.0,225.0,-211.0,0.0,0.0,0.0
19:33:03.508000,-38.0,-214.0,-270.0,-612.0,221.0,-231.0,0.0,0.0,0.0
19:33:03.513000,-42.0,-244.0,-238.0,-612.0,221.0,-231.0,0.0,0.0,0.0
19:33:03.518000,-44.0,-269.0,-212.0,-612.0,221.0,-231.0,0.0,0.0,0.0
19:33:03.522000,-49.0,-291.0,-183.0,-656.0,231.0,-251.0,0.0,0.0,0.0
19:33:03.527000,-56.0,-310.0,-142.0,-656.0,231.0,-251.0,0.0,0.0,0.0
19:33:03.532000,-64.0,-324.0,-81.0,-722.0,252.0,-258.0,0.0,0.0,0.0
19:33:03.536000,-69.0,-340.0,-10.0,-722.0,252.0,-258.0,0.0,0.0,0.0
19:33:03.541000,-71.0,-354.0,54.0,-786.0,257.0,-253.0,0.0,0.0,0.0
19:33:03.546000,-70.0,-369.0,119.0,-786.0,257.0,-253.0,0.0,0.0,0.0
19:33:03.550000,-61.0,-386.0,189.0,-818.0,225.0,-242.0,0.0,0.0,0.0
19:33:03.555000,-49.0,-404.0,257.0,-818.0,225.0,-242.0,0.0,0.0,0.0
19:33:03.560000,-49.0,-404.0,257.0,-802.0,173.0,-227.0,0.0,0.0,0.0
19:33:03.565000,-33.0,-420.0,310.0,-802.0,173.0,-227.0,0.0,0.0,0.0
19:33:03.569000,-17.0,-434.0,350.0,-784.0,157.0,-215.0,0.0,0.0,0.0
19:33:03.574000,-5.0,-445.0,389.0,-784.0,157.0,-215.0,0.0,0.0,0.0
19:33:03.579000,-2.0,-458.0,434.0,-788.0,182.0,-195.0,0.0,0.0,0.0
19:33:03.583000,-5.0,-467.0,488.0,-788.0,182.0,-195.0,0.0,0.0,0.0
19:33:03.588000,-14.0,-478.0,548.0,-784.0,216.0,-165.0,0.0,0.0,0.0
19:33:03.593000,-33.0,-490.0,607.0,-784.0,216.0,-165.0,0.0,0.0,0.0
19:33:03.597000,-61.0,-503.0,670.0,-753.0,246.0,-120.0,0.0,0.0,0.0
19:33:03.602000,-90.0,-516.0,742.0,-753.0,246.0,-120.0,0.0,0.0,0.0
19:33:03.607000,-106.0,-529.0,817.0,-701.0,218.0,-65.0,0.0,0.0,0.0
19:33:03.612000,-113.0,-535.0,885.0,-701.0,218.0,-65.0,0.0,0.0,0.0
19:33:03.616000,-118.0,-535.0,943.0,-715.0,163.0,-28.0,0.0,0.0,0.0
19:33:03.621000,-125.0,-527.0,995.0,-715.0,163.0,-28.0,0.0,0.0,0.0
19:33:03.626000,-132.0,-511.0,1042.0,-798.0,118.0,-13.0,0.0,0.0,0.0
19:33:03.630000,-130.0,-490.0,1085.0,-798.0,118.0,-13.0,0.0,0.0,0.0
19:33:03.635000,-120.0,-468.0,1117.0,-798.0,118.0,-13.0,0.0,0.0,0.0
19:33:03.640000,-104.0,-445.0,1135.0,-845.0,57.0,-22.0,0.0,0.0,0.0
19:33:03.644000,-89.0,-420.0,1144.0,-845.0,57.0,-22.0,0.0,0.0,0.0
19:33:03.649000,-76.0,-397.0,1154.0,-845.0,29.0,-50.0,0.0,0.0,0.0
19:33:03.654000,-61.0,-380.0,1171.0,-845.0,29.0,-50.0,0.0,0.0,0.0
19:33:03.659000,-47.0,-368.0,1192.0,-799.0,35.0,-83.0,0.0,0.0,0.0
19:33:03.663000,-36.0,-364.0,1218.0,-799.0,35.0,-83.0,0.0,0.0,0.0
19:33:03.668000,-36.0,-364.0,1218.0,-711.0,44.0,-107.0,0.0,0.0,0.0
19:33:03.673000,-25.0,-369.0,1246.0,-711.0,44.0,-107.0,0.0,0.0,0.0
19:33:03.677000,-13.0,-380.0,1275.0,-632.0,64.0,-112.0,0.0,0.0,0.0
19:33:03.682000,-2.0,-394.0,1302.0,-632.0,64.0,-112.0,0.0,0.0,0.0
19:33:03.686000,5.0,-408.0,1327.0,-604.0,102.0,-107.0,0.0,0.0,0.0
19:33:03.691000,7.0,-422.0,1356.0,-604.0,102.0,-107.0,0.0,0.0,0.0
19:33:03.696000,5.0,-434.0,1383.0,-616.0,146.0,-94.0,0.0,0.0,0.0
19:33:03.701000,1.0,-447.0,1404.0,-616.0,146.0,-94.0,0.0,0.0,0.0
19:33:03.706000,-2.0,-459.0,1414.0,-626.0,163.0,-75.0,0.0,0.0,0.0
19:33:03.710000,-2.0,-469.0,1417.0,-626.0,163.0,-75.0,0.0,0.0,0.0
19:33:03.714000,0.0,-480.0,1414.0,-619.0,147.0,-60.0,0.0,0.0,0.0
19:33:03.720000,2.0,-488.0,1400.0,-619.0,147.0,-60.0,0.0,0.0,0.0
19:33:03.724000,4.0,-494.0,1376.0,-636.0,142.0,-57.0,0.0,0.0,0.0
19:33:03.729000,2.0,-498.0,1338.0,-636.0,142.0,-57.0,0.0,0.0,0.0
19:33:03.734000,-14.0,-499.0,1288.0,-636.0,142.0,-57.0,0.0,0.0,0.0
19:33:03.738000,-36.0,-496.0,1245.0,-711.0,173.0,-52.0,0.0,0.0,0.0
19:33:03.743000,-57.0,-485.0,1218.0,-711.0,173.0,-52.0,0.0,0.0,0.0
19:33:03.748000,-81.0,-467.0,1194.0,-792.0,161.0,-41.0,0.0,0.0,0.0
19:33:03.753000,-111.0,-443.0,1158.0,-792.0,161.0,-41.0,0.0,0.0,0.0
19:33:03.757000,-142.0,-415.0,1108.0,-864.0,114.0,-28.0,0.0,0.0,0.0
19:33:03.762000,-175.0,-382.0,1040.0,-864.0,114.0,-28.0,0.0,0.0,0.0
19:33:03.767000,-204.0,-345.0,968.0,-945.0,98.0,-15.0,0.0,0.0,0.0
19:33:03.771000,-226.0,-308.0,896.0,-945.0,98.0,-15.0,0.0,0.0,0.0
19:33:03.776000,-226.0,-308.0,896.0,-1007.0,62.0,-6.0,0.0,0.0,0.0
19:33:03.781000,-237.0,-274.0,825.0,-1007.0,62.0,-6.0,0.0,0.0,0.0
19:33:03.785000,-238.0,-238.0,746.0,-1041.0,-13.0,3.0,0.0,0.0,0.0
19:33:03.790000,-234.0,-198.0,665.0,-1041.0,-13.0,3.0,0.0,0.0,0.0
19:33:03.795000,-216.0,-164.0,601.0,-1029.0,-104.0,8.0,0.0,0.0,0.0
19:33:03.800000,-185.0,-135.0,558.0,-1029.0,-104.0,8.0,0.0,0.0,0.0
19:33:03.804000,-161.0,-103.0,523.0,-945.0,-148.0,14.0,0.0,0.0,0.0
19:33:03.809000,-142.0,-80.0,487.0,-945.0,-148.0,14.0,0.0,0.0,0.0
19:33:03.814000,-127.0,-66.0,452.0,-822.0,-93.0,32.0,0.0,0.0,0.0
19:33:03.818000,-111.0,-58.0,430.0,-822.0,-93.0,32.0,0.0,0.0,0.0
19:33:03.823000,-97.0,-51.0,431.0,-713.0,-26.0,49.0,0.0,0.0,0.0
19:33:03.828000,-88.0,-49.0,453.0,-713.0,-26.0,49.0,0.0,0.0,0.0
19:33:03.832000,-63.0,-54.0,471.0,-673.0,-19.0,60.0,0.0,0.0,0.0
19:33:03.837000,-48.0,-42.0,482.0,-673.0,-19.0,60.0,0.0,0.0,0.0
19:33:03.842000,-24.0,-44.0,487.0,-673.0,-19.0,60.0,0.0,0.0,0.0
19:33:03.847000,-23.0,-38.0,494.0,-710.0,-5.0,59.0,0.0,0.0,0.0
19:33:03.851000,-43.0,-46.0,561.0,-710.0,-5.0,59.0,0.0,0.0,0.0
19:33:03.856000,-62.0,-62.0,641.0,-721.0,71.0,62.0,0.0,0.0,0.0
19:33:03.861000,-86.0,-75.0,714.0,-721.0,71.0,62.0,0.0,0.0,0.0
19:33:03.865000,-81.0,-82.0,938.0,-842.0,104.0,66.0,0.0,0.0,0.0
19:33:03.870000,-95.0,-67.0,915.0,-842.0,104.0,66.0,0.0,0.0,0.0
19:33:03.875000,-122.0,-51.0,792.0,-844.0,103.0,61.0,0.0,0.0,0.0
19:33:03.879000,-140.0,-43.0,765.0,-844.0,103.0,61.0,0.0,0.0,0.0
