hh:mm:ss.ms,gyroX[mdps],gyroY[mdps],gyroZ[mdps],accX[mg],accY[mg],accZ[mg],magX[mG],magY[mG],magZ[mG]
19:32:40.165000,35.0,-200.0,223.0,-428.0,547.0,-201.0,0.0,0.0,0.0
19:32:40.169000,4.0,-221.0,212.0,-428.0,547.0,-201.0,0.0,0.0,0.0
19:32:40.174000,-35.0,-234.0,177.0,-353.0,632.0,-194.0,0.0,0.0,0.0
19:32:40.179000,-95.0,-240.0,133.0,-353.0,632.0,-194.0,0.0,0.0,0.0
19:32:40.183000,-166.0,-238.0,101.0,-353.0,632.0,-194.0,0.0,0.0,0.0
19:32:40.188000,-237.0,-226.0,88.0,-356.0,713.0,-182.0,0.0,0.0,0.0
19:32:40.193000,-296.0,-203.0,91.0,-356.0,713.0,-182.0,0.0,0.0,0.0
19:32:40.198000,-337.0,-171.0,93.0,-406.0,684.0,-176.0,0.0,0.0,0.0
19:32:40.202000,-358.0,-136.0,93.0,-406.0,684.0,-176.0,0.0,0.0,0.0
19:32:40.207000,-358.0,-105.0,97.0,-490.0,557.0,-195.0,0.0,0.0,0.0
19:32:40.211000,-179.0,-105.0,97.0,-490.0,557.0,-195.0,0.0,0.0,0.0
19:32:40.216000,-287.0,-56.0,133.0,-573.0,402.0,-219.0,0.0,0.0,0.0
19:32:40.221000,-228.0,-36.0,152.0,-573.0,402.0,-219.0,0.0,0.0,0.0
19:32:40.226000,-228.0,-36.0,152.0,-589.0,251.0,-236.0,0.0,0.0,0.0
19:32:40.230000,-170.0,-25.0,156.0,-589.0,251.0,-236.0,0.0,0.0,0.0
19:32:40.235000,-116.0,-21.0,145.0,-545.0,200.0,-236.0,0.0,0.0,0.0
19:32:40.240000,-81.0,-22.0,130.0,-545.0,200.0,-236.0,0.0,0.0,0.0
19:32:40.245000,-61.0,-30.0,116.0,-485.0,251.0,-210.0,0.0,0.0,0.0
19:32:40.249000,-51.0,-40.0,105.0,-485.0,251.0,-210.0,0.0,0.0,0.0
19:32:40.254000,-43.0,-48.0,86.0,-451.0,308.0,-179.0,0.0,0.0,0.0
19:32:40.259000,-48.0,-46.0,58.0,-451.0,308.0,-179.0,0.0,0.0,0.0
19:32:40.263000,-67.0,-36.0,36.0,-484.0,369.0,-167.0,0.0,0.0,0.0
19:32:40.268000,-93.0,-19.0,29.0,-484.0,369.0,-167.0,0.0,0.0,0.0
19:32:40.273000,-115.0,5.0,28.0,-577.0,401.0,-170.0,0.0,0.0,0.0
19:32:40.277000,-126.0,33.0,28.0,-577.0,401.0,-170.0,0.0,0.0,0.0
19:32:40.282000,-123.0,64.0,32.0,-682.0,342.0,-187.0,0.0,0.0,0.0
19:32:40.287000,-105.0,93.0,46.0,-682.0,342.0,-187.0,0.0,0.0,0.0
19:32:40.292000,-73.0,122.0,67.0,-682.0,342.0,-187.0,0.0,0.0,0.0
19:32:40.296000,-39.0,144.0,82.0,-763.0,244.0,-211.0,0.0,0.0,0.0
19:32:40.301000,-6.0,158.0,87.0,-763.0,244.0,-211.0,0.0,0.0,0.0
19:32:40.306000,19.0,170.0,82.0,-803.0,202.0,-225.0,0.0,0.0,0.0
19:32:40.310000,40.0,172.0,72.0,-803.0,202.0,-225.0,0.0,0.0,0.0
19:32:40.315000,54.0,169.0,53.0,-795.0,212.0,-216.0,0.0,0.0,0.0
19:32:40.320000,63.0,160.0,22.0,-795.0,212.0,-216.0,0.0,0.0,0.0
19:32:40.324000,59.0,147.0,-13.0,-772.0,238.0,-189.0,0.0,0.0,0.0
19:32:40.329000,44.0,135.0,-44.0,-772.0,238.0,-189.0,0.0,0.0,0.0
19:32:40.334000,27.0,122.0,-59.0,-774.0,258.0,-146.0,0.0,0.0,0.0
19:32:40.339000,27.0,122.0,-59.0,-774.0,258.0,-146.0,0.0,0.0,0.0
19:32:40.343000,13.0,113.0,-65.0,-798.0,220.0,-98.0,0.0,0.0,0.0
19:32:40.348000,0.0,107.0,-76.0,-798.0,220.0,-98.0,0.0,0.0,0.0
19:32:40.353000,-14.0,104.0,-94.0,-853.0,161.0,-56.0,0.0,0.0,0.0
19:32:40.357000,-27.0,104.0,-114.0,-853.0,161.0,-56.0,0.0,0.0,0.0
19:32:40.362000,-35.0,109.0,-139.0,-913.0,85.0,-22.0,0.0,0.0,0.0
19:32:40.367000,-30.0,112.0,-164.0,-913.0,85.0,-22.0,0.0,0.0,0.0
19:32:40.371000,-16.0,114.0,-186.0,-908.0,-24.0,-4.0,0.0,0.0,0.0
19:32:40.376000,1.0,114.0,-206.0,-908.0,-24.0,-4.0,0.0,0.0,0.0
19:32:40.381000,15.0,112.0,-229.0,-849.0,-57.0,-8.0,0.0,0.0,0.0
19:32:40.386000,21.0,107.0,-253.0,-849.0,-57.0,-8.0,0.0,0.0,0.0
19:32:40.390000,16.0,100.0,-264.0,-774.0,1.0,-20.0,0.0,0.0,0.0
19:32:40.395000,12.0,94.0,-258.0,-774.0,1.0,-20.0,0.0,0.0,0.0
19:32:40.400000,13.0,86.0,-243.0,-774.0,1.0,-20.0,0.0,0.0,0.0
19:32:40.404000,12.0,81.0,-231.0,-694.0,30.0,-17.0,0.0,0.0,0.0
19:32:40.409000,2.0,82.0,-223.0,-694.0,30.0,-17.0,0.0,0.0,0.0
19:32:40.414000,-13.0,89.0,-214.0,-665.0,17.0,3.0,0.0,0.0,0.0
19:32:40.418000,-30.0,101.0,-214.0,-665.0,17.0,3.0,0.0,0.0,0.0
19:32:40.423000,-42.0,118.0,-228.0,-720.0,-14.0,24.0,0.0,0.0,0.0
19:32:40.428000,-51.0,139.0,-262.0,-720.0,-14.0,24.0,0.0,0.0,0.0
19:32:40.433000,-56.0,161.0,-308.0,-833.0,-43.0,23.0,0.0,0.0,0.0
19:32:40.437000,-58.0,182.0,-352.0,-833.0,-43.0,23.0,0.0,0.0,0.0
19:32:40.442000,-49.0,196.0,-382.0,-931.0,-39.0,2.0,0.0,0.0,0.0
19:32:40.446000,-49.0,196.0,-382.0,-931.0,-39.0,2.0,0.0,0.0,0.0
19:32:40.451000,-30.0,200.0,-401.0,-944.0,-28.0,-23.0,0.0,0.0,0.0
19:32:40.456000,-4.0,197.0,-415.0,-944.0,-28.0,-23.0,0.0,0.0,0.0
19:32:40.461000,19.0,183.0,-417.0,-881.0,18.0,-54.0,0.0,0.0,0.0
19:32:40.465000,34.0,161.0,-399.0,-881.0,18.0,-54.0,0.0,0.0,0.0
19:32:40.470000,43.0,130.0,-361.0,-794.0,118.0,-88.0,0.0,0.0,0.0
19:32:40.475000,46.0,97.0,-312.0,-794.0,118.0,-88.0,0.0,0.0,0.0
19:32:40.480000,43.0,60.0,-261.0,-733.0,226.0,-136.0,0.0,0.0,0.0
19:32:40.484000,31.0,22.0,-206.0,-733.0,226.0,-136.0,0.0,0.0,0.0
19:32:40.489000,16.0,-18.0,-138.0,-714.0,295.0,-180.0,0.0,0.0,0.0
19:32:40.494000,0.0,-62.0,-56.0,-714.0,295.0,-180.0,0.0,0.0,0.0
19:32:40.498000,-12.0,-107.0,26.0,-712.0,289.0,-201.0,0.0,0.0,0.0
19:32:40.503000,-23.0,-154.0,105.0,-712.0,289.0,-201.0,0.0,0.0,0.0
19:32:40.508000,-33.0,-197.0,185.0,-712.0,289.0,-201.0,0.0,0.0,0.0
19:32:40.512000,-42.0,-238.0,256.0,-719.0,226.0,-197.0,0.0,0.0,0.0
19:32:40.517000,-51.0,-274.0,309.0,-761.0,155.0,-175.0,0.0,0.0,0.0
19:32:40.522000,-57.0,-301.0,338.0,-761.0,155.0,-175.0,0.0,0.0,0.0
19:32:40.527000,-61.0,-318.0,352.0,-761.0,155.0,-175.0,0.0,0.0,0.0
19:32:40.531000,-58.0,-322.0,359.0,-824.0,104.0,-155.0,0.0,0.0,0.0
19:32:40.536000,-44.0,-317.0,371.0,-824.0,104.0,-155.0,0.0,0.0,0.0
19:32:40.541000,-23.0,-306.0,387.0,-889.0,56.0,-146.0,0.0,0.0,0.0
19:32:40.545000,0.0,-291.0,404.0,-889.0,56.0,-146.0,0.0,0.0,0.0
19:32:40.550000,18.0,-277.0,426.0,-965.0,9.0,-142.0,0.0,0.0,0.0
19:32:40.555000,18.0,-277.0,426.0,-965.0,9.0,-142.0,0.0,0.0,0.0
19:32:40.559000,28.0,-269.0,459.0,-979.0,2.0,-132.0,0.0,0.0,0.0
19:32:40.564000,25.0,-269.0,504.0,-979.0,2.0,-132.0,0.0,0.0,0.0
19:32:40.569000,8.0,-279.0,547.0,-881.0,75.0,-107.0,0.0,0.0,0.0
19:32:40.574000,-17.0,-298.0,577.0,-881.0,75.0,-107.0,0.0,0.0,0.0
19:32:40.578000,-49.0,-324.0,595.0,-748.0,198.0,-78.0,0.0,0.0,0.0
19:32:40.583000,-85.0,-352.0,618.0,-748.0,198.0,-78.0,0.0,0.0,0.0
19:32:40.588000,-112.0,-380.0,663.0,-662.0,259.0,-57.0,0.0,0.0,0.0
19:32:40.592000,-127.0,-401.0,732.0,-662.0,259.0,-57.0,0.0,0.0,0.0
19:32:40.597000,-128.0,-413.0,814.0,-665.0,198.0,-47.0,0.0,0.0,0.0
19:32:40.602000,-115.0,-416.0,904.0,-665.0,198.0,-47.0,0.0,0.0,0.0
19:32:40.606000,-88.0,-412.0,998.0,-725.0,45.0,-46.0,0.0,0.0,0.0
19:32:40.611000,-58.0,-403.0,1089.0,-725.0,45.0,-46.0,0.0,0.0,0.0
19:32:40.616000,-35.0,-391.0,1167.0,-787.0,-76.0,-45.0,0.0,0.0,0.0
19:32:40.621000,-23.0,-377.0,1226.0,-793.0,-76.0,-45.0,0.0,0.0,0.0
19:32:40.625000,-27.0,-361.0,1258.0,-793.0,-76.0,-45.0,0.0,0.0,0.0
19:32:40.630000,-38.0,-347.0,1267.0,-846.0,-74.0,-50.0,0.0,0.0,0.0
19:32:40.635000,-51.0,-337.0,1257.0,-846.0,-74.0,-50.0,0.0,0.0,0.0
19:32:40.639000,-63.0,-327.0,1234.0,-843.0,-18.0,-65.0,0.0,0.0,0.0
19:32:40.644000,-65.0,-317.0,1206.0,-843.0,-18.0,-65.0,0.0,0.0,0.0
19:32:40.649000,-59.0,-308.0,1179.0,-788.0,2.0,-87.0,0.0,0.0,0.0
19:32:40.653000,-41.0,-297.0,1157.0,-788.0,2.0,-87.0,0.0,0.0,0.0
19:32:40.658000,-9.0,-289.0,1142.0,-731.0,-27.0,-117.0,0.0,0.0,0.0
19:32:40.663000,34.0,-287.0,1132.0,-731.0,-27.0,-117.0,0.0,0.0,0.0
19:32:40.668000,34.0,-287.0,1132.0,-711.0,-81.0,-160.0,0.0,0.0,0.0
19:32:40.672000,81.0,-286.0,1117.0,-711.0,-81.0,-160.0,0.0,0.0,0.0
19:32:40.677000,124.0,-284.0,1095.0,-731.0,-94.0,-197.0,0.0,0.0,0.0
19:32:40.681000,166.0,-285.0,1077.0,-731.0,-94.0,-197.0,0.0,0.0,0.0
19:32:40.686000,196.0,-284.0,1058.0,-773.0,-32.0,-213.0,0.0,0.0,0.0
19:32:40.691000,196.0,-277.0,1019.0,-773.0,-32.0,-213.0,0.0,0.0,0.0
19:32:40.696000,180.0,-276.0,973.0,-823.0,73.0,-198.0,0.0,0.0,0.0
19:32:40.700000,163.0,-282.0,930.0,-823.0,73.0,-198.0,0.0,0.0,0.0
19:32:40.705000,149.0,-292.0,878.0,-834.0,127.0,-177.0,0.0,0.0,0.0
19:32:40.710000,130.0,-301.0,814.0,-834.0,127.0,-177.0,0.0,0.0,0.0
19:32:40.715000,101.0,-308.0,745.0,-831.0,160.0,-176.0,0.0,0.0,0.0
19:32:40.719000,71.0,-319.0,681.0,-831.0,160.0,-176.0,0.0,0.0,0.0
19:32:40.724000,46.0,-332.0,627.0,-852.0,191.0,-172.0,0.0,0.0,0.0
19:32:40.729000,21.0,-340.0,582.0,-852.0,191.0,-172.0,0.0,0.0,0.0
19:32:40.733000,-11.0,-345.0,546.0,-852.0,191.0,-172.0,0.0,0.0,0.0
19:32:40.738000,-46.0,-346.0,520.0,-861.0,184.0,-162.0,0.0,0.0,0.0
19:32:40.743000,-88.0,-343.0,502.0,-861.0,184.0,-162.0,0.0,0.0,0.0
19:32:40.747000,-130.0,-333.0,487.0,-862.0,196.0,-146.0,0.0,0.0,0.0
19:32:40.752000,-175.0,-317.0,471.0,-862.0,196.0,-146.0,0.0,0.0,0.0
19:32:40.757000,-214.0,-308.0,469.0,-867.0,229.0,-126.0,0.0,0.0,0.0
19:32:40.762000,-243.0,-292.0,488.0,-867.0,229.0,-126.0,0.0,0.0,0.0
19:32:40.766000,-270.0,-272.0,509.0,-838.0,222.0,-110.0,0.0,0.0,0.0
19:32:40.771000,-291.0,-251.0,516.0,-838.0,222.0,-110.0,0.0,0.0,0.0
19:32:40.776000,-291.0,-251.0,516.0,-787.0,167.0,-96.0,0.0,0.0,0.0
19:32:40.780000,-298.0,-238.0,532.0,-787.0,167.0,-96.0,0.0,0.0,0.0
19:32:40.785000,-291.0,-219.0,543.0,-736.0,81.0,-86.0,0.0,0.0,0.0
19:32:40.790000,-289.0,-191.0,550.0,-736.0,81.0,-86.0,0.0,0.0,0.0
19:32:40.794000,-263.0,-168.0,551.0,-700.0,-6.0,-86.0,0.0,0.0,0.0
19:32:40.799000,-249.0,-139.0,530.0,-700.0,-6.0,-86.0,0.0,0.0,0.0
19:32:40.804000,-219.0,-106.0,495.0,-710.0,-35.0,-87.0,0.0,0.0,0.0
19:32:40.809000,-184.0,-96.0,451.0,-710.0,-35.0,-87.0,0.0,0.0,0.0
19:32:40.813000,-135.0,-95.0,464.0,-807.0,-43.0,-86.0,0.0,0.0,0.0
19:32:40.818000,-79.0,-63.0,604.0,-807.0,-43.0,-86.0,0.0,0.0,0.0
19:32:40.823000,-9.0,-74.0,654.0,-1010.0,-77.0,-76.0,0.0,0.0,0.0
19:32:40.827000,63.0,-40.0,532.0,-1010.0,-77.0,-76.0,0.0,0.0,0.0
19:32:40.832000,102.0,-1.0,464.0,-851.0,-70.0,-45.0,0.0,0.0,0.0
19:32:40.837000,123.0,17.0,368.0,-851.0,-70.0,-45.0,0.0,0.0,0.0
19:32:40.841000,143.0,20.0,368.0,-851.0,-70.0,-45.0,0.0,0.0,0.0
19:32:40.846000,156.0,31.0,467.0,-599.0,-40.0,0.0,0.0,0.0,0.0
19:32:40.851000,169.0,48.0,574.0,-599.0,-40.0,0.0,0.0,0.0,0.0
19:32:40.856000,182.0,67.0,622.0,-711.0,-106.0,42.0,0.0,0.0,0.0
19:32:40.860000,207.0,98.0,625.0,-711.0,-106.0,42.0,0.0,0.0,0.0
19:32:40.865000,215.0,121.0,560.0,-822.0,-172.0,62.0,0.0,0.0,0.0
19:32:40.870000,219.0,139.0,468.0,-822.0,-172.0,62.0,0.0,0.0,0.0
19:32:40.874000,217.0,157.0,397.0,-791.0,-147.0,60.0,0.0,0.0,0.0
19:32:40.888000,196.0,172.0,341.0,-691.0,-23.0,26.0,0.0,0.0,0.0
19:32:40.893000,162.0,168.0,289.0,-741.0,264.0,-34.0,0.0,0.0,0.0
19:32:40.898000,112.0,155.0,190.0,-741.0,264.0,-34.0,0.0,0.0,0.0
19:32:40.903000,58.0,133.0,83.0,-905.0,520.0,-93.0,0.0,0.0,0.0
19:32:40.907000,18.0,100.0,36.0,-905.0,520.0,-93.0,0.0,0.0,0.0
19:32:40.912000,-11.0,65.0,99.0,-927.0,553.0,-141.0,0.0,0.0,0.0
19:32:40.917000,-53.0,23.0,264.0,-927.0,553.0,-141.0,0.0,0.0,0.0
19:32:40.921000,-76.0,-23.0,490.0,-834.0,527.0,-180.0,0.0,0.0,0.0
19:32:40.926000,-88.0,-67.0,640.0,-834.0,527.0,-180.0,0.0,0.0,0.0
19:32:40.931000,-98.0,-109.0,718.0,-799.0,570.0,-210.0,0.0,0.0,0.0
19:32:40.935000,-113.0,-138.0,828.0,-799.0,570.0,-210.0,0.0,0.0,0.0
19:32:40.940000,-107.0,-163.0,910.0,-800.0,560.0,-235.0,0.0,0.0,0.0
19:32:40.945000,-92.0,-180.0,919.0,-800.0,560.0,-235.0,0.0,0.0,0.0
19:32:40.949000,-92.0,-193.0,897.0,-881.0,533.0,-247.0,0.0,0.0,0.0
19:32:40.954000,-98.0,-198.0,833.0,-881.0,533.0,-247.0,0.0,0.0,0.0
19:32:40.959000,-91.0,-204.0,735.0,-881.0,533.0,-247.0,0.0,0.0,0.0
19:32:40.964000,-95.0,-201.0,614.0,-1068.0,549.0,-254.0,0.0,0.0,0.0
19:32:40.968000,-102.0,-193.0,487.0,-1068.0,549.0,-254.0,0.0,0.0,0.0
19:32:40.973000,-91.0,-201.0,416.0,-1226.0,460.0,-267.0,0.0,0.0,0.0
19:32:40.978000,-60.0,-187.0,371.0,-1226.0,460.0,-267.0,0.0,0.0,0.0
19:32:40.982000,-40.0,-165.0,322.0,-1327.0,262.0,-242.0,0.0,0.0,0.0
19:32:40.987000,-20.0,-140.0,194.0,-1327.0,262.0,-242.0,0.0,0.0,0.0
19:32:40.992000,6.0,-128.0,-44.0,-1463.0,93.0,-205.0,0.0,0.0,0.0
19:32:40.997000,6.0,-128.0,-44.0,-1463.0,93.0,-205.0,0.0,0.0,0.0
19:32:41.001000,35.0,-120.0,-265.0,-1542.0,-99.0,-153.0,0.0,0.0,0.0
19:32:41.005000,49.0,-105.0,-373.0,-1542.0,-99.0,-153.0,0.0,0.0,0.0
19:32:41.011000,41.0,-84.0,-394.0,-1432.0,-270.0,-55.0,0.0,0.0,0.0
19:32:41.015000,7.0,-81.0,-315.0,-1432.0,-270.0,-55.0,0.0,0.0,0.0
19:32:41.020000,6.0,-84.0,-203.0,-1235.0,-278.0,35.0,0.0,0.0,0.0
19:32:41.025000,2.0,-54.0,-215.0,-1235.0,-278.0,35.0,0.0,0.0,0.0
19:32:41.029000,-32.0,-7.0,-378.0,-1126.0,-239.0,68.0,0.0,0.0,0.0
19:32:41.034000,53.0,23.0,-597.0,-1126.0,-239.0,68.0,0.0,0.0,0.0
19:32:41.039000,-32.0,22.0,-700.0,-1120.0,-350.0,89.0,0.0,0.0,0.0
19:32:41.044000,-69.0,37.0,-711.0,-1120.0,-350.0,89.0,0.0,0.0,0.0
19:32:41.048000,-54.0,62.0,-784.0,-1174.0,-547.0,81.0,0.0,0.0,0.0
19:32:41.053000,-15.0,93.0,-910.0,-1174.0,-547.0,81.0,0.0,0.0,0.0
19:32:41.058000,0.0,109.0,-918.0,-1174.0,-547.0,81.0,0.0,0.0,0.0
19:32:41.062000,5.0,112.0,-809.0,-1180.0,-671.0,52.0,0.0,0.0,0.0
19:32:41.067000,4.0,122.0,-744.0,-1098.0,-629.0,42.0,0.0,0.0,0.0
19:32:41.072000,9.0,136.0,-700.0,-1098.0,-629.0,42.0,0.0,0.0,0.0
19:32:41.076000,11.0,147.0,-682.0,-1098.0,-629.0,42.0,0.0,0.0,0.0
19:32:41.081000,-11.0,165.0,-706.0,-1108.0,-454.0,11.0,0.0,0.0,0.0
19:32:41.086000,-12.0,186.0,-748.0,-1108.0,-454.0,11.0,0.0,0.0,0.0
19:32:41.091000,-6.0,212.0,-770.0,-1222.0,-322.0,-31.0,0.0,0.0,0.0
19:32:41.095000,-15.0,240.0,-752.0,-1222.0,-322.0,-31.0,0.0,0.0,0.0
19:32:41.100000,-18.0,267.0,-732.0,-1327.0,-224.0,-64.0,0.0,0.0,0.0
19:32:41.105000,-18.0,267.0,-732.0,-1327.0,-224.0,-64.0,0.0,0.0,0.0
19:32:41.109000,-16.0,295.0,-747.0,-1397.0,-138.0,-96.0,0.0,0.0,0.0
19:32:41.114000,-18.0,329.0,-766.0,-1397.0,-138.0,-96.0,0.0,0.0,0.0
19:32:41.119000,4.0,346.0,-736.0,-1419.0,-119.0,-115.0,0.0,0.0,0.0
19:32:41.123000,49.0,347.0,-713.0,-1419.0,-119.0,-115.0,0.0,0.0,0.0
19:32:41.128000,76.0,357.0,-771.0,-1408.0,-139.0,-111.0,0.0,0.0,0.0
19:32:41.133000,92.0,358.0,-826.0,-1408.0,-139.0,-111.0,0.0,0.0,0.0
19:32:41.138000,113.0,352.0,-783.0,-1299.0,-167.0,-109.0,0.0,0.0,0.0
19:32:41.142000,133.0,355.0,-715.0,-1299.0,-167.0,-109.0,0.0,0.0,0.0
19:32:41.147000,163.0,348.0,-667.0,-1191.0,-168.0,-123.0,0.0,0.0,0.0
19:32:41.152000,221.0,340.0,-648.0,-1191.0,-168.0,-123.0,0.0,0.0,0.0
19:32:41.156000,233.0,335.0,-617.0,-1228.0,-138.0,-140.0,0.0,0.0,0.0
19:32:41.161000,266.0,333.0,-546.0,-1228.0,-138.0,-140.0,0.0,0.0,0.0
19:32:41.166000,277.0,326.0,-534.0,-1228.0,-138.0,-140.0,0.0,0.0,0.0
19:32:41.170000,301.0,309.0,-578.0,-1333.0,-53.0,-154.0,0.0,0.0,0.0
19:32:41.175000,288.0,310.0,-610.0,-1333.0,-53.0,-154.0,0.0,0.0,0.0
19:32:41.180000,249.0,312.0,-571.0,-1373.0,83.0,-165.0,0.0,0.0,0.0
19:32:41.185000,228.0,307.0,-534.0,-1373.0,83.0,-165.0,0.0,0.0,0.0
19:32:41.189000,232.0,297.0,-604.0,-1351.0,54.0,-182.0,0.0,0.0,0.0
19:32:41.194000,217.0,291.0,-707.0,-1351.0,54.0,-182.0,0.0,0.0,0.0
19:32:41.199000,164.0,289.0,-800.0,-1324.0,65.0,-184.0,0.0,0.0,0.0
19:32:41.203000,119.0,287.0,-796.0,-1324.0,65.0,-184.0,0.0,0.0,0.0
19:32:41.208000,86.0,287.0,-684.0,-1223.0,161.0,-173.0,0.0,0.0,0.0
19:32:41.213000,86.0,287.0,-684.0,-1223.0,161.0,-173.0,0.0,0.0,0.0
19:32:41.217000,83.0,291.0,-606.0,-1201.0,159.0,-201.0,0.0,0.0,0.0
19:32:41.222000,69.0,290.0,-616.0,-1201.0,159.0,-201.0,0.0,0.0,0.0
19:32:41.227000,35.0,282.0,-612.0,-1325.0,199.0,-233.0,0.0,0.0,0.0
19:32:41.232000,23.0,266.0,-590.0,-1325.0,199.0,-233.0,0.0,0.0,0.0
19:32:41.236000,2.0,251.0,-574.0,-1373.0,209.0,-249.0,0.0,0.0,0.0
19:32:41.241000,0.0,241.0,-520.0,-1373.0,209.0,-249.0,0.0,0.0,0.0
19:32:41.246000,14.0,226.0,-501.0,-1328.0,194.0,-268.0,0.0,0.0,0.0
19:32:41.250000,33.0,216.0,-527.0,-1328.0,194.0,-268.0,0.0,0.0,0.0
19:32:41.255000,30.0,208.0,-575.0,-1311.0,214.0,-278.0,0.0,0.0,0.0
19:32:41.260000,54.0,185.0,-547.0,-1311.0,214.0,-278.0,0.0,0.0,0.0
19:32:41.264000,65.0,163.0,-527.0,-1330.0,233.0,-270.0,0.0,0.0,0.0
19:32:41.269000,36.0,150.0,-581.0,-1330.0,233.0,-270.0,0.0,0.0,0.0
19:32:41.274000,25.0,145.0,-569.0,-1330.0,251.0,-270.0,0.0,0.0,0.0
19:32:41.279000,45.0,131.0,-488.0,-1265.0,251.0,-251.0,0.0,0.0,0.0
19:32:41.283000,38.0,120.0,-484.0,-1265.0,251.0,-251.0,0.0,0.0,0.0
19:32:41.288000,21.0,109.0,-530.0,-1157.0,345.0,-241.0,0.0,0.0,0.0
19:32:41.293000,37.0,86.0,-529.0,-1157.0,345.0,-241.0,0.0,0.0,0.0
19:32:41.297000,32.0,85.0,-506.0,-1136.0,367.0,-231.0,0.0,0.0,0.0
19:32:41.302000,56.0,70.0,-539.0,-1136.0,367.0,-231.0,0.0,0.0,0.0
19:32:41.307000,60.0,60.0,-599.0,-1194.0,276.0,-218.0,0.0,0.0,0.0
19:32:41.311000,65.0,49.0,-609.0,-1194.0,276.0,-218.0,0.0,0.0,0.0
19:32:41.316000,68.0,46.0,-553.0,-1241.0,258.0,-210.0,0.0,0.0,0.0
19:32:41.321000,68.0,46.0,-553.0,-1241.0,258.0,-210.0,0.0,0.0,0.0
19:32:41.326000,62.0,52.0,-466.0,-1210.0,289.0,-208.0,0.0,0.0,0.0
19:32:41.330000,62.0,66.0,-471.0,-1210.0,289.0,-208.0,0.0,0.0,0.0
19:32:41.335000,52.0,88.0,-499.0,-1161.0,331.0,-210.0,0.0,0.0,0.0
19:32:41.340000,52.0,100.0,-468.0,-1161.0,331.0,-210.0,0.0,0.0,0.0
19:32:41.344000,51.0,126.0,-455.0,-1128.0,373.0,-211.0,0.0,0.0,0.0
19:32:41.349000,13.0,149.0,-446.0,-1128.0,373.0,-211.0,0.0,0.0,0.0
19:32:41.354000,-7.0,161.0,-418.0,-1091.0,423.0,-209.0,0.0,0.0,0.0
19:32:41.358000,-58.0,166.0,-415.0,-1091.0,423.0,-209.0,0.0,0.0,0.0
19:32:41.363000,-109.0,177.0,-535.0,-1177.0,427.0,-203.0,0.0,0.0,0.0
19:32:41.368000,-74.0,164.0,-656.0,-1177.0,427.0,-203.0,0.0,0.0,0.0
19:32:41.373000,-51.0,156.0,-609.0,-1140.0,325.0,-215.0,0.0,0.0,0.0
19:32:41.377000,-27.0,164.0,-431.0,-1140.0,325.0,-215.0,0.0,0.0,0.0
19:32:41.382000,-6.0,139.0,-323.0,-1030.0,217.0,-225.0,0.0,0.0,0.0
19:32:41.387000,48.0,128.0,-350.0,-1030.0,217.0,-225.0,0.0,0.0,0.0
19:32:41.391000,98.0,125.0,-379.0,-1030.0,217.0,-225.0,0.0,0.0,0.0
19:32:41.396000,108.0,126.0,-309.0,-1161.0,196.0,-231.0,0.0,0.0,0.0
19:32:41.401000,114.0,105.0,-254.0,-1161.0,196.0,-231.0,0.0,0.0,0.0
19:32:41.405000,128.0,112.0,-262.0,-1225.0,214.0,-228.0,0.0,0.0,0.0
19:32:41.410000,162.0,129.0,-273.0,-1225.0,214.0,-228.0,0.0,0.0,0.0
19:32:41.415000,112.0,139.0,-226.0,-1205.0,264.0,-213.0,0.0,0.0,0.0
19:32:41.420000,142.0,154.0,-128.0,-1205.0,264.0,-213.0,0.0,0.0,0.0
19:32:41.424000,154.0,188.0,-157.0,-1179.0,306.0,-217.0,0.0,0.0,0.0
19:32:41.429000,135.0,210.0,-206.0,-1179.0,306.0,-217.0,0.0,0.0,0.0
19:32:41.434000,135.0,210.0,-206.0,-1227.0,356.0,-232.0,0.0,0.0,0.0
19:32:41.438000,137.0,247.0,-192.0,-1227.0,356.0,-232.0,0.0,0.0,0.0
19:32:41.443000,146.0,266.0,-196.0,-1291.0,382.0,-236.0,0.0,0.0,0.0
19:32:41.448000,149.0,282.0,-182.0,-1291.0,382.0,-236.0,0.0,0.0,0.0
19:32:41.452000,156.0,283.0,-209.0,-1322.0,389.0,-233.0,0.0,0.0,0.0
19:32:41.457000,170.0,298.0,-239.0,-1322.0,389.0,-233.0,0.0,0.0,0.0
19:32:41.462000,168.0,315.0,-289.0,-1335.0,436.0,-234.0,0.0,0.0,0.0
19:32:41.467000,171.0,317.0,-263.0,-1335.0,436.0,-234.0,0.0,0.0,0.0
19:32:41.471000,153.0,312.0,-224.0,-1230.0,481.0,-232.0,0.0,0.0,0.0
19:32:41.475000,135.0,305.0,-214.0,-1230.0,481.0,-232.0,0.0,0.0,0.0
19:32:41.481000,123.0,279.0,-217.0,-1051.0,530.0,-224.0,0.0,0.0,0.0
19:32:41.485000,96.0,257.0,-213.0,-1051.0,530.0,-224.0,0.0,0.0,0.0
19:32:41.490000,82.0,227.0,-196.0,-865.0,578.0,-226.0,0.0,0.0,0.0
19:32:41.495000,66.0,192.0,-168.0,-865.0,578.0,-226.0,0.0,0.0,0.0
19:32:41.499000,49.0,168.0,-175.0,-865.0,578.0,-226.0,0.0,0.0,0.0
19:32:41.504000,25.0,148.0,-205.0,-842.0,614.0,-240.0,0.0,0.0,0.0
19:32:41.509000,-10.0,122.0,-203.0,-842.0,614.0,-240.0,0.0,0.0,0.0
19:32:41.514000,-58.0,105.0,-194.0,-944.0,654.0,-253.0,0.0,0.0,0.0
19:32:41.518000,-93.0,104.0,-226.0,-944.0,654.0,-253.0,0.0,0.0,0.0
19:32:41.523000,-130.0,96.0,-254.0,-960.0,698.0,-268.0,0.0,0.0,0.0
19:32:41.528000,-160.0,90.0,-232.0,-960.0,698.0,-268.0,0.0,0.0,0.0
19:32:41.532000,-168.0,83.0,-220.0,-882.0,655.0,-291.0,0.0,0.0,0.0
19:32:41.537000,-170.0,69.0,-224.0,-882.0,655.0,-291.0,0.0,0.0,0.0
19:32:41.542000,-170.0,69.0,-224.0,-827.0,575.0,-318.0,0.0,0.0,0.0
19:32:41.546000,-164.0,56.0,-238.0,-827.0,575.0,-318.0,0.0,0.0,0.0
19:32:41.551000,-146.0,35.0,-241.0,-792.0,501.0,-344.0,0.0,0.0,0.0
19:32:41.556000,-126.0,13.0,-238.0,-792.0,501.0,-344.0,0.0,0.0,0.0
19:32:41.561000,-97.0,-10.0,-247.0,-721.0,442.0,-357.0,0.0,0.0,0.0
19:32:41.565000,-63.0,-35.0,-256.0,-721.0,442.0,-357.0,0.0,0.0,0.0
19:32:41.570000,-28.0,-63.0,-249.0,-641.0,419.0,-354.0,0.0,0.0,0.0
19:32:41.575000,14.0,-86.0,-235.0,-641.0,419.0,-354.0,0.0,0.0,0.0
19:32:41.579000,63.0,-102.0,-241.0,-600.0,401.0,-339.0,0.0,0.0,0.0
19:32:41.584000,107.0,-111.0,-226.0,-600.0,401.0,-339.0,0.0,0.0,0.0
19:32:41.589000,149.0,-113.0,-184.0,-611.0,391.0,-313.0,0.0,0.0,0.0
19:32:41.593000,187.0,-112.0,-144.0,-611.0,391.0,-313.0,0.0,0.0,0.0
19:32:41.598000,219.0,-108.0,-102.0,-626.0,390.0,-282.0,0.0,0.0,0.0
19:32:41.603000,245.0,-103.0,-58.0,-626.0,390.0,-282.0,0.0,0.0,0.0
19:32:41.608000,268.0,-104.0,-21.0,-626.0,390.0,-282.0,0.0,0.0,0.0
19:32:41.612000,291.0,-115.0,16.0,-607.0,408.0,-259.0,0.0,0.0,0.0
19:32:41.617000,301.0,-133.0,63.0,-607.0,408.0,-259.0,0.0,0.0,0.0
19:32:41.622000,308.0,-152.0,86.0,-546.0,443.0,-232.0,0.0,0.0,0.0
19:32:41.626000,308.0,-176.0,81.0,-546.0,443.0,-232.0,0.0,0.0,0.0
19:32:41.631000,289.0,-203.0,83.0,-479.0,508.0,-195.0,0.0,0.0,0.0
19:32:41.636000,249.0,-225.0,105.0,-479.0,508.0,-195.0,0.0,0.0,0.0
19:32:41.640000,179.0,-238.0,135.0,-432.0,610.0,-150.0,0.0,0.0,0.0
19:32:41.645000,101.0,-238.0,149.0,-432.0,610.0,-150.0,0.0,0.0,0.0
19:32:41.650000,101.0,-238.0,149.0,-428.0,738.0,-99.0,0.0,0.0,0.0
19:32:41.654000,11.0,-228.0,132.0,-428.0,738.0,-99.0,0.0,0.0,0.0
19:32:41.659000,-74.0,-207.0,107.0,-451.0,789.0,-72.0,0.0,0.0,0.0
19:32:41.664000,-154.0,-178.0,100.0,-451.0,789.0,-72.0,0.0,0.0,0.0
19:32:41.669000,-219.0,-142.0,119.0,-502.0,693.0,-84.0,0.0,0.0,0.0
19:32:41.673000,-262.0,-99.0,140.0,-502.0,693.0,-84.0,0.0,0.0,0.0
19:32:41.678000,-278.0,-54.0,141.0,-591.0,499.0,-122.0,0.0,0.0,0.0
19:32:41.683000,-264.0,-20.0,145.0,-591.0,499.0,-122.0,0.0,0.0,0.0
19:32:41.687000,-216.0,2.0,156.0,-621.0,244.0,-159.0,0.0,0.0,0.0
19:32:41.692000,-146.0,8.0,159.0,-621.0,244.0,-159.0,0.0,0.0,0.0
19:32:41.697000,-62.0,0.0,141.0,-558.0,50.0,-175.0,0.0,0.0,0.0
19:32:41.701000,16.0,-16.0,114.0,-558.0,50.0,-175.0,0.0,0.0,0.0
19:32:41.706000,70.0,-41.0,88.0,-464.0,65.0,-166.0,0.0,0.0,0.0
19:32:41.720000,60.0,-120.0,18.0,-384.0,238.0,-142.0,0.0,0.0,0.0
19:32:41.725000,21.0,-142.0,-14.0,-384.0,238.0,-142.0,0.0,0.0,0.0
19:32:41.730000,-14.0,-158.0,-47.0,-353.0,408.0,-126.0,0.0,0.0,0.0
19:32:41.734000,-44.0,-166.0,-77.0,-353.0,408.0,-126.0,0.0,0.0,0.0
19:32:41.739000,-65.0,-170.0,-98.0,-405.0,485.0,-129.0,0.0,0.0,0.0
19:32:41.744000,-74.0,-167.0,-107.0,-405.0,485.0,-129.0,0.0,0.0,0.0
19:32:41.748000,-72.0,-161.0,-105.0,-548.0,478.0,-141.0,0.0,0.0,0.0
19:32:41.753000,-61.0,-153.0,-90.0,-548.0,478.0,-141.0,0.0,0.0,0.0
19:32:41.758000,-48.0,-145.0,-69.0,-700.0,415.0,-147.0,0.0,0.0,0.0
19:32:41.763000,-48.0,-145.0,-69.0,-700.0,415.0,-147.0,0.0,0.0,0.0
19:32:41.767000,-38.0,-139.0,-55.0,-768.0,362.0,-140.0,0.0,0.0,0.0
19:32:41.772000,-37.0,-134.0,-45.0,-768.0,362.0,-140.0,0.0,0.0,0.0
19:32:41.777000,-49.0,-131.0,-42.0,-755.0,370.0,-118.0,0.0,0.0,0.0
19:32:41.781000,-67.0,-129.0,-44.0,-755.0,370.0,-118.0,0.0,0.0,0.0
19:32:41.786000,-88.0,-127.0,-49.0,-707.0,364.0,-94.0,0.0,0.0,0.0
19:32:41.791000,-109.0,-123.0,-61.0,-707.0,364.0,-94.0,0.0,0.0,0.0
19:32:41.795000,-130.0,-118.0,-86.0,-672.0,317.0,-78.0,0.0,0.0,0.0
19:32:41.800000,-149.0,-110.0,-114.0,-672.0,317.0,-78.0,0.0,0.0,0.0
19:32:41.805000,-159.0,-99.0,-135.0,-668.0,250.0,-75.0,0.0,0.0,0.0
19:32:41.810000,-156.0,-87.0,-146.0,-668.0,250.0,-75.0,0.0,0.0,0.0
19:32:41.814000,-144.0,-74.0,-147.0,-701.0,161.0,-80.0,0.0,0.0,0.0
19:32:41.819000,-125.0,-62.0,-141.0,-701.0,161.0,-80.0,0.0,0.0,0.0
19:32:41.824000,-100.0,-51.0,-129.0,-701.0,161.0,-80.0,0.0,0.0,0.0
19:32:41.828000,-77.0,-48.0,-114.0,-742.0,82.0,-86.0,0.0,0.0,0.0
19:32:41.833000,-65.0,-49.0,-94.0,-742.0,82.0,-86.0,0.0,0.0,0.0
19:32:41.838000,-72.0,-53.0,-67.0,-747.0,86.0,-85.0,0.0,0.0,0.0
19:32:41.842000,-97.0,-62.0,-40.0,-747.0,86.0,-85.0,0.0,0.0,0.0
19:32:41.847000,-126.0,-74.0,-16.0,-717.0,149.0,-67.0,0.0,0.0,0.0
19:32:41.851000,-151.0,-92.0,0.0,-717.0,149.0,-67.0,0.0,0.0,0.0
19:32:41.857000,-172.0,-111.0,-2.0,-659.0,138.0,-34.0,0.0,0.0,0.0
19:32:41.861000,-198.0,-128.0,-21.0,-659.0,138.0,-34.0,0.0,0.0,0.0
19:32:41.866000,-226.0,-142.0,-42.0,-626.0,94.0,-2.0,0.0,0.0,0.0
19:32:41.871000,-226.0,-142.0,-42.0,-626.0,94.0,-2.0,0.0,0.0,0.0
19:32:41.875000,-244.0,-150.0,-63.0,-646.0,65.0,18.0,0.0,0.0,0.0
19:32:41.880000,-242.0,-151.0,-81.0,-646.0,65.0,18.0,0.0,0.0,0.0
19:32:41.885000,-224.0,-147.0,-100.0,-692.0,3.0,14.0,0.0,0.0,0.0
19:32:41.889000,-199.0,-137.0,-114.0,-692.0,3.0,14.0,0.0,0.0,0.0
19:32:41.894000,-172.0,-124.0,-112.0,-757.0,-35.0,-5.0,0.0,0.0,0.0
19:32:41.899000,-142.0,-107.0,-98.0,-757.0,-35.0,-5.0,0.0,0.0,0.0
19:32:41.904000,-110.0,-90.0,-86.0,-804.0,-39.0,-27.0,0.0,0.0,0.0
19:32:41.908000,-78.0,-73.0,-85.0,-804.0,-39.0,-27.0,0.0,0.0,0.0
19:32:41.913000,-53.0,-61.0,-86.0,-800.0,-12.0,-43.0,0.0,0.0,0.0
19:32:41.918000,-39.0,-49.0,-79.0,-800.0,-12.0,-43.0,0.0,0.0,0.0
19:32:41.922000,-38.0,-38.0,-71.0,-761.0,49.0,-41.0,0.0,0.0,0.0
19:32:41.927000,-43.0,-33.0,-72.0,-761.0,49.0,-41.0,0.0,0.0,0.0
19:32:41.932000,-46.0,-35.0,-82.0,-761.0,49.0,-41.0,0.0,0.0,0.0
19:32:41.936000,-46.0,-44.0,-95.0,-712.0,86.0,-35.0,0.0,0.0,0.0
19:32:41.941000,-43.0,-58.0,-102.0,-712.0,86.0,-35.0,0.0,0.0,0.0
19:32:41.946000,-43.0,-75.0,-98.0,-685.0,96.0,-48.0,0.0,0.0,0.0
19:32:41.951000,-45.0,-96.0,-84.0,-685.0,96.0,-48.0,0.0,0.0,0.0
19:32:41.955000,-48.0,-116.0,-56.0,-688.0,134.0,-72.0,0.0,0.0,0.0
19:32:41.959000,-50.0,-137.0,-16.0,-688.0,134.0,-72.0,0.0,0.0,0.0
19:32:41.965000,-51.0,-156.0,30.0,-706.0,176.0,-98.0,0.0,0.0,0.0
19:32:41.969000,-47.0,-172.0,77.0,-706.0,176.0,-98.0,0.0,0.0,0.0
19:32:41.974000,-38.0,-184.0,129.0,-746.0,175.0,-125.0,0.0,0.0,0.0
19:32:41.979000,-38.0,-184.0,129.0,-746.0,175.0,-125.0,0.0,0.0,0.0
19:32:41.983000,-23.0,-193.0,186.0,-795.0,103.0,-144.0,0.0,0.0,0.0
19:32:41.988000,-1.0,-200.0,243.0,-795.0,103.0,-144.0,0.0,0.0,0.0
19:32:41.993000,23.0,-205.0,294.0,-838.0,0.0,-144.0,0.0,0.0,0.0
19:32:41.998000,45.0,-207.0,329.0,-838.0,0.0,-144.0,0.0,0.0,0.0
19:32:42.002000,58.0,-206.0,344.0,-883.0,-15.0,-132.0,0.0,0.0,0.0
19:32:42.007000,57.0,-206.0,344.0,-883.0,-15.0,-132.0,0.0,0.0,0.0
19:32:42.012000,40.0,-207.0,335.0,-901.0,95.0,-109.0,0.0,0.0,0.0
19:32:42.016000,9.0,-210.0,333.0,-901.0,95.0,-109.0,0.0,0.0,0.0
19:32:42.021000,-28.0,-212.0,343.0,-869.0,210.0,-78.0,0.0,0.0,0.0
19:32:42.026000,-67.0,-215.0,359.0,-869.0,210.0,-78.0,0.0,0.0,0.0
19:32:42.030000,-100.0,-219.0,378.0,-821.0,213.0,-55.0,0.0,0.0,0.0
19:32:42.035000,-121.0,-221.0,399.0,-821.0,213.0,-55.0,0.0,0.0,0.0
19:32:42.040000,-130.0,-221.0,422.0,-829.0,139.0,-54.0,0.0,0.0,0.0
19:32:42.045000,-137.0,-216.0,443.0,-829.0,139.0,-54.0,0.0,0.0,0.0
19:32:42.049000,-145.0,-208.0,462.0,-829.0,139.0,-54.0,0.0,0.0,0.0
19:32:42.054000,-156.0,-198.0,476.0,-887.0,88.0,-71.0,0.0,0.0,0.0
19:32:42.059000,-170.0,-186.0,489.0,-887.0,88.0,-71.0,0.0,0.0,0.0
19:32:42.063000,-179.0,-174.0,502.0,-903.0,79.0,-91.0,0.0,0.0,0.0
19:32:42.068000,-182.0,-163.0,513.0,-903.0,79.0,-91.0,0.0,0.0,0.0
19:32:42.073000,-175.0,-152.0,517.0,-854.0,51.0,-109.0,0.0,0.0,0.0
19:32:42.077000,-161.0,-143.0,518.0,-854.0,51.0,-109.0,0.0,0.0,0.0
19:32:42.082000,-147.0,-133.0,522.0,-810.0,20.0,-133.0,0.0,0.0,0.0
19:32:42.086000,-147.0,-133.0,522.0,-810.0,20.0,-133.0,0.0,0.0,0.0
19:32:42.092000,-138.0,-123.0,532.0,-796.0,43.0,-155.0,0.0,0.0,0.0
19:32:42.096000,-134.0,-119.0,552.0,-796.0,43.0,-155.0,0.0,0.0,0.0
19:32:42.101000,-127.0,-117.0,587.0,-758.0,60.0,-165.0,0.0,0.0,0.0
19:32:42.106000,-111.0,-121.0,631.0,-758.0,60.0,-165.0,0.0,0.0,0.0
19:32:42.110000,-88.0,-125.0,671.0,-716.0,50.0,-172.0,0.0,0.0,0.0
19:32:42.115000,-71.0,-130.0,700.0,-716.0,50.0,-172.0,0.0,0.0,0.0
19:32:42.120000,-59.0,-137.0,721.0,-723.0,78.0,-175.0,0.0,0.0,0.0
19:32:42.124000,-49.0,-147.0,739.0,-723.0,78.0,-175.0,0.0,0.0,0.0
19:32:42.129000,-38.0,-156.0,752.0,-723.0,112.0,-172.0,0.0,0.0,0.0
19:32:42.134000,-28.0,-164.0,758.0,-723.0,112.0,-172.0,0.0,0.0,0.0
19:32:42.139000,-21.0,-171.0,758.0,-710.0,150.0,-172.0,0.0,0.0,0.0
19:32:42.143000,-16.0,-177.0,758.0,-710.0,150.0,-172.0,0.0,0.0,0.0
19:32:42.148000,-21.0,-181.0,752.0,-736.0,216.0,-176.0,0.0,0.0,0.0
19:32:42.153000,-24.0,-185.0,746.0,-736.0,216.0,-176.0,0.0,0.0,0.0
19:32:42.157000,-28.0,-189.0,745.0,-736.0,216.0,-176.0,0.0,0.0,0.0
19:32:42.162000,-30.0,-190.0,751.0,-788.0,244.0,-186.0,0.0,0.0,0.0
19:32:42.167000,-33.0,-188.0,765.0,-788.0,244.0,-186.0,0.0,0.0,0.0
19:32:42.171000,-43.0,-184.0,777.0,-838.0,222.0,-200.0,0.0,0.0,0.0
19:32:42.176000,-60.0,-177.0,776.0,-838.0,222.0,-200.0,0.0,0.0,0.0
19:32:42.181000,-82.0,-173.0,766.0,-891.0,215.0,-212.0,0.0,0.0,0.0
19:32:42.186000,-105.0,-170.0,754.0,-891.0,215.0,-212.0,0.0,0.0,0.0
19:32:42.190000,-126.0,-159.0,742.0,-936.0,215.0,-222.0,0.0,0.0,0.0
19:32:42.195000,-149.0,-135.0,732.0,-936.0,215.0,-222.0,0.0,0.0,0.0
19:32:42.200000,-149.0,-135.0,732.0,-992.0,195.0,-233.0,0.0,0.0,0.0
19:32:42.204000,-170.0,-112.0,736.0,-992.0,195.0,-233.0,0.0,0.0,0.0
19:32:42.209000,-184.0,-93.0,753.0,-1076.0,131.0,-235.0,0.0,0.0,0.0
19:32:42.214000,-191.0,-74.0,765.0,-1076.0,131.0,-235.0,0.0,0.0,0.0
19:32:42.218000,-186.0,-58.0,756.0,-1102.0,21.0,-228.0,0.0,0.0,0.0
19:32:42.223000,-181.0,-41.0,730.0,-1102.0,21.0,-228.0,0.0,0.0,0.0
19:32:42.228000,-170.0,-25.0,713.0,-1012.0,-59.0,-211.0,0.0,0.0,0.0
19:32:42.233000,-153.0,-13.0,699.0,-1012.0,-59.0,-211.0,0.0,0.0,0.0
19:32:42.237000,-134.0,-3.0,671.0,-895.0,-81.0,-186.0,0.0,0.0,0.0
19:32:42.242000,-109.0,2.0,630.0,-895.0,-81.0,-186.0,0.0,0.0,0.0
19:32:42.247000,-74.0,4.0,582.0,-832.0,-101.0,-157.0,0.0,0.0,0.0
19:32:42.251000,-37.0,-4.0,534.0,-832.0,-101.0,-157.0,0.0,0.0,0.0
19:32:42.256000,-6.0,-8.0,505.0,-741.0,-105.0,-126.0,0.0,0.0,0.0
19:32:42.261000,17.0,-14.0,457.0,-741.0,-105.0,-126.0,0.0,0.0,0.0
19:32:42.265000,32.0,-22.0,382.0,-741.0,-105.0,-126.0,0.0,0.0,0.0
19:32:42.270000,47.0,-37.0,319.0,-662.0,-29.0,-85.0,0.0,0.0,0.0
19:32:42.275000,58.0,-49.0,291.0,-662.0,-29.0,-85.0,0.0,0.0,0.0
19:32:42.280000,71.0,-65.0,281.0,-642.0,28.0,-39.0,0.0,0.0,0.0
19:32:42.284000,92.0,-85.0,238.0,-642.0,28.0,-39.0,0.0,0.0,0.0
19:32:42.289000,109.0,-110.0,186.0,-631.0,42.0,-8.0,0.0,0.0,0.0
19:32:42.294000,131.0,-126.0,173.0,-631.0,42.0,-8.0,0.0,0.0,0.0
19:32:42.298000,146.0,-135.0,149.0,-645.0,30.0,-11.0,0.0,0.0,0.0
19:32:42.303000,176.0,-145.0,159.0,-645.0,30.0,-11.0,0.0,0.0,0.0
19:32:42.308000,176.0,-145.0,159.0,-804.0,7.0,-18.0,0.0,0.0,0.0
19:32:42.312000,189.0,-151.0,328.0,-804.0,7.0,-18.0,0.0,0.0,0.0
19:32:42.317000,216.0,-156.0,485.0,-926.0,-1.0,-4.0,0.0,0.0,0.0
19:32:42.322000,259.0,-151.0,476.0,-926.0,-1.0,-4.0,0.0,0.0,0.0
19:32:42.327000,298.0,-117.0,323.0,-814.0,15.0,11.0,0.0,0.0,0.0
19:32:42.331000,280.0,-92.0,233.0,-814.0,15.0,11.0,0.0,0.0,0.0
19:32:42.336000,247.0,-61.0,296.0,-670.0,49.0,24.0,0.0,0.0,0.0
19:32:42.341000,200.0,-28.0,294.0,-670.0,49.0,24.0,0.0,0.0,0.0
19:32:42.345000,182.0,-6.0,217.0,-648.0,115.0,9.0,0.0,0.0,0.0
19:32:42.350000,170.0,11.0,126.0,-648.0,115.0,9.0,0.0,0.0,0.0
19:32:42.355000,163.0,28.0,79.0,-699.0,181.0,-41.0,0.0,0.0,0.0
19:32:42.359000,174.0,41.0,27.0,-699.0,181.0,-41.0,0.0,0.0,0.0
19:32:42.364000,193.0,57.0,-93.0,-721.0,190.0,-108.0,0.0,0.0,0.0
19:32:42.369000,222.0,73.0,-214.0,-721.0,190.0,-108.0,0.0,0.0,0.0
19:32:42.374000,252.0,86.0,-279.0,-721.0,190.0,-108.0,0.0,0.0,0.0
19:32:42.378000,274.0,91.0,-276.0,-749.0,203.0,-177.0,0.0,0.0,0.0
19:32:42.383000,298.0,85.0,-217.0,-835.0,242.0,-234.0,0.0,0.0,0.0
19:32:42.388000,308.0,80.0,-156.0,-835.0,242.0,-234.0,0.0,0.0,0.0
19:32:42.392000,315.0,74.0,-167.0,-835.0,242.0,-234.0,0.0,0.0,0.0
19:32:42.397000,288.0,62.0,-203.0,-913.0,409.0,-291.0,0.0,0.0,0.0
19:32:42.402000,256.0,31.0,-192.0,-913.0,409.0,-291.0,0.0,0.0,0.0
19:32:42.406000,215.0,-6.0,-175.0,-914.0,690.0,-326.0,0.0,0.0,0.0
19:32:42.411000,142.0,-44.0,-149.0,-914.0,690.0,-326.0,0.0,0.0,0.0
19:32:42.416000,97.0,-90.0,-144.0,-894.0,915.0,-327.0,0.0,0.0,0.0
19:32:42.421000,97.0,-90.0,-144.0,-894.0,915.0,-327.0,0.0,0.0,0.0
19:32:42.425000,60.0,-135.0,-126.0,-913.0,950.0,-321.0,0.0,0.0,0.0
19:32:42.430000,16.0,-178.0,-67.0,-913.0,950.0,-321.0,0.0,0.0,0.0
19:32:42.435000,-15.0,-217.0,2.0,-931.0,848.0,-306.0,0.0,0.0,0.0
19:32:42.439000,-31.0,-251.0,52.0,-931.0,848.0,-306.0,0.0,0.0,0.0
19:32:42.443000,-58.0,-279.0,82.0,-991.0,753.0,-267.0,0.0,0.0,0.0
19:32:42.449000,-88.0,-298.0,112.0,-991.0,753.0,-267.0,0.0,0.0,0.0
19:32:42.453000,-68.0,-317.0,116.0,-1131.0,635.0,-203.0,0.0,0.0,0.0
19:32:42.458000,-77.0,-295.0,52.0,-1131.0,635.0,-203.0,0.0,0.0,0.0
19:32:42.463000,-91.0,-265.0,-45.0,-1275.0,487.0,-148.0,0.0,0.0,0.0
19:32:42.468000,-105.0,-225.0,-121.0,-1275.0,487.0,-148.0,0.0,0.0,0.0
19:32:42.472000,-62.0,-189.0,-121.0,-1390.0,310.0,-128.0,0.0,0.0,0.0
19:32:42.477000,-20.0,-130.0,-164.0,-1390.0,310.0,-128.0,0.0,0.0,0.0
19:32:42.482000,-49.0,-93.0,-338.0,-1390.0,310.0,-128.0,0.0,0.0,0.0
19:32:42.486000,-49.0,-44.0,-514.0,-1439.0,198.0,-83.0,0.0,0.0,0.0
19:32:42.491000,37.0,-7.0,-597.0,-1439.0,198.0,-83.0,0.0,0.0,0.0
19:32:42.496000,34.0,53.0,-576.0,-1380.0,74.0,-44.0,0.0,0.0,0.0
19:32:42.500000,-2.0,67.0,-531.0,-1380.0,74.0,-44.0,0.0,0.0,0.0
19:32:42.505000,13.0,102.0,-611.0,-1295.0,-91.0,-15.0,0.0,0.0,0.0
19:32:42.510000,0.0,133.0,-662.0,-1295.0,-91.0,-15.0,0.0,0.0,0.0
19:32:42.515000,-16.0,150.0,-568.0,-1287.0,-133.0,25.0,0.0,0.0,0.0
19:32:42.519000,-4.0,172.0,-458.0,-1287.0,-133.0,25.0,0.0,0.0,0.0
19:32:42.524000,2.0,185.0,-438.0,-1267.0,-143.0,26.0,0.0,0.0,0.0
19:32:42.529000,2.0,185.0,-438.0,-1267.0,-143.0,26.0,0.0,0.0,0.0
19:32:42.533000,-22.0,212.0,-416.0,-1223.0,-183.0,25.0,0.0,0.0,0.0
19:32:42.538000,0.0,227.0,-441.0,-1223.0,-183.0,25.0,0.0,0.0,0.0
19:32:42.543000,10.0,235.0,-496.0,-1161.0,-244.0,24.0,0.0,0.0,0.0
19:32:42.547000,22.0,251.0,-514.0,-1161.0,-244.0,24.0,0.0,0.0,0.0
19:32:42.552000,21.0,271.0,-523.0,-1101.0,-221.0,-2.0,0.0,0.0,0.0
19:32:42.556000,25.0,282.0,-548.0,-1101.0,-221.0,-2.0,0.0,0.0,0.0
19:32:42.566000,1.0,307.0,-617.0,-1160.0,-71.0,-49.0,0.0,0.0,0.0
19:32:42.571000,-17.0,323.0,-666.0,-1285.0,47.0,-92.0,0.0,0.0,0.0
19:32:42.576000,-7.0,330.0,-683.0,-1285.0,47.0,-92.0,0.0,0.0,0.0
19:32:42.580000,-3.0,347.0,-694.0,-1377.0,73.0,-130.0,0.0,0.0,0.0
19:32:42.585000,-9.0,361.0,-680.0,-1377.0,73.0,-130.0,0.0,0.0,0.0
19:32:42.590000,1.0,368.0,-627.0,-1377.0,73.0,-130.0,0.0,0.0,0.0
19:32:42.594000,14.0,376.0,-595.0,-1397.0,84.0,-156.0,0.0,0.0,0.0
19:32:42.599000,43.0,389.0,-614.0,-1397.0,84.0,-156.0,0.0,0.0,0.0
19:32:42.604000,106.0,394.0,-632.0,-1370.0,30.0,-168.0,0.0,0.0,0.0
19:32:42.609000,163.0,396.0,-670.0,-1370.0,30.0,-168.0,0.0,0.0,0.0
