hh:mm:ss.ms,gyroX[mdps],gyroY[mdps],gyroZ[mdps],accX[mg],accY[mg],accZ[mg],magX[mG],magY[mG],magZ[mG]
19:32:52.798000,-291.0,22.0,468.0,-723.0,833.0,-190.0,0.0,0.0,0.0
19:32:52.802000,-317.0,29.0,441.0,-723.0,833.0,-190.0,0.0,0.0,0.0
19:32:52.807000,-340.0,36.0,437.0,-700.0,851.0,-194.0,0.0,0.0,0.0
19:32:52.812000,-366.0,44.0,438.0,-700.0,851.0,-194.0,0.0,0.0,0.0
19:32:52.816000,-334.0,63.0,446.0,-649.0,797.0,-204.0,0.0,0.0,0.0
19:32:52.821000,-315.0,78.0,434.0,-649.0,797.0,-204.0,0.0,0.0,0.0
19:32:52.826000,-315.0,78.0,434.0,-619.0,733.0,-228.0,0.0,0.0,0.0
19:32:52.830000,-317.0,90.0,410.0,-619.0,733.0,-228.0,0.0,0.0,0.0
19:32:52.835000,-310.0,93.0,392.0,-626.0,754.0,-250.0,0.0,0.0,0.0
19:32:52.840000,-315.0,86.0,392.0,-626.0,754.0,-250.0,0.0,0.0,0.0
19:32:52.845000,-334.0,87.0,384.0,-620.0,742.0,-265.0,0.0,0.0,0.0
19:32:52.849000,-315.0,86.0,362.0,-620.0,742.0,-265.0,0.0,0.0,0.0
19:32:52.854000,-296.0,77.0,352.0,-608.0,641.0,-287.0,0.0,0.0,0.0
19:32:52.859000,-280.0,71.0,380.0,-608.0,641.0,-287.0,0.0,0.0,0.0
19:32:52.863000,-256.0,63.0,411.0,-604.0,572.0,-311.0,0.0,0.0,0.0
19:32:52.868000,-207.0,56.0,354.0,-604.0,572.0,-311.0,0.0,0.0,0.0
19:32:52.873000,-177.0,51.0,309.0,-575.0,579.0,-325.0,0.0,0.0,0.0
19:32:52.877000,-157.0,42.0,234.0,-575.0,579.0,-325.0,0.0,0.0,0.0
19:32:52.882000,-116.0,24.0,196.0,-575.0,579.0,-325.0,0.0,0.0,0.0
19:32:52.887000,-65.0,0.0,232.0,-540.0,578.0,-324.0,0.0,0.0,0.0
19:32:52.891000,-9.0,-21.0,267.0,-540.0,578.0,-324.0,0.0,0.0,0.0
19:32:52.896000,14.0,-42.0,336.0,-558.0,540.0,-309.0,0.0,0.0,0.0
19:32:52.901000,14.0,-65.0,412.0,-558.0,540.0,-309.0,0.0,0.0,0.0
19:32:52.906000,40.0,-84.0,354.0,-593.0,569.0,-271.0,0.0,0.0,0.0
19:32:52.910000,56.0,-102.0,300.0,-593.0,569.0,-271.0,0.0,0.0,0.0
19:32:52.915000,60.0,-123.0,307.0,-541.0,636.0,-219.0,0.0,0.0,0.0
19:32:52.920000,64.0,-142.0,360.0,-541.0,636.0,-219.0,0.0,0.0,0.0
19:32:52.924000,63.0,-158.0,396.0,-434.0,633.0,-169.0,0.0,0.0,0.0
19:32:52.929000,48.0,-169.0,357.0,-434.0,633.0,-169.0,0.0,0.0,0.0
19:32:52.934000,48.0,-169.0,357.0,-424.0,679.0,-132.0,0.0,0.0,0.0
19:32:52.938000,17.0,-182.0,311.0,-424.0,679.0,-132.0,0.0,0.0,0.0
19:32:52.943000,-28.0,-195.0,293.0,-440.0,781.0,-118.0,0.0,0.0,0.0
19:32:52.948000,-72.0,-200.0,278.0,-440.0,781.0,-118.0,0.0,0.0,0.0
19:32:52.953000,-128.0,-198.0,261.0,-440.0,828.0,-125.0,0.0,0.0,0.0
19:32:52.957000,-191.0,-191.0,280.0,-440.0,828.0,-125.0,0.0,0.0,0.0
19:32:52.962000,-258.0,-184.0,318.0,-471.0,807.0,-149.0,0.0,0.0,0.0
19:32:52.967000,-312.0,-175.0,323.0,-471.0,807.0,-149.0,0.0,0.0,0.0
19:32:52.971000,-360.0,-163.0,334.0,-480.0,725.0,-183.0,0.0,0.0,0.0
19:32:52.976000,-402.0,-151.0,390.0,-480.0,725.0,-183.0,0.0,0.0,0.0
19:32:52.981000,-417.0,-137.0,420.0,-460.0,604.0,-223.0,0.0,0.0,0.0
19:32:52.985000,-413.0,-128.0,415.0,-460.0,604.0,-223.0,0.0,0.0,0.0
19:32:52.990000,-392.0,-124.0,437.0,-433.0,438.0,-253.0,0.0,0.0,0.0
19:32:52.995000,-347.0,-124.0,466.0,-433.0,438.0,-253.0,0.0,0.0,0.0
19:32:53.000000,-286.0,-126.0,465.0,-433.0,438.0,-253.0,0.0,0.0,0.0
19:32:53.004000,-219.0,-137.0,458.0,-400.0,285.0,-257.0,0.0,0.0,0.0
19:32:53.009000,-162.0,-149.0,476.0,-400.0,285.0,-257.0,0.0,0.0,0.0
19:32:53.014000,-123.0,-163.0,502.0,-370.0,240.0,-229.0,0.0,0.0,0.0
19:32:53.018000,-95.0,-181.0,510.0,-370.0,240.0,-229.0,0.0,0.0,0.0
19:32:53.023000,-95.0,-196.0,512.0,-377.0,326.0,-177.0,0.0,0.0,0.0
19:32:53.028000,-107.0,-210.0,510.0,-377.0,326.0,-177.0,0.0,0.0,0.0
19:32:53.032000,-120.0,-224.0,506.0,-419.0,438.0,-121.0,0.0,0.0,0.0
19:32:53.037000,-138.0,-239.0,525.0,-419.0,438.0,-121.0,0.0,0.0,0.0
19:32:53.042000,-138.0,-239.0,525.0,-465.0,475.0,-87.0,0.0,0.0,0.0
19:32:53.047000,-157.0,-249.0,547.0,-465.0,475.0,-87.0,0.0,0.0,0.0
19:32:53.051000,-175.0,-252.0,556.0,-544.0,468.0,-81.0,0.0,0.0,0.0
19:32:53.056000,-192.0,-252.0,562.0,-544.0,468.0,-81.0,0.0,0.0,0.0
19:32:53.061000,-209.0,-252.0,581.0,-645.0,435.0,-88.0,0.0,0.0,0.0
19:32:53.065000,-221.0,-249.0,613.0,-645.0,435.0,-88.0,0.0,0.0,0.0
19:32:53.070000,-228.0,-244.0,634.0,-723.0,347.0,-100.0,0.0,0.0,0.0
19:32:53.075000,-230.0,-238.0,641.0,-723.0,347.0,-100.0,0.0,0.0,0.0
19:32:53.079000,-226.0,-229.0,643.0,-778.0,221.0,-118.0,0.0,0.0,0.0
19:32:53.084000,-221.0,-224.0,629.0,-778.0,221.0,-118.0,0.0,0.0,0.0
19:32:53.089000,-222.0,-218.0,598.0,-820.0,113.0,-134.0,0.0,0.0,0.0
19:32:53.094000,-229.0,-212.0,558.0,-820.0,113.0,-134.0,0.0,0.0,0.0
19:32:53.098000,-238.0,-205.0,515.0,-831.0,35.0,-150.0,0.0,0.0,0.0
19:32:53.103000,-243.0,-198.0,455.0,-831.0,35.0,-150.0,0.0,0.0,0.0
19:32:53.108000,-248.0,-188.0,375.0,-831.0,35.0,-150.0,0.0,0.0,0.0
19:32:53.112000,-252.0,-177.0,299.0,-811.0,-26.0,-165.0,0.0,0.0,0.0
19:32:53.117000,-247.0,-168.0,231.0,-811.0,-26.0,-165.0,0.0,0.0,0.0
19:32:53.122000,-235.0,-157.0,164.0,-782.0,-80.0,-177.0,0.0,0.0,0.0
19:32:53.126000,-218.0,-145.0,96.0,-782.0,-80.0,-177.0,0.0,0.0,0.0
19:32:53.131000,-199.0,-133.0,42.0,-767.0,-113.0,-187.0,0.0,0.0,0.0
19:32:53.136000,-181.0,-120.0,-7.0,-767.0,-113.0,-187.0,0.0,0.0,0.0
19:32:53.141000,-170.0,-106.0,-37.0,-762.0,-91.0,-189.0,0.0,0.0,0.0
19:32:53.145000,-161.0,-93.0,-44.0,-762.0,-91.0,-189.0,0.0,0.0,0.0
19:32:53.150000,-147.0,-80.0,-46.0,-762.0,-45.0,-175.0,0.0,0.0,0.0
19:32:53.155000,-147.0,-80.0,-46.0,-762.0,-45.0,-175.0,0.0,0.0,0.0
19:32:53.159000,-128.0,-70.0,-40.0,-777.0,-30.0,-156.0,0.0,0.0,0.0
19:32:53.164000,-107.0,-65.0,-37.0,-777.0,-30.0,-156.0,0.0,0.0,0.0
19:32:53.169000,-78.0,-63.0,-19.0,-779.0,-50.0,-142.0,0.0,0.0,0.0
19:32:53.173000,-47.0,-63.0,8.0,-779.0,-50.0,-142.0,0.0,0.0,0.0
19:32:53.178000,-23.0,-63.0,29.0,-773.0,-44.0,-135.0,0.0,0.0,0.0
19:32:53.183000,-15.0,-66.0,38.0,-773.0,-44.0,-135.0,0.0,0.0,0.0
19:32:53.188000,-24.0,-68.0,37.0,-788.0,31.0,-127.0,0.0,0.0,0.0
19:32:53.192000,-46.0,-72.0,39.0,-788.0,31.0,-127.0,0.0,0.0,0.0
19:32:53.197000,-70.0,-78.0,57.0,-773.0,72.0,-120.0,0.0,0.0,0.0
19:32:53.202000,-85.0,-86.0,65.0,-773.0,72.0,-120.0,0.0,0.0,0.0
19:32:53.206000,-94.0,-93.0,52.0,-718.0,52.0,-124.0,0.0,0.0,0.0
19:32:53.211000,-97.0,-97.0,39.0,-718.0,52.0,-124.0,0.0,0.0,0.0
19:32:53.216000,-91.0,-98.0,38.0,-677.0,13.0,-138.0,0.0,0.0,0.0
19:32:53.220000,-74.0,-98.0,37.0,-677.0,13.0,-138.0,0.0,0.0,0.0
19:32:53.225000,-50.0,-101.0,29.0,-677.0,13.0,-138.0,0.0,0.0,0.0
19:32:53.230000,-17.0,-106.0,26.0,-683.0,-34.0,-150.0,0.0,0.0,0.0
19:32:53.235000,15.0,-113.0,35.0,-683.0,-34.0,-150.0,0.0,0.0,0.0
19:32:53.239000,34.0,-126.0,53.0,-736.0,-51.0,-164.0,0.0,0.0,0.0
19:32:53.244000,37.0,-144.0,70.0,-736.0,-51.0,-164.0,0.0,0.0,0.0
19:32:53.249000,18.0,-167.0,88.0,-802.0,-4.0,-175.0,0.0,0.0,0.0
19:32:53.253000,-14.0,-198.0,110.0,-802.0,-4.0,-175.0,0.0,0.0,0.0
19:32:53.258000,-46.0,-235.0,128.0,-834.0,72.0,-174.0,0.0,0.0,0.0
19:32:53.263000,-46.0,-235.0,128.0,-834.0,72.0,-174.0,0.0,0.0,0.0
19:32:53.267000,-71.0,-269.0,133.0,-817.0,86.0,-170.0,0.0,0.0,0.0
19:32:53.272000,-83.0,-299.0,123.0,-817.0,86.0,-170.0,0.0,0.0,0.0
19:32:53.277000,-82.0,-322.0,107.0,-821.0,31.0,-165.0,0.0,0.0,0.0
19:32:53.282000,-72.0,-337.0,98.0,-821.0,31.0,-165.0,0.0,0.0,0.0
19:32:53.286000,-50.0,-343.0,112.0,-880.0,-54.0,-158.0,0.0,0.0,0.0
19:32:53.291000,-16.0,-339.0,123.0,-880.0,-54.0,-158.0,0.0,0.0,0.0
19:32:53.296000,20.0,-326.0,125.0,-966.0,-103.0,-150.0,0.0,0.0,0.0
19:32:53.300000,53.0,-302.0,137.0,-966.0,-103.0,-150.0,0.0,0.0,0.0
19:32:53.305000,78.0,-270.0,163.0,-1042.0,-101.0,-127.0,0.0,0.0,0.0
19:32:53.310000,100.0,-240.0,205.0,-1042.0,-101.0,-127.0,0.0,0.0,0.0
19:32:53.314000,124.0,-216.0,240.0,-1090.0,-115.0,-95.0,0.0,0.0,0.0
19:32:53.319000,135.0,-198.0,255.0,-1090.0,-115.0,-95.0,0.0,0.0,0.0
19:32:53.324000,127.0,-184.0,251.0,-1090.0,-115.0,-95.0,0.0,0.0,0.0
19:32:53.329000,105.0,-179.0,242.0,-1116.0,-64.0,-65.0,0.0,0.0,0.0
19:32:53.333000,66.0,-179.0,234.0,-1116.0,-64.0,-65.0,0.0,0.0,0.0
19:32:53.338000,21.0,-184.0,228.0,-1077.0,70.0,-39.0,0.0,0.0,0.0
19:32:53.343000,-11.0,-194.0,226.0,-1077.0,70.0,-39.0,0.0,0.0,0.0
19:32:53.347000,-34.0,-207.0,238.0,-946.0,131.0,-27.0,0.0,0.0,0.0
19:32:53.352000,-46.0,-219.0,254.0,-946.0,131.0,-27.0,0.0,0.0,0.0
19:32:53.357000,-57.0,-230.0,280.0,-819.0,113.0,-32.0,0.0,0.0,0.0
19:32:53.361000,-69.0,-239.0,326.0,-819.0,113.0,-32.0,0.0,0.0,0.0
19:32:53.366000,-80.0,-242.0,396.0,-776.0,121.0,-44.0,0.0,0.0,0.0
19:32:53.371000,-80.0,-242.0,396.0,-776.0,121.0,-44.0,0.0,0.0,0.0
19:32:53.376000,-85.0,-239.0,480.0,-778.0,115.0,-61.0,0.0,0.0,0.0
19:32:53.380000,-79.0,-232.0,569.0,-778.0,115.0,-61.0,0.0,0.0,0.0
19:32:53.385000,-65.0,-217.0,653.0,-796.0,48.0,-90.0,0.0,0.0,0.0
19:32:53.390000,-43.0,-196.0,727.0,-796.0,48.0,-90.0,0.0,0.0,0.0
19:32:53.394000,-19.0,-170.0,791.0,-831.0,-28.0,-127.0,0.0,0.0,0.0
19:32:53.399000,5.0,-145.0,844.0,-831.0,-28.0,-127.0,0.0,0.0,0.0
19:32:53.404000,31.0,-123.0,882.0,-853.0,-76.0,-162.0,0.0,0.0,0.0
19:32:53.408000,54.0,-109.0,896.0,-853.0,-76.0,-162.0,0.0,0.0,0.0
19:32:53.413000,68.0,-102.0,899.0,-818.0,-65.0,-192.0,0.0,0.0,0.0
19:32:53.418000,72.0,-105.0,888.0,-818.0,-65.0,-192.0,0.0,0.0,0.0
19:32:53.423000,67.0,-116.0,863.0,-736.0,-10.0,-206.0,0.0,0.0,0.0
19:32:53.427000,63.0,-133.0,837.0,-736.0,-10.0,-206.0,0.0,0.0,0.0
19:32:53.432000,58.0,-156.0,803.0,-736.0,41.0,-214.0,0.0,0.0,0.0
19:32:53.437000,46.0,-182.0,753.0,-663.0,41.0,-214.0,0.0,0.0,0.0
19:32:53.441000,28.0,-212.0,698.0,-663.0,41.0,-214.0,0.0,0.0,0.0
19:32:53.446000,12.0,-245.0,654.0,-638.0,96.0,-219.0,0.0,0.0,0.0
19:32:53.451000,0.0,-276.0,622.0,-638.0,96.0,-219.0,0.0,0.0,0.0
19:32:53.455000,-18.0,-298.0,590.0,-640.0,139.0,-221.0,0.0,0.0,0.0
19:32:53.460000,-44.0,-318.0,553.0,-640.0,139.0,-221.0,0.0,0.0,0.0
19:32:53.465000,-71.0,-335.0,528.0,-665.0,189.0,-220.0,0.0,0.0,0.0
19:32:53.470000,-98.0,-348.0,514.0,-665.0,189.0,-220.0,0.0,0.0,0.0
19:32:53.474000,-114.0,-363.0,509.0,-721.0,231.0,-204.0,0.0,0.0,0.0
19:32:53.479000,-130.0,-375.0,505.0,-721.0,231.0,-204.0,0.0,0.0,0.0
19:32:53.484000,-130.0,-375.0,505.0,-783.0,203.0,-187.0,0.0,0.0,0.0
19:32:53.488000,-142.0,-377.0,498.0,-783.0,203.0,-187.0,0.0,0.0,0.0
19:32:53.493000,-152.0,-364.0,488.0,-851.0,146.0,-186.0,0.0,0.0,0.0
19:32:53.498000,-157.0,-352.0,471.0,-851.0,146.0,-186.0,0.0,0.0,0.0
19:32:53.502000,-169.0,-334.0,436.0,-912.0,120.0,-187.0,0.0,0.0,0.0
19:32:53.507000,-191.0,-305.0,406.0,-912.0,120.0,-187.0,0.0,0.0,0.0
19:32:53.512000,-217.0,-270.0,369.0,-973.0,155.0,-174.0,0.0,0.0,0.0
19:32:53.517000,-252.0,-238.0,333.0,-973.0,155.0,-174.0,0.0,0.0,0.0
19:32:53.521000,-285.0,-198.0,325.0,-1031.0,180.0,-147.0,0.0,0.0,0.0
19:32:53.526000,-302.0,-172.0,324.0,-1031.0,180.0,-147.0,0.0,0.0,0.0
19:32:53.531000,-298.0,-157.0,317.0,-1018.0,120.0,-111.0,0.0,0.0,0.0
19:32:53.535000,-291.0,-134.0,333.0,-1018.0,120.0,-111.0,0.0,0.0,0.0
19:32:53.540000,-281.0,-99.0,379.0,-925.0,20.0,-88.0,0.0,0.0,0.0
19:32:53.545000,-269.0,-64.0,408.0,-925.0,20.0,-88.0,0.0,0.0,0.0
19:32:53.549000,-251.0,-57.0,389.0,-925.0,20.0,-88.0,0.0,0.0,0.0
19:32:53.554000,-263.0,-36.0,388.0,-860.0,8.0,-58.0,0.0,0.0,0.0
19:32:53.559000,-268.0,-9.0,397.0,-860.0,8.0,-58.0,0.0,0.0,0.0
19:32:53.564000,-287.0,29.0,549.0,-908.0,21.0,-34.0,0.0,0.0,0.0
19:32:53.568000,-277.0,25.0,933.0,-908.0,21.0,-34.0,0.0,0.0,0.0
19:32:53.573000,-175.0,87.0,535.0,-899.0,-7.0,-39.0,0.0,0.0,0.0
19:32:53.578000,-144.0,114.0,249.0,-899.0,-7.0,-39.0,0.0,0.0,0.0
19:32:53.582000,-146.0,143.0,330.0,-694.0,38.0,-37.0,0.0,0.0,0.0
19:32:53.587000,-123.0,162.0,337.0,-694.0,38.0,-37.0,0.0,0.0,0.0
19:32:53.592000,-123.0,162.0,337.0,-566.0,81.0,-37.0,0.0,0.0,0.0
19:32:53.596000,-119.0,173.0,227.0,-566.0,81.0,-37.0,0.0,0.0,0.0
19:32:53.601000,-99.0,175.0,189.0,-549.0,65.0,-46.0,0.0,0.0,0.0
19:32:53.606000,-98.0,177.0,289.0,-549.0,65.0,-46.0,0.0,0.0,0.0
19:32:53.611000,-72.0,170.0,406.0,-542.0,84.0,-61.0,0.0,0.0,0.0
19:32:53.615000,-47.0,166.0,440.0,-542.0,84.0,-61.0,0.0,0.0,0.0
19:32:53.620000,-51.0,165.0,415.0,-593.0,177.0,-74.0,0.0,0.0,0.0
19:32:53.625000,-63.0,162.0,392.0,-593.0,177.0,-74.0,0.0,0.0,0.0
19:32:53.629000,-79.0,152.0,413.0,-593.0,199.0,-71.0,0.0,0.0,0.0
19:32:53.634000,-103.0,140.0,447.0,-593.0,199.0,-71.0,0.0,0.0,0.0
19:32:53.639000,-118.0,126.0,478.0,-557.0,118.0,-70.0,0.0,0.0,0.0
19:32:53.643000,-136.0,109.0,492.0,-557.0,118.0,-70.0,0.0,0.0,0.0
19:32:53.648000,-167.0,89.0,497.0,-561.0,56.0,-72.0,0.0,0.0,0.0
19:32:53.653000,-170.0,70.0,514.0,-561.0,56.0,-72.0,0.0,0.0,0.0
19:32:53.658000,-165.0,46.0,520.0,-561.0,56.0,-72.0,0.0,0.0,0.0
19:32:53.662000,-161.0,25.0,486.0,-502.0,13.0,-89.0,0.0,0.0,0.0
19:32:53.667000,-146.0,4.0,434.0,-502.0,13.0,-89.0,0.0,0.0,0.0
19:32:53.672000,-130.0,-15.0,385.0,-473.0,31.0,-139.0,0.0,0.0,0.0
19:32:53.676000,-109.0,-42.0,329.0,-473.0,31.0,-139.0,0.0,0.0,0.0
19:32:53.681000,-80.0,-70.0,275.0,-637.0,118.0,-193.0,0.0,0.0,0.0
19:32:53.686000,-35.0,-95.0,257.0,-637.0,118.0,-193.0,0.0,0.0,0.0
19:32:53.690000,28.0,-117.0,259.0,-832.0,139.0,-230.0,0.0,0.0,0.0
19:32:53.695000,98.0,-136.0,250.0,-832.0,139.0,-230.0,0.0,0.0,0.0
19:32:53.699000,98.0,-136.0,250.0,-946.0,90.0,-244.0,0.0,0.0,0.0
19:32:53.705000,167.0,-154.0,237.0,-946.0,90.0,-244.0,0.0,0.0,0.0
19:32:53.709000,227.0,-167.0,249.0,-1025.0,85.0,-231.0,0.0,0.0,0.0
19:32:53.714000,278.0,-170.0,278.0,-1025.0,85.0,-231.0,0.0,0.0,0.0
19:32:53.719000,315.0,-170.0,303.0,-1115.0,178.0,-207.0,0.0,0.0,0.0
19:32:53.723000,333.0,-168.0,327.0,-1115.0,178.0,-207.0,0.0,0.0,0.0
19:32:53.728000,336.0,-163.0,346.0,-1231.0,321.0,-177.0,0.0,0.0,0.0
19:32:53.733000,322.0,-152.0,343.0,-1231.0,321.0,-177.0,0.0,0.0,0.0
19:32:53.737000,299.0,-134.0,298.0,-1389.0,477.0,-143.0,0.0,0.0,0.0
19:32:53.742000,257.0,-109.0,221.0,-1389.0,477.0,-143.0,0.0,0.0,0.0
19:32:53.747000,217.0,-87.0,126.0,-1551.0,591.0,-109.0,0.0,0.0,0.0
19:32:53.752000,184.0,-59.0,9.0,-1551.0,591.0,-109.0,0.0,0.0,0.0
19:32:53.756000,167.0,-26.0,-130.0,-1643.0,554.0,-85.0,0.0,0.0,0.0
19:32:53.761000,169.0,13.0,-315.0,-1643.0,554.0,-85.0,0.0,0.0,0.0
19:32:53.766000,156.0,85.0,-487.0,-1643.0,554.0,-85.0,0.0,0.0,0.0
19:32:53.770000,182.0,128.0,-582.0,-1696.0,398.0,-86.0,0.0,0.0,0.0
19:32:53.775000,158.0,170.0,-574.0,-1696.0,398.0,-86.0,0.0,0.0,0.0
19:32:53.780000,128.0,212.0,-474.0,-1692.0,204.0,-43.0,0.0,0.0,0.0
19:32:53.784000,274.0,227.0,-461.0,-1692.0,204.0,-43.0,0.0,0.0,0.0
19:32:53.789000,238.0,232.0,-539.0,-1620.0,97.0,1.0,0.0,0.0,0.0
19:32:53.794000,224.0,264.0,-641.0,-1620.0,97.0,1.0,0.0,0.0,0.0
19:32:53.799000,238.0,317.0,-723.0,-1579.0,65.0,29.0,0.0,0.0,0.0
19:32:53.803000,282.0,337.0,-772.0,-1579.0,65.0,29.0,0.0,0.0,0.0
19:32:53.808000,282.0,337.0,-772.0,-1438.0,3.0,49.0,0.0,0.0,0.0
19:32:53.813000,261.0,357.0,-774.0,-1438.0,3.0,49.0,0.0,0.0,0.0
19:32:53.817000,245.0,382.0,-781.0,-1228.0,-158.0,25.0,0.0,0.0,0.0
19:32:53.822000,224.0,401.0,-800.0,-1228.0,-158.0,25.0,0.0,0.0,0.0
19:32:53.827000,183.0,423.0,-813.0,-1163.0,-295.0,0.0,0.0,0.0,0.0
19:32:53.831000,157.0,435.0,-851.0,-1163.0,-295.0,0.0,0.0,0.0,0.0
19:32:53.836000,169.0,426.0,-872.0,-1126.0,-306.0,-30.0,0.0,0.0,0.0
19:32:53.841000,161.0,414.0,-817.0,-1126.0,-306.0,-30.0,0.0,0.0,0.0
19:32:53.846000,140.0,421.0,-768.0,-1048.0,-349.0,-73.0,0.0,0.0,0.0
19:32:53.850000,160.0,407.0,-795.0,-1048.0,-349.0,-73.0,0.0,0.0,0.0
19:32:53.854000,188.0,393.0,-844.0,-1019.0,-359.0,-126.0,0.0,0.0,0.0
19:32:53.860000,219.0,374.0,-840.0,-1019.0,-359.0,-126.0,0.0,0.0,0.0
19:32:53.864000,268.0,353.0,-872.0,-1027.0,-220.0,-177.0,0.0,0.0,0.0
19:32:53.869000,249.0,346.0,-877.0,-1027.0,-220.0,-177.0,0.0,0.0,0.0
19:32:53.874000,244.0,327.0,-866.0,-1057.0,-52.0,-227.0,0.0,0.0,0.0
19:32:53.878000,262.0,295.0,-856.0,-1057.0,-52.0,-227.0,0.0,0.0,0.0
19:32:53.883000,258.0,268.0,-842.0,-1057.0,-52.0,-227.0,0.0,0.0,0.0
19:32:53.888000,258.0,242.0,-816.0,-1111.0,53.0,-274.0,0.0,0.0,0.0
19:32:53.893000,240.0,217.0,-779.0,-1111.0,53.0,-274.0,0.0,0.0,0.0
19:32:53.897000,217.0,194.0,-763.0,-1141.0,136.0,-311.0,0.0,0.0,0.0
19:32:53.902000,191.0,175.0,-731.0,-1141.0,136.0,-311.0,0.0,0.0,0.0
19:32:53.907000,161.0,156.0,-677.0,-1140.0,221.0,-339.0,0.0,0.0,0.0
19:32:53.911000,128.0,145.0,-630.0,-1140.0,221.0,-339.0,0.0,0.0,0.0
19:32:53.916000,112.0,136.0,-627.0,-1150.0,274.0,-358.0,0.0,0.0,0.0
19:32:53.921000,112.0,136.0,-627.0,-1150.0,274.0,-358.0,0.0,0.0,0.0
19:32:53.925000,77.0,130.0,-645.0,-1192.0,292.0,-361.0,0.0,0.0,0.0
19:32:53.930000,50.0,124.0,-610.0,-1192.0,292.0,-361.0,0.0,0.0,0.0
19:32:53.935000,32.0,115.0,-558.0,-1203.0,260.0,-355.0,0.0,0.0,0.0
19:32:53.940000,28.0,100.0,-522.0,-1203.0,260.0,-355.0,0.0,0.0,0.0
19:32:53.944000,24.0,88.0,-497.0,-1196.0,198.0,-351.0,0.0,0.0,0.0
19:32:53.949000,14.0,84.0,-506.0,-1196.0,198.0,-351.0,0.0,0.0,0.0
19:32:53.954000,0.0,82.0,-520.0,-1196.0,202.0,-350.0,0.0,0.0,0.0
19:32:53.958000,-1.0,78.0,-510.0,-1196.0,202.0,-350.0,0.0,0.0,0.0
19:32:53.963000,7.0,71.0,-514.0,-1191.0,236.0,-349.0,0.0,0.0,0.0
19:32:53.968000,12.0,63.0,-525.0,-1191.0,236.0,-349.0,0.0,0.0,0.0
19:32:53.972000,8.0,53.0,-496.0,-1205.0,252.0,-347.0,0.0,0.0,0.0
19:32:53.977000,9.0,41.0,-459.0,-1205.0,252.0,-347.0,0.0,0.0,0.0
19:32:53.982000,8.0,35.0,-450.0,-1205.0,252.0,-347.0,0.0,0.0,0.0
19:32:53.987000,10.0,33.0,-462.0,-1226.0,280.0,-343.0,0.0,0.0,0.0
19:32:53.991000,9.0,31.0,-479.0,-1217.0,323.0,-340.0,0.0,0.0,0.0
19:32:53.996000,-4.0,35.0,-469.0,-1217.0,323.0,-340.0,0.0,0.0,0.0
19:32:54.001000,-21.0,42.0,-448.0,-1217.0,323.0,-340.0,0.0,0.0,0.0
19:32:54.005000,-33.0,51.0,-434.0,-1196.0,382.0,-339.0,0.0,0.0,0.0
19:32:54.010000,-39.0,58.0,-391.0,-1196.0,382.0,-339.0,0.0,0.0,0.0
19:32:54.015000,-45.0,65.0,-345.0,-1210.0,431.0,-346.0,0.0,0.0,0.0
19:32:54.019000,-55.0,72.0,-321.0,-1210.0,431.0,-346.0,0.0,0.0,0.0
19:32:54.024000,-58.0,81.0,-296.0,-1236.0,428.0,-351.0,0.0,0.0,0.0
19:32:54.029000,-58.0,81.0,-296.0,-1236.0,428.0,-351.0,0.0,0.0,0.0
19:32:54.034000,-58.0,86.0,-255.0,-1220.0,417.0,-346.0,0.0,0.0,0.0
19:32:54.038000,-44.0,92.0,-226.0,-1220.0,417.0,-346.0,0.0,0.0,0.0
19:32:54.043000,-42.0,96.0,-223.0,-1185.0,445.0,-336.0,0.0,0.0,0.0
19:32:54.048000,-32.0,102.0,-201.0,-1185.0,445.0,-336.0,0.0,0.0,0.0
19:32:54.062000,18.0,82.0,-102.0,-1096.0,369.0,-323.0,0.0,0.0,0.0
19:32:54.066000,51.0,58.0,-70.0,-1096.0,369.0,-323.0,0.0,0.0,0.0
19:32:54.071000,72.0,38.0,-23.0,-1063.0,347.0,-328.0,0.0,0.0,0.0
19:32:54.076000,90.0,16.0,18.0,-1063.0,347.0,-328.0,0.0,0.0,0.0
19:32:54.081000,102.0,-16.0,30.0,-1047.0,379.0,-319.0,0.0,0.0,0.0
19:32:54.085000,107.0,-42.0,33.0,-1047.0,379.0,-319.0,0.0,0.0,0.0
19:32:54.090000,117.0,-70.0,49.0,-1047.0,384.0,-319.0,0.0,0.0,0.0
19:32:54.095000,124.0,-96.0,46.0,-1029.0,384.0,-307.0,0.0,0.0,0.0
19:32:54.099000,113.0,-113.0,-2.0,-1029.0,384.0,-307.0,0.0,0.0,0.0
19:32:54.104000,95.0,-134.0,-75.0,-1051.0,399.0,-302.0,0.0,0.0,0.0
19:32:54.109000,78.0,-128.0,-119.0,-1051.0,399.0,-302.0,0.0,0.0,0.0
19:32:54.113000,77.0,-158.0,-83.0,-1134.0,429.0,-303.0,0.0,0.0,0.0
19:32:54.118000,59.0,-167.0,-72.0,-1134.0,429.0,-303.0,0.0,0.0,0.0
19:32:54.123000,4.0,-157.0,-104.0,-1179.0,422.0,-300.0,0.0,0.0,0.0
19:32:54.128000,2.0,-142.0,2.0,-1179.0,422.0,-300.0,0.0,0.0,0.0
19:32:54.132000,32.0,-145.0,19.0,-1196.0,336.0,-292.0,0.0,0.0,0.0
19:32:54.137000,32.0,-145.0,19.0,-1196.0,336.0,-292.0,0.0,0.0,0.0
19:32:54.142000,13.0,-144.0,-32.0,-1282.0,256.0,-268.0,0.0,0.0,0.0
19:32:54.146000,-17.0,-140.0,-23.0,-1282.0,256.0,-268.0,0.0,0.0,0.0
19:32:54.151000,-13.0,-149.0,-5.0,-1353.0,244.0,-234.0,0.0,0.0,0.0
19:32:54.156000,-52.0,-105.0,-40.0,-1353.0,244.0,-234.0,0.0,0.0,0.0
19:32:54.160000,-15.0,-99.0,-116.0,-1235.0,282.0,-222.0,0.0,0.0,0.0
19:32:54.165000,14.0,-105.0,-210.0,-1235.0,282.0,-222.0,0.0,0.0,0.0
19:32:54.170000,44.0,-123.0,-236.0,-1062.0,291.0,-213.0,0.0,0.0,0.0
19:32:54.175000,68.0,-139.0,-198.0,-1062.0,291.0,-213.0,0.0,0.0,0.0
19:32:54.179000,93.0,-149.0,-133.0,-1088.0,336.0,-216.0,0.0,0.0,0.0
19:32:54.184000,93.0,-147.0,-168.0,-1088.0,336.0,-216.0,0.0,0.0,0.0
19:32:54.189000,51.0,-150.0,-248.0,-1212.0,532.0,-225.0,0.0,0.0,0.0
19:32:54.193000,16.0,-123.0,-268.0,-1212.0,532.0,-225.0,0.0,0.0,0.0
19:32:54.198000,-17.0,-116.0,-251.0,-1277.0,668.0,-230.0,0.0,0.0,0.0
19:32:54.203000,-28.0,-97.0,-261.0,-1277.0,668.0,-230.0,0.0,0.0,0.0
19:32:54.207000,-73.0,-35.0,-247.0,-1277.0,668.0,-230.0,0.0,0.0,0.0
19:32:54.212000,-77.0,11.0,-151.0,-1318.0,621.0,-250.0,0.0,0.0,0.0
19:32:54.217000,-50.0,56.0,-56.0,-1318.0,621.0,-250.0,0.0,0.0,0.0
19:32:54.222000,-9.0,87.0,-18.0,-1399.0,495.0,-289.0,0.0,0.0,0.0
19:32:54.226000,14.0,126.0,25.0,-1399.0,495.0,-289.0,0.0,0.0,0.0
19:32:54.231000,12.0,163.0,105.0,-1476.0,420.0,-322.0,0.0,0.0,0.0
19:32:54.236000,61.0,194.0,142.0,-1476.0,420.0,-322.0,0.0,0.0,0.0
19:32:54.240000,116.0,182.0,104.0,-1403.0,388.0,-349.0,0.0,0.0,0.0
19:32:54.245000,136.0,173.0,24.0,-1403.0,388.0,-349.0,0.0,0.0,0.0
19:32:54.250000,136.0,173.0,24.0,-1210.0,383.0,-367.0,0.0,0.0,0.0
19:32:54.254000,119.0,151.0,-11.0,-1210.0,383.0,-367.0,0.0,0.0,0.0
19:32:54.259000,126.0,98.0,-53.0,-1036.0,444.0,-352.0,0.0,0.0,0.0
19:32:54.264000,103.0,50.0,-33.0,-1036.0,444.0,-352.0,0.0,0.0,0.0
19:32:54.269000,89.0,2.0,-12.0,-878.0,494.0,-323.0,0.0,0.0,0.0
19:32:54.273000,93.0,-31.0,-72.0,-878.0,494.0,-323.0,0.0,0.0,0.0
19:32:54.278000,79.0,-72.0,-142.0,-807.0,536.0,-287.0,0.0,0.0,0.0
19:32:54.283000,74.0,-98.0,-183.0,-807.0,536.0,-287.0,0.0,0.0,0.0
19:32:54.287000,75.0,-120.0,-189.0,-824.0,572.0,-247.0,0.0,0.0,0.0
19:32:54.292000,63.0,-123.0,-163.0,-824.0,572.0,-247.0,0.0,0.0,0.0
19:32:54.297000,46.0,-123.0,-121.0,-869.0,572.0,-202.0,0.0,0.0,0.0
19:32:54.301000,38.0,-111.0,-122.0,-869.0,572.0,-202.0,0.0,0.0,0.0
19:32:54.306000,20.0,-93.0,-146.0,-937.0,607.0,-153.0,0.0,0.0,0.0
19:32:54.311000,2.0,-72.0,-135.0,-937.0,607.0,-153.0,0.0,0.0,0.0
19:32:54.316000,-11.0,-49.0,-101.0,-937.0,607.0,-153.0,0.0,0.0,0.0
19:32:54.320000,-26.0,-26.0,-92.0,-943.0,626.0,-117.0,0.0,0.0,0.0
19:32:54.325000,-42.0,-2.0,-78.0,-943.0,626.0,-117.0,0.0,0.0,0.0
19:32:54.330000,-64.0,14.0,-34.0,-900.0,588.0,-97.0,0.0,0.0,0.0
19:32:54.334000,-68.0,25.0,-18.0,-900.0,588.0,-97.0,0.0,0.0,0.0
19:32:54.339000,-67.0,36.0,-49.0,-851.0,554.0,-105.0,0.0,0.0,0.0
19:32:54.344000,-70.0,35.0,-88.0,-851.0,554.0,-105.0,0.0,0.0,0.0
19:32:54.348000,-79.0,26.0,-84.0,-771.0,578.0,-128.0,0.0,0.0,0.0
19:32:54.353000,-75.0,14.0,-63.0,-771.0,578.0,-128.0,0.0,0.0,0.0
19:32:54.358000,-75.0,14.0,-63.0,-665.0,598.0,-146.0,0.0,0.0,0.0
19:32:54.363000,-73.0,-2.0,-48.0,-665.0,598.0,-146.0,0.0,0.0,0.0
19:32:54.367000,-63.0,-20.0,-30.0,-593.0,590.0,-163.0,0.0,0.0,0.0
19:32:54.372000,-51.0,-37.0,-18.0,-593.0,590.0,-163.0,0.0,0.0,0.0
19:32:54.377000,-46.0,-58.0,10.0,-572.0,569.0,-172.0,0.0,0.0,0.0
19:32:54.381000,-30.0,-75.0,42.0,-572.0,569.0,-172.0,0.0,0.0,0.0
19:32:54.386000,-19.0,-92.0,79.0,-554.0,524.0,-173.0,0.0,0.0,0.0
19:32:54.391000,-14.0,-109.0,128.0,-554.0,524.0,-173.0,0.0,0.0,0.0
19:32:54.395000,-14.0,-125.0,169.0,-525.0,496.0,-169.0,0.0,0.0,0.0
19:32:54.400000,-20.0,-140.0,200.0,-525.0,496.0,-169.0,0.0,0.0,0.0
19:32:54.405000,-35.0,-153.0,212.0,-494.0,521.0,-163.0,0.0,0.0,0.0
19:32:54.410000,-57.0,-164.0,210.0,-494.0,521.0,-163.0,0.0,0.0,0.0
19:32:54.414000,-82.0,-171.0,201.0,-458.0,560.0,-162.0,0.0,0.0,0.0
19:32:54.419000,-106.0,-174.0,187.0,-458.0,560.0,-162.0,0.0,0.0,0.0
19:32:54.424000,-131.0,-165.0,168.0,-458.0,560.0,-162.0,0.0,0.0,0.0
19:32:54.428000,-151.0,-151.0,151.0,-437.0,568.0,-166.0,0.0,0.0,0.0
19:32:54.433000,-168.0,-132.0,150.0,-437.0,568.0,-166.0,0.0,0.0,0.0
19:32:54.438000,-177.0,-109.0,158.0,-447.0,516.0,-169.0,0.0,0.0,0.0
19:32:54.442000,-175.0,-83.0,161.0,-447.0,516.0,-169.0,0.0,0.0,0.0
19:32:54.447000,-169.0,-58.0,165.0,-484.0,427.0,-173.0,0.0,0.0,0.0
19:32:54.452000,-156.0,-37.0,161.0,-484.0,427.0,-173.0,0.0,0.0,0.0
19:32:54.457000,-139.0,-25.0,151.0,-536.0,366.0,-178.0,0.0,0.0,0.0
19:32:54.461000,-116.0,-21.0,151.0,-536.0,366.0,-178.0,0.0,0.0,0.0
19:32:54.466000,-116.0,-21.0,151.0,-570.0,329.0,-178.0,0.0,0.0,0.0
19:32:54.471000,-91.0,-27.0,158.0,-570.0,329.0,-178.0,0.0,0.0,0.0
19:32:54.475000,-69.0,-42.0,173.0,-567.0,295.0,-161.0,0.0,0.0,0.0
19:32:54.480000,-52.0,-63.0,195.0,-567.0,295.0,-161.0,0.0,0.0,0.0
19:32:54.485000,-41.0,-87.0,203.0,-524.0,289.0,-117.0,0.0,0.0,0.0
19:32:54.489000,-41.0,-109.0,196.0,-524.0,289.0,-117.0,0.0,0.0,0.0
19:32:54.494000,-53.0,-124.0,173.0,-465.0,325.0,-57.0,0.0,0.0,0.0
19:32:54.499000,-72.0,-130.0,145.0,-465.0,325.0,-57.0,0.0,0.0,0.0
19:32:54.503000,-91.0,-126.0,114.0,-456.0,360.0,-3.0,0.0,0.0,0.0
19:32:54.508000,-106.0,-112.0,73.0,-456.0,360.0,-3.0,0.0,0.0,0.0
19:32:54.513000,-113.0,-86.0,24.0,-549.0,360.0,16.0,0.0,0.0,0.0
19:32:54.518000,-111.0,-53.0,-21.0,-549.0,360.0,16.0,0.0,0.0,0.0
19:32:54.522000,-100.0,-14.0,-46.0,-700.0,311.0,6.0,0.0,0.0,0.0
19:32:54.527000,-77.0,24.0,-53.0,-700.0,311.0,6.0,0.0,0.0,0.0
19:32:54.532000,-51.0,64.0,-53.0,-700.0,311.0,6.0,0.0,0.0,0.0
19:32:54.536000,-29.0,98.0,-50.0,-823.0,250.0,-16.0,0.0,0.0,0.0
19:32:54.540000,-22.0,127.0,-47.0,-867.0,246.0,-39.0,0.0,0.0,0.0
19:32:54.546000,-30.0,149.0,-42.0,-867.0,246.0,-39.0,0.0,0.0,0.0
19:32:54.550000,-48.0,161.0,-49.0,-867.0,246.0,-39.0,0.0,0.0,0.0
19:32:54.555000,-72.0,163.0,-65.0,-827.0,288.0,-68.0,0.0,0.0,0.0
19:32:54.560000,-101.0,160.0,-85.0,-827.0,288.0,-68.0,0.0,0.0,0.0
19:32:54.565000,-133.0,153.0,-108.0,-763.0,310.0,-111.0,0.0,0.0,0.0
19:32:54.569000,-161.0,142.0,-130.0,-763.0,310.0,-111.0,0.0,0.0,0.0
19:32:54.574000,-180.0,128.0,-143.0,-721.0,269.0,-153.0,0.0,0.0,0.0
19:32:54.579000,-180.0,128.0,-143.0,-721.0,269.0,-153.0,0.0,0.0,0.0
19:32:54.583000,-190.0,112.0,-156.0,-692.0,177.0,-192.0,0.0,0.0,0.0
19:32:54.588000,-191.0,93.0,-169.0,-692.0,177.0,-192.0,0.0,0.0,0.0
19:32:54.593000,-186.0,74.0,-184.0,-678.0,98.0,-228.0,0.0,0.0,0.0
19:32:54.597000,-181.0,55.0,-202.0,-678.0,98.0,-228.0,0.0,0.0,0.0
19:32:54.602000,-177.0,42.0,-216.0,-694.0,64.0,-248.0,0.0,0.0,0.0
19:32:54.607000,-173.0,32.0,-219.0,-694.0,64.0,-248.0,0.0,0.0,0.0
19:32:54.612000,-163.0,28.0,-217.0,-740.0,15.0,-241.0,0.0,0.0,0.0
19:32:54.616000,-146.0,30.0,-211.0,-740.0,15.0,-241.0,0.0,0.0,0.0
19:32:54.621000,-116.0,36.0,-207.0,-827.0,-78.0,-214.0,0.0,0.0,0.0
19:32:54.626000,-78.0,47.0,-214.0,-827.0,-78.0,-214.0,0.0,0.0,0.0
19:32:54.630000,-44.0,60.0,-231.0,-925.0,-136.0,-179.0,0.0,0.0,0.0
19:32:54.635000,-15.0,75.0,-252.0,-925.0,-136.0,-179.0,0.0,0.0,0.0
19:32:54.640000,0.0,88.0,-266.0,-925.0,-136.0,-179.0,0.0,0.0,0.0
19:32:54.644000,7.0,95.0,-281.0,-982.0,-108.0,-137.0,0.0,0.0,0.0
19:32:54.649000,13.0,102.0,-294.0,-982.0,-108.0,-137.0,0.0,0.0,0.0
19:32:54.654000,24.0,105.0,-305.0,-953.0,-77.0,-89.0,0.0,0.0,0.0
19:32:54.659000,40.0,105.0,-324.0,-953.0,-77.0,-89.0,0.0,0.0,0.0
19:32:54.663000,54.0,103.0,-354.0,-851.0,-75.0,-50.0,0.0,0.0,0.0
19:32:54.668000,60.0,103.0,-385.0,-851.0,-75.0,-50.0,0.0,0.0,0.0
19:32:54.673000,60.0,102.0,-406.0,-755.0,-31.0,-24.0,0.0,0.0,0.0
19:32:54.677000,60.0,104.0,-421.0,-755.0,-31.0,-24.0,0.0,0.0,0.0
19:32:54.682000,60.0,109.0,-430.0,-712.0,39.0,-20.0,0.0,0.0,0.0
19:32:54.687000,60.0,109.0,-430.0,-712.0,39.0,-20.0,0.0,0.0,0.0
19:32:54.691000,61.0,119.0,-431.0,-719.0,71.0,-40.0,0.0,0.0,0.0
19:32:54.696000,65.0,128.0,-421.0,-719.0,71.0,-40.0,0.0,0.0,0.0
19:32:54.701000,70.0,133.0,-392.0,-729.0,32.0,-61.0,0.0,0.0,0.0
19:32:54.706000,85.0,133.0,-349.0,-729.0,32.0,-61.0,0.0,0.0,0.0
19:32:54.710000,101.0,132.0,-315.0,-710.0,-11.0,-88.0,0.0,0.0,0.0
19:32:54.715000,103.0,123.0,-301.0,-710.0,-11.0,-88.0,0.0,0.0,0.0
19:32:54.720000,86.0,109.0,-303.0,-692.0,65.0,-127.0,0.0,0.0,0.0
19:32:54.724000,59.0,86.0,-311.0,-692.0,65.0,-127.0,0.0,0.0,0.0
19:32:54.729000,31.0,51.0,-310.0,-656.0,166.0,-172.0,0.0,0.0,0.0
19:32:54.734000,13.0,9.0,-297.0,-656.0,166.0,-172.0,0.0,0.0,0.0
19:32:54.738000,8.0,-41.0,-280.0,-600.0,167.0,-216.0,0.0,0.0,0.0
19:32:54.743000,12.0,-96.0,-257.0,-600.0,167.0,-216.0,0.0,0.0,0.0
19:32:54.748000,22.0,-151.0,-224.0,-600.0,167.0,-216.0,0.0,0.0,0.0
19:32:54.753000,30.0,-202.0,-177.0,-577.0,144.0,-251.0,0.0,0.0,0.0
19:32:54.757000,35.0,-248.0,-114.0,-577.0,144.0,-251.0,0.0,0.0,0.0
19:32:54.762000,42.0,-289.0,-43.0,-603.0,133.0,-273.0,0.0,0.0,0.0
19:32:54.767000,56.0,-326.0,27.0,-603.0,133.0,-273.0,0.0,0.0,0.0
19:32:54.771000,71.0,-357.0,84.0,-650.0,87.0,-281.0,0.0,0.0,0.0
19:32:54.776000,83.0,-387.0,124.0,-650.0,87.0,-281.0,0.0,0.0,0.0
19:32:54.781000,86.0,-414.0,158.0,-691.0,48.0,-267.0,0.0,0.0,0.0
19:32:54.785000,81.0,-438.0,187.0,-691.0,48.0,-267.0,0.0,0.0,0.0
19:32:54.790000,69.0,-459.0,207.0,-694.0,69.0,-224.0,0.0,0.0,0.0
19:32:54.795000,69.0,-459.0,207.0,-694.0,69.0,-224.0,0.0,0.0,0.0
19:32:54.800000,53.0,-476.0,214.0,-665.0,119.0,-169.0,0.0,0.0,0.0
19:32:54.804000,42.0,-488.0,214.0,-665.0,119.0,-169.0,0.0,0.0,0.0
19:32:54.809000,45.0,-497.0,215.0,-651.0,128.0,-126.0,0.0,0.0,0.0
19:32:54.814000,60.0,-500.0,224.0,-651.0,128.0,-126.0,0.0,0.0,0.0
19:32:54.818000,74.0,-501.0,242.0,-688.0,110.0,-95.0,0.0,0.0,0.0
19:32:54.823000,80.0,-493.0,277.0,-688.0,110.0,-95.0,0.0,0.0,0.0
19:32:54.828000,74.0,-476.0,323.0,-747.0,137.0,-58.0,0.0,0.0,0.0
19:32:54.832000,58.0,-454.0,366.0,-747.0,137.0,-58.0,0.0,0.0,0.0
19:32:54.837000,42.0,-427.0,406.0,-783.0,173.0,-24.0,0.0,0.0,0.0
19:32:54.842000,30.0,-396.0,440.0,-783.0,173.0,-24.0,0.0,0.0,0.0
19:32:54.847000,21.0,-363.0,476.0,-828.0,169.0,-6.0,0.0,0.0,0.0
19:32:54.851000,9.0,-331.0,515.0,-828.0,169.0,-6.0,0.0,0.0,0.0
19:32:54.856000,-8.0,-302.0,560.0,-828.0,161.0,-5.0,0.0,0.0,0.0
19:32:54.861000,-26.0,-277.0,607.0,-884.0,161.0,-5.0,0.0,0.0,0.0
19:32:54.865000,-45.0,-259.0,651.0,-884.0,161.0,-5.0,0.0,0.0,0.0
19:32:54.870000,-53.0,-244.0,686.0,-867.0,152.0,-12.0,0.0,0.0,0.0
19:32:54.875000,-50.0,-233.0,713.0,-867.0,152.0,-12.0,0.0,0.0,0.0
19:32:54.879000,-44.0,-225.0,735.0,-781.0,112.0,-37.0,0.0,0.0,0.0
19:32:54.884000,-38.0,-220.0,754.0,-781.0,112.0,-37.0,0.0,0.0,0.0
19:32:54.889000,-31.0,-220.0,775.0,-717.0,60.0,-78.0,0.0,0.0,0.0
19:32:54.894000,-24.0,-221.0,784.0,-717.0,60.0,-78.0,0.0,0.0,0.0
19:32:54.898000,-22.0,-226.0,772.0,-692.0,22.0,-112.0,0.0,0.0,0.0
19:32:54.903000,-22.0,-228.0,742.0,-692.0,22.0,-112.0,0.0,0.0,0.0
19:32:54.908000,-22.0,-228.0,742.0,-682.0,35.0,-138.0,0.0,0.0,0.0
19:32:54.912000,-26.0,-231.0,697.0,-682.0,35.0,-138.0,0.0,0.0,0.0
19:32:54.917000,-34.0,-231.0,647.0,-687.0,97.0,-156.0,0.0,0.0,0.0
19:32:54.922000,-44.0,-228.0,598.0,-687.0,97.0,-156.0,0.0,0.0,0.0
19:32:54.926000,-55.0,-225.0,553.0,-709.0,164.0,-163.0,0.0,0.0,0.0
19:32:54.931000,-64.0,-219.0,516.0,-709.0,164.0,-163.0,0.0,0.0,0.0
19:32:54.936000,-74.0,-210.0,490.0,-727.0,204.0,-161.0,0.0,0.0,0.0
19:32:54.941000,-80.0,-198.0,476.0,-727.0,204.0,-161.0,0.0,0.0,0.0
19:32:54.945000,-86.0,-182.0,469.0,-736.0,213.0,-158.0,0.0,0.0,0.0
19:32:54.950000,-90.0,-170.0,463.0,-736.0,213.0,-158.0,0.0,0.0,0.0
19:32:54.955000,-91.0,-160.0,455.0,-745.0,219.0,-161.0,0.0,0.0,0.0
19:32:54.959000,-93.0,-151.0,441.0,-745.0,219.0,-161.0,0.0,0.0,0.0
19:32:54.964000,-98.0,-142.0,422.0,-747.0,244.0,-163.0,0.0,0.0,0.0
19:32:54.969000,-105.0,-133.0,399.0,-747.0,244.0,-163.0,0.0,0.0,0.0
19:32:54.973000,-117.0,-119.0,369.0,-747.0,244.0,-163.0,0.0,0.0,0.0
19:32:54.978000,-133.0,-102.0,335.0,-746.0,293.0,-166.0,0.0,0.0,0.0
19:32:54.983000,-150.0,-85.0,305.0,-746.0,293.0,-166.0,0.0,0.0,0.0
19:32:54.988000,-161.0,-71.0,288.0,-768.0,324.0,-170.0,0.0,0.0,0.0
19:32:54.992000,-163.0,-58.0,287.0,-768.0,324.0,-170.0,0.0,0.0,0.0
19:32:54.997000,-155.0,-49.0,296.0,-805.0,274.0,-180.0,0.0,0.0,0.0
19:32:55.002000,-147.0,-39.0,307.0,-805.0,274.0,-180.0,0.0,0.0,0.0
19:32:55.006000,-138.0,-32.0,318.0,-830.0,196.0,-196.0,0.0,0.0,0.0
19:32:55.011000,-129.0,-26.0,330.0,-830.0,196.0,-196.0,0.0,0.0,0.0
19:32:55.016000,-129.0,-26.0,330.0,-819.0,171.0,-203.0,0.0,0.0,0.0
19:32:55.020000,-115.0,-23.0,346.0,-819.0,171.0,-203.0,0.0,0.0,0.0
19:32:55.025000,-95.0,-24.0,364.0,-767.0,156.0,-195.0,0.0,0.0,0.0
19:32:55.030000,-77.0,-20.0,383.0,-767.0,156.0,-195.0,0.0,0.0,0.0
19:32:55.035000,-49.0,-23.0,399.0,-718.0,125.0,-187.0,0.0,0.0,0.0
19:32:55.039000,-18.0,-30.0,404.0,-718.0,125.0,-187.0,0.0,0.0,0.0
19:32:55.044000,1.0,-28.0,399.0,-690.0,102.0,-183.0,0.0,0.0,0.0
19:32:55.049000,10.0,-23.0,371.0,-690.0,102.0,-183.0,0.0,0.0,0.0
19:32:55.053000,16.0,-11.0,329.0,-687.0,118.0,-178.0,0.0,0.0,0.0
19:32:55.058000,27.0,7.0,302.0,-687.0,118.0,-178.0,0.0,0.0,0.0
19:32:55.063000,56.0,16.0,272.0,-726.0,97.0,-172.0,0.0,0.0,0.0
19:32:55.067000,87.0,32.0,236.0,-726.0,97.0,-172.0,0.0,0.0,0.0
19:32:55.072000,117.0,37.0,228.0,-796.0,0.0,-149.0,0.0,0.0,0.0
19:32:55.077000,163.0,33.0,243.0,-796.0,0.0,-149.0,0.0,0.0,0.0
19:32:55.082000,207.0,30.0,266.0,-796.0,0.0,-149.0,0.0,0.0,0.0
19:32:55.086000,243.0,28.0,280.0,-833.0,-54.0,-122.0,0.0,0.0,0.0
19:32:55.091000,275.0,23.0,279.0,-833.0,-54.0,-122.0,0.0,0.0,0.0
19:32:55.096000,287.0,17.0,273.0,-856.0,-17.0,-98.0,0.0,0.0,0.0
19:32:55.100000,288.0,7.0,298.0,-856.0,-17.0,-98.0,0.0,0.0,0.0
19:32:55.105000,284.0,-6.0,345.0,-883.0,67.0,-61.0,0.0,0.0,0.0
19:32:55.110000,283.0,-2.0,384.0,-883.0,67.0,-61.0,0.0,0.0,0.0
19:32:55.114000,271.0,-18.0,382.0,-877.0,117.0,-26.0,0.0,0.0,0.0
19:32:55.119000,242.0,-30.0,389.0,-877.0,117.0,-26.0,0.0,0.0,0.0
19:32:55.124000,242.0,-30.0,389.0,-852.0,131.0,0.0,0.0,0.0,0.0
19:32:55.129000,206.0,-18.0,423.0,-852.0,131.0,0.0,0.0,0.0,0.0
19:32:55.133000,170.0,-14.0,400.0,-970.0,185.0,19.0,0.0,0.0,0.0
19:32:55.138000,118.0,-4.0,363.0,-970.0,185.0,19.0,0.0,0.0,0.0
19:32:55.143000,60.0,16.0,498.0,-957.0,176.0,20.0,0.0,0.0,0.0
19:32:55.147000,44.0,43.0,543.0,-957.0,176.0,20.0,0.0,0.0,0.0
19:32:55.152000,25.0,77.0,441.0,-786.0,134.0,-3.0,0.0,0.0,0.0
19:32:55.157000,38.0,103.0,317.0,-786.0,134.0,-3.0,0.0,0.0,0.0
19:32:55.161000,45.0,112.0,286.0,-798.0,106.0,-37.0,0.0,0.0,0.0
19:32:55.166000,63.0,128.0,277.0,-798.0,106.0,-37.0,0.0,0.0,0.0
19:32:55.171000,98.0,144.0,321.0,-894.0,24.0,-81.0,0.0,0.0,0.0
19:32:55.176000,165.0,156.0,470.0,-894.0,24.0,-81.0,0.0,0.0,0.0
19:32:55.180000,260.0,159.0,520.0,-965.0,37.0,-130.0,0.0,0.0,0.0
19:32:55.185000,315.0,165.0,393.0,-965.0,37.0,-130.0,0.0,0.0,0.0
19:32:55.190000,349.0,157.0,297.0,-965.0,37.0,-130.0,0.0,0.0,0.0
19:32:55.194000,367.0,147.0,301.0,-872.0,188.0,-146.0,0.0,0.0,0.0
19:32:55.199000,392.0,117.0,308.0,-872.0,188.0,-146.0,0.0,0.0,0.0
19:32:55.204000,392.0,90.0,246.0,-831.0,350.0,-145.0,0.0,0.0,0.0
19:32:55.208000,339.0,69.0,259.0,-831.0,350.0,-145.0,0.0,0.0,0.0
19:32:55.213000,309.0,30.0,372.0,-919.0,502.0,-143.0,0.0,0.0,0.0
19:32:55.218000,264.0,-15.0,503.0,-919.0,502.0,-143.0,0.0,0.0,0.0
19:32:55.223000,259.0,-60.0,506.0,-991.0,657.0,-140.0,0.0,0.0,0.0
19:32:55.227000,245.0,-84.0,363.0,-991.0,657.0,-140.0,0.0,0.0,0.0
