hh:mm:ss.ms,gyroX[mdps],gyroY[mdps],gyroZ[mdps],accX[mg],accY[mg],accZ[mg],magX[mG],magY[mG],magZ[mG]
19:32:55.909000,288.0,67.0,285.0,-625.0,487.0,-261.0,0.0,0.0,0.0
19:32:55.913000,251.0,25.0,297.0,-625.0,487.0,-261.0,0.0,0.0,0.0
19:32:55.918000,208.0,-14.0,289.0,-488.0,593.0,-232.0,0.0,0.0,0.0
19:32:55.923000,160.0,-53.0,239.0,-488.0,593.0,-232.0,0.0,0.0,0.0
19:32:55.928000,91.0,-90.0,173.0,-370.0,676.0,-195.0,0.0,0.0,0.0
19:32:55.932000,22.0,-117.0,116.0,-370.0,676.0,-195.0,0.0,0.0,0.0
19:32:55.937000,-51.0,-134.0,55.0,-338.0,721.0,-156.0,0.0,0.0,0.0
19:32:55.942000,-128.0,-140.0,9.0,-338.0,721.0,-156.0,0.0,0.0,0.0
19:32:55.946000,-197.0,-128.0,-30.0,-402.0,732.0,-137.0,0.0,0.0,0.0
19:32:55.951000,-259.0,-105.0,-88.0,-402.0,732.0,-137.0,0.0,0.0,0.0
19:32:55.956000,-303.0,-77.0,-133.0,-402.0,732.0,-137.0,0.0,0.0,0.0
19:32:55.960000,-320.0,-50.0,-142.0,-522.0,658.0,-133.0,0.0,0.0,0.0
19:32:55.965000,-310.0,-25.0,-128.0,-522.0,658.0,-133.0,0.0,0.0,0.0
19:32:55.970000,-273.0,-8.0,-119.0,-589.0,466.0,-139.0,0.0,0.0,0.0
19:32:55.975000,-218.0,7.0,-109.0,-589.0,466.0,-139.0,0.0,0.0,0.0
19:32:55.979000,-149.0,22.0,-109.0,-559.0,258.0,-153.0,0.0,0.0,0.0
19:32:55.984000,-79.0,36.0,-126.0,-559.0,258.0,-153.0,0.0,0.0,0.0
19:32:55.989000,-22.0,43.0,-147.0,-492.0,187.0,-163.0,0.0,0.0,0.0
19:32:55.993000,25.0,47.0,-161.0,-492.0,187.0,-163.0,0.0,0.0,0.0
19:32:55.998000,56.0,56.0,-173.0,-443.0,238.0,-157.0,0.0,0.0,0.0
19:32:56.003000,56.0,56.0,-173.0,-443.0,238.0,-157.0,0.0,0.0,0.0
19:32:56.007000,70.0,66.0,-179.0,-438.0,330.0,-132.0,0.0,0.0,0.0
19:32:56.012000,62.0,79.0,-172.0,-438.0,330.0,-132.0,0.0,0.0,0.0
19:32:56.017000,44.0,93.0,-165.0,-501.0,424.0,-101.0,0.0,0.0,0.0
19:32:56.022000,19.0,112.0,-156.0,-501.0,424.0,-101.0,0.0,0.0,0.0
19:32:56.026000,-7.0,136.0,-140.0,-604.0,475.0,-83.0,0.0,0.0,0.0
19:32:56.031000,-34.0,158.0,-116.0,-604.0,475.0,-83.0,0.0,0.0,0.0
19:32:56.036000,-67.0,181.0,-83.0,-696.0,485.0,-78.0,0.0,0.0,0.0
19:32:56.040000,-103.0,203.0,-38.0,-696.0,485.0,-78.0,0.0,0.0,0.0
19:32:56.045000,-134.0,224.0,13.0,-754.0,437.0,-69.0,0.0,0.0,0.0
19:32:56.050000,-155.0,246.0,67.0,-754.0,437.0,-69.0,0.0,0.0,0.0
19:32:56.054000,-171.0,268.0,109.0,-774.0,328.0,-67.0,0.0,0.0,0.0
19:32:56.059000,-184.0,289.0,126.0,-774.0,328.0,-67.0,0.0,0.0,0.0
19:32:56.064000,-198.0,309.0,117.0,-774.0,328.0,-67.0,0.0,0.0,0.0
19:32:56.069000,-208.0,326.0,89.0,-785.0,243.0,-86.0,0.0,0.0,0.0
19:32:56.073000,-217.0,345.0,52.0,-785.0,243.0,-86.0,0.0,0.0,0.0
19:32:56.078000,-215.0,364.0,2.0,-809.0,180.0,-126.0,0.0,0.0,0.0
19:32:56.083000,-207.0,380.0,-56.0,-809.0,180.0,-126.0,0.0,0.0,0.0
19:32:56.087000,-189.0,391.0,-116.0,-837.0,87.0,-178.0,0.0,0.0,0.0
19:32:56.092000,-163.0,394.0,-166.0,-837.0,87.0,-178.0,0.0,0.0,0.0
19:32:56.097000,-131.0,390.0,-207.0,-837.0,-20.0,-230.0,0.0,0.0,0.0
19:32:56.101000,-100.0,375.0,-248.0,-837.0,-20.0,-230.0,0.0,0.0,0.0
19:32:56.106000,-74.0,352.0,-291.0,-787.0,-82.0,-279.0,0.0,0.0,0.0
19:32:56.111000,-74.0,352.0,-291.0,-787.0,-82.0,-279.0,0.0,0.0,0.0
19:32:56.115000,-53.0,322.0,-325.0,-702.0,-62.0,-327.0,0.0,0.0,0.0
19:32:56.120000,-35.0,281.0,-347.0,-702.0,-62.0,-327.0,0.0,0.0,0.0
19:32:56.125000,-21.0,234.0,-351.0,-621.0,-4.0,-354.0,0.0,0.0,0.0
19:32:56.130000,-4.0,184.0,-332.0,-621.0,-4.0,-354.0,0.0,0.0,0.0
19:32:56.134000,18.0,137.0,-308.0,-589.0,25.0,-355.0,0.0,0.0,0.0
19:32:56.139000,46.0,93.0,-291.0,-589.0,25.0,-355.0,0.0,0.0,0.0
19:32:56.144000,74.0,51.0,-277.0,-627.0,35.0,-340.0,0.0,0.0,0.0
19:32:56.148000,100.0,11.0,-256.0,-627.0,35.0,-340.0,0.0,0.0,0.0
19:32:56.153000,116.0,-22.0,-232.0,-705.0,52.0,-305.0,0.0,0.0,0.0
19:32:56.158000,122.0,-51.0,-207.0,-705.0,52.0,-305.0,0.0,0.0,0.0
19:32:56.162000,116.0,-74.0,-186.0,-747.0,70.0,-249.0,0.0,0.0,0.0
19:32:56.167000,104.0,-93.0,-174.0,-747.0,70.0,-249.0,0.0,0.0,0.0
19:32:56.172000,93.0,-109.0,-175.0,-747.0,70.0,-249.0,0.0,0.0,0.0
19:32:56.177000,87.0,-120.0,-189.0,-710.0,61.0,-188.0,0.0,0.0,0.0
19:32:56.181000,87.0,-128.0,-214.0,-710.0,61.0,-188.0,0.0,0.0,0.0
19:32:56.186000,90.0,-131.0,-248.0,-628.0,40.0,-137.0,0.0,0.0,0.0
19:32:56.191000,95.0,-132.0,-286.0,-628.0,40.0,-137.0,0.0,0.0,0.0
19:32:56.195000,103.0,-127.0,-319.0,-583.0,61.0,-107.0,0.0,0.0,0.0
19:32:56.200000,114.0,-122.0,-345.0,-583.0,61.0,-107.0,0.0,0.0,0.0
19:32:56.205000,125.0,-117.0,-359.0,-602.0,107.0,-103.0,0.0,0.0,0.0
19:32:56.209000,133.0,-113.0,-361.0,-602.0,107.0,-103.0,0.0,0.0,0.0
19:32:56.214000,136.0,-111.0,-353.0,-641.0,162.0,-123.0,0.0,0.0,0.0
19:32:56.219000,136.0,-111.0,-353.0,-641.0,162.0,-123.0,0.0,0.0,0.0
19:32:56.224000,132.0,-112.0,-328.0,-667.0,231.0,-157.0,0.0,0.0,0.0
19:32:56.228000,124.0,-118.0,-284.0,-667.0,231.0,-157.0,0.0,0.0,0.0
19:32:56.233000,116.0,-126.0,-221.0,-683.0,278.0,-195.0,0.0,0.0,0.0
19:32:56.238000,111.0,-137.0,-144.0,-683.0,278.0,-195.0,0.0,0.0,0.0
19:32:56.242000,111.0,-148.0,-64.0,-706.0,262.0,-234.0,0.0,0.0,0.0
19:32:56.247000,113.0,-163.0,7.0,-706.0,262.0,-234.0,0.0,0.0,0.0
19:32:56.252000,115.0,-178.0,70.0,-732.0,221.0,-260.0,0.0,0.0,0.0
19:32:56.256000,112.0,-194.0,127.0,-732.0,221.0,-260.0,0.0,0.0,0.0
19:32:56.261000,108.0,-212.0,178.0,-726.0,183.0,-267.0,0.0,0.0,0.0
19:32:56.266000,102.0,-233.0,213.0,-726.0,183.0,-267.0,0.0,0.0,0.0
19:32:56.271000,89.0,-253.0,225.0,-686.0,162.0,-269.0,0.0,0.0,0.0
19:32:56.275000,65.0,-273.0,211.0,-686.0,162.0,-269.0,0.0,0.0,0.0
19:32:56.280000,30.0,-293.0,182.0,-654.0,201.0,-260.0,0.0,0.0,0.0
19:32:56.285000,-8.0,-311.0,148.0,-654.0,201.0,-260.0,0.0,0.0,0.0
19:32:56.289000,-37.0,-333.0,121.0,-654.0,201.0,-260.0,0.0,0.0,0.0
19:32:56.294000,-49.0,-348.0,102.0,-637.0,220.0,-233.0,0.0,0.0,0.0
19:32:56.299000,-44.0,-356.0,84.0,-637.0,220.0,-233.0,0.0,0.0,0.0
19:32:56.303000,-25.0,-362.0,76.0,-644.0,154.0,-206.0,0.0,0.0,0.0
19:32:56.308000,0.0,-363.0,79.0,-644.0,154.0,-206.0,0.0,0.0,0.0
19:32:56.313000,23.0,-364.0,95.0,-691.0,87.0,-188.0,0.0,0.0,0.0
19:32:56.318000,51.0,-365.0,128.0,-691.0,87.0,-188.0,0.0,0.0,0.0
19:32:56.322000,51.0,-365.0,128.0,-736.0,47.0,-178.0,0.0,0.0,0.0
19:32:56.327000,86.0,-355.0,188.0,-736.0,47.0,-178.0,0.0,0.0,0.0
19:32:56.332000,86.0,-355.0,188.0,-765.0,63.0,-163.0,0.0,0.0,0.0
19:32:56.336000,84.0,-344.0,196.0,-765.0,63.0,-163.0,0.0,0.0,0.0
19:32:56.341000,64.0,-326.0,194.0,-790.0,173.0,-137.0,0.0,0.0,0.0
19:32:56.346000,37.0,-308.0,193.0,-790.0,173.0,-137.0,0.0,0.0,0.0
19:32:56.350000,15.0,-289.0,196.0,-802.0,263.0,-106.0,0.0,0.0,0.0
19:32:56.355000,0.0,-270.0,203.0,-802.0,263.0,-106.0,0.0,0.0,0.0
19:32:56.360000,-5.0,-252.0,224.0,-806.0,246.0,-80.0,0.0,0.0,0.0
19:32:56.365000,-7.0,-239.0,268.0,-806.0,246.0,-80.0,0.0,0.0,0.0
19:32:56.369000,-13.0,-228.0,329.0,-809.0,189.0,-61.0,0.0,0.0,0.0
19:32:56.374000,-23.0,-218.0,395.0,-809.0,189.0,-61.0,0.0,0.0,0.0
19:32:56.379000,-31.0,-209.0,444.0,-811.0,151.0,-60.0,0.0,0.0,0.0
19:32:56.383000,-39.0,-202.0,458.0,-811.0,151.0,-60.0,0.0,0.0,0.0
19:32:56.388000,-44.0,-198.0,442.0,-808.0,132.0,-88.0,0.0,0.0,0.0
19:32:56.393000,-43.0,-197.0,408.0,-808.0,132.0,-88.0,0.0,0.0,0.0
19:32:56.397000,-40.0,-198.0,364.0,-780.0,140.0,-127.0,0.0,0.0,0.0
19:32:56.402000,-34.0,-200.0,315.0,-780.0,140.0,-127.0,0.0,0.0,0.0
19:32:56.407000,-25.0,-204.0,268.0,-780.0,140.0,-127.0,0.0,0.0,0.0
19:32:56.412000,-16.0,-211.0,235.0,-736.0,176.0,-162.0,0.0,0.0,0.0
19:32:56.416000,-4.0,-218.0,222.0,-736.0,176.0,-162.0,0.0,0.0,0.0
19:32:56.421000,9.0,-226.0,230.0,-692.0,203.0,-187.0,0.0,0.0,0.0
19:32:56.426000,23.0,-233.0,252.0,-692.0,203.0,-187.0,0.0,0.0,0.0
19:32:56.430000,34.0,-238.0,284.0,-671.0,225.0,-205.0,0.0,0.0,0.0
19:32:56.435000,41.0,-240.0,323.0,-671.0,225.0,-205.0,0.0,0.0,0.0
19:32:56.439000,41.0,-240.0,323.0,-689.0,267.0,-214.0,0.0,0.0,0.0
19:32:56.444000,43.0,-240.0,368.0,-689.0,267.0,-214.0,0.0,0.0,0.0
19:32:56.449000,47.0,-242.0,421.0,-714.0,297.0,-220.0,0.0,0.0,0.0
19:32:56.454000,54.0,-246.0,471.0,-714.0,297.0,-220.0,0.0,0.0,0.0
19:32:56.458000,60.0,-254.0,508.0,-717.0,309.0,-224.0,0.0,0.0,0.0
19:32:56.463000,66.0,-266.0,532.0,-717.0,309.0,-224.0,0.0,0.0,0.0
19:32:56.468000,75.0,-285.0,544.0,-692.0,315.0,-225.0,0.0,0.0,0.0
19:32:56.473000,84.0,-305.0,541.0,-692.0,315.0,-225.0,0.0,0.0,0.0
19:32:56.477000,88.0,-327.0,527.0,-678.0,336.0,-222.0,0.0,0.0,0.0
19:32:56.482000,84.0,-347.0,516.0,-678.0,336.0,-222.0,0.0,0.0,0.0
19:32:56.487000,73.0,-365.0,514.0,-707.0,382.0,-215.0,0.0,0.0,0.0
19:32:56.491000,49.0,-375.0,512.0,-707.0,382.0,-215.0,0.0,0.0,0.0
19:32:56.496000,11.0,-380.0,506.0,-752.0,421.0,-205.0,0.0,0.0,0.0
19:32:56.501000,-28.0,-377.0,510.0,-752.0,421.0,-205.0,0.0,0.0,0.0
19:32:56.506000,-79.0,-366.0,517.0,-752.0,421.0,-205.0,0.0,0.0,0.0
19:32:56.510000,-135.0,-358.0,520.0,-789.0,434.0,-193.0,0.0,0.0,0.0
19:32:56.515000,-184.0,-354.0,520.0,-789.0,434.0,-193.0,0.0,0.0,0.0
19:32:56.520000,-216.0,-341.0,517.0,-801.0,407.0,-161.0,0.0,0.0,0.0
19:32:56.524000,-234.0,-324.0,507.0,-801.0,407.0,-161.0,0.0,0.0,0.0
19:32:56.529000,-226.0,-305.0,494.0,-787.0,306.0,-111.0,0.0,0.0,0.0
19:32:56.534000,-210.0,-277.0,479.0,-787.0,306.0,-111.0,0.0,0.0,0.0
19:32:56.538000,-186.0,-248.0,473.0,-778.0,154.0,-78.0,0.0,0.0,0.0
19:32:56.543000,-153.0,-217.0,474.0,-778.0,154.0,-78.0,0.0,0.0,0.0
19:32:56.548000,-153.0,-217.0,474.0,-796.0,43.0,-60.0,0.0,0.0,0.0
19:32:56.553000,-113.0,-190.0,474.0,-796.0,43.0,-60.0,0.0,0.0,0.0
19:32:56.557000,-69.0,-167.0,464.0,-800.0,-5.0,-45.0,0.0,0.0,0.0
19:32:56.562000,-32.0,-144.0,455.0,-800.0,-5.0,-45.0,0.0,0.0,0.0
19:32:56.567000,4.0,-123.0,450.0,-769.0,-5.0,-31.0,0.0,0.0,0.0
19:32:56.571000,41.0,-107.0,448.0,-769.0,-5.0,-31.0,0.0,0.0,0.0
19:32:56.576000,83.0,-102.0,452.0,-751.0,-14.0,-13.0,0.0,0.0,0.0
19:32:56.581000,131.0,-101.0,460.0,-751.0,-14.0,-13.0,0.0,0.0,0.0
19:32:56.585000,170.0,-100.0,471.0,-730.0,0.0,3.0,0.0,0.0,0.0
19:32:56.590000,187.0,-95.0,490.0,-730.0,0.0,3.0,0.0,0.0,0.0
19:32:56.595000,182.0,-89.0,504.0,-701.0,151.0,20.0,0.0,0.0,0.0
19:32:56.600000,147.0,-79.0,515.0,-701.0,151.0,20.0,0.0,0.0,0.0
19:32:56.604000,103.0,-68.0,539.0,-704.0,326.0,47.0,0.0,0.0,0.0
19:32:56.609000,55.0,-49.0,574.0,-704.0,326.0,47.0,0.0,0.0,0.0
19:32:56.614000,15.0,-16.0,589.0,-704.0,326.0,47.0,0.0,0.0,0.0
19:32:56.618000,-27.0,-3.0,635.0,-738.0,353.0,58.0,0.0,0.0,0.0
19:32:56.623000,-62.0,4.0,667.0,-738.0,353.0,58.0,0.0,0.0,0.0
19:32:56.628000,-111.0,16.0,525.0,-755.0,347.0,49.0,0.0,0.0,0.0
19:32:56.632000,-123.0,42.0,458.0,-755.0,347.0,49.0,0.0,0.0,0.0
19:32:56.637000,-112.0,60.0,769.0,-842.0,380.0,-6.0,0.0,0.0,0.0
19:32:56.642000,-84.0,80.0,693.0,-842.0,380.0,-6.0,0.0,0.0,0.0
19:32:56.647000,-39.0,91.0,377.0,-744.0,507.0,-91.0,0.0,0.0,0.0
19:32:56.651000,-38.0,103.0,364.0,-744.0,507.0,-91.0,0.0,0.0,0.0
19:32:56.656000,-38.0,103.0,364.0,-618.0,609.0,-136.0,0.0,0.0,0.0
19:32:56.661000,-58.0,114.0,602.0,-618.0,609.0,-136.0,0.0,0.0,0.0
19:32:56.665000,-41.0,120.0,708.0,-869.0,557.0,-172.0,0.0,0.0,0.0
19:32:56.670000,-49.0,142.0,538.0,-869.0,557.0,-172.0,0.0,0.0,0.0
19:32:56.675000,-18.0,163.0,463.0,-955.0,564.0,-239.0,0.0,0.0,0.0
19:32:56.679000,-11.0,163.0,536.0,-955.0,564.0,-239.0,0.0,0.0,0.0
19:32:56.684000,-44.0,161.0,621.0,-828.0,629.0,-300.0,0.0,0.0,0.0
19:32:56.689000,-60.0,143.0,646.0,-828.0,629.0,-300.0,0.0,0.0,0.0
19:32:56.694000,-42.0,130.0,597.0,-876.0,575.0,-336.0,0.0,0.0,0.0
19:32:56.698000,-4.0,117.0,542.0,-876.0,575.0,-336.0,0.0,0.0,0.0
19:32:56.703000,35.0,105.0,457.0,-890.0,412.0,-353.0,0.0,0.0,0.0
19:32:56.708000,80.0,79.0,367.0,-890.0,412.0,-353.0,0.0,0.0,0.0
19:32:56.712000,104.0,47.0,317.0,-793.0,291.0,-330.0,0.0,0.0,0.0
19:32:56.717000,124.0,7.0,278.0,-793.0,291.0,-330.0,0.0,0.0,0.0
19:32:56.722000,156.0,-35.0,224.0,-793.0,291.0,-330.0,0.0,0.0,0.0
19:32:56.726000,182.0,-80.0,167.0,-801.0,244.0,-281.0,0.0,0.0,0.0
19:32:56.731000,184.0,-118.0,100.0,-801.0,244.0,-281.0,0.0,0.0,0.0
19:32:56.736000,173.0,-156.0,51.0,-909.0,228.0,-218.0,0.0,0.0,0.0
19:32:56.741000,163.0,-181.0,-4.0,-909.0,228.0,-218.0,0.0,0.0,0.0
19:32:56.745000,151.0,-186.0,-112.0,-986.0,200.0,-150.0,0.0,0.0,0.0
19:32:56.750000,146.0,-185.0,-242.0,-986.0,200.0,-150.0,0.0,0.0,0.0
19:32:56.755000,113.0,-173.0,-387.0,-1090.0,198.0,-109.0,0.0,0.0,0.0
19:32:56.759000,67.0,-153.0,-523.0,-1090.0,198.0,-109.0,0.0,0.0,0.0
19:32:56.764000,33.0,-121.0,-557.0,-1227.0,304.0,-102.0,0.0,0.0,0.0
19:32:56.769000,33.0,-121.0,-557.0,-1227.0,304.0,-102.0,0.0,0.0,0.0
19:32:56.773000,11.0,-81.0,-555.0,-1317.0,475.0,-118.0,0.0,0.0,0.0
19:32:56.778000,6.0,-56.0,-662.0,-1317.0,475.0,-118.0,0.0,0.0,0.0
19:32:56.783000,-37.0,-31.0,-842.0,-1504.0,585.0,-131.0,0.0,0.0,0.0
19:32:56.788000,-62.0,-2.0,-933.0,-1504.0,585.0,-131.0,0.0,0.0,0.0
19:32:56.792000,-44.0,31.0,-906.0,-1641.0,463.0,-141.0,0.0,0.0,0.0
19:32:56.797000,-14.0,60.0,-849.0,-1641.0,463.0,-141.0,0.0,0.0,0.0
19:32:56.802000,42.0,98.0,-819.0,-1591.0,197.0,-145.0,0.0,0.0,0.0
19:32:56.806000,91.0,142.0,-791.0,-1591.0,197.0,-145.0,0.0,0.0,0.0
19:32:56.811000,154.0,161.0,-699.0,-1480.0,14.0,-143.0,0.0,0.0,0.0
19:32:56.816000,186.0,189.0,-625.0,-1480.0,14.0,-143.0,0.0,0.0,0.0
19:32:56.820000,202.0,219.0,-573.0,-1391.0,11.0,-129.0,0.0,0.0,0.0
19:32:56.825000,208.0,240.0,-481.0,-1391.0,11.0,-129.0,0.0,0.0,0.0
19:32:56.830000,200.0,255.0,-417.0,-1391.0,11.0,-129.0,0.0,0.0,0.0
19:32:56.835000,189.0,268.0,-387.0,-1335.0,70.0,-109.0,0.0,0.0,0.0
19:32:56.839000,162.0,288.0,-365.0,-1335.0,70.0,-109.0,0.0,0.0,0.0
19:32:56.844000,123.0,296.0,-364.0,-1269.0,70.0,-111.0,0.0,0.0,0.0
19:32:56.849000,122.0,295.0,-355.0,-1269.0,70.0,-111.0,0.0,0.0,0.0
19:32:56.853000,105.0,291.0,-296.0,-1211.0,69.0,-121.0,0.0,0.0,0.0
19:32:56.858000,74.0,290.0,-231.0,-1211.0,69.0,-121.0,0.0,0.0,0.0
19:32:56.863000,54.0,287.0,-184.0,-1162.0,56.0,-131.0,0.0,0.0,0.0
19:32:56.867000,2.0,292.0,-216.0,-1162.0,56.0,-131.0,0.0,0.0,0.0
19:32:56.872000,-14.0,285.0,-288.0,-1156.0,32.0,-129.0,0.0,0.0,0.0
19:32:56.877000,-14.0,285.0,-288.0,-1156.0,32.0,-129.0,0.0,0.0,0.0
19:32:56.882000,37.0,277.0,-240.0,-1155.0,-54.0,-151.0,0.0,0.0,0.0
19:32:56.886000,97.0,261.0,-133.0,-1155.0,-54.0,-151.0,0.0,0.0,0.0
19:32:56.891000,131.0,252.0,-179.0,-1175.0,-31.0,-173.0,0.0,0.0,0.0
19:32:56.896000,142.0,240.0,-276.0,-1175.0,-31.0,-173.0,0.0,0.0,0.0
19:32:56.900000,177.0,225.0,-266.0,-1192.0,67.0,-193.0,0.0,0.0,0.0
19:32:56.905000,170.0,206.0,-233.0,-1192.0,67.0,-193.0,0.0,0.0,0.0
19:32:56.910000,173.0,179.0,-329.0,-1219.0,132.0,-214.0,0.0,0.0,0.0
19:32:56.914000,196.0,145.0,-429.0,-1219.0,132.0,-214.0,0.0,0.0,0.0
19:32:56.919000,207.0,144.0,-403.0,-1240.0,239.0,-221.0,0.0,0.0,0.0
19:32:56.924000,210.0,130.0,-379.0,-1240.0,239.0,-221.0,0.0,0.0,0.0
19:32:56.929000,200.0,102.0,-312.0,-1226.0,333.0,-238.0,0.0,0.0,0.0
19:32:56.933000,168.0,89.0,-261.0,-1226.0,333.0,-238.0,0.0,0.0,0.0
19:32:56.937000,109.0,86.0,-299.0,-1198.0,414.0,-238.0,0.0,0.0,0.0
19:32:56.943000,74.0,72.0,-305.0,-1198.0,414.0,-238.0,0.0,0.0,0.0
19:32:56.947000,22.0,65.0,-272.0,-1198.0,414.0,-238.0,0.0,0.0,0.0
19:32:56.952000,-2.0,58.0,-303.0,-1154.0,449.0,-229.0,0.0,0.0,0.0
19:32:56.957000,1.0,43.0,-364.0,-1154.0,449.0,-229.0,0.0,0.0,0.0
19:32:56.961000,-39.0,26.0,-332.0,-1171.0,488.0,-223.0,0.0,0.0,0.0
19:32:56.966000,-125.0,23.0,-294.0,-1171.0,488.0,-223.0,0.0,0.0,0.0
19:32:56.971000,-104.0,16.0,-289.0,-1183.0,403.0,-224.0,0.0,0.0,0.0
19:32:56.976000,-88.0,4.0,-274.0,-1183.0,403.0,-224.0,0.0,0.0,0.0
19:32:56.980000,-81.0,-11.0,-275.0,-1216.0,300.0,-245.0,0.0,0.0,0.0
19:32:56.985000,-81.0,-11.0,-275.0,-1216.0,300.0,-245.0,0.0,0.0,0.0
19:32:56.990000,-119.0,-18.0,-270.0,-1223.0,341.0,-269.0,0.0,0.0,0.0
19:32:56.994000,-120.0,-28.0,-214.0,-1223.0,341.0,-269.0,0.0,0.0,0.0
19:32:56.999000,-93.0,-32.0,-159.0,-1234.0,377.0,-295.0,0.0,0.0,0.0
19:32:57.004000,-49.0,-39.0,-140.0,-1234.0,377.0,-295.0,0.0,0.0,0.0
19:32:57.008000,-23.0,-39.0,-169.0,-1313.0,350.0,-325.0,0.0,0.0,0.0
19:32:57.013000,-2.0,-47.0,-165.0,-1313.0,350.0,-325.0,0.0,0.0,0.0
19:32:57.018000,37.0,-64.0,-167.0,-1368.0,332.0,-334.0,0.0,0.0,0.0
19:32:57.023000,77.0,-86.0,-174.0,-1368.0,332.0,-334.0,0.0,0.0,0.0
19:32:57.027000,77.0,-109.0,-153.0,-1353.0,333.0,-317.0,0.0,0.0,0.0
19:32:57.032000,93.0,-123.0,-130.0,-1353.0,333.0,-317.0,0.0,0.0,0.0
19:32:57.037000,120.0,-130.0,-119.0,-1291.0,347.0,-303.0,0.0,0.0,0.0
19:32:57.041000,161.0,-140.0,-114.0,-1291.0,347.0,-303.0,0.0,0.0,0.0
19:32:57.046000,147.0,-140.0,-112.0,-1243.0,420.0,-291.0,0.0,0.0,0.0
19:32:57.051000,156.0,-141.0,-112.0,-1243.0,420.0,-291.0,0.0,0.0,0.0
19:32:57.055000,141.0,-140.0,-95.0,-1248.0,505.0,-272.0,0.0,0.0,0.0
19:32:57.060000,170.0,-133.0,-100.0,-1248.0,505.0,-272.0,0.0,0.0,0.0
19:32:57.065000,165.0,-131.0,-156.0,-1248.0,505.0,-272.0,0.0,0.0,0.0
19:32:57.070000,140.0,-120.0,-181.0,-1277.0,582.0,-249.0,0.0,0.0,0.0
19:32:57.074000,103.0,-100.0,-168.0,-1277.0,582.0,-249.0,0.0,0.0,0.0
19:32:57.079000,78.0,-63.0,-125.0,-1310.0,577.0,-230.0,0.0,0.0,0.0
19:32:57.084000,63.0,-37.0,-103.0,-1310.0,577.0,-230.0,0.0,0.0,0.0
19:32:57.088000,39.0,-6.0,-133.0,-1405.0,563.0,-220.0,0.0,0.0,0.0
19:32:57.093000,9.0,7.0,-151.0,-1405.0,563.0,-220.0,0.0,0.0,0.0
19:32:57.098000,9.0,7.0,-151.0,-1482.0,598.0,-207.0,0.0,0.0,0.0
19:32:57.102000,-13.0,29.0,-107.0,-1482.0,598.0,-207.0,0.0,0.0,0.0
19:32:57.107000,-58.0,58.0,-41.0,-1410.0,577.0,-200.0,0.0,0.0,0.0
19:32:57.112000,-60.0,84.0,-42.0,-1410.0,577.0,-200.0,0.0,0.0,0.0
19:32:57.117000,-113.0,102.0,-86.0,-1324.0,537.0,-197.0,0.0,0.0,0.0
19:32:57.121000,-128.0,114.0,-96.0,-1324.0,537.0,-197.0,0.0,0.0,0.0
19:32:57.126000,-100.0,125.0,-53.0,-1304.0,488.0,-204.0,0.0,0.0,0.0
19:32:57.131000,-96.0,121.0,-7.0,-1304.0,488.0,-204.0,0.0,0.0,0.0
19:32:57.135000,-86.0,115.0,-9.0,-1340.0,453.0,-212.0,0.0,0.0,0.0
19:32:57.140000,-72.0,116.0,-56.0,-1340.0,453.0,-212.0,0.0,0.0,0.0
19:32:57.145000,-71.0,106.0,-70.0,-1392.0,429.0,-199.0,0.0,0.0,0.0
19:32:57.149000,-93.0,100.0,-25.0,-1392.0,429.0,-199.0,0.0,0.0,0.0
19:32:57.154000,-86.0,91.0,30.0,-1351.0,411.0,-172.0,0.0,0.0,0.0
19:32:57.159000,-51.0,58.0,102.0,-1351.0,411.0,-172.0,0.0,0.0,0.0
19:32:57.164000,2.0,41.0,157.0,-1351.0,411.0,-172.0,0.0,0.0,0.0
19:32:57.168000,-12.0,72.0,113.0,-1199.0,480.0,-169.0,0.0,0.0,0.0
19:32:57.173000,-102.0,106.0,-18.0,-1058.0,549.0,-173.0,0.0,0.0,0.0
19:32:57.178000,-158.0,137.0,-193.0,-1058.0,549.0,-173.0,0.0,0.0,0.0
19:32:57.182000,-207.0,175.0,-257.0,-1058.0,549.0,-173.0,0.0,0.0,0.0
19:32:57.187000,-154.0,191.0,-172.0,-778.0,527.0,-223.0,0.0,0.0,0.0
19:32:57.192000,-154.0,196.0,-70.0,-778.0,527.0,-223.0,0.0,0.0,0.0
19:32:57.196000,-138.0,168.0,29.0,-586.0,443.0,-308.0,0.0,0.0,0.0
19:32:57.201000,-97.0,155.0,87.0,-586.0,443.0,-308.0,0.0,0.0,0.0
19:32:57.206000,-97.0,155.0,87.0,-1018.0,422.0,-328.0,0.0,0.0,0.0
19:32:57.211000,-64.0,135.0,52.0,-1018.0,422.0,-328.0,0.0,0.0,0.0
19:32:57.215000,-7.0,91.0,58.0,-1431.0,281.0,-311.0,0.0,0.0,0.0
19:32:57.220000,53.0,72.0,174.0,-1431.0,281.0,-311.0,0.0,0.0,0.0
19:32:57.225000,138.0,66.0,238.0,-1202.0,118.0,-321.0,0.0,0.0,0.0
19:32:57.229000,192.0,44.0,159.0,-1202.0,118.0,-321.0,0.0,0.0,0.0
19:32:57.234000,210.0,29.0,49.0,-885.0,329.0,-318.0,0.0,0.0,0.0
19:32:57.239000,211.0,17.0,-56.0,-885.0,329.0,-318.0,0.0,0.0,0.0
19:32:57.243000,210.0,-9.0,-58.0,-854.0,516.0,-268.0,0.0,0.0,0.0
19:32:57.248000,205.0,-15.0,7.0,-854.0,516.0,-268.0,0.0,0.0,0.0
19:32:57.253000,200.0,-8.0,53.0,-923.0,505.0,-234.0,0.0,0.0,0.0
19:32:57.258000,176.0,0.0,25.0,-923.0,505.0,-234.0,0.0,0.0,0.0
19:32:57.262000,129.0,25.0,-32.0,-983.0,586.0,-204.0,0.0,0.0,0.0
19:32:57.267000,78.0,37.0,-21.0,-983.0,586.0,-204.0,0.0,0.0,0.0
19:32:57.272000,45.0,53.0,2.0,-983.0,586.0,-204.0,0.0,0.0,0.0
19:32:57.276000,25.0,64.0,-1.0,-972.0,629.0,-170.0,0.0,0.0,0.0
19:32:57.281000,21.0,71.0,-9.0,-972.0,629.0,-170.0,0.0,0.0,0.0
19:32:57.286000,17.0,74.0,-11.0,-922.0,537.0,-152.0,0.0,0.0,0.0
19:32:57.290000,0.0,66.0,-4.0,-922.0,537.0,-152.0,0.0,0.0,0.0
19:32:57.295000,-16.0,56.0,-13.0,-873.0,508.0,-140.0,0.0,0.0,0.0
19:32:57.300000,-37.0,42.0,-53.0,-873.0,508.0,-140.0,0.0,0.0,0.0
19:32:57.305000,-68.0,32.0,-29.0,-840.0,557.0,-127.0,0.0,0.0,0.0
19:32:57.309000,-75.0,16.0,-6.0,-840.0,557.0,-127.0,0.0,0.0,0.0
19:32:57.314000,-75.0,16.0,-6.0,-813.0,571.0,-139.0,0.0,0.0,0.0
19:32:57.319000,-98.0,0.0,-22.0,-813.0,571.0,-139.0,0.0,0.0,0.0
19:32:57.323000,-126.0,-11.0,-39.0,-795.0,599.0,-162.0,0.0,0.0,0.0
19:32:57.328000,-154.0,-21.0,-58.0,-795.0,599.0,-162.0,0.0,0.0,0.0
19:32:57.333000,-182.0,-32.0,-44.0,-775.0,593.0,-171.0,0.0,0.0,0.0
19:32:57.337000,-191.0,-48.0,17.0,-775.0,593.0,-171.0,0.0,0.0,0.0
19:32:57.342000,-195.0,-57.0,77.0,-720.0,482.0,-178.0,0.0,0.0,0.0
19:32:57.347000,-186.0,-68.0,91.0,-720.0,482.0,-178.0,0.0,0.0,0.0
19:32:57.352000,-177.0,-80.0,70.0,-618.0,422.0,-194.0,0.0,0.0,0.0
19:32:57.356000,-172.0,-89.0,59.0,-618.0,422.0,-194.0,0.0,0.0,0.0
19:32:57.361000,-156.0,-96.0,72.0,-504.0,420.0,-207.0,0.0,0.0,0.0
19:32:57.366000,-129.0,-103.0,56.0,-504.0,420.0,-207.0,0.0,0.0,0.0
19:32:57.370000,-103.0,-107.0,23.0,-445.0,400.0,-215.0,0.0,0.0,0.0
19:32:57.375000,-86.0,-111.0,3.0,-445.0,400.0,-215.0,0.0,0.0,0.0
19:32:57.380000,-75.0,-114.0,-16.0,-445.0,400.0,-215.0,0.0,0.0,0.0
19:32:57.384000,-84.0,-114.0,-40.0,-449.0,449.0,-208.0,0.0,0.0,0.0
19:32:57.389000,-109.0,-112.0,-60.0,-449.0,449.0,-208.0,0.0,0.0,0.0
19:32:57.394000,-147.0,-107.0,-68.0,-464.0,551.0,-184.0,0.0,0.0,0.0
19:32:57.399000,-189.0,-96.0,-55.0,-464.0,551.0,-184.0,0.0,0.0,0.0
19:32:57.403000,-226.0,-79.0,-39.0,-455.0,588.0,-158.0,0.0,0.0,0.0
19:32:57.408000,-254.0,-58.0,-38.0,-455.0,588.0,-158.0,0.0,0.0,0.0
19:32:57.413000,-272.0,-34.0,-51.0,-468.0,540.0,-147.0,0.0,0.0,0.0
19:32:57.417000,-272.0,-34.0,-51.0,-468.0,540.0,-147.0,0.0,0.0,0.0
19:32:57.422000,-270.0,9.0,-65.0,-530.0,464.0,-147.0,0.0,0.0,0.0
19:32:57.427000,-270.0,9.0,-65.0,-530.0,464.0,-147.0,0.0,0.0,0.0
19:32:57.431000,-247.0,26.0,-67.0,-576.0,363.0,-152.0,0.0,0.0,0.0
19:32:57.436000,-210.0,38.0,-70.0,-576.0,363.0,-152.0,0.0,0.0,0.0
19:32:57.441000,-167.0,45.0,-79.0,-559.0,282.0,-161.0,0.0,0.0,0.0
19:32:57.446000,-123.0,49.0,-93.0,-559.0,282.0,-161.0,0.0,0.0,0.0
19:32:57.450000,-90.0,49.0,-103.0,-505.0,298.0,-164.0,0.0,0.0,0.0
19:32:57.455000,-67.0,44.0,-108.0,-505.0,298.0,-164.0,0.0,0.0,0.0
19:32:57.460000,-56.0,35.0,-114.0,-467.0,389.0,-160.0,0.0,0.0,0.0
19:32:57.464000,-57.0,21.0,-122.0,-467.0,389.0,-160.0,0.0,0.0,0.0
19:32:57.469000,-73.0,6.0,-125.0,-474.0,494.0,-144.0,0.0,0.0,0.0
19:32:57.474000,-100.0,-7.0,-119.0,-474.0,494.0,-144.0,0.0,0.0,0.0
19:32:57.478000,-127.0,-16.0,-106.0,-512.0,537.0,-116.0,0.0,0.0,0.0
19:32:57.483000,-144.0,-27.0,-86.0,-512.0,537.0,-116.0,0.0,0.0,0.0
19:32:57.488000,-151.0,-33.0,-60.0,-512.0,537.0,-116.0,0.0,0.0,0.0
19:32:57.493000,-148.0,-34.0,-27.0,-553.0,467.0,-94.0,0.0,0.0,0.0
19:32:57.497000,-141.0,-27.0,6.0,-553.0,467.0,-94.0,0.0,0.0,0.0
19:32:57.502000,-132.0,-18.0,35.0,-594.0,376.0,-84.0,0.0,0.0,0.0
19:32:57.507000,-119.0,-9.0,53.0,-594.0,376.0,-84.0,0.0,0.0,0.0
19:32:57.511000,-106.0,2.0,65.0,-638.0,330.0,-84.0,0.0,0.0,0.0
19:32:57.516000,-97.0,15.0,73.0,-638.0,330.0,-84.0,0.0,0.0,0.0
19:32:57.521000,-95.0,28.0,74.0,-657.0,310.0,-96.0,0.0,0.0,0.0
19:32:57.525000,-106.0,37.0,69.0,-657.0,310.0,-96.0,0.0,0.0,0.0
19:32:57.530000,-128.0,44.0,58.0,-638.0,325.0,-109.0,0.0,0.0,0.0
19:32:57.535000,-128.0,44.0,58.0,-638.0,325.0,-109.0,0.0,0.0,0.0
19:32:57.540000,-163.0,45.0,42.0,-613.0,351.0,-124.0,0.0,0.0,0.0
19:32:57.544000,-203.0,44.0,30.0,-613.0,351.0,-124.0,0.0,0.0,0.0
19:32:57.549000,-238.0,42.0,25.0,-597.0,293.0,-138.0,0.0,0.0,0.0
19:32:57.554000,-254.0,43.0,23.0,-597.0,293.0,-138.0,0.0,0.0,0.0
19:32:57.558000,-250.0,46.0,22.0,-592.0,112.0,-151.0,0.0,0.0,0.0
19:32:57.563000,-226.0,51.0,10.0,-592.0,112.0,-151.0,0.0,0.0,0.0
19:32:57.568000,-189.0,60.0,-13.0,-617.0,-69.0,-162.0,0.0,0.0,0.0
19:32:57.572000,-142.0,67.0,-35.0,-617.0,-69.0,-162.0,0.0,0.0,0.0
19:32:57.577000,-93.0,77.0,-53.0,-669.0,-157.0,-167.0,0.0,0.0,0.0
19:32:57.582000,-49.0,79.0,-71.0,-669.0,-157.0,-167.0,0.0,0.0,0.0
19:32:57.587000,-16.0,78.0,-96.0,-718.0,-135.0,-163.0,0.0,0.0,0.0
19:32:57.591000,-2.0,72.0,-126.0,-718.0,-135.0,-163.0,0.0,0.0,0.0
19:32:57.596000,-5.0,58.0,-149.0,-718.0,-135.0,-163.0,0.0,0.0,0.0
19:32:57.601000,-23.0,41.0,-161.0,-713.0,-8.0,-149.0,0.0,0.0,0.0
19:32:57.605000,-46.0,20.0,-157.0,-713.0,-8.0,-149.0,0.0,0.0,0.0
19:32:57.610000,-68.0,-1.0,-140.0,-651.0,123.0,-129.0,0.0,0.0,0.0
19:32:57.615000,-85.0,-16.0,-118.0,-651.0,123.0,-129.0,0.0,0.0,0.0
19:32:57.619000,-98.0,-27.0,-94.0,-619.0,165.0,-109.0,0.0,0.0,0.0
19:32:57.624000,-105.0,-28.0,-69.0,-619.0,165.0,-109.0,0.0,0.0,0.0
19:32:57.629000,-107.0,-25.0,-41.0,-666.0,116.0,-89.0,0.0,0.0,0.0
19:32:57.634000,-104.0,-16.0,-19.0,-666.0,116.0,-89.0,0.0,0.0,0.0
19:32:57.638000,-95.0,-5.0,-15.0,-745.0,21.0,-79.0,0.0,0.0,0.0
19:32:57.643000,-95.0,-5.0,-15.0,-745.0,21.0,-79.0,0.0,0.0,0.0
19:32:57.648000,-84.0,7.0,-34.0,-805.0,-35.0,-84.0,0.0,0.0,0.0
19:32:57.652000,-77.0,18.0,-68.0,-805.0,-35.0,-84.0,0.0,0.0,0.0
19:32:57.657000,-74.0,28.0,-107.0,-834.0,-13.0,-100.0,0.0,0.0,0.0
19:32:57.662000,-73.0,35.0,-143.0,-834.0,-13.0,-100.0,0.0,0.0,0.0
19:32:57.666000,-60.0,37.0,-166.0,-820.0,-7.0,-125.0,0.0,0.0,0.0
19:32:57.671000,-36.0,35.0,-182.0,-820.0,-7.0,-125.0,0.0,0.0,0.0
19:32:57.676000,-5.0,24.0,-195.0,-765.0,-30.0,-158.0,0.0,0.0,0.0
19:32:57.680000,23.0,9.0,-201.0,-765.0,-30.0,-158.0,0.0,0.0,0.0
19:32:57.685000,43.0,-12.0,-193.0,-703.0,16.0,-195.0,0.0,0.0,0.0
19:32:57.690000,58.0,-42.0,-165.0,-703.0,16.0,-195.0,0.0,0.0,0.0
19:32:57.695000,75.0,-77.0,-123.0,-664.0,80.0,-224.0,0.0,0.0,0.0
19:32:57.699000,93.0,-118.0,-74.0,-664.0,80.0,-224.0,0.0,0.0,0.0
19:32:57.704000,103.0,-158.0,-21.0,-664.0,120.0,-230.0,0.0,0.0,0.0
19:32:57.709000,96.0,-194.0,47.0,-668.0,120.0,-230.0,0.0,0.0,0.0
19:32:57.713000,74.0,-226.0,126.0,-668.0,120.0,-230.0,0.0,0.0,0.0
19:32:57.718000,45.0,-254.0,200.0,-722.0,148.0,-212.0,0.0,0.0,0.0
19:32:57.723000,16.0,-270.0,249.0,-722.0,112.0,-181.0,0.0,0.0,0.0
19:32:57.727000,-9.0,-277.0,270.0,-816.0,112.0,-177.0,0.0,0.0,0.0
19:32:57.732000,-32.0,-274.0,270.0,-816.0,112.0,-177.0,0.0,0.0,0.0
19:32:57.737000,-50.0,-265.0,259.0,-933.0,46.0,-132.0,0.0,0.0,0.0
19:32:57.742000,-56.0,-251.0,242.0,-933.0,46.0,-132.0,0.0,0.0,0.0
19:32:57.746000,-53.0,-232.0,222.0,-1021.0,-2.0,-82.0,0.0,0.0,0.0
19:32:57.751000,-39.0,-232.0,222.0,-1021.0,-2.0,-82.0,0.0,0.0,0.0
19:32:57.756000,-39.0,-210.0,197.0,-1053.0,-24.0,-44.0,0.0,0.0,0.0
19:32:57.760000,-19.0,-188.0,174.0,-1053.0,-24.0,-44.0,0.0,0.0,0.0
19:32:57.765000,-2.0,-170.0,170.0,-1051.0,13.0,-31.0,0.0,0.0,0.0
19:32:57.770000,13.0,-158.0,198.0,-1051.0,13.0,-31.0,0.0,0.0,0.0
19:32:57.774000,23.0,-150.0,256.0,-996.0,63.0,-29.0,0.0,0.0,0.0
19:32:57.779000,23.0,-147.0,333.0,-996.0,63.0,-29.0,0.0,0.0,0.0
19:32:57.784000,22.0,-149.0,422.0,-875.0,56.0,-21.0,0.0,0.0,0.0
19:32:57.789000,19.0,-152.0,490.0,-875.0,56.0,-21.0,0.0,0.0,0.0
19:32:57.793000,13.0,-156.0,520.0,-790.0,18.0,-22.0,0.0,0.0,0.0
19:32:57.798000,6.0,-154.0,520.0,-790.0,18.0,-22.0,0.0,0.0,0.0
19:32:57.803000,4.0,-147.0,505.0,-824.0,-27.0,-53.0,0.0,0.0,0.0
19:32:57.807000,17.0,-138.0,485.0,-824.0,-27.0,-53.0,0.0,0.0,0.0
19:32:57.812000,39.0,-125.0,466.0,-924.0,-72.0,-107.0,0.0,0.0,0.0
19:32:57.817000,63.0,-111.0,447.0,-924.0,-72.0,-107.0,0.0,0.0,0.0
19:32:57.821000,86.0,-100.0,438.0,-924.0,-72.0,-107.0,0.0,0.0,0.0
19:32:57.826000,102.0,-97.0,446.0,-980.0,-58.0,-157.0,0.0,0.0,0.0
19:32:57.831000,109.0,-100.0,477.0,-980.0,-58.0,-157.0,0.0,0.0,0.0
19:32:57.836000,100.0,-114.0,528.0,-898.0,5.0,-184.0,0.0,0.0,0.0
19:32:57.840000,73.0,-133.0,592.0,-898.0,5.0,-184.0,0.0,0.0,0.0
19:32:57.845000,40.0,-150.0,658.0,-697.0,75.0,-176.0,0.0,0.0,0.0
19:32:57.850000,21.0,-165.0,709.0,-697.0,75.0,-176.0,0.0,0.0,0.0
19:32:57.854000,25.0,-175.0,718.0,-509.0,41.0,-141.0,0.0,0.0,0.0
19:32:57.859000,49.0,-177.0,675.0,-509.0,41.0,-141.0,0.0,0.0,0.0
19:32:57.864000,49.0,-177.0,675.0,-529.0,-83.0,-117.0,0.0,0.0,0.0
19:32:57.868000,86.0,-168.0,602.0,-529.0,-83.0,-117.0,0.0,0.0,0.0
19:32:57.873000,134.0,-153.0,524.0,-758.0,-141.0,-127.0,0.0,0.0,0.0
19:32:57.878000,182.0,-132.0,444.0,-758.0,-141.0,-127.0,0.0,0.0,0.0
19:32:57.883000,223.0,-109.0,355.0,-987.0,-86.0,-153.0,0.0,0.0,0.0
19:32:57.887000,253.0,-85.0,268.0,-987.0,-86.0,-153.0,0.0,0.0,0.0
19:32:57.892000,270.0,-62.0,199.0,-1048.0,45.0,-163.0,0.0,0.0,0.0
19:32:57.897000,276.0,-36.0,156.0,-1048.0,45.0,-163.0,0.0,0.0,0.0
19:32:57.911000,198.0,24.0,170.0,-784.0,345.0,-127.0,0.0,0.0,0.0
19:32:57.915000,159.0,30.0,206.0,-784.0,345.0,-127.0,0.0,0.0,0.0
19:32:57.920000,126.0,27.0,231.0,-660.0,385.0,-125.0,0.0,0.0,0.0
19:32:57.925000,105.0,15.0,240.0,-660.0,385.0,-125.0,0.0,0.0,0.0
19:32:57.930000,90.0,-4.0,233.0,-660.0,385.0,-125.0,0.0,0.0,0.0
19:32:57.934000,70.0,-25.0,215.0,-611.0,359.0,-157.0,0.0,0.0,0.0
19:32:57.939000,42.0,-47.0,194.0,-611.0,359.0,-157.0,0.0,0.0,0.0
19:32:57.944000,11.0,-69.0,172.0,-650.0,352.0,-189.0,0.0,0.0,0.0
19:32:57.948000,-16.0,-90.0,149.0,-650.0,352.0,-189.0,0.0,0.0,0.0
19:32:57.953000,-35.0,-108.0,122.0,-718.0,338.0,-201.0,0.0,0.0,0.0
19:32:57.958000,-52.0,-118.0,85.0,-718.0,338.0,-201.0,0.0,0.0,0.0
19:32:57.962000,-73.0,-116.0,44.0,-752.0,285.0,-207.0,0.0,0.0,0.0
19:32:57.967000,-92.0,-112.0,18.0,-752.0,285.0,-207.0,0.0,0.0,0.0
19:32:57.971000,-92.0,-112.0,18.0,-758.0,244.0,-205.0,0.0,0.0,0.0
19:32:57.977000,-98.0,-106.0,9.0,-758.0,244.0,-205.0,0.0,0.0,0.0
19:32:57.981000,-102.0,-91.0,4.0,-724.0,191.0,-198.0,0.0,0.0,0.0
19:32:57.986000,-99.0,-70.0,-1.0,-724.0,191.0,-198.0,0.0,0.0,0.0
19:32:57.991000,-90.0,-44.0,-3.0,-687.0,138.0,-193.0,0.0,0.0,0.0
19:32:57.995000,-60.0,-30.0,11.0,-687.0,138.0,-193.0,0.0,0.0,0.0
19:32:58.000000,-28.0,-9.0,37.0,-660.0,86.0,-188.0,0.0,0.0,0.0
19:32:58.005000,4.0,15.0,68.0,-660.0,86.0,-188.0,0.0,0.0,0.0
19:32:58.009000,35.0,34.0,137.0,-629.0,73.0,-181.0,0.0,0.0,0.0
19:32:58.014000,63.0,54.0,221.0,-629.0,73.0,-181.0,0.0,0.0,0.0
19:32:58.019000,78.0,74.0,247.0,-650.0,142.0,-167.0,0.0,0.0,0.0
19:32:58.024000,95.0,77.0,265.0,-650.0,142.0,-167.0,0.0,0.0,0.0
19:32:58.028000,98.0,91.0,313.0,-673.0,177.0,-146.0,0.0,0.0,0.0
19:32:58.033000,102.0,99.0,361.0,-673.0,177.0,-146.0,0.0,0.0,0.0
19:32:58.038000,119.0,96.0,377.0,-733.0,171.0,-111.0,0.0,0.0,0.0
19:32:58.042000,149.0,73.0,354.0,-733.0,171.0,-111.0,0.0,0.0,0.0
19:32:58.046000,165.0,73.0,452.0,-733.0,171.0,-111.0,0.0,0.0,0.0
19:32:58.052000,164.0,50.0,604.0,-863.0,142.0,-68.0,0.0,0.0,0.0
19:32:58.056000,126.0,81.0,220.0,-863.0,142.0,-68.0,0.0,0.0,0.0
19:32:58.061000,136.0,126.0,135.0,-934.0,202.0,-33.0,0.0,0.0,0.0
19:32:58.066000,97.0,137.0,262.0,-934.0,202.0,-33.0,0.0,0.0,0.0
19:32:58.071000,86.0,144.0,235.0,-612.0,263.0,2.0,0.0,0.0,0.0
19:32:58.075000,82.0,161.0,142.0,-612.0,263.0,2.0,0.0,0.0,0.0
19:32:58.080000,82.0,161.0,142.0,-397.0,263.0,-1.0,0.0,0.0,0.0
19:32:58.085000,88.0,169.0,117.0,-397.0,263.0,-1.0,0.0,0.0,0.0
19:32:58.089000,93.0,175.0,83.0,-611.0,381.0,-74.0,0.0,0.0,0.0
19:32:58.094000,112.0,163.0,96.0,-611.0,381.0,-74.0,0.0,0.0,0.0
19:32:58.099000,131.0,144.0,185.0,-790.0,500.0,-155.0,0.0,0.0,0.0
19:32:58.103000,155.0,130.0,267.0,-790.0,500.0,-155.0,0.0,0.0,0.0
19:32:58.108000,184.0,124.0,296.0,-876.0,553.0,-207.0,0.0,0.0,0.0
19:32:58.113000,204.0,116.0,320.0,-876.0,553.0,-207.0,0.0,0.0,0.0
19:32:58.118000,209.0,96.0,389.0,-849.0,643.0,-225.0,0.0,0.0,0.0
19:32:58.122000,210.0,72.0,507.0,-849.0,643.0,-225.0,0.0,0.0,0.0
19:32:58.127000,184.0,51.0,627.0,-764.0,771.0,-221.0,0.0,0.0,0.0
19:32:58.132000,136.0,25.0,677.0,-764.0,771.0,-221.0,0.0,0.0,0.0
19:32:58.136000,88.0,1.0,653.0,-766.0,857.0,-221.0,0.0,0.0,0.0
19:32:58.141000,32.0,-14.0,542.0,-766.0,857.0,-221.0,0.0,0.0,0.0
19:32:58.146000,-2.0,-30.0,403.0,-766.0,857.0,-221.0,0.0,0.0,0.0
19:32:58.150000,-22.0,-45.0,307.0,-808.0,840.0,-232.0,0.0,0.0,0.0
19:32:58.155000,-33.0,-58.0,235.0,-808.0,840.0,-232.0,0.0,0.0,0.0
19:32:58.160000,-27.0,-69.0,146.0,-854.0,751.0,-251.0,0.0,0.0,0.0
19:32:58.165000,-4.0,-77.0,44.0,-854.0,751.0,-251.0,0.0,0.0,0.0
19:32:58.169000,10.0,-78.0,-59.0,-976.0,688.0,-273.0,0.0,0.0,0.0
19:32:58.174000,23.0,-77.0,-123.0,-976.0,688.0,-273.0,0.0,0.0,0.0
19:32:58.179000,40.0,-76.0,-173.0,-1107.0,620.0,-278.0,0.0,0.0,0.0
19:32:58.183000,53.0,-67.0,-213.0,-1107.0,620.0,-278.0,0.0,0.0,0.0
19:32:58.188000,52.0,-54.0,-214.0,-1239.0,561.0,-261.0,0.0,0.0,0.0
19:32:58.193000,52.0,-54.0,-214.0,-1239.0,561.0,-261.0,0.0,0.0,0.0
19:32:58.197000,36.0,-37.0,-235.0,-1304.0,539.0,-241.0,0.0,0.0,0.0
19:32:58.202000,16.0,-19.0,-277.0,-1304.0,539.0,-241.0,0.0,0.0,0.0
19:32:58.207000,-2.0,0.0,-331.0,-1309.0,470.0,-216.0,0.0,0.0,0.0
19:32:58.212000,-19.0,16.0,-368.0,-1309.0,470.0,-216.0,0.0,0.0,0.0
19:32:58.216000,-29.0,30.0,-396.0,-1301.0,324.0,-160.0,0.0,0.0,0.0
19:32:58.221000,-44.0,50.0,-448.0,-1301.0,324.0,-160.0,0.0,0.0,0.0
19:32:58.226000,-38.0,56.0,-490.0,-1287.0,168.0,-89.0,0.0,0.0,0.0
19:32:58.230000,-16.0,70.0,-491.0,-1287.0,168.0,-89.0,0.0,0.0,0.0
19:32:58.235000,0.0,88.0,-555.0,-1222.0,101.0,-66.0,0.0,0.0,0.0
19:32:58.240000,2.0,99.0,-628.0,-1222.0,101.0,-66.0,0.0,0.0,0.0
19:32:58.244000,-28.0,119.0,-606.0,-1133.0,26.0,-71.0,0.0,0.0,0.0
19:32:58.249000,-37.0,123.0,-541.0,-1133.0,26.0,-71.0,0.0,0.0,0.0
19:32:58.254000,-29.0,127.0,-415.0,-1133.0,26.0,-71.0,0.0,0.0,0.0
19:32:58.259000,-28.0,133.0,-340.0,-1103.0,-79.0,-88.0,0.0,0.0,0.0
19:32:58.263000,-27.0,149.0,-333.0,-1103.0,-79.0,-88.0,0.0,0.0,0.0
19:32:58.268000,-7.0,161.0,-312.0,-1154.0,-140.0,-120.0,0.0,0.0,0.0
19:32:58.273000,14.0,179.0,-289.0,-1154.0,-140.0,-120.0,0.0,0.0,0.0
19:32:58.277000,39.0,198.0,-296.0,-1240.0,-158.0,-170.0,0.0,0.0,0.0
19:32:58.282000,63.0,217.0,-359.0,-1240.0,-158.0,-170.0,0.0,0.0,0.0
19:32:58.287000,59.0,233.0,-440.0,-1307.0,-60.0,-224.0,0.0,0.0,0.0
19:32:58.291000,46.0,254.0,-511.0,-1307.0,-60.0,-224.0,0.0,0.0,0.0
19:32:58.296000,122.0,242.0,-535.0,-1341.0,36.0,-249.0,0.0,0.0,0.0
19:32:58.301000,122.0,242.0,-535.0,-1341.0,36.0,-249.0,0.0,0.0,0.0
19:32:58.306000,115.0,240.0,-516.0,-1328.0,27.0,-257.0,0.0,0.0,0.0
19:32:58.310000,137.0,232.0,-520.0,-1328.0,27.0,-257.0,0.0,0.0,0.0
19:32:58.315000,130.0,226.0,-539.0,-1315.0,1.0,-258.0,0.0,0.0,0.0
19:32:58.320000,155.0,227.0,-567.0,-1315.0,1.0,-258.0,0.0,0.0,0.0
19:32:58.324000,188.0,221.0,-581.0,-1316.0,19.0,-256.0,0.0,0.0,0.0
19:32:58.329000,193.0,210.0,-587.0,-1316.0,19.0,-256.0,0.0,0.0,0.0
19:32:58.334000,192.0,200.0,-604.0,-1348.0,84.0,-256.0,0.0,0.0,0.0
19:32:58.338000,210.0,193.0,-627.0,-1348.0,84.0,-256.0,0.0,0.0,0.0
