hh:mm:ss.ms,gyroX[mdps],gyroY[mdps],gyroZ[mdps],accX[mg],accY[mg],accZ[mg],magX[mG],magY[mG],magZ[mG]
19:32:47.289000,-21.0,127.0,224.0,-1396.0,219.0,-268.0,0.0,0.0,0.0
19:32:47.294000,2.0,140.0,158.0,-1350.0,191.0,-280.0,0.0,0.0,0.0
19:32:47.299000,0.0,151.0,49.0,-1350.0,191.0,-280.0,0.0,0.0,0.0
19:32:47.303000,1.0,161.0,-23.0,-1190.0,244.0,-304.0,0.0,0.0,0.0
19:32:47.308000,56.0,156.0,-38.0,-1190.0,244.0,-304.0,0.0,0.0,0.0
19:32:47.313000,63.0,135.0,-125.0,-1190.0,244.0,-304.0,0.0,0.0,0.0
19:32:47.318000,106.0,98.0,-186.0,-981.0,306.0,-342.0,0.0,0.0,0.0
19:32:47.322000,123.0,66.0,-156.0,-981.0,306.0,-342.0,0.0,0.0,0.0
19:32:47.327000,121.0,40.0,-131.0,-899.0,401.0,-343.0,0.0,0.0,0.0
19:32:47.332000,119.0,14.0,-116.0,-899.0,401.0,-343.0,0.0,0.0,0.0
19:32:47.336000,105.0,-17.0,-91.0,-961.0,504.0,-331.0,0.0,0.0,0.0
19:32:47.341000,86.0,-39.0,-51.0,-961.0,504.0,-331.0,0.0,0.0,0.0
19:32:47.346000,86.0,-39.0,-51.0,-1019.0,554.0,-322.0,0.0,0.0,0.0
19:32:47.351000,49.0,-48.0,-4.0,-1019.0,554.0,-322.0,0.0,0.0,0.0
19:32:47.355000,24.0,-48.0,-7.0,-1023.0,522.0,-314.0,0.0,0.0,0.0
19:32:47.360000,-16.0,-49.0,-48.0,-1023.0,522.0,-314.0,0.0,0.0,0.0
19:32:47.365000,-53.0,-48.0,-56.0,-1036.0,451.0,-301.0,0.0,0.0,0.0
19:32:47.369000,-65.0,-57.0,-10.0,-1036.0,451.0,-301.0,0.0,0.0,0.0
19:32:47.374000,-51.0,-60.0,13.0,-1018.0,357.0,-291.0,0.0,0.0,0.0
19:32:47.379000,-27.0,-53.0,-10.0,-1018.0,357.0,-291.0,0.0,0.0,0.0
19:32:47.383000,7.0,-44.0,-49.0,-991.0,301.0,-293.0,0.0,0.0,0.0
19:32:47.388000,50.0,-37.0,-102.0,-991.0,301.0,-293.0,0.0,0.0,0.0
19:32:47.393000,81.0,-29.0,-114.0,-956.0,308.0,-295.0,0.0,0.0,0.0
19:32:47.398000,112.0,-30.0,-117.0,-956.0,308.0,-295.0,0.0,0.0,0.0
19:32:47.402000,149.0,-30.0,-141.0,-916.0,372.0,-295.0,0.0,0.0,0.0
19:32:47.407000,180.0,-32.0,-185.0,-916.0,372.0,-295.0,0.0,0.0,0.0
19:32:47.412000,193.0,-31.0,-216.0,-916.0,372.0,-295.0,0.0,0.0,0.0
19:32:47.416000,195.0,-34.0,-222.0,-836.0,476.0,-287.0,0.0,0.0,0.0
19:32:47.421000,185.0,-39.0,-224.0,-836.0,476.0,-287.0,0.0,0.0,0.0
19:32:47.426000,156.0,-42.0,-231.0,-736.0,578.0,-260.0,0.0,0.0,0.0
19:32:47.430000,115.0,-44.0,-219.0,-736.0,578.0,-260.0,0.0,0.0,0.0
19:32:47.435000,72.0,-47.0,-176.0,-655.0,639.0,-226.0,0.0,0.0,0.0
19:32:47.440000,37.0,-52.0,-126.0,-655.0,639.0,-226.0,0.0,0.0,0.0
19:32:47.445000,15.0,-58.0,-96.0,-564.0,602.0,-201.0,0.0,0.0,0.0
19:32:47.449000,3.0,-59.0,-100.0,-564.0,602.0,-201.0,0.0,0.0,0.0
19:32:47.454000,0.0,-60.0,-128.0,-477.0,550.0,-192.0,0.0,0.0,0.0
19:32:47.459000,0.0,-60.0,-128.0,-477.0,550.0,-192.0,0.0,0.0,0.0
19:32:47.463000,9.0,-63.0,-142.0,-436.0,554.0,-189.0,0.0,0.0,0.0
19:32:47.468000,34.0,-63.0,-128.0,-436.0,554.0,-189.0,0.0,0.0,0.0
19:32:47.473000,69.0,-63.0,-107.0,-471.0,543.0,-187.0,0.0,0.0,0.0
19:32:47.477000,107.0,-63.0,-80.0,-471.0,543.0,-187.0,0.0,0.0,0.0
19:32:47.482000,141.0,-63.0,-49.0,-554.0,549.0,-179.0,0.0,0.0,0.0
19:32:47.487000,166.0,-60.0,-19.0,-554.0,549.0,-179.0,0.0,0.0,0.0
19:32:47.492000,179.0,-64.0,16.0,-591.0,601.0,-160.0,0.0,0.0,0.0
19:32:47.496000,179.0,-70.0,63.0,-591.0,601.0,-160.0,0.0,0.0,0.0
19:32:47.501000,166.0,-79.0,114.0,-551.0,634.0,-140.0,0.0,0.0,0.0
19:32:47.506000,144.0,-92.0,152.0,-551.0,634.0,-140.0,0.0,0.0,0.0
19:32:47.510000,115.0,-107.0,171.0,-467.0,636.0,-119.0,0.0,0.0,0.0
19:32:47.515000,79.0,-128.0,175.0,-467.0,636.0,-119.0,0.0,0.0,0.0
19:32:47.520000,40.0,-149.0,162.0,-467.0,636.0,-119.0,0.0,0.0,0.0
19:32:47.524000,0.0,-170.0,130.0,-366.0,635.0,-99.0,0.0,0.0,0.0
19:32:47.529000,-44.0,-185.0,88.0,-366.0,635.0,-99.0,0.0,0.0,0.0
19:32:47.534000,-95.0,-191.0,48.0,-308.0,661.0,-97.0,0.0,0.0,0.0
19:32:47.539000,-154.0,-186.0,18.0,-308.0,661.0,-97.0,0.0,0.0,0.0
19:32:47.543000,-208.0,-176.0,9.0,-358.0,703.0,-124.0,0.0,0.0,0.0
19:32:47.548000,-251.0,-159.0,16.0,-358.0,703.0,-124.0,0.0,0.0,0.0
19:32:47.553000,-277.0,-137.0,37.0,-470.0,666.0,-162.0,0.0,0.0,0.0
19:32:47.557000,-284.0,-116.0,66.0,-470.0,666.0,-162.0,0.0,0.0,0.0
19:32:47.562000,-274.0,-97.0,95.0,-543.0,513.0,-192.0,0.0,0.0,0.0
19:32:47.567000,-274.0,-97.0,95.0,-543.0,513.0,-192.0,0.0,0.0,0.0
19:32:47.571000,-249.0,-84.0,118.0,-554.0,360.0,-207.0,0.0,0.0,0.0
19:32:47.576000,-219.0,-76.0,128.0,-554.0,360.0,-207.0,0.0,0.0,0.0
19:32:47.581000,-191.0,-69.0,119.0,-545.0,308.0,-207.0,0.0,0.0,0.0
19:32:47.586000,-170.0,-62.0,100.0,-545.0,308.0,-207.0,0.0,0.0,0.0
19:32:47.590000,-154.0,-58.0,73.0,-536.0,326.0,-199.0,0.0,0.0,0.0
19:32:47.595000,-140.0,-57.0,46.0,-536.0,326.0,-199.0,0.0,0.0,0.0
19:32:47.600000,-126.0,-56.0,23.0,-511.0,328.0,-176.0,0.0,0.0,0.0
19:32:47.604000,-112.0,-52.0,4.0,-511.0,328.0,-176.0,0.0,0.0,0.0
19:32:47.609000,-95.0,-44.0,-6.0,-495.0,301.0,-143.0,0.0,0.0,0.0
19:32:47.614000,-77.0,-33.0,-6.0,-495.0,301.0,-143.0,0.0,0.0,0.0
19:32:47.618000,-58.0,-18.0,6.0,-537.0,261.0,-115.0,0.0,0.0,0.0
19:32:47.623000,-35.0,4.0,21.0,-537.0,261.0,-115.0,0.0,0.0,0.0
19:32:47.628000,-7.0,30.0,30.0,-537.0,261.0,-115.0,0.0,0.0,0.0
19:32:47.633000,23.0,56.0,26.0,-620.0,211.0,-105.0,0.0,0.0,0.0
19:32:47.637000,52.0,77.0,11.0,-620.0,211.0,-105.0,0.0,0.0,0.0
19:32:47.642000,75.0,95.0,-11.0,-684.0,193.0,-114.0,0.0,0.0,0.0
19:32:47.647000,86.0,103.0,-33.0,-684.0,193.0,-114.0,0.0,0.0,0.0
19:32:47.651000,84.0,102.0,-50.0,-699.0,244.0,-130.0,0.0,0.0,0.0
19:32:47.656000,66.0,93.0,-59.0,-699.0,244.0,-130.0,0.0,0.0,0.0
19:32:47.661000,36.0,78.0,-65.0,-663.0,325.0,-144.0,0.0,0.0,0.0
19:32:47.665000,0.0,58.0,-66.0,-663.0,325.0,-144.0,0.0,0.0,0.0
19:32:47.670000,-40.0,40.0,-60.0,-605.0,392.0,-156.0,0.0,0.0,0.0
19:32:47.675000,-40.0,40.0,-60.0,-605.0,392.0,-156.0,0.0,0.0,0.0
19:32:47.680000,-80.0,20.0,-51.0,-586.0,419.0,-170.0,0.0,0.0,0.0
19:32:47.684000,-116.0,4.0,-49.0,-586.0,419.0,-170.0,0.0,0.0,0.0
19:32:47.689000,-143.0,-7.0,-45.0,-640.0,378.0,-182.0,0.0,0.0,0.0
19:32:47.694000,-162.0,-12.0,-33.0,-640.0,378.0,-182.0,0.0,0.0,0.0
19:32:47.698000,-175.0,-12.0,-25.0,-745.0,262.0,-183.0,0.0,0.0,0.0
19:32:47.703000,-179.0,-9.0,-23.0,-745.0,262.0,-183.0,0.0,0.0,0.0
19:32:47.708000,-180.0,-3.0,-34.0,-838.0,139.0,-172.0,0.0,0.0,0.0
19:32:47.712000,-182.0,4.0,-56.0,-838.0,139.0,-172.0,0.0,0.0,0.0
19:32:47.717000,-186.0,11.0,-81.0,-873.0,76.0,-153.0,0.0,0.0,0.0
19:32:47.722000,-186.0,15.0,-110.0,-873.0,76.0,-153.0,0.0,0.0,0.0
19:32:47.727000,-181.0,15.0,-141.0,-853.0,39.0,-139.0,0.0,0.0,0.0
19:32:47.731000,-165.0,11.0,-169.0,-853.0,39.0,-139.0,0.0,0.0,0.0
19:32:47.736000,-142.0,3.0,-192.0,-804.0,-13.0,-131.0,0.0,0.0,0.0
19:32:47.741000,-116.0,-8.0,-211.0,-804.0,-13.0,-131.0,0.0,0.0,0.0
19:32:47.745000,-93.0,-18.0,-223.0,-804.0,-13.0,-131.0,0.0,0.0,0.0
19:32:47.750000,-74.0,-25.0,-228.0,-774.0,-53.0,-120.0,0.0,0.0,0.0
19:32:47.755000,-63.0,-25.0,-238.0,-774.0,-53.0,-120.0,0.0,0.0,0.0
19:32:47.759000,-57.0,-22.0,-255.0,-796.0,-68.0,-111.0,0.0,0.0,0.0
19:32:47.764000,-51.0,-14.0,-278.0,-796.0,-68.0,-111.0,0.0,0.0,0.0
19:32:47.769000,-43.0,-3.0,-306.0,-858.0,-60.0,-108.0,0.0,0.0,0.0
19:32:47.774000,-36.0,4.0,-336.0,-858.0,-60.0,-108.0,0.0,0.0,0.0
19:32:47.778000,-30.0,10.0,-362.0,-910.0,-43.0,-104.0,0.0,0.0,0.0
19:32:47.783000,-26.0,13.0,-378.0,-910.0,-43.0,-104.0,0.0,0.0,0.0
19:32:47.787000,-26.0,13.0,-378.0,-913.0,-13.0,-98.0,0.0,0.0,0.0
19:32:47.792000,-27.0,12.0,-391.0,-913.0,-13.0,-98.0,0.0,0.0,0.0
19:32:47.797000,-30.0,10.0,-398.0,-878.0,31.0,-94.0,0.0,0.0,0.0
19:32:47.802000,-32.0,9.0,-394.0,-878.0,31.0,-94.0,0.0,0.0,0.0
19:32:47.806000,-30.0,5.0,-389.0,-835.0,59.0,-97.0,0.0,0.0,0.0
19:32:47.811000,-27.0,0.0,-385.0,-835.0,59.0,-97.0,0.0,0.0,0.0
19:32:47.816000,-25.0,-2.0,-378.0,-810.0,79.0,-109.0,0.0,0.0,0.0
19:32:47.821000,-23.0,-7.0,-361.0,-810.0,79.0,-109.0,0.0,0.0,0.0
19:32:47.825000,-23.0,-11.0,-333.0,-789.0,95.0,-131.0,0.0,0.0,0.0
19:32:47.830000,-16.0,-17.0,-310.0,-789.0,95.0,-131.0,0.0,0.0,0.0
19:32:47.835000,0.0,-25.0,-293.0,-769.0,98.0,-162.0,0.0,0.0,0.0
19:32:47.839000,17.0,-40.0,-273.0,-769.0,98.0,-162.0,0.0,0.0,0.0
19:32:47.844000,33.0,-61.0,-234.0,-769.0,117.0,-187.0,0.0,0.0,0.0
19:32:47.849000,39.0,-86.0,-189.0,-769.0,117.0,-187.0,0.0,0.0,0.0
19:32:47.853000,30.0,-115.0,-155.0,-769.0,117.0,-187.0,0.0,0.0,0.0
19:32:47.858000,7.0,-152.0,-128.0,-786.0,174.0,-193.0,0.0,0.0,0.0
19:32:47.863000,-21.0,-193.0,-104.0,-786.0,174.0,-193.0,0.0,0.0,0.0
19:32:47.868000,-44.0,-234.0,-83.0,-796.0,217.0,-184.0,0.0,0.0,0.0
19:32:47.872000,-53.0,-273.0,-68.0,-796.0,217.0,-184.0,0.0,0.0,0.0
19:32:47.877000,-49.0,-306.0,-60.0,-813.0,184.0,-181.0,0.0,0.0,0.0
19:32:47.882000,-32.0,-329.0,-50.0,-813.0,184.0,-181.0,0.0,0.0,0.0
19:32:47.886000,-4.0,-342.0,-38.0,-863.0,124.0,-184.0,0.0,0.0,0.0
19:32:47.891000,30.0,-343.0,-24.0,-863.0,124.0,-184.0,0.0,0.0,0.0
19:32:47.896000,30.0,-343.0,-24.0,-945.0,86.0,-174.0,0.0,0.0,0.0
19:32:47.900000,67.0,-336.0,0.0,-945.0,86.0,-174.0,0.0,0.0,0.0
19:32:47.905000,104.0,-324.0,39.0,-1012.0,81.0,-148.0,0.0,0.0,0.0
19:32:47.910000,133.0,-312.0,93.0,-1012.0,81.0,-148.0,0.0,0.0,0.0
19:32:47.915000,145.0,-302.0,147.0,-1000.0,120.0,-102.0,0.0,0.0,0.0
19:32:47.919000,142.0,-298.0,196.0,-1000.0,120.0,-102.0,0.0,0.0,0.0
19:32:47.924000,130.0,-301.0,235.0,-908.0,162.0,-49.0,0.0,0.0,0.0
19:32:47.929000,116.0,-308.0,261.0,-908.0,162.0,-49.0,0.0,0.0,0.0
19:32:47.933000,98.0,-319.0,270.0,-859.0,195.0,-18.0,0.0,0.0,0.0
19:32:47.938000,76.0,-329.0,268.0,-859.0,195.0,-18.0,0.0,0.0,0.0
19:32:47.943000,51.0,-335.0,267.0,-905.0,234.0,-10.0,0.0,0.0,0.0
19:32:47.947000,32.0,-338.0,277.0,-905.0,234.0,-10.0,0.0,0.0,0.0
19:32:47.951000,21.0,-331.0,295.0,-912.0,217.0,-4.0,0.0,0.0,0.0
19:32:47.957000,22.0,-319.0,316.0,-912.0,217.0,-4.0,0.0,0.0,0.0
19:32:47.962000,30.0,-300.0,339.0,-912.0,217.0,-4.0,0.0,0.0,0.0
19:32:47.966000,41.0,-274.0,369.0,-865.0,178.0,-3.0,0.0,0.0,0.0
19:32:47.971000,56.0,-242.0,413.0,-865.0,151.0,-10.0,0.0,0.0,0.0
19:32:47.976000,74.0,-208.0,469.0,-865.0,151.0,-10.0,0.0,0.0,0.0
19:32:47.980000,97.0,-173.0,534.0,-865.0,151.0,-10.0,0.0,0.0,0.0
19:32:47.985000,122.0,-140.0,590.0,-915.0,75.0,-16.0,0.0,0.0,0.0
19:32:47.990000,146.0,-109.0,621.0,-915.0,75.0,-16.0,0.0,0.0,0.0
19:32:47.994000,156.0,-86.0,620.0,-962.0,9.0,-25.0,0.0,0.0,0.0
19:32:47.999000,145.0,-72.0,596.0,-962.0,9.0,-25.0,0.0,0.0,0.0
19:32:48.004000,145.0,-72.0,596.0,-987.0,74.0,-37.0,0.0,0.0,0.0
19:32:48.009000,121.0,-68.0,555.0,-987.0,74.0,-37.0,0.0,0.0,0.0
19:32:48.013000,93.0,-70.0,508.0,-958.0,183.0,-45.0,0.0,0.0,0.0
19:32:48.018000,67.0,-77.0,452.0,-958.0,183.0,-45.0,0.0,0.0,0.0
19:32:48.023000,48.0,-88.0,389.0,-874.0,216.0,-54.0,0.0,0.0,0.0
19:32:48.027000,35.0,-101.0,333.0,-874.0,216.0,-54.0,0.0,0.0,0.0
19:32:48.032000,27.0,-112.0,287.0,-797.0,231.0,-71.0,0.0,0.0,0.0
19:32:48.037000,19.0,-119.0,252.0,-797.0,231.0,-71.0,0.0,0.0,0.0
19:32:48.041000,7.0,-127.0,225.0,-780.0,287.0,-95.0,0.0,0.0,0.0
19:32:48.046000,4.0,-138.0,210.0,-780.0,287.0,-95.0,0.0,0.0,0.0
19:32:48.051000,12.0,-156.0,215.0,-774.0,296.0,-127.0,0.0,0.0,0.0
19:32:48.055000,30.0,-175.0,236.0,-774.0,296.0,-127.0,0.0,0.0,0.0
19:32:48.060000,52.0,-193.0,263.0,-727.0,257.0,-158.0,0.0,0.0,0.0
19:32:48.065000,69.0,-211.0,284.0,-727.0,257.0,-158.0,0.0,0.0,0.0
19:32:48.070000,81.0,-222.0,293.0,-727.0,257.0,-158.0,0.0,0.0,0.0
19:32:48.074000,87.0,-226.0,292.0,-701.0,270.0,-175.0,0.0,0.0,0.0
19:32:48.079000,86.0,-225.0,289.0,-701.0,270.0,-175.0,0.0,0.0,0.0
19:32:48.084000,73.0,-221.0,273.0,-734.0,312.0,-193.0,0.0,0.0,0.0
19:32:48.088000,53.0,-214.0,251.0,-734.0,312.0,-193.0,0.0,0.0,0.0
19:32:48.093000,30.0,-203.0,232.0,-801.0,355.0,-205.0,0.0,0.0,0.0
19:32:48.098000,8.0,-186.0,213.0,-801.0,355.0,-205.0,0.0,0.0,0.0
19:32:48.102000,-13.0,-168.0,191.0,-828.0,369.0,-202.0,0.0,0.0,0.0
19:32:48.107000,-30.0,-147.0,164.0,-828.0,369.0,-202.0,0.0,0.0,0.0
19:32:48.112000,-45.0,-127.0,134.0,-819.0,349.0,-193.0,0.0,0.0,0.0
19:32:48.117000,-45.0,-127.0,134.0,-819.0,349.0,-193.0,0.0,0.0,0.0
19:32:48.121000,-53.0,-114.0,105.0,-824.0,318.0,-173.0,0.0,0.0,0.0
19:32:48.126000,-63.0,-99.0,84.0,-824.0,318.0,-173.0,0.0,0.0,0.0
19:32:48.131000,-59.0,-95.0,95.0,-816.0,254.0,-145.0,0.0,0.0,0.0
19:32:48.135000,-41.0,-95.0,122.0,-816.0,254.0,-145.0,0.0,0.0,0.0
19:32:48.140000,-16.0,-91.0,149.0,-764.0,171.0,-121.0,0.0,0.0,0.0
19:32:48.145000,23.0,-93.0,156.0,-764.0,171.0,-121.0,0.0,0.0,0.0
19:32:48.149000,60.0,-90.0,145.0,-704.0,146.0,-100.0,0.0,0.0,0.0
19:32:48.154000,79.0,-82.0,157.0,-704.0,146.0,-100.0,0.0,0.0,0.0
19:32:48.159000,99.0,-80.0,192.0,-685.0,196.0,-82.0,0.0,0.0,0.0
19:32:48.164000,114.0,-80.0,228.0,-685.0,196.0,-82.0,0.0,0.0,0.0
19:32:48.168000,127.0,-80.0,241.0,-710.0,243.0,-65.0,0.0,0.0,0.0
19:32:48.173000,140.0,-83.0,268.0,-710.0,243.0,-65.0,0.0,0.0,0.0
19:32:48.178000,159.0,-85.0,315.0,-710.0,243.0,-65.0,0.0,0.0,0.0
19:32:48.182000,191.0,-98.0,391.0,-737.0,246.0,-54.0,0.0,0.0,0.0
19:32:48.186000,196.0,-107.0,599.0,-737.0,246.0,-54.0,0.0,0.0,0.0
19:32:48.192000,195.0,-98.0,505.0,-855.0,265.0,-40.0,0.0,0.0,0.0
19:32:48.196000,198.0,-67.0,205.0,-855.0,265.0,-40.0,0.0,0.0,0.0
19:32:48.201000,196.0,-74.0,267.0,-893.0,387.0,-34.0,0.0,0.0,0.0
19:32:48.206000,176.0,-86.0,492.0,-893.0,387.0,-34.0,0.0,0.0,0.0
19:32:48.211000,156.0,-94.0,620.0,-727.0,450.0,-21.0,0.0,0.0,0.0
19:32:48.215000,134.0,-96.0,616.0,-727.0,450.0,-21.0,0.0,0.0,0.0
19:32:48.220000,111.0,-95.0,572.0,-765.0,441.0,-2.0,0.0,0.0,0.0
19:32:48.225000,111.0,-95.0,572.0,-765.0,441.0,-2.0,0.0,0.0,0.0
19:32:48.229000,94.0,-95.0,584.0,-861.0,411.0,6.0,0.0,0.0,0.0
19:32:48.234000,77.0,-88.0,636.0,-861.0,411.0,6.0,0.0,0.0,0.0
19:32:48.239000,58.0,-80.0,668.0,-790.0,366.0,16.0,0.0,0.0,0.0
19:32:48.243000,32.0,-72.0,674.0,-790.0,366.0,16.0,0.0,0.0,0.0
19:32:48.248000,3.0,-63.0,676.0,-735.0,383.0,21.0,0.0,0.0,0.0
19:32:48.253000,-23.0,-51.0,690.0,-735.0,383.0,21.0,0.0,0.0,0.0
19:32:48.258000,-49.0,-35.0,704.0,-748.0,363.0,15.0,0.0,0.0,0.0
19:32:48.262000,-71.0,-19.0,693.0,-748.0,363.0,15.0,0.0,0.0,0.0
19:32:48.267000,-90.0,-2.0,676.0,-797.0,327.0,-5.0,0.0,0.0,0.0
19:32:48.272000,-109.0,13.0,687.0,-797.0,327.0,-5.0,0.0,0.0,0.0
19:32:48.276000,-124.0,31.0,708.0,-811.0,300.0,-37.0,0.0,0.0,0.0
19:32:48.280000,-134.0,50.0,724.0,-811.0,300.0,-37.0,0.0,0.0,0.0
19:32:48.286000,-137.0,65.0,750.0,-811.0,300.0,-37.0,0.0,0.0,0.0
19:32:48.290000,-135.0,81.0,792.0,-800.0,252.0,-67.0,0.0,0.0,0.0
19:32:48.295000,-123.0,92.0,835.0,-800.0,252.0,-67.0,0.0,0.0,0.0
19:32:48.300000,-109.0,107.0,875.0,-782.0,187.0,-96.0,0.0,0.0,0.0
19:32:48.305000,-93.0,114.0,919.0,-782.0,187.0,-96.0,0.0,0.0,0.0
19:32:48.309000,-81.0,117.0,961.0,-772.0,141.0,-118.0,0.0,0.0,0.0
19:32:48.314000,-80.0,121.0,991.0,-772.0,141.0,-118.0,0.0,0.0,0.0
19:32:48.319000,-76.0,126.0,1002.0,-776.0,153.0,-131.0,0.0,0.0,0.0
19:32:48.323000,-69.0,126.0,980.0,-776.0,153.0,-131.0,0.0,0.0,0.0
19:32:48.328000,-63.0,123.0,935.0,-807.0,194.0,-149.0,0.0,0.0,0.0
19:32:48.333000,-63.0,123.0,935.0,-807.0,194.0,-149.0,0.0,0.0,0.0
19:32:48.337000,-56.0,121.0,882.0,-846.0,190.0,-171.0,0.0,0.0,0.0
19:32:48.342000,-45.0,113.0,835.0,-846.0,190.0,-171.0,0.0,0.0,0.0
19:32:48.347000,-25.0,97.0,810.0,-870.0,163.0,-195.0,0.0,0.0,0.0
19:32:48.352000,-16.0,84.0,811.0,-870.0,163.0,-195.0,0.0,0.0,0.0
19:32:48.356000,2.0,64.0,803.0,-945.0,181.0,-218.0,0.0,0.0,0.0
19:32:48.361000,11.0,39.0,771.0,-945.0,181.0,-218.0,0.0,0.0,0.0
19:32:48.366000,3.0,10.0,723.0,-1075.0,226.0,-237.0,0.0,0.0,0.0
19:32:48.370000,105.0,-21.0,685.0,-1075.0,226.0,-237.0,0.0,0.0,0.0
19:32:48.375000,149.0,-21.0,659.0,-1102.0,282.0,-245.0,0.0,0.0,0.0
19:32:48.380000,42.0,-63.0,637.0,-1102.0,282.0,-245.0,0.0,0.0,0.0
19:32:48.384000,135.0,-92.0,579.0,-1109.0,369.0,-257.0,0.0,0.0,0.0
19:32:48.389000,143.0,-128.0,522.0,-1109.0,369.0,-257.0,0.0,0.0,0.0
19:32:48.394000,164.0,-154.0,499.0,-1109.0,385.0,-257.0,0.0,0.0,0.0
19:32:48.399000,184.0,-174.0,446.0,-1177.0,385.0,-257.0,0.0,0.0,0.0
19:32:48.403000,191.0,-201.0,345.0,-1241.0,416.0,-226.0,0.0,0.0,0.0
19:32:48.408000,185.0,-221.0,253.0,-1241.0,416.0,-226.0,0.0,0.0,0.0
19:32:48.413000,172.0,-245.0,181.0,-1241.0,416.0,-226.0,0.0,0.0,0.0
19:32:48.417000,156.0,-254.0,109.0,-1320.0,552.0,-183.0,0.0,0.0,0.0
19:32:48.421000,119.0,-265.0,43.0,-1320.0,552.0,-183.0,0.0,0.0,0.0
19:32:48.427000,94.0,-265.0,16.0,-1388.0,649.0,-134.0,0.0,0.0,0.0
19:32:48.431000,87.0,-256.0,18.0,-1388.0,649.0,-134.0,0.0,0.0,0.0
19:32:48.436000,60.0,-239.0,39.0,-1421.0,621.0,-99.0,0.0,0.0,0.0
19:32:48.441000,60.0,-239.0,39.0,-1421.0,621.0,-99.0,0.0,0.0,0.0
19:32:48.446000,35.0,-210.0,28.0,-1422.0,508.0,-77.0,0.0,0.0,0.0
19:32:48.450000,0.0,-172.0,-22.0,-1422.0,508.0,-77.0,0.0,0.0,0.0
19:32:48.455000,-21.0,-141.0,-71.0,-1434.0,376.0,-53.0,0.0,0.0,0.0
19:32:48.460000,-22.0,-98.0,-140.0,-1434.0,376.0,-53.0,0.0,0.0,0.0
19:32:48.464000,-21.0,-58.0,-200.0,-1400.0,224.0,-25.0,0.0,0.0,0.0
19:32:48.469000,-29.0,-21.0,-232.0,-1400.0,224.0,-25.0,0.0,0.0,0.0
19:32:48.474000,-21.0,11.0,-244.0,-1296.0,50.0,1.0,0.0,0.0,0.0
19:32:48.478000,-4.0,37.0,-229.0,-1296.0,50.0,1.0,0.0,0.0,0.0
19:32:48.483000,7.0,72.0,-209.0,-1144.0,-106.0,19.0,0.0,0.0,0.0
19:32:48.488000,4.0,99.0,-182.0,-1144.0,-106.0,19.0,0.0,0.0,0.0
19:32:48.493000,6.0,124.0,-114.0,-970.0,-172.0,31.0,0.0,0.0,0.0
19:32:48.497000,-24.0,154.0,-72.0,-970.0,-172.0,31.0,0.0,0.0,0.0
19:32:48.502000,-30.0,170.0,-73.0,-897.0,-196.0,38.0,0.0,0.0,0.0
19:32:48.507000,-30.0,177.0,-142.0,-897.0,-196.0,38.0,0.0,0.0,0.0
19:32:48.511000,-49.0,184.0,-221.0,-897.0,-196.0,38.0,0.0,0.0,0.0
19:32:48.516000,-58.0,192.0,-221.0,-897.0,-248.0,32.0,0.0,0.0,0.0
19:32:48.521000,-48.0,186.0,-223.0,-918.0,-259.0,2.0,0.0,0.0,0.0
19:32:48.525000,-39.0,182.0,-226.0,-918.0,-259.0,2.0,0.0,0.0,0.0
19:32:48.530000,-63.0,180.0,-233.0,-918.0,-259.0,2.0,0.0,0.0,0.0
19:32:48.535000,-91.0,175.0,-250.0,-1012.0,-158.0,-30.0,0.0,0.0,0.0
19:32:48.540000,-54.0,163.0,-222.0,-1012.0,-158.0,-30.0,0.0,0.0,0.0
19:32:48.544000,-44.0,162.0,-198.0,-1081.0,-54.0,-59.0,0.0,0.0,0.0
19:32:48.549000,-27.0,159.0,-207.0,-1081.0,-54.0,-59.0,0.0,0.0,0.0
19:32:48.554000,-27.0,159.0,-207.0,-1118.0,-29.0,-84.0,0.0,0.0,0.0
19:32:48.558000,-7.0,154.0,-213.0,-1118.0,-29.0,-84.0,0.0,0.0,0.0
19:32:48.563000,-11.0,157.0,-216.0,-1187.0,-10.0,-97.0,0.0,0.0,0.0
19:32:48.568000,-14.0,167.0,-243.0,-1187.0,-10.0,-97.0,0.0,0.0,0.0
19:32:48.572000,-28.0,175.0,-284.0,-1250.0,-4.0,-106.0,0.0,0.0,0.0
19:32:48.577000,-14.0,177.0,-301.0,-1250.0,-4.0,-106.0,0.0,0.0,0.0
19:32:48.582000,-2.0,182.0,-319.0,-1274.0,-41.0,-108.0,0.0,0.0,0.0
19:32:48.587000,-21.0,192.0,-338.0,-1274.0,-41.0,-108.0,0.0,0.0,0.0
19:32:48.591000,-46.0,196.0,-376.0,-1275.0,-101.0,-104.0,0.0,0.0,0.0
19:32:48.596000,-46.0,209.0,-424.0,-1275.0,-101.0,-104.0,0.0,0.0,0.0
19:32:48.601000,-60.0,226.0,-501.0,-1251.0,-133.0,-99.0,0.0,0.0,0.0
19:32:48.605000,-21.0,231.0,-577.0,-1251.0,-133.0,-99.0,0.0,0.0,0.0
19:32:48.610000,-40.0,243.0,-660.0,-1201.0,-115.0,-97.0,0.0,0.0,0.0
19:32:48.615000,-28.0,261.0,-654.0,-1201.0,-115.0,-97.0,0.0,0.0,0.0
19:32:48.619000,-21.0,274.0,-680.0,-1201.0,-115.0,-97.0,0.0,0.0,0.0
19:32:48.624000,-28.0,288.0,-720.0,-1161.0,-82.0,-102.0,0.0,0.0,0.0
19:32:48.629000,-21.0,306.0,-687.0,-1161.0,-82.0,-102.0,0.0,0.0,0.0
19:32:48.634000,4.0,315.0,-698.0,-1157.0,-84.0,-119.0,0.0,0.0,0.0
19:32:48.638000,-2.0,322.0,-800.0,-1157.0,-84.0,-119.0,0.0,0.0,0.0
19:32:48.643000,-19.0,335.0,-861.0,-1173.0,-42.0,-129.0,0.0,0.0,0.0
19:32:48.648000,3.0,340.0,-824.0,-1173.0,-42.0,-129.0,0.0,0.0,0.0
19:32:48.652000,18.0,338.0,-744.0,-1190.0,30.0,-148.0,0.0,0.0,0.0
19:32:48.656000,18.0,338.0,-744.0,-1190.0,30.0,-148.0,0.0,0.0,0.0
19:32:48.662000,14.0,338.0,-759.0,-1235.0,97.0,-173.0,0.0,0.0,0.0
19:32:48.666000,38.0,340.0,-809.0,-1235.0,97.0,-173.0,0.0,0.0,0.0
19:32:48.671000,44.0,338.0,-774.0,-1250.0,146.0,-186.0,0.0,0.0,0.0
19:32:48.676000,56.0,336.0,-719.0,-1250.0,146.0,-186.0,0.0,0.0,0.0
19:32:48.681000,74.0,340.0,-739.0,-1229.0,153.0,-205.0,0.0,0.0,0.0
19:32:48.685000,98.0,352.0,-789.0,-1229.0,153.0,-205.0,0.0,0.0,0.0
19:32:48.690000,116.0,350.0,-798.0,-1199.0,154.0,-213.0,0.0,0.0,0.0
19:32:48.695000,103.0,343.0,-772.0,-1199.0,154.0,-213.0,0.0,0.0,0.0
19:32:48.699000,110.0,336.0,-763.0,-1177.0,167.0,-221.0,0.0,0.0,0.0
19:32:48.704000,105.0,325.0,-751.0,-1177.0,167.0,-221.0,0.0,0.0,0.0
19:32:48.709000,105.0,309.0,-749.0,-1188.0,215.0,-232.0,0.0,0.0,0.0
19:32:48.713000,71.0,301.0,-757.0,-1188.0,215.0,-232.0,0.0,0.0,0.0
19:32:48.718000,87.0,279.0,-689.0,-1176.0,249.0,-249.0,0.0,0.0,0.0
19:32:48.723000,83.0,266.0,-699.0,-1176.0,249.0,-249.0,0.0,0.0,0.0
19:32:48.728000,97.0,253.0,-761.0,-1176.0,249.0,-249.0,0.0,0.0,0.0
19:32:48.732000,67.0,246.0,-751.0,-1166.0,307.0,-270.0,0.0,0.0,0.0
19:32:48.737000,93.0,233.0,-742.0,-1166.0,307.0,-270.0,0.0,0.0,0.0
19:32:48.742000,123.0,203.0,-760.0,-1164.0,355.0,-287.0,0.0,0.0,0.0
19:32:48.746000,161.0,168.0,-743.0,-1164.0,355.0,-287.0,0.0,0.0,0.0
19:32:48.751000,121.0,158.0,-715.0,-1182.0,337.0,-291.0,0.0,0.0,0.0
19:32:48.755000,133.0,158.0,-739.0,-1182.0,337.0,-291.0,0.0,0.0,0.0
19:32:48.760000,151.0,146.0,-775.0,-1216.0,351.0,-302.0,0.0,0.0,0.0
19:32:48.765000,171.0,140.0,-816.0,-1216.0,351.0,-302.0,0.0,0.0,0.0
19:32:48.770000,171.0,140.0,-816.0,-1219.0,431.0,-323.0,0.0,0.0,0.0
19:32:48.775000,184.0,132.0,-859.0,-1219.0,431.0,-323.0,0.0,0.0,0.0
19:32:48.779000,168.0,123.0,-821.0,-1197.0,456.0,-318.0,0.0,0.0,0.0
19:32:48.784000,152.0,119.0,-786.0,-1197.0,456.0,-318.0,0.0,0.0,0.0
19:32:48.789000,166.0,96.0,-814.0,-1199.0,470.0,-311.0,0.0,0.0,0.0
19:32:48.793000,168.0,84.0,-811.0,-1199.0,470.0,-311.0,0.0,0.0,0.0
19:32:48.798000,168.0,62.0,-766.0,-1226.0,471.0,-300.0,0.0,0.0,0.0
19:32:48.803000,163.0,42.0,-742.0,-1226.0,471.0,-300.0,0.0,0.0,0.0
19:32:48.807000,176.0,39.0,-700.0,-1202.0,420.0,-286.0,0.0,0.0,0.0
19:32:48.812000,170.0,27.0,-667.0,-1202.0,420.0,-286.0,0.0,0.0,0.0
19:32:48.817000,176.0,6.0,-651.0,-1133.0,457.0,-273.0,0.0,0.0,0.0
19:32:48.822000,162.0,-5.0,-575.0,-1133.0,457.0,-273.0,0.0,0.0,0.0
19:32:48.826000,165.0,-14.0,-520.0,-1119.0,545.0,-269.0,0.0,0.0,0.0
19:32:48.831000,153.0,-14.0,-525.0,-1119.0,545.0,-269.0,0.0,0.0,0.0
19:32:48.836000,144.0,-18.0,-541.0,-1119.0,545.0,-269.0,0.0,0.0,0.0
19:32:48.840000,127.0,-16.0,-568.0,-1168.0,596.0,-279.0,0.0,0.0,0.0
19:32:48.845000,113.0,-4.0,-544.0,-1168.0,596.0,-279.0,0.0,0.0,0.0
19:32:48.850000,83.0,16.0,-512.0,-1216.0,619.0,-275.0,0.0,0.0,0.0
19:32:48.854000,88.0,37.0,-482.0,-1216.0,619.0,-275.0,0.0,0.0,0.0
19:32:48.859000,73.0,55.0,-384.0,-1243.0,647.0,-262.0,0.0,0.0,0.0
19:32:48.864000,54.0,84.0,-298.0,-1243.0,647.0,-262.0,0.0,0.0,0.0
19:32:48.869000,78.0,98.0,-264.0,-1279.0,628.0,-253.0,0.0,0.0,0.0
19:32:48.873000,54.0,121.0,-238.0,-1279.0,628.0,-253.0,0.0,0.0,0.0
19:32:48.878000,32.0,151.0,-217.0,-1304.0,592.0,-238.0,0.0,0.0,0.0
19:32:48.883000,32.0,151.0,-217.0,-1304.0,592.0,-238.0,0.0,0.0,0.0
19:32:48.887000,28.0,172.0,-223.0,-1243.0,587.0,-222.0,0.0,0.0,0.0
19:32:48.891000,38.0,177.0,-296.0,-1243.0,587.0,-222.0,0.0,0.0,0.0
19:32:48.897000,39.0,175.0,-252.0,-1155.0,556.0,-206.0,0.0,0.0,0.0
19:32:48.901000,25.0,167.0,-167.0,-1155.0,556.0,-206.0,0.0,0.0,0.0
19:32:48.906000,9.0,170.0,-113.0,-1120.0,491.0,-188.0,0.0,0.0,0.0
19:32:48.911000,39.0,170.0,-166.0,-1120.0,491.0,-188.0,0.0,0.0,0.0
19:32:48.916000,11.0,177.0,-336.0,-1069.0,498.0,-169.0,0.0,0.0,0.0
19:32:48.920000,8.0,147.0,-404.0,-1069.0,498.0,-169.0,0.0,0.0,0.0
19:32:48.925000,18.0,137.0,-365.0,-892.0,538.0,-153.0,0.0,0.0,0.0
19:32:48.930000,11.0,135.0,-289.0,-892.0,538.0,-153.0,0.0,0.0,0.0
19:32:48.934000,-29.0,140.0,-372.0,-787.0,546.0,-153.0,0.0,0.0,0.0
19:32:48.939000,23.0,138.0,-496.0,-787.0,546.0,-153.0,0.0,0.0,0.0
19:32:48.944000,61.0,123.0,-374.0,-787.0,546.0,-153.0,0.0,0.0,0.0
19:32:48.948000,93.0,124.0,-280.0,-767.0,663.0,-178.0,0.0,0.0,0.0
19:32:48.953000,-60.0,109.0,-301.0,-767.0,663.0,-178.0,0.0,0.0,0.0
19:32:48.958000,-172.0,107.0,-284.0,-771.0,744.0,-176.0,0.0,0.0,0.0
19:32:48.963000,-150.0,98.0,-238.0,-771.0,744.0,-176.0,0.0,0.0,0.0
19:32:48.967000,-115.0,84.0,-262.0,-802.0,593.0,-198.0,0.0,0.0,0.0
19:32:48.972000,-86.0,52.0,-380.0,-802.0,593.0,-198.0,0.0,0.0,0.0
19:32:48.977000,-99.0,21.0,-453.0,-734.0,561.0,-241.0,0.0,0.0,0.0
19:32:48.981000,-102.0,-21.0,-391.0,-734.0,561.0,-241.0,0.0,0.0,0.0
19:32:48.986000,-106.0,-61.0,-263.0,-538.0,654.0,-240.0,0.0,0.0,0.0
19:32:48.991000,-106.0,-61.0,-263.0,-538.0,654.0,-240.0,0.0,0.0,0.0
19:32:48.995000,-119.0,-98.0,-200.0,-435.0,691.0,-242.0,0.0,0.0,0.0
19:32:49.000000,-126.0,-128.0,-208.0,-435.0,691.0,-242.0,0.0,0.0,0.0
19:32:49.005000,-128.0,-158.0,-232.0,-509.0,758.0,-244.0,0.0,0.0,0.0
19:32:49.010000,-149.0,-182.0,-238.0,-509.0,758.0,-244.0,0.0,0.0,0.0
19:32:49.014000,-170.0,-198.0,-217.0,-562.0,793.0,-241.0,0.0,0.0,0.0
19:32:49.019000,-199.0,-208.0,-158.0,-562.0,793.0,-241.0,0.0,0.0,0.0
19:32:49.024000,-219.0,-211.0,-77.0,-583.0,784.0,-235.0,0.0,0.0,0.0
19:32:49.028000,-224.0,-206.0,-1.0,-583.0,784.0,-235.0,0.0,0.0,0.0
19:32:49.033000,-217.0,-195.0,51.0,-611.0,765.0,-238.0,0.0,0.0,0.0
19:32:49.038000,-205.0,-185.0,88.0,-611.0,765.0,-238.0,0.0,0.0,0.0
19:32:49.042000,-182.0,-173.0,130.0,-675.0,726.0,-230.0,0.0,0.0,0.0
19:32:49.047000,-144.0,-160.0,190.0,-675.0,726.0,-230.0,0.0,0.0,0.0
19:32:49.052000,-91.0,-154.0,239.0,-675.0,726.0,-230.0,0.0,0.0,0.0
19:32:49.057000,-28.0,-150.0,292.0,-728.0,568.0,-208.0,0.0,0.0,0.0
19:32:49.061000,37.0,-149.0,345.0,-728.0,568.0,-208.0,0.0,0.0,0.0
19:32:49.066000,99.0,-152.0,376.0,-673.0,382.0,-180.0,0.0,0.0,0.0
19:32:49.071000,148.0,-158.0,393.0,-673.0,382.0,-180.0,0.0,0.0,0.0
19:32:49.075000,177.0,-165.0,391.0,-522.0,324.0,-155.0,0.0,0.0,0.0
19:32:49.080000,189.0,-181.0,364.0,-522.0,324.0,-155.0,0.0,0.0,0.0
19:32:49.085000,174.0,-198.0,322.0,-414.0,417.0,-143.0,0.0,0.0,0.0
19:32:49.089000,143.0,-222.0,279.0,-414.0,417.0,-143.0,0.0,0.0,0.0
19:32:49.094000,98.0,-246.0,238.0,-392.0,571.0,-139.0,0.0,0.0,0.0
19:32:49.099000,98.0,-246.0,238.0,-392.0,571.0,-139.0,0.0,0.0,0.0
19:32:49.104000,34.0,-264.0,226.0,-389.0,665.0,-142.0,0.0,0.0,0.0
19:32:49.108000,-29.0,-280.0,237.0,-389.0,665.0,-142.0,0.0,0.0,0.0
19:32:49.113000,-102.0,-288.0,232.0,-397.0,691.0,-147.0,0.0,0.0,0.0
19:32:49.118000,-173.0,-292.0,238.0,-397.0,691.0,-147.0,0.0,0.0,0.0
19:32:49.122000,-233.0,-290.0,254.0,-436.0,662.0,-157.0,0.0,0.0,0.0
19:32:49.126000,-282.0,-283.0,261.0,-436.0,662.0,-157.0,0.0,0.0,0.0
19:32:49.132000,-317.0,-273.0,257.0,-513.0,574.0,-169.0,0.0,0.0,0.0
19:32:49.136000,-334.0,-257.0,263.0,-513.0,574.0,-169.0,0.0,0.0,0.0
19:32:49.141000,-326.0,-240.0,284.0,-592.0,437.0,-177.0,0.0,0.0,0.0
19:32:49.146000,-300.0,-217.0,300.0,-592.0,437.0,-177.0,0.0,0.0,0.0
19:32:49.151000,-259.0,-190.0,318.0,-644.0,286.0,-179.0,0.0,0.0,0.0
19:32:49.155000,-207.0,-162.0,326.0,-644.0,286.0,-179.0,0.0,0.0,0.0
19:32:49.160000,-147.0,-130.0,319.0,-695.0,206.0,-178.0,0.0,0.0,0.0
19:32:49.165000,-90.0,-100.0,305.0,-695.0,206.0,-178.0,0.0,0.0,0.0
19:32:49.169000,-37.0,-67.0,294.0,-695.0,206.0,-178.0,0.0,0.0,0.0
19:32:49.174000,12.0,-40.0,275.0,-739.0,200.0,-170.0,0.0,0.0,0.0
19:32:49.179000,54.0,-16.0,254.0,-739.0,200.0,-170.0,0.0,0.0,0.0
19:32:49.183000,84.0,5.0,231.0,-754.0,225.0,-155.0,0.0,0.0,0.0
19:32:49.188000,101.0,28.0,205.0,-754.0,225.0,-155.0,0.0,0.0,0.0
19:32:49.193000,105.0,51.0,181.0,-749.0,291.0,-138.0,0.0,0.0,0.0
19:32:49.198000,100.0,74.0,163.0,-749.0,291.0,-138.0,0.0,0.0,0.0
19:32:49.202000,90.0,95.0,151.0,-754.0,367.0,-122.0,0.0,0.0,0.0
19:32:49.207000,77.0,115.0,139.0,-754.0,367.0,-122.0,0.0,0.0,0.0
19:32:49.212000,77.0,115.0,139.0,-770.0,394.0,-114.0,0.0,0.0,0.0
19:32:49.216000,62.0,137.0,125.0,-770.0,394.0,-114.0,0.0,0.0,0.0
19:32:49.221000,50.0,156.0,113.0,-782.0,378.0,-111.0,0.0,0.0,0.0
19:32:49.225000,40.0,170.0,101.0,-782.0,378.0,-111.0,0.0,0.0,0.0
19:32:49.230000,32.0,181.0,93.0,-775.0,332.0,-104.0,0.0,0.0,0.0
19:32:49.235000,31.0,186.0,89.0,-775.0,332.0,-104.0,0.0,0.0,0.0
19:32:49.240000,33.0,188.0,79.0,-730.0,273.0,-94.0,0.0,0.0,0.0
19:32:49.245000,38.0,184.0,62.0,-730.0,273.0,-94.0,0.0,0.0,0.0
19:32:49.249000,46.0,179.0,39.0,-661.0,225.0,-88.0,0.0,0.0,0.0
19:32:49.254000,51.0,170.0,13.0,-661.0,225.0,-88.0,0.0,0.0,0.0
19:32:49.259000,58.0,161.0,1.0,-606.0,187.0,-89.0,0.0,0.0,0.0
19:32:49.263000,58.0,150.0,-7.0,-606.0,187.0,-89.0,0.0,0.0,0.0
19:32:49.268000,56.0,140.0,-10.0,-574.0,182.0,-95.0,0.0,0.0,0.0
19:32:49.273000,46.0,130.0,-17.0,-574.0,182.0,-95.0,0.0,0.0,0.0
19:32:49.277000,32.0,117.0,-16.0,-574.0,182.0,-95.0,0.0,0.0,0.0
19:32:49.282000,16.0,105.0,-2.0,-555.0,214.0,-101.0,0.0,0.0,0.0
19:32:49.287000,0.0,95.0,20.0,-555.0,214.0,-101.0,0.0,0.0,0.0
19:32:49.292000,-16.0,86.0,39.0,-546.0,238.0,-104.0,0.0,0.0,0.0
19:32:49.296000,-35.0,79.0,44.0,-546.0,238.0,-104.0,0.0,0.0,0.0
19:32:49.301000,-49.0,70.0,32.0,-562.0,249.0,-101.0,0.0,0.0,0.0
19:32:49.306000,-56.0,58.0,16.0,-562.0,249.0,-101.0,0.0,0.0,0.0
19:32:49.310000,-56.0,47.0,1.0,-572.0,233.0,-90.0,0.0,0.0,0.0
19:32:49.315000,-53.0,36.0,-9.0,-572.0,233.0,-90.0,0.0,0.0,0.0
19:32:49.320000,-53.0,36.0,-9.0,-561.0,182.0,-77.0,0.0,0.0,0.0
19:32:49.324000,-49.0,25.0,-18.0,-561.0,182.0,-77.0,0.0,0.0,0.0
19:32:49.329000,-44.0,12.0,-25.0,-562.0,129.0,-69.0,0.0,0.0,0.0
19:32:49.334000,-38.0,0.0,-42.0,-562.0,129.0,-69.0,0.0,0.0,0.0
19:32:49.339000,-32.0,-13.0,-63.0,-578.0,94.0,-66.0,0.0,0.0,0.0
19:32:49.343000,-25.0,-25.0,-86.0,-578.0,94.0,-66.0,0.0,0.0,0.0
19:32:49.348000,-20.0,-35.0,-111.0,-592.0,105.0,-76.0,0.0,0.0,0.0
19:32:49.353000,-20.0,-42.0,-144.0,-592.0,105.0,-76.0,0.0,0.0,0.0
19:32:49.357000,-22.0,-50.0,-179.0,-598.0,148.0,-88.0,0.0,0.0,0.0
19:32:49.361000,-23.0,-58.0,-206.0,-598.0,148.0,-88.0,0.0,0.0,0.0
19:32:49.367000,-22.0,-65.0,-226.0,-596.0,168.0,-94.0,0.0,0.0,0.0
19:32:49.371000,-18.0,-72.0,-243.0,-596.0,168.0,-94.0,0.0,0.0,0.0
19:32:49.376000,-17.0,-78.0,-256.0,-620.0,186.0,-101.0,0.0,0.0,0.0
19:32:49.381000,-21.0,-80.0,-262.0,-620.0,186.0,-101.0,0.0,0.0,0.0
19:32:49.386000,-37.0,-79.0,-257.0,-620.0,186.0,-101.0,0.0,0.0,0.0
19:32:49.390000,-62.0,-76.0,-246.0,-687.0,231.0,-109.0,0.0,0.0,0.0
19:32:49.395000,-91.0,-72.0,-234.0,-687.0,231.0,-109.0,0.0,0.0,0.0
19:32:49.400000,-116.0,-69.0,-226.0,-755.0,259.0,-120.0,0.0,0.0,0.0
19:32:49.404000,-130.0,-64.0,-225.0,-755.0,259.0,-120.0,0.0,0.0,0.0
19:32:49.409000,-128.0,-58.0,-226.0,-791.0,229.0,-143.0,0.0,0.0,0.0
19:32:49.414000,-110.0,-51.0,-224.0,-791.0,229.0,-143.0,0.0,0.0,0.0
19:32:49.418000,-77.0,-44.0,-212.0,-816.0,146.0,-175.0,0.0,0.0,0.0
19:32:49.423000,-30.0,-35.0,-191.0,-816.0,146.0,-175.0,0.0,0.0,0.0
19:32:49.428000,-30.0,-35.0,-191.0,-854.0,50.0,-202.0,0.0,0.0,0.0
19:32:49.433000,24.0,-28.0,-168.0,-854.0,50.0,-202.0,0.0,0.0,0.0
19:32:49.437000,80.0,-23.0,-149.0,-896.0,1.0,-214.0,0.0,0.0,0.0
19:32:49.442000,126.0,-25.0,-130.0,-896.0,1.0,-214.0,0.0,0.0,0.0
19:32:49.447000,156.0,-31.0,-104.0,-919.0,38.0,-206.0,0.0,0.0,0.0
19:32:49.451000,168.0,-42.0,-67.0,-919.0,38.0,-206.0,0.0,0.0,0.0
19:32:49.456000,161.0,-53.0,-31.0,-909.0,117.0,-179.0,0.0,0.0,0.0
19:32:49.461000,139.0,-65.0,-7.0,-909.0,117.0,-179.0,0.0,0.0,0.0
19:32:49.465000,107.0,-73.0,-3.0,-869.0,183.0,-140.0,0.0,0.0,0.0
19:32:49.470000,72.0,-80.0,-23.0,-869.0,183.0,-140.0,0.0,0.0,0.0
19:32:49.475000,47.0,-85.0,-57.0,-831.0,190.0,-114.0,0.0,0.0,0.0
19:32:49.480000,40.0,-88.0,-98.0,-831.0,190.0,-114.0,0.0,0.0,0.0
19:32:49.484000,53.0,-82.0,-138.0,-846.0,117.0,-107.0,0.0,0.0,0.0
19:32:49.489000,83.0,-72.0,-175.0,-846.0,117.0,-107.0,0.0,0.0,0.0
19:32:49.494000,121.0,-58.0,-205.0,-846.0,117.0,-107.0,0.0,0.0,0.0
19:32:49.498000,158.0,-41.0,-225.0,-900.0,24.0,-109.0,0.0,0.0,0.0
19:32:49.503000,185.0,-19.0,-235.0,-900.0,24.0,-109.0,0.0,0.0,0.0
19:32:49.508000,196.0,2.0,-241.0,-944.0,19.0,-115.0,0.0,0.0,0.0
19:32:49.512000,189.0,19.0,-243.0,-944.0,19.0,-115.0,0.0,0.0,0.0
19:32:49.517000,169.0,32.0,-238.0,-959.0,133.0,-126.0,0.0,0.0,0.0
19:32:49.522000,144.0,38.0,-224.0,-959.0,133.0,-126.0,0.0,0.0,0.0
19:32:49.527000,123.0,37.0,-196.0,-920.0,242.0,-134.0,0.0,0.0,0.0
19:32:49.531000,112.0,32.0,-165.0,-920.0,242.0,-134.0,0.0,0.0,0.0
19:32:49.536000,107.0,23.0,-137.0,-817.0,248.0,-140.0,0.0,0.0,0.0
19:32:49.541000,107.0,23.0,-137.0,-817.0,248.0,-140.0,0.0,0.0,0.0
19:32:49.545000,102.0,16.0,-116.0,-728.0,237.0,-154.0,0.0,0.0,0.0
19:32:49.550000,97.0,8.0,-95.0,-728.0,237.0,-154.0,0.0,0.0,0.0
19:32:49.555000,89.0,0.0,-75.0,-725.0,269.0,-175.0,0.0,0.0,0.0
19:32:49.559000,79.0,-9.0,-58.0,-725.0,269.0,-175.0,0.0,0.0,0.0
19:32:49.564000,70.0,-17.0,-39.0,-762.0,300.0,-195.0,0.0,0.0,0.0
19:32:49.569000,63.0,-23.0,-23.0,-762.0,300.0,-195.0,0.0,0.0,0.0
19:32:49.574000,61.0,-28.0,-7.0,-757.0,302.0,-206.0,0.0,0.0,0.0
19:32:49.578000,67.0,-32.0,7.0,-757.0,302.0,-206.0,0.0,0.0,0.0
19:32:49.583000,79.0,-37.0,20.0,-718.0,283.0,-207.0,0.0,0.0,0.0
19:32:49.588000,92.0,-41.0,32.0,-718.0,283.0,-207.0,0.0,0.0,0.0
19:32:49.592000,99.0,-42.0,42.0,-706.0,293.0,-203.0,0.0,0.0,0.0
19:32:49.596000,98.0,-40.0,54.0,-706.0,293.0,-203.0,0.0,0.0,0.0
19:32:49.602000,89.0,-37.0,63.0,-706.0,293.0,-203.0,0.0,0.0,0.0
19:32:49.606000,76.0,-29.0,64.0,-725.0,340.0,-187.0,0.0,0.0,0.0
19:32:49.611000,66.0,-19.0,56.0,-725.0,340.0,-187.0,0.0,0.0,0.0
19:32:49.616000,61.0,-6.0,36.0,-718.0,362.0,-162.0,0.0,0.0,0.0
19:32:49.621000,63.0,7.0,2.0,-718.0,362.0,-162.0,0.0,0.0,0.0
19:32:49.625000,70.0,19.0,-36.0,-683.0,348.0,-137.0,0.0,0.0,0.0
19:32:49.630000,77.0,30.0,-74.0,-683.0,348.0,-137.0,0.0,0.0,0.0
19:32:49.635000,81.0,42.0,-110.0,-660.0,345.0,-119.0,0.0,0.0,0.0
19:32:49.639000,72.0,50.0,-141.0,-660.0,345.0,-119.0,0.0,0.0,0.0
19:32:49.644000,50.0,56.0,-165.0,-663.0,389.0,-105.0,0.0,0.0,0.0
19:32:49.649000,50.0,56.0,-165.0,-663.0,389.0,-105.0,0.0,0.0,0.0
19:32:49.653000,19.0,61.0,-182.0,-654.0,437.0,-86.0,0.0,0.0,0.0
19:32:49.658000,-11.0,68.0,-191.0,-654.0,437.0,-86.0,0.0,0.0,0.0
19:32:49.663000,-39.0,77.0,-202.0,-597.0,429.0,-75.0,0.0,0.0,0.0
19:32:49.667000,-65.0,91.0,-217.0,-597.0,429.0,-75.0,0.0,0.0,0.0
19:32:49.672000,-91.0,107.0,-235.0,-564.0,416.0,-85.0,0.0,0.0,0.0
19:32:49.677000,-113.0,125.0,-249.0,-564.0,416.0,-85.0,0.0,0.0,0.0
19:32:49.682000,-126.0,143.0,-252.0,-609.0,404.0,-105.0,0.0,0.0,0.0
19:32:49.686000,-130.0,158.0,-243.0,-609.0,404.0,-105.0,0.0,0.0,0.0
19:32:49.691000,-122.0,174.0,-228.0,-667.0,358.0,-121.0,0.0,0.0,0.0
19:32:49.696000,-107.0,184.0,-206.0,-667.0,358.0,-121.0,0.0,0.0,0.0
19:32:49.700000,-84.0,189.0,-179.0,-663.0,312.0,-127.0,0.0,0.0,0.0
19:32:49.705000,-55.0,191.0,-149.0,-663.0,312.0,-127.0,0.0,0.0,0.0
19:32:49.710000,-26.0,190.0,-127.0,-663.0,312.0,-127.0,0.0,0.0,0.0
