hh:mm:ss.ms,gyroX[mdps],gyroY[mdps],gyroZ[mdps],accX[mg],accY[mg],accZ[mg],magX[mG],magY[mG],magZ[mG]
19:32:45.739000,-307.0,310.0,-259.0,-1385.0,484.0,-416.0,0.0,0.0,0.0
19:32:45.743000,-261.0,238.0,30.0,-1238.0,380.0,-380.0,0.0,0.0,0.0
19:32:45.748000,-164.0,168.0,32.0,-1238.0,380.0,-380.0,0.0,0.0,0.0
19:32:45.753000,-107.0,123.0,-151.0,-1207.0,178.0,-366.0,0.0,0.0,0.0
19:32:45.757000,8.0,45.0,-235.0,-1207.0,178.0,-366.0,0.0,0.0,0.0
19:32:45.762000,146.0,-37.0,-214.0,-1042.0,40.0,-351.0,0.0,0.0,0.0
19:32:45.767000,274.0,-86.0,-240.0,-1042.0,40.0,-351.0,0.0,0.0,0.0
19:32:45.771000,291.0,-106.0,-371.0,-1042.0,40.0,-351.0,0.0,0.0,0.0
19:32:45.776000,280.0,-133.0,-460.0,-807.0,60.0,-322.0,0.0,0.0,0.0
19:32:45.781000,230.0,-154.0,-459.0,-807.0,60.0,-322.0,0.0,0.0,0.0
19:32:45.786000,157.0,-148.0,-395.0,-859.0,390.0,-293.0,0.0,0.0,0.0
19:32:45.790000,112.0,-145.0,-448.0,-859.0,390.0,-293.0,0.0,0.0,0.0
19:32:45.795000,41.0,-128.0,-469.0,-1039.0,649.0,-297.0,0.0,0.0,0.0
19:32:45.800000,-45.0,-112.0,-340.0,-1039.0,649.0,-297.0,0.0,0.0,0.0
19:32:45.804000,-63.0,-103.0,-248.0,-1174.0,625.0,-314.0,0.0,0.0,0.0
19:32:45.809000,-91.0,-71.0,-315.0,-1174.0,625.0,-314.0,0.0,0.0,0.0
19:32:45.814000,-91.0,-71.0,-315.0,-1322.0,540.0,-313.0,0.0,0.0,0.0
19:32:45.818000,-149.0,-46.0,-515.0,-1322.0,540.0,-313.0,0.0,0.0,0.0
19:32:45.823000,-156.0,-23.0,-495.0,-1268.0,405.0,-299.0,0.0,0.0,0.0
19:32:45.828000,-113.0,-7.0,-277.0,-1268.0,405.0,-299.0,0.0,0.0,0.0
19:32:45.833000,-92.0,7.0,-96.0,-1082.0,238.0,-284.0,0.0,0.0,0.0
19:32:45.837000,-25.0,17.0,-118.0,-1082.0,238.0,-284.0,0.0,0.0,0.0
19:32:45.842000,49.0,20.0,-207.0,-1092.0,261.0,-280.0,0.0,0.0,0.0
19:32:45.847000,131.0,26.0,-233.0,-1092.0,261.0,-280.0,0.0,0.0,0.0
19:32:45.851000,200.0,29.0,-235.0,-1140.0,299.0,-271.0,0.0,0.0,0.0
19:32:45.856000,244.0,39.0,-220.0,-1140.0,299.0,-271.0,0.0,0.0,0.0
19:32:45.861000,283.0,43.0,-154.0,-1153.0,330.0,-259.0,0.0,0.0,0.0
19:32:45.865000,361.0,35.0,-191.0,-1153.0,330.0,-259.0,0.0,0.0,0.0
19:32:45.870000,385.0,23.0,-207.0,-1127.0,431.0,-241.0,0.0,0.0,0.0
19:32:45.875000,413.0,19.0,-192.0,-1127.0,431.0,-241.0,0.0,0.0,0.0
19:32:45.880000,396.0,4.0,-121.0,-1127.0,431.0,-241.0,0.0,0.0,0.0
19:32:45.884000,385.0,4.0,-85.0,-1085.0,570.0,-203.0,0.0,0.0,0.0
19:32:45.889000,366.0,13.0,-112.0,-1085.0,570.0,-203.0,0.0,0.0,0.0
19:32:45.894000,336.0,17.0,-135.0,-1077.0,647.0,-167.0,0.0,0.0,0.0
19:32:45.898000,313.0,21.0,-143.0,-1077.0,647.0,-167.0,0.0,0.0,0.0
19:32:45.903000,280.0,27.0,-140.0,-1063.0,660.0,-146.0,0.0,0.0,0.0
19:32:45.908000,258.0,25.0,-126.0,-1063.0,660.0,-146.0,0.0,0.0,0.0
19:32:45.912000,211.0,26.0,-116.0,-1057.0,687.0,-129.0,0.0,0.0,0.0
19:32:45.917000,164.0,23.0,-149.0,-1057.0,687.0,-129.0,0.0,0.0,0.0
19:32:45.922000,164.0,23.0,-149.0,-1085.0,774.0,-109.0,0.0,0.0,0.0
19:32:45.927000,132.0,30.0,-231.0,-1085.0,774.0,-109.0,0.0,0.0,0.0
19:32:45.931000,75.0,35.0,-283.0,-1077.0,832.0,-93.0,0.0,0.0,0.0
19:32:45.936000,32.0,42.0,-298.0,-1077.0,832.0,-93.0,0.0,0.0,0.0
19:32:45.941000,5.0,45.0,-300.0,-1012.0,793.0,-97.0,0.0,0.0,0.0
19:32:45.945000,-28.0,53.0,-317.0,-1012.0,793.0,-97.0,0.0,0.0,0.0
19:32:45.950000,-56.0,48.0,-333.0,-929.0,754.0,-109.0,0.0,0.0,0.0
19:32:45.955000,-89.0,60.0,-324.0,-929.0,754.0,-109.0,0.0,0.0,0.0
19:32:45.959000,-121.0,74.0,-300.0,-836.0,769.0,-137.0,0.0,0.0,0.0
19:32:45.964000,-140.0,92.0,-301.0,-836.0,769.0,-137.0,0.0,0.0,0.0
19:32:45.969000,-153.0,102.0,-309.0,-817.0,748.0,-183.0,0.0,0.0,0.0
19:32:45.974000,-151.0,112.0,-310.0,-817.0,748.0,-183.0,0.0,0.0,0.0
19:32:45.978000,-127.0,116.0,-298.0,-856.0,671.0,-219.0,0.0,0.0,0.0
19:32:45.983000,-105.0,135.0,-247.0,-856.0,671.0,-219.0,0.0,0.0,0.0
19:32:45.988000,-57.0,151.0,-179.0,-856.0,671.0,-219.0,0.0,0.0,0.0
19:32:45.992000,-12.0,163.0,-140.0,-813.0,558.0,-231.0,0.0,0.0,0.0
19:32:45.997000,37.0,161.0,-83.0,-813.0,558.0,-231.0,0.0,0.0,0.0
19:32:46.002000,76.0,148.0,-30.0,-715.0,486.0,-224.0,0.0,0.0,0.0
19:32:46.006000,107.0,131.0,-3.0,-715.0,486.0,-224.0,0.0,0.0,0.0
19:32:46.011000,125.0,110.0,32.0,-653.0,513.0,-195.0,0.0,0.0,0.0
19:32:46.016000,140.0,83.0,98.0,-653.0,513.0,-195.0,0.0,0.0,0.0
19:32:46.021000,144.0,47.0,154.0,-582.0,511.0,-157.0,0.0,0.0,0.0
19:32:46.025000,131.0,11.0,172.0,-582.0,511.0,-157.0,0.0,0.0,0.0
19:32:46.030000,98.0,-16.0,154.0,-513.0,533.0,-127.0,0.0,0.0,0.0
19:32:46.035000,98.0,-16.0,154.0,-513.0,533.0,-127.0,0.0,0.0,0.0
19:32:46.039000,48.0,-42.0,136.0,-476.0,623.0,-111.0,0.0,0.0,0.0
19:32:46.044000,1.0,-63.0,108.0,-476.0,623.0,-111.0,0.0,0.0,0.0
19:32:46.049000,-49.0,-77.0,72.0,-443.0,665.0,-114.0,0.0,0.0,0.0
19:32:46.053000,-101.0,-86.0,47.0,-443.0,665.0,-114.0,0.0,0.0,0.0
19:32:46.058000,-153.0,-88.0,27.0,-470.0,681.0,-132.0,0.0,0.0,0.0
19:32:46.063000,-204.0,-84.0,-2.0,-470.0,681.0,-132.0,0.0,0.0,0.0
19:32:46.068000,-253.0,-71.0,-27.0,-531.0,673.0,-154.0,0.0,0.0,0.0
19:32:46.072000,-288.0,-53.0,-41.0,-531.0,673.0,-154.0,0.0,0.0,0.0
19:32:46.077000,-310.0,-35.0,-39.0,-573.0,584.0,-171.0,0.0,0.0,0.0
19:32:46.082000,-318.0,-18.0,-22.0,-573.0,584.0,-171.0,0.0,0.0,0.0
19:32:46.086000,-310.0,-7.0,4.0,-591.0,437.0,-184.0,0.0,0.0,0.0
19:32:46.091000,-287.0,-2.0,35.0,-591.0,437.0,-184.0,0.0,0.0,0.0
19:32:46.096000,-255.0,-2.0,74.0,-591.0,437.0,-184.0,0.0,0.0,0.0
19:32:46.100000,-220.0,-9.0,108.0,-570.0,304.0,-191.0,0.0,0.0,0.0
19:32:46.105000,-186.0,-22.0,124.0,-570.0,304.0,-191.0,0.0,0.0,0.0
19:32:46.110000,-156.0,-35.0,131.0,-510.0,243.0,-187.0,0.0,0.0,0.0
19:32:46.115000,-123.0,-51.0,128.0,-510.0,243.0,-187.0,0.0,0.0,0.0
19:32:46.119000,-99.0,-64.0,107.0,-448.0,251.0,-177.0,0.0,0.0,0.0
19:32:46.124000,-82.0,-70.0,84.0,-448.0,251.0,-177.0,0.0,0.0,0.0
19:32:46.129000,-72.0,-72.0,65.0,-425.0,303.0,-163.0,0.0,0.0,0.0
19:32:46.133000,-72.0,-70.0,45.0,-425.0,303.0,-163.0,0.0,0.0,0.0
19:32:46.138000,-74.0,-64.0,23.0,-461.0,389.0,-146.0,0.0,0.0,0.0
19:32:46.143000,-74.0,-64.0,23.0,-461.0,389.0,-146.0,0.0,0.0,0.0
19:32:46.147000,-77.0,-50.0,15.0,-534.0,422.0,-135.0,0.0,0.0,0.0
19:32:46.152000,-78.0,-30.0,29.0,-534.0,422.0,-135.0,0.0,0.0,0.0
19:32:46.157000,-75.0,-11.0,60.0,-607.0,364.0,-128.0,0.0,0.0,0.0
19:32:46.162000,-70.0,7.0,99.0,-607.0,364.0,-128.0,0.0,0.0,0.0
19:32:46.166000,-64.0,24.0,130.0,-641.0,319.0,-120.0,0.0,0.0,0.0
19:32:46.171000,-60.0,37.0,144.0,-641.0,319.0,-120.0,0.0,0.0,0.0
19:32:46.176000,-60.0,46.0,147.0,-621.0,334.0,-113.0,0.0,0.0,0.0
19:32:46.180000,-62.0,50.0,151.0,-621.0,334.0,-113.0,0.0,0.0,0.0
19:32:46.185000,-60.0,48.0,156.0,-569.0,339.0,-105.0,0.0,0.0,0.0
19:32:46.190000,-56.0,43.0,152.0,-569.0,339.0,-105.0,0.0,0.0,0.0
19:32:46.194000,-53.0,39.0,137.0,-537.0,319.0,-101.0,0.0,0.0,0.0
19:32:46.199000,-52.0,33.0,121.0,-537.0,319.0,-101.0,0.0,0.0,0.0
19:32:46.204000,-51.0,29.0,101.0,-537.0,319.0,-101.0,0.0,0.0,0.0
19:32:46.209000,-54.0,25.0,84.0,-550.0,310.0,-108.0,0.0,0.0,0.0
19:32:46.213000,-58.0,22.0,77.0,-600.0,311.0,-124.0,0.0,0.0,0.0
19:32:46.218000,-66.0,20.0,80.0,-600.0,311.0,-124.0,0.0,0.0,0.0
19:32:46.223000,-75.0,20.0,88.0,-600.0,311.0,-124.0,0.0,0.0,0.0
19:32:46.227000,-86.0,16.0,102.0,-651.0,290.0,-136.0,0.0,0.0,0.0
19:32:46.232000,-100.0,11.0,120.0,-651.0,290.0,-136.0,0.0,0.0,0.0
19:32:46.237000,-116.0,1.0,143.0,-656.0,231.0,-134.0,0.0,0.0,0.0
19:32:46.241000,-129.0,-10.0,163.0,-656.0,231.0,-134.0,0.0,0.0,0.0
19:32:46.246000,-140.0,-25.0,168.0,-609.0,155.0,-123.0,0.0,0.0,0.0
19:32:46.251000,-140.0,-25.0,168.0,-609.0,155.0,-123.0,0.0,0.0,0.0
19:32:46.256000,-149.0,-42.0,162.0,-557.0,92.0,-113.0,0.0,0.0,0.0
19:32:46.260000,-157.0,-59.0,146.0,-557.0,92.0,-113.0,0.0,0.0,0.0
19:32:46.265000,-161.0,-75.0,127.0,-527.0,53.0,-102.0,0.0,0.0,0.0
19:32:46.270000,-164.0,-88.0,102.0,-527.0,53.0,-102.0,0.0,0.0,0.0
19:32:46.274000,-170.0,-96.0,74.0,-528.0,65.0,-86.0,0.0,0.0,0.0
19:32:46.279000,-181.0,-104.0,48.0,-528.0,65.0,-86.0,0.0,0.0,0.0
19:32:46.284000,-197.0,-107.0,25.0,-559.0,111.0,-67.0,0.0,0.0,0.0
19:32:46.288000,-210.0,-105.0,14.0,-559.0,111.0,-67.0,0.0,0.0,0.0
19:32:46.293000,-217.0,-98.0,16.0,-595.0,105.0,-60.0,0.0,0.0,0.0
19:32:46.298000,-217.0,-86.0,25.0,-595.0,105.0,-60.0,0.0,0.0,0.0
19:32:46.303000,-212.0,-71.0,37.0,-647.0,52.0,-68.0,0.0,0.0,0.0
19:32:46.307000,-198.0,-52.0,48.0,-647.0,52.0,-68.0,0.0,0.0,0.0
19:32:46.312000,-175.0,-32.0,60.0,-716.0,-15.0,-84.0,0.0,0.0,0.0
19:32:46.317000,-140.0,-12.0,63.0,-716.0,-15.0,-84.0,0.0,0.0,0.0
19:32:46.321000,-98.0,4.0,58.0,-716.0,-15.0,-84.0,0.0,0.0,0.0
19:32:46.326000,-55.0,17.0,47.0,-766.0,-80.0,-107.0,0.0,0.0,0.0
19:32:46.331000,-18.0,26.0,38.0,-766.0,-80.0,-107.0,0.0,0.0,0.0
19:32:46.335000,11.0,27.0,32.0,-775.0,-87.0,-135.0,0.0,0.0,0.0
19:32:46.340000,33.0,19.0,26.0,-775.0,-87.0,-135.0,0.0,0.0,0.0
19:32:46.345000,46.0,2.0,20.0,-730.0,-33.0,-163.0,0.0,0.0,0.0
19:32:46.350000,45.0,-23.0,16.0,-730.0,-33.0,-163.0,0.0,0.0,0.0
19:32:46.354000,30.0,-58.0,18.0,-661.0,80.0,-193.0,0.0,0.0,0.0
19:32:46.359000,3.0,-99.0,33.0,-661.0,80.0,-193.0,0.0,0.0,0.0
19:32:46.364000,3.0,-99.0,33.0,-609.0,216.0,-211.0,0.0,0.0,0.0
19:32:46.368000,-26.0,-144.0,67.0,-609.0,216.0,-211.0,0.0,0.0,0.0
19:32:46.373000,-56.0,-194.0,113.0,-573.0,257.0,-209.0,0.0,0.0,0.0
19:32:46.378000,-77.0,-247.0,168.0,-573.0,257.0,-209.0,0.0,0.0,0.0
19:32:46.382000,-85.0,-300.0,228.0,-574.0,194.0,-201.0,0.0,0.0,0.0
19:32:46.387000,-84.0,-346.0,290.0,-574.0,194.0,-201.0,0.0,0.0,0.0
19:32:46.392000,-79.0,-382.0,347.0,-645.0,111.0,-191.0,0.0,0.0,0.0
19:32:46.397000,-70.0,-408.0,392.0,-645.0,111.0,-191.0,0.0,0.0,0.0
19:32:46.401000,-62.0,-425.0,417.0,-760.0,56.0,-169.0,0.0,0.0,0.0
19:32:46.406000,-52.0,-436.0,434.0,-760.0,56.0,-169.0,0.0,0.0,0.0
19:32:46.411000,-44.0,-438.0,448.0,-862.0,22.0,-127.0,0.0,0.0,0.0
19:32:46.415000,-32.0,-433.0,464.0,-862.0,22.0,-127.0,0.0,0.0,0.0
19:32:46.420000,-22.0,-423.0,480.0,-919.0,-6.0,-72.0,0.0,0.0,0.0
19:32:46.425000,-21.0,-407.0,492.0,-919.0,-6.0,-72.0,0.0,0.0,0.0
19:32:46.429000,-31.0,-389.0,499.0,-919.0,-6.0,-72.0,0.0,0.0,0.0
19:32:46.434000,-49.0,-375.0,513.0,-941.0,21.0,-14.0,0.0,0.0,0.0
19:32:46.439000,-68.0,-366.0,536.0,-941.0,21.0,-14.0,0.0,0.0,0.0
19:32:46.444000,-85.0,-360.0,561.0,-922.0,74.0,32.0,0.0,0.0,0.0
19:32:46.448000,-95.0,-357.0,589.0,-922.0,74.0,32.0,0.0,0.0,0.0
19:32:46.453000,-102.0,-354.0,612.0,-881.0,59.0,51.0,0.0,0.0,0.0
19:32:46.458000,-106.0,-352.0,633.0,-881.0,59.0,51.0,0.0,0.0,0.0
19:32:46.462000,-110.0,-347.0,648.0,-868.0,29.0,37.0,0.0,0.0,0.0
19:32:46.467000,-122.0,-339.0,651.0,-868.0,29.0,37.0,0.0,0.0,0.0
19:32:46.472000,-122.0,-339.0,651.0,-880.0,29.0,15.0,0.0,0.0,0.0
19:32:46.476000,-135.0,-328.0,653.0,-880.0,29.0,15.0,0.0,0.0,0.0
19:32:46.481000,-140.0,-312.0,657.0,-885.0,-15.0,-5.0,0.0,0.0,0.0
19:32:46.486000,-135.0,-293.0,657.0,-885.0,-15.0,-5.0,0.0,0.0,0.0
19:32:46.490000,-131.0,-271.0,644.0,-924.0,-64.0,-39.0,0.0,0.0,0.0
19:32:46.495000,-130.0,-251.0,623.0,-924.0,-64.0,-39.0,0.0,0.0,0.0
19:32:46.500000,-134.0,-234.0,610.0,-1004.0,-50.0,-76.0,0.0,0.0,0.0
19:32:46.505000,-134.0,-223.0,612.0,-1004.0,-50.0,-76.0,0.0,0.0,0.0
19:32:46.509000,-130.0,-222.0,623.0,-1007.0,-74.0,-92.0,0.0,0.0,0.0
19:32:46.514000,-130.0,-231.0,621.0,-1007.0,-74.0,-92.0,0.0,0.0,0.0
19:32:46.519000,-133.0,-246.0,604.0,-897.0,-117.0,-81.0,0.0,0.0,0.0
19:32:46.523000,-137.0,-258.0,576.0,-897.0,-117.0,-81.0,0.0,0.0,0.0
19:32:46.528000,-142.0,-264.0,535.0,-796.0,-126.0,-62.0,0.0,0.0,0.0
19:32:46.533000,-136.0,-261.0,473.0,-796.0,-126.0,-62.0,0.0,0.0,0.0
19:32:46.537000,-112.0,-249.0,396.0,-796.0,-126.0,-62.0,0.0,0.0,0.0
19:32:46.542000,-69.0,-229.0,314.0,-823.0,-164.0,-56.0,0.0,0.0,0.0
19:32:46.547000,-17.0,-203.0,228.0,-823.0,-164.0,-56.0,0.0,0.0,0.0
19:32:46.552000,37.0,-176.0,144.0,-945.0,-206.0,-69.0,0.0,0.0,0.0
19:32:46.556000,88.0,-146.0,70.0,-945.0,-206.0,-69.0,0.0,0.0,0.0
19:32:46.561000,130.0,-118.0,12.0,-1027.0,-156.0,-93.0,0.0,0.0,0.0
19:32:46.566000,161.0,-92.0,-21.0,-1027.0,-156.0,-93.0,0.0,0.0,0.0
19:32:46.570000,176.0,-70.0,-26.0,-983.0,-16.0,-102.0,0.0,0.0,0.0
19:32:46.575000,178.0,-51.0,-1.0,-983.0,-16.0,-102.0,0.0,0.0,0.0
19:32:46.580000,178.0,-51.0,-1.0,-859.0,130.0,-92.0,0.0,0.0,0.0
19:32:46.584000,172.0,-34.0,46.0,-859.0,130.0,-92.0,0.0,0.0,0.0
19:32:46.589000,160.0,-18.0,99.0,-778.0,234.0,-87.0,0.0,0.0,0.0
19:32:46.594000,144.0,-5.0,140.0,-778.0,234.0,-87.0,0.0,0.0,0.0
19:32:46.599000,127.0,4.0,168.0,-780.0,293.0,-101.0,0.0,0.0,0.0
19:32:46.603000,109.0,8.0,190.0,-780.0,293.0,-101.0,0.0,0.0,0.0
19:32:46.608000,93.0,8.0,208.0,-801.0,312.0,-127.0,0.0,0.0,0.0
19:32:46.613000,77.0,5.0,219.0,-801.0,312.0,-127.0,0.0,0.0,0.0
19:32:46.617000,58.0,7.0,223.0,-809.0,308.0,-154.0,0.0,0.0,0.0
19:32:46.622000,35.0,9.0,217.0,-809.0,308.0,-154.0,0.0,0.0,0.0
19:32:46.627000,9.0,17.0,201.0,-824.0,278.0,-171.0,0.0,0.0,0.0
19:32:46.631000,-15.0,27.0,174.0,-824.0,278.0,-171.0,0.0,0.0,0.0
19:32:46.636000,-32.0,32.0,133.0,-850.0,206.0,-183.0,0.0,0.0,0.0
19:32:46.641000,-45.0,34.0,77.0,-850.0,206.0,-183.0,0.0,0.0,0.0
19:32:46.646000,-57.0,44.0,17.0,-850.0,206.0,-183.0,0.0,0.0,0.0
19:32:46.650000,-67.0,58.0,-44.0,-880.0,140.0,-192.0,0.0,0.0,0.0
19:32:46.655000,-74.0,70.0,-100.0,-880.0,140.0,-192.0,0.0,0.0,0.0
19:32:46.660000,-74.0,81.0,-144.0,-889.0,111.0,-192.0,0.0,0.0,0.0
19:32:46.664000,-60.0,88.0,-176.0,-889.0,111.0,-192.0,0.0,0.0,0.0
19:32:46.669000,-32.0,95.0,-206.0,-846.0,75.0,-197.0,0.0,0.0,0.0
19:32:46.674000,-2.0,108.0,-222.0,-846.0,75.0,-197.0,0.0,0.0,0.0
19:32:46.678000,30.0,122.0,-210.0,-781.0,34.0,-203.0,0.0,0.0,0.0
19:32:46.683000,69.0,128.0,-168.0,-781.0,34.0,-203.0,0.0,0.0,0.0
19:32:46.688000,109.0,130.0,-125.0,-744.0,36.0,-200.0,0.0,0.0,0.0
19:32:46.693000,109.0,130.0,-125.0,-744.0,36.0,-200.0,0.0,0.0,0.0
19:32:46.697000,133.0,149.0,-88.0,-740.0,64.0,-192.0,0.0,0.0,0.0
19:32:46.702000,157.0,151.0,-38.0,-740.0,64.0,-192.0,0.0,0.0,0.0
19:32:46.707000,180.0,147.0,2.0,-755.0,122.0,-163.0,0.0,0.0,0.0
19:32:46.711000,186.0,142.0,18.0,-755.0,122.0,-163.0,0.0,0.0,0.0
19:32:46.716000,179.0,140.0,37.0,-698.0,176.0,-119.0,0.0,0.0,0.0
19:32:46.721000,170.0,135.0,55.0,-698.0,176.0,-119.0,0.0,0.0,0.0
19:32:46.725000,165.0,125.0,69.0,-621.0,211.0,-81.0,0.0,0.0,0.0
19:32:46.730000,165.0,101.0,52.0,-621.0,211.0,-81.0,0.0,0.0,0.0
19:32:46.735000,132.0,92.0,5.0,-589.0,235.0,-47.0,0.0,0.0,0.0
19:32:46.740000,126.0,82.0,17.0,-589.0,235.0,-47.0,0.0,0.0,0.0
19:32:46.744000,126.0,81.0,11.0,-607.0,220.0,-30.0,0.0,0.0,0.0
19:32:46.749000,147.0,76.0,-23.0,-607.0,220.0,-30.0,0.0,0.0,0.0
19:32:46.754000,161.0,76.0,-16.0,-607.0,220.0,-30.0,0.0,0.0,0.0
19:32:46.758000,168.0,79.0,-21.0,-613.0,198.0,-40.0,0.0,0.0,0.0
19:32:46.763000,159.0,103.0,-68.0,-613.0,198.0,-40.0,0.0,0.0,0.0
19:32:46.768000,158.0,110.0,-28.0,-586.0,226.0,-74.0,0.0,0.0,0.0
19:32:46.772000,166.0,105.0,83.0,-586.0,226.0,-74.0,0.0,0.0,0.0
19:32:46.777000,151.0,121.0,93.0,-737.0,253.0,-91.0,0.0,0.0,0.0
19:32:46.782000,158.0,140.0,38.0,-737.0,253.0,-91.0,0.0,0.0,0.0
19:32:46.787000,163.0,156.0,3.0,-800.0,231.0,-86.0,0.0,0.0,0.0
19:32:46.791000,164.0,145.0,18.0,-800.0,231.0,-86.0,0.0,0.0,0.0
19:32:46.796000,175.0,122.0,55.0,-616.0,275.0,-95.0,0.0,0.0,0.0
19:32:46.801000,175.0,122.0,55.0,-616.0,275.0,-95.0,0.0,0.0,0.0
19:32:46.805000,185.0,93.0,77.0,-536.0,421.0,-123.0,0.0,0.0,0.0
19:32:46.810000,176.0,72.0,142.0,-536.0,421.0,-123.0,0.0,0.0,0.0
19:32:46.815000,152.0,46.0,205.0,-638.0,641.0,-155.0,0.0,0.0,0.0
19:32:46.819000,56.0,-13.0,87.0,-638.0,641.0,-155.0,0.0,0.0,0.0
19:32:46.824000,65.0,-37.0,30.0,-846.0,752.0,-184.0,0.0,0.0,0.0
19:32:46.828000,35.0,-76.0,157.0,-846.0,752.0,-184.0,0.0,0.0,0.0
19:32:46.834000,11.0,-102.0,338.0,-884.0,720.0,-201.0,0.0,0.0,0.0
19:32:46.838000,-4.0,-121.0,411.0,-884.0,720.0,-201.0,0.0,0.0,0.0
19:32:46.843000,-33.0,-146.0,343.0,-884.0,762.0,-185.0,0.0,0.0,0.0
19:32:46.848000,-46.0,-144.0,293.0,-884.0,762.0,-185.0,0.0,0.0,0.0
19:32:46.852000,-42.0,-128.0,336.0,-1018.0,751.0,-168.0,0.0,0.0,0.0
19:32:46.857000,-57.0,-114.0,340.0,-1018.0,751.0,-168.0,0.0,0.0,0.0
19:32:46.862000,-43.0,-73.0,263.0,-1018.0,751.0,-168.0,0.0,0.0,0.0
19:32:46.866000,-46.0,-41.0,152.0,-1210.0,718.0,-165.0,0.0,0.0,0.0
19:32:46.871000,-36.0,-7.0,40.0,-1210.0,718.0,-165.0,0.0,0.0,0.0
19:32:46.876000,-58.0,42.0,2.0,-1437.0,745.0,-157.0,0.0,0.0,0.0
19:32:46.881000,-42.0,79.0,-9.0,-1437.0,745.0,-157.0,0.0,0.0,0.0
19:32:46.885000,-14.0,123.0,-71.0,-1505.0,682.0,-153.0,0.0,0.0,0.0
19:32:46.890000,-20.0,179.0,-158.0,-1505.0,682.0,-153.0,0.0,0.0,0.0
19:32:46.895000,-18.0,229.0,-210.0,-1516.0,608.0,-163.0,0.0,0.0,0.0
19:32:46.899000,-10.0,277.0,-228.0,-1516.0,608.0,-163.0,0.0,0.0,0.0
19:32:46.904000,2.0,331.0,-246.0,-1525.0,599.0,-175.0,0.0,0.0,0.0
19:32:46.909000,2.0,331.0,-246.0,-1525.0,599.0,-175.0,0.0,0.0,0.0
19:32:46.913000,1.0,375.0,-291.0,-1445.0,541.0,-185.0,0.0,0.0,0.0
19:32:46.918000,25.0,406.0,-359.0,-1445.0,541.0,-185.0,0.0,0.0,0.0
19:32:46.923000,46.0,443.0,-425.0,-1307.0,377.0,-184.0,0.0,0.0,0.0
19:32:46.928000,65.0,476.0,-469.0,-1307.0,377.0,-184.0,0.0,0.0,0.0
19:32:46.932000,75.0,490.0,-481.0,-1177.0,244.0,-185.0,0.0,0.0,0.0
19:32:46.937000,88.0,490.0,-484.0,-1177.0,244.0,-185.0,0.0,0.0,0.0
19:32:46.942000,100.0,482.0,-485.0,-1091.0,191.0,-195.0,0.0,0.0,0.0
19:32:46.946000,112.0,467.0,-482.0,-1091.0,191.0,-195.0,0.0,0.0,0.0
19:32:46.951000,87.0,445.0,-469.0,-1035.0,123.0,-189.0,0.0,0.0,0.0
19:32:46.956000,98.0,423.0,-469.0,-1035.0,123.0,-189.0,0.0,0.0,0.0
19:32:46.960000,92.0,379.0,-458.0,-936.0,91.0,-186.0,0.0,0.0,0.0
19:32:46.965000,58.0,345.0,-457.0,-936.0,91.0,-186.0,0.0,0.0,0.0
19:32:46.970000,48.0,305.0,-427.0,-936.0,99.0,-218.0,0.0,0.0,0.0
19:32:46.975000,28.0,257.0,-370.0,-808.0,99.0,-205.0,0.0,0.0,0.0
19:32:46.979000,7.0,214.0,-326.0,-808.0,99.0,-205.0,0.0,0.0,0.0
19:32:46.984000,-3.0,168.0,-315.0,-777.0,134.0,-230.0,0.0,0.0,0.0
19:32:46.989000,-27.0,129.0,-300.0,-777.0,134.0,-230.0,0.0,0.0,0.0
19:32:46.993000,-28.0,82.0,-252.0,-881.0,207.0,-252.0,0.0,0.0,0.0
19:32:46.998000,-32.0,48.0,-226.0,-881.0,207.0,-252.0,0.0,0.0,0.0
19:32:47.003000,-41.0,18.0,-246.0,-1010.0,239.0,-263.0,0.0,0.0,0.0
19:32:47.007000,-46.0,-6.0,-263.0,-1010.0,239.0,-263.0,0.0,0.0,0.0
19:32:47.012000,-42.0,-21.0,-285.0,-1091.0,244.0,-268.0,0.0,0.0,0.0
19:32:47.017000,-42.0,-21.0,-285.0,-1091.0,244.0,-268.0,0.0,0.0,0.0
19:32:47.022000,-38.0,-34.0,-293.0,-1176.0,252.0,-264.0,0.0,0.0,0.0
19:32:47.026000,-58.0,-44.0,-297.0,-1176.0,252.0,-264.0,0.0,0.0,0.0
19:32:47.031000,-58.0,-46.0,-263.0,-1284.0,254.0,-250.0,0.0,0.0,0.0
19:32:47.036000,-42.0,-53.0,-228.0,-1284.0,254.0,-250.0,0.0,0.0,0.0
19:32:47.040000,-58.0,-57.0,-231.0,-1385.0,273.0,-227.0,0.0,0.0,0.0
19:32:47.045000,-74.0,-49.0,-228.0,-1385.0,273.0,-227.0,0.0,0.0,0.0
19:32:47.050000,-63.0,-46.0,-226.0,-1452.0,225.0,-216.0,0.0,0.0,0.0
19:32:47.054000,-27.0,-42.0,-243.0,-1452.0,225.0,-216.0,0.0,0.0,0.0
19:32:47.059000,-10.0,-35.0,-233.0,-1442.0,174.0,-221.0,0.0,0.0,0.0
19:32:47.064000,-11.0,-28.0,-210.0,-1442.0,174.0,-221.0,0.0,0.0,0.0
19:32:47.069000,-39.0,-20.0,-210.0,-1435.0,220.0,-224.0,0.0,0.0,0.0
19:32:47.073000,-32.0,-18.0,-266.0,-1435.0,220.0,-224.0,0.0,0.0,0.0
19:32:47.078000,-14.0,-18.0,-305.0,-1418.0,247.0,-243.0,0.0,0.0,0.0
19:32:47.083000,11.0,-28.0,-291.0,-1418.0,247.0,-243.0,0.0,0.0,0.0
19:32:47.087000,26.0,-39.0,-280.0,-1418.0,247.0,-243.0,0.0,0.0,0.0
19:32:47.092000,37.0,-42.0,-304.0,-1366.0,309.0,-263.0,0.0,0.0,0.0
19:32:47.097000,23.0,-35.0,-289.0,-1366.0,309.0,-263.0,0.0,0.0,0.0
19:32:47.101000,13.0,-32.0,-252.0,-1357.0,355.0,-270.0,0.0,0.0,0.0
19:32:47.106000,28.0,-32.0,-261.0,-1357.0,355.0,-270.0,0.0,0.0,0.0
19:32:47.111000,36.0,-27.0,-310.0,-1365.0,325.0,-277.0,0.0,0.0,0.0
19:32:47.116000,21.0,-15.0,-308.0,-1365.0,325.0,-277.0,0.0,0.0,0.0
19:32:47.120000,2.0,-2.0,-299.0,-1302.0,321.0,-282.0,0.0,0.0,0.0
19:32:47.125000,18.0,5.0,-290.0,-1302.0,321.0,-282.0,0.0,0.0,0.0
19:32:47.130000,18.0,5.0,-290.0,-1241.0,371.0,-294.0,0.0,0.0,0.0
19:32:47.134000,11.0,15.0,-273.0,-1241.0,371.0,-294.0,0.0,0.0,0.0
19:32:47.139000,-12.0,37.0,-267.0,-1248.0,465.0,-299.0,0.0,0.0,0.0
19:32:47.144000,-30.0,51.0,-285.0,-1248.0,465.0,-299.0,0.0,0.0,0.0
19:32:47.148000,-35.0,53.0,-297.0,-1236.0,501.0,-285.0,0.0,0.0,0.0
19:32:47.153000,-46.0,67.0,-299.0,-1236.0,501.0,-285.0,0.0,0.0,0.0
19:32:47.158000,-63.0,83.0,-279.0,-1223.0,478.0,-279.0,0.0,0.0,0.0
19:32:47.163000,-35.0,96.0,-244.0,-1223.0,478.0,-279.0,0.0,0.0,0.0
19:32:47.167000,-53.0,95.0,-172.0,-1157.0,474.0,-267.0,0.0,0.0,0.0
19:32:47.172000,-89.0,89.0,-56.0,-1157.0,474.0,-267.0,0.0,0.0,0.0
19:32:47.177000,-134.0,68.0,-58.0,-1052.0,545.0,-246.0,0.0,0.0,0.0
19:32:47.181000,-161.0,51.0,-147.0,-1052.0,545.0,-246.0,0.0,0.0,0.0
19:32:47.186000,-146.0,24.0,-178.0,-1069.0,513.0,-257.0,0.0,0.0,0.0
19:32:47.191000,-166.0,10.0,-88.0,-1069.0,513.0,-257.0,0.0,0.0,0.0
19:32:47.195000,-168.0,5.0,-13.0,-1069.0,513.0,-257.0,0.0,0.0,0.0
19:32:47.200000,-179.0,11.0,-37.0,-1278.0,437.0,-296.0,0.0,0.0,0.0
19:32:47.205000,-200.0,49.0,-94.0,-1278.0,437.0,-296.0,0.0,0.0,0.0
19:32:47.210000,-195.0,67.0,-88.0,-1336.0,486.0,-315.0,0.0,0.0,0.0
19:32:47.214000,-163.0,60.0,-20.0,-1336.0,486.0,-315.0,0.0,0.0,0.0
19:32:47.219000,-152.0,60.0,11.0,-1104.0,437.0,-291.0,0.0,0.0,0.0
19:32:47.224000,-142.0,49.0,-44.0,-1104.0,437.0,-291.0,0.0,0.0,0.0
19:32:47.228000,-179.0,37.0,-60.0,-1061.0,379.0,-244.0,0.0,0.0,0.0
19:32:47.233000,-51.0,38.0,-53.0,-1061.0,379.0,-244.0,0.0,0.0,0.0
19:32:47.238000,-51.0,38.0,-53.0,-1239.0,366.0,-244.0,0.0,0.0,0.0
19:32:47.242000,-88.0,40.0,-67.0,-1239.0,366.0,-244.0,0.0,0.0,0.0
19:32:47.247000,-28.0,47.0,1.0,-1252.0,407.0,-259.0,0.0,0.0,0.0
19:32:47.252000,-44.0,42.0,88.0,-1252.0,407.0,-259.0,0.0,0.0,0.0
19:32:47.257000,-53.0,38.0,31.0,-1210.0,474.0,-241.0,0.0,0.0,0.0
19:32:47.261000,-39.0,41.0,26.0,-1210.0,474.0,-241.0,0.0,0.0,0.0
19:32:47.266000,-13.0,49.0,23.0,-1259.0,441.0,-234.0,0.0,0.0,0.0
19:32:47.271000,-39.0,58.0,32.0,-1259.0,441.0,-234.0,0.0,0.0,0.0
19:32:47.275000,-60.0,79.0,84.0,-1347.0,350.0,-243.0,0.0,0.0,0.0
19:32:47.280000,-91.0,93.0,136.0,-1347.0,350.0,-243.0,0.0,0.0,0.0
19:32:47.285000,-60.0,113.0,206.0,-1396.0,219.0,-268.0,0.0,0.0,0.0
19:32:47.289000,-21.0,127.0,224.0,-1396.0,219.0,-268.0,0.0,0.0,0.0
19:32:47.294000,2.0,140.0,158.0,-1350.0,191.0,-280.0,0.0,0.0,0.0
19:32:47.299000,0.0,151.0,49.0,-1350.0,191.0,-280.0,0.0,0.0,0.0
19:32:47.303000,1.0,161.0,-23.0,-1190.0,244.0,-304.0,0.0,0.0,0.0
19:32:47.308000,56.0,156.0,-38.0,-1190.0,244.0,-304.0,0.0,0.0,0.0
19:32:47.313000,63.0,135.0,-125.0,-1190.0,244.0,-304.0,0.0,0.0,0.0
19:32:47.318000,106.0,98.0,-186.0,-981.0,306.0,-342.0,0.0,0.0,0.0
19:32:47.322000,123.0,66.0,-156.0,-981.0,306.0,-342.0,0.0,0.0,0.0
19:32:47.327000,121.0,40.0,-131.0,-899.0,401.0,-343.0,0.0,0.0,0.0
19:32:47.332000,119.0,14.0,-116.0,-899.0,401.0,-343.0,0.0,0.0,0.0
19:32:47.336000,105.0,-17.0,-91.0,-961.0,504.0,-331.0,0.0,0.0,0.0
19:32:47.341000,86.0,-39.0,-51.0,-961.0,504.0,-331.0,0.0,0.0,0.0
19:32:47.346000,86.0,-39.0,-51.0,-1019.0,554.0,-322.0,0.0,0.0,0.0
19:32:47.351000,49.0,-48.0,-4.0,-1019.0,554.0,-322.0,0.0,0.0,0.0
19:32:47.355000,24.0,-48.0,-7.0,-1023.0,522.0,-314.0,0.0,0.0,0.0
19:32:47.360000,-16.0,-49.0,-48.0,-1023.0,522.0,-314.0,0.0,0.0,0.0
19:32:47.365000,-53.0,-48.0,-56.0,-1036.0,451.0,-301.0,0.0,0.0,0.0
19:32:47.369000,-65.0,-57.0,-10.0,-1036.0,451.0,-301.0,0.0,0.0,0.0
19:32:47.374000,-51.0,-60.0,13.0,-1018.0,357.0,-291.0,0.0,0.0,0.0
19:32:47.379000,-27.0,-53.0,-10.0,-1018.0,357.0,-291.0,0.0,0.0,0.0
19:32:47.383000,7.0,-44.0,-49.0,-991.0,301.0,-293.0,0.0,0.0,0.0
19:32:47.388000,50.0,-37.0,-102.0,-991.0,301.0,-293.0,0.0,0.0,0.0
19:32:47.393000,81.0,-29.0,-114.0,-956.0,308.0,-295.0,0.0,0.0,0.0
19:32:47.398000,112.0,-30.0,-117.0,-956.0,308.0,-295.0,0.0,0.0,0.0
19:32:47.402000,149.0,-30.0,-141.0,-916.0,372.0,-295.0,0.0,0.0,0.0
19:32:47.407000,180.0,-32.0,-185.0,-916.0,372.0,-295.0,0.0,0.0,0.0
19:32:47.412000,193.0,-31.0,-216.0,-916.0,372.0,-295.0,0.0,0.0,0.0
19:32:47.416000,195.0,-34.0,-222.0,-836.0,476.0,-287.0,0.0,0.0,0.0
19:32:47.421000,185.0,-39.0,-224.0,-836.0,476.0,-287.0,0.0,0.0,0.0
19:32:47.426000,156.0,-42.0,-231.0,-736.0,578.0,-260.0,0.0,0.0,0.0
19:32:47.430000,115.0,-44.0,-219.0,-736.0,578.0,-260.0,0.0,0.0,0.0
19:32:47.435000,72.0,-47.0,-176.0,-655.0,639.0,-226.0,0.0,0.0,0.0
19:32:47.440000,37.0,-52.0,-126.0,-655.0,639.0,-226.0,0.0,0.0,0.0
19:32:47.445000,15.0,-58.0,-96.0,-564.0,602.0,-201.0,0.0,0.0,0.0
19:32:47.449000,3.0,-59.0,-100.0,-564.0,602.0,-201.0,0.0,0.0,0.0
19:32:47.454000,0.0,-60.0,-128.0,-477.0,550.0,-192.0,0.0,0.0,0.0
19:32:47.459000,0.0,-60.0,-128.0,-477.0,550.0,-192.0,0.0,0.0,0.0
19:32:47.463000,9.0,-63.0,-142.0,-436.0,554.0,-189.0,0.0,0.0,0.0
19:32:47.468000,34.0,-63.0,-128.0,-436.0,554.0,-189.0,0.0,0.0,0.0
19:32:47.473000,69.0,-63.0,-107.0,-471.0,543.0,-187.0,0.0,0.0,0.0
19:32:47.477000,107.0,-63.0,-80.0,-471.0,543.0,-187.0,0.0,0.0,0.0
19:32:47.482000,141.0,-63.0,-49.0,-554.0,549.0,-179.0,0.0,0.0,0.0
19:32:47.487000,166.0,-60.0,-19.0,-554.0,549.0,-179.0,0.0,0.0,0.0
19:32:47.492000,179.0,-64.0,16.0,-591.0,601.0,-160.0,0.0,0.0,0.0
19:32:47.496000,179.0,-70.0,63.0,-591.0,601.0,-160.0,0.0,0.0,0.0
19:32:47.501000,166.0,-79.0,114.0,-551.0,634.0,-140.0,0.0,0.0,0.0
19:32:47.506000,144.0,-92.0,152.0,-551.0,634.0,-140.0,0.0,0.0,0.0
19:32:47.510000,115.0,-107.0,171.0,-467.0,636.0,-119.0,0.0,0.0,0.0
19:32:47.515000,79.0,-128.0,175.0,-467.0,636.0,-119.0,0.0,0.0,0.0
19:32:47.520000,40.0,-149.0,162.0,-467.0,636.0,-119.0,0.0,0.0,0.0
19:32:47.524000,0.0,-170.0,130.0,-366.0,635.0,-99.0,0.0,0.0,0.0
19:32:47.529000,-44.0,-185.0,88.0,-366.0,635.0,-99.0,0.0,0.0,0.0
19:32:47.534000,-95.0,-191.0,48.0,-308.0,661.0,-97.0,0.0,0.0,0.0
19:32:47.539000,-154.0,-186.0,18.0,-308.0,661.0,-97.0,0.0,0.0,0.0
19:32:47.543000,-208.0,-176.0,9.0,-358.0,703.0,-124.0,0.0,0.0,0.0
19:32:47.548000,-251.0,-159.0,16.0,-358.0,703.0,-124.0,0.0,0.0,0.0
19:32:47.553000,-277.0,-137.0,37.0,-470.0,666.0,-162.0,0.0,0.0,0.0
19:32:47.557000,-284.0,-116.0,66.0,-470.0,666.0,-162.0,0.0,0.0,0.0
19:32:47.562000,-274.0,-97.0,95.0,-543.0,513.0,-192.0,0.0,0.0,0.0
19:32:47.567000,-274.0,-97.0,95.0,-543.0,513.0,-192.0,0.0,0.0,0.0
19:32:47.571000,-249.0,-84.0,118.0,-554.0,360.0,-207.0,0.0,0.0,0.0
19:32:47.576000,-219.0,-76.0,128.0,-554.0,360.0,-207.0,0.0,0.0,0.0
19:32:47.581000,-191.0,-69.0,119.0,-545.0,308.0,-207.0,0.0,0.0,0.0
19:32:47.586000,-170.0,-62.0,100.0,-545.0,308.0,-207.0,0.0,0.0,0.0
19:32:47.590000,-154.0,-58.0,73.0,-536.0,326.0,-199.0,0.0,0.0,0.0
19:32:47.595000,-140.0,-57.0,46.0,-536.0,326.0,-199.0,0.0,0.0,0.0
19:32:47.600000,-126.0,-56.0,23.0,-511.0,328.0,-176.0,0.0,0.0,0.0
19:32:47.604000,-112.0,-52.0,4.0,-511.0,328.0,-176.0,0.0,0.0,0.0
19:32:47.609000,-95.0,-44.0,-6.0,-495.0,301.0,-143.0,0.0,0.0,0.0
19:32:47.614000,-77.0,-33.0,-6.0,-495.0,301.0,-143.0,0.0,0.0,0.0
19:32:47.618000,-58.0,-18.0,6.0,-537.0,261.0,-115.0,0.0,0.0,0.0
19:32:47.623000,-35.0,4.0,21.0,-537.0,261.0,-115.0,0.0,0.0,0.0
19:32:47.628000,-7.0,30.0,30.0,-537.0,261.0,-115.0,0.0,0.0,0.0
19:32:47.633000,23.0,56.0,26.0,-620.0,211.0,-105.0,0.0,0.0,0.0
19:32:47.637000,52.0,77.0,11.0,-620.0,211.0,-105.0,0.0,0.0,0.0
19:32:47.642000,75.0,95.0,-11.0,-684.0,193.0,-114.0,0.0,0.0,0.0
19:32:47.647000,86.0,103.0,-33.0,-684.0,193.0,-114.0,0.0,0.0,0.0
19:32:47.651000,84.0,102.0,-50.0,-699.0,244.0,-130.0,0.0,0.0,0.0
19:32:47.656000,66.0,93.0,-59.0,-699.0,244.0,-130.0,0.0,0.0,0.0
19:32:47.661000,36.0,78.0,-65.0,-663.0,325.0,-144.0,0.0,0.0,0.0
19:32:47.665000,0.0,58.0,-66.0,-663.0,325.0,-144.0,0.0,0.0,0.0
19:32:47.670000,-40.0,40.0,-60.0,-605.0,392.0,-156.0,0.0,0.0,0.0
19:32:47.675000,-40.0,40.0,-60.0,-605.0,392.0,-156.0,0.0,0.0,0.0
19:32:47.680000,-80.0,20.0,-51.0,-586.0,419.0,-170.0,0.0,0.0,0.0
19:32:47.684000,-116.0,4.0,-49.0,-586.0,419.0,-170.0,0.0,0.0,0.0
19:32:47.689000,-143.0,-7.0,-45.0,-640.0,378.0,-182.0,0.0,0.0,0.0
19:32:47.694000,-162.0,-12.0,-33.0,-640.0,378.0,-182.0,0.0,0.0,0.0
19:32:47.698000,-175.0,-12.0,-25.0,-745.0,262.0,-183.0,0.0,0.0,0.0
19:32:47.703000,-179.0,-9.0,-23.0,-745.0,262.0,-183.0,0.0,0.0,0.0
19:32:47.708000,-180.0,-3.0,-34.0,-838.0,139.0,-172.0,0.0,0.0,0.0
19:32:47.712000,-182.0,4.0,-56.0,-838.0,139.0,-172.0,0.0,0.0,0.0
19:32:47.717000,-186.0,11.0,-81.0,-873.0,76.0,-153.0,0.0,0.0,0.0
19:32:47.722000,-186.0,15.0,-110.0,-873.0,76.0,-153.0,0.0,0.0,0.0
19:32:47.727000,-181.0,15.0,-141.0,-853.0,39.0,-139.0,0.0,0.0,0.0
19:32:47.731000,-165.0,11.0,-169.0,-853.0,39.0,-139.0,0.0,0.0,0.0
19:32:47.736000,-142.0,3.0,-192.0,-804.0,-13.0,-131.0,0.0,0.0,0.0
19:32:47.741000,-116.0,-8.0,-211.0,-804.0,-13.0,-131.0,0.0,0.0,0.0
19:32:47.745000,-93.0,-18.0,-223.0,-804.0,-13.0,-131.0,0.0,0.0,0.0
19:32:47.750000,-74.0,-25.0,-228.0,-774.0,-53.0,-120.0,0.0,0.0,0.0
19:32:47.755000,-63.0,-25.0,-238.0,-774.0,-53.0,-120.0,0.0,0.0,0.0
19:32:47.759000,-57.0,-22.0,-255.0,-796.0,-68.0,-111.0,0.0,0.0,0.0
19:32:47.764000,-51.0,-14.0,-278.0,-796.0,-68.0,-111.0,0.0,0.0,0.0
19:32:47.769000,-43.0,-3.0,-306.0,-858.0,-60.0,-108.0,0.0,0.0,0.0
19:32:47.774000,-36.0,4.0,-336.0,-858.0,-60.0,-108.0,0.0,0.0,0.0
19:32:47.778000,-30.0,10.0,-362.0,-910.0,-43.0,-104.0,0.0,0.0,0.0
19:32:47.783000,-26.0,13.0,-378.0,-910.0,-43.0,-104.0,0.0,0.0,0.0
19:32:47.787000,-26.0,13.0,-378.0,-913.0,-13.0,-98.0,0.0,0.0,0.0
19:32:47.792000,-27.0,12.0,-391.0,-913.0,-13.0,-98.0,0.0,0.0,0.0
19:32:47.797000,-30.0,10.0,-398.0,-878.0,31.0,-94.0,0.0,0.0,0.0
19:32:47.802000,-32.0,9.0,-394.0,-878.0,31.0,-94.0,0.0,0.0,0.0
19:32:47.806000,-30.0,5.0,-389.0,-835.0,59.0,-97.0,0.0,0.0,0.0
19:32:47.811000,-27.0,0.0,-385.0,-835.0,59.0,-97.0,0.0,0.0,0.0
19:32:47.816000,-25.0,-2.0,-378.0,-810.0,79.0,-109.0,0.0,0.0,0.0
19:32:47.821000,-23.0,-7.0,-361.0,-810.0,79.0,-109.0,0.0,0.0,0.0
19:32:47.825000,-23.0,-11.0,-333.0,-789.0,95.0,-131.0,0.0,0.0,0.0
19:32:47.830000,-16.0,-17.0,-310.0,-789.0,95.0,-131.0,0.0,0.0,0.0
19:32:47.835000,0.0,-25.0,-293.0,-769.0,98.0,-162.0,0.0,0.0,0.0
19:32:47.839000,17.0,-40.0,-273.0,-769.0,98.0,-162.0,0.0,0.0,0.0
19:32:47.844000,33.0,-61.0,-234.0,-769.0,117.0,-187.0,0.0,0.0,0.0
19:32:47.849000,39.0,-86.0,-189.0,-769.0,117.0,-187.0,0.0,0.0,0.0
19:32:47.853000,30.0,-115.0,-155.0,-769.0,117.0,-187.0,0.0,0.0,0.0
19:32:47.858000,7.0,-152.0,-128.0,-786.0,174.0,-193.0,0.0,0.0,0.0
19:32:47.863000,-21.0,-193.0,-104.0,-786.0,174.0,-193.0,0.0,0.0,0.0
19:32:47.868000,-44.0,-234.0,-83.0,-796.0,217.0,-184.0,0.0,0.0,0.0
19:32:47.872000,-53.0,-273.0,-68.0,-796.0,217.0,-184.0,0.0,0.0,0.0
19:32:47.877000,-49.0,-306.0,-60.0,-813.0,184.0,-181.0,0.0,0.0,0.0
19:32:47.882000,-32.0,-329.0,-50.0,-813.0,184.0,-181.0,0.0,0.0,0.0
19:32:47.886000,-4.0,-342.0,-38.0,-863.0,124.0,-184.0,0.0,0.0,0.0
19:32:47.891000,30.0,-343.0,-24.0,-863.0,124.0,-184.0,0.0,0.0,0.0
19:32:47.896000,30.0,-343.0,-24.0,-945.0,86.0,-174.0,0.0,0.0,0.0
19:32:47.900000,67.0,-336.0,0.0,-945.0,86.0,-174.0,0.0,0.0,0.0
19:32:47.905000,104.0,-324.0,39.0,-1012.0,81.0,-148.0,0.0,0.0,0.0
19:32:47.910000,133.0,-312.0,93.0,-1012.0,81.0,-148.0,0.0,0.0,0.0
19:32:47.915000,145.0,-302.0,147.0,-1000.0,120.0,-102.0,0.0,0.0,0.0
19:32:47.919000,142.0,-298.0,196.0,-1000.0,120.0,-102.0,0.0,0.0,0.0
19:32:47.924000,130.0,-301.0,235.0,-908.0,162.0,-49.0,0.0,0.0,0.0
19:32:47.929000,116.0,-308.0,261.0,-908.0,162.0,-49.0,0.0,0.0,0.0
19:32:47.933000,98.0,-319.0,270.0,-859.0,195.0,-18.0,0.0,0.0,0.0
19:32:47.938000,76.0,-329.0,268.0,-859.0,195.0,-18.0,0.0,0.0,0.0
19:32:47.943000,51.0,-335.0,267.0,-905.0,234.0,-10.0,0.0,0.0,0.0
19:32:47.947000,32.0,-338.0,277.0,-905.0,234.0,-10.0,0.0,0.0,0.0
19:32:47.951000,21.0,-331.0,295.0,-912.0,217.0,-4.0,0.0,0.0,0.0
19:32:47.957000,22.0,-319.0,316.0,-912.0,217.0,-4.0,0.0,0.0,0.0
19:32:47.962000,30.0,-300.0,339.0,-912.0,217.0,-4.0,0.0,0.0,0.0
19:32:47.966000,41.0,-274.0,369.0,-865.0,178.0,-3.0,0.0,0.0,0.0
19:32:47.971000,56.0,-242.0,413.0,-865.0,151.0,-10.0,0.0,0.0,0.0
19:32:47.976000,74.0,-208.0,469.0,-865.0,151.0,-10.0,0.0,0.0,0.0
19:32:47.980000,97.0,-173.0,534.0,-865.0,151.0,-10.0,0.0,0.0,0.0
19:32:47.985000,122.0,-140.0,590.0,-915.0,75.0,-16.0,0.0,0.0,0.0
19:32:47.990000,146.0,-109.0,621.0,-915.0,75.0,-16.0,0.0,0.0,0.0
19:32:47.994000,156.0,-86.0,620.0,-962.0,9.0,-25.0,0.0,0.0,0.0
19:32:47.999000,145.0,-72.0,596.0,-962.0,9.0,-25.0,0.0,0.0,0.0
19:32:48.004000,145.0,-72.0,596.0,-987.0,74.0,-37.0,0.0,0.0,0.0
19:32:48.009000,121.0,-68.0,555.0,-987.0,74.0,-37.0,0.0,0.0,0.0
19:32:48.013000,93.0,-70.0,508.0,-958.0,183.0,-45.0,0.0,0.0,0.0
19:32:48.018000,67.0,-77.0,452.0,-958.0,183.0,-45.0,0.0,0.0,0.0
19:32:48.023000,48.0,-88.0,389.0,-874.0,216.0,-54.0,0.0,0.0,0.0
19:32:48.027000,35.0,-101.0,333.0,-874.0,216.0,-54.0,0.0,0.0,0.0
19:32:48.032000,27.0,-112.0,287.0,-797.0,231.0,-71.0,0.0,0.0,0.0
19:32:48.037000,19.0,-119.0,252.0,-797.0,231.0,-71.0,0.0,0.0,0.0
19:32:48.041000,7.0,-127.0,225.0,-780.0,287.0,-95.0,0.0,0.0,0.0
19:32:48.046000,4.0,-138.0,210.0,-780.0,287.0,-95.0,0.0,0.0,0.0
19:32:48.051000,12.0,-156.0,215.0,-774.0,296.0,-127.0,0.0,0.0,0.0
19:32:48.055000,30.0,-175.0,236.0,-774.0,296.0,-127.0,0.0,0.0,0.0
19:32:48.060000,52.0,-193.0,263.0,-727.0,257.0,-158.0,0.0,0.0,0.0
19:32:48.065000,69.0,-211.0,284.0,-727.0,257.0,-158.0,0.0,0.0,0.0
19:32:48.070000,81.0,-222.0,293.0,-727.0,257.0,-158.0,0.0,0.0,0.0
19:32:48.074000,87.0,-226.0,292.0,-701.0,270.0,-175.0,0.0,0.0,0.0
19:32:48.079000,86.0,-225.0,289.0,-701.0,270.0,-175.0,0.0,0.0,0.0
19:32:48.084000,73.0,-221.0,273.0,-734.0,312.0,-193.0,0.0,0.0,0.0
19:32:48.088000,53.0,-214.0,251.0,-734.0,312.0,-193.0,0.0,0.0,0.0
19:32:48.093000,30.0,-203.0,232.0,-801.0,355.0,-205.0,0.0,0.0,0.0
19:32:48.098000,8.0,-186.0,213.0,-801.0,355.0,-205.0,0.0,0.0,0.0
19:32:48.102000,-13.0,-168.0,191.0,-828.0,369.0,-202.0,0.0,0.0,0.0
19:32:48.107000,-30.0,-147.0,164.0,-828.0,369.0,-202.0,0.0,0.0,0.0
19:32:48.112000,-45.0,-127.0,134.0,-819.0,349.0,-193.0,0.0,0.0,0.0
19:32:48.117000,-45.0,-127.0,134.0,-819.0,349.0,-193.0,0.0,0.0,0.0
19:32:48.121000,-53.0,-114.0,105.0,-824.0,318.0,-173.0,0.0,0.0,0.0
19:32:48.126000,-63.0,-99.0,84.0,-824.0,318.0,-173.0,0.0,0.0,0.0
19:32:48.131000,-59.0,-95.0,95.0,-816.0,254.0,-145.0,0.0,0.0,0.0
19:32:48.135000,-41.0,-95.0,122.0,-816.0,254.0,-145.0,0.0,0.0,0.0
19:32:48.140000,-16.0,-91.0,149.0,-764.0,171.0,-121.0,0.0,0.0,0.0
19:32:48.145000,23.0,-93.0,156.0,-764.0,171.0,-121.0,0.0,0.0,0.0
19:32:48.149000,60.0,-90.0,145.0,-704.0,146.0,-100.0,0.0,0.0,0.0
19:32:48.154000,79.0,-82.0,157.0,-704.0,146.0,-100.0,0.0,0.0,0.0
19:32:48.159000,99.0,-80.0,192.0,-685.0,196.0,-82.0,0.0,0.0,0.0
