hh:mm:ss.ms,gyroX[mdps],gyroY[mdps],gyroZ[mdps],accX[mg],accY[mg],accZ[mg],magX[mG],magY[mG],magZ[mG]
19:33:10.224000,-43.0,238.0,-70.0,-1204.0,325.0,-146.0,0.0,0.0,0.0
19:33:10.229000,-70.0,259.0,15.0,-1186.0,231.0,-173.0,0.0,0.0,0.0
19:33:10.233000,-99.0,282.0,19.0,-1186.0,231.0,-173.0,0.0,0.0,0.0
19:33:10.238000,-99.0,282.0,19.0,-1303.0,399.0,-220.0,0.0,0.0,0.0
19:33:10.243000,-146.0,311.0,-34.0,-1303.0,399.0,-220.0,0.0,0.0,0.0
19:33:10.248000,-199.0,327.0,-56.0,-1371.0,525.0,-245.0,0.0,0.0,0.0
19:33:10.252000,-227.0,335.0,-72.0,-1371.0,525.0,-245.0,0.0,0.0,0.0
19:33:10.256000,-236.0,341.0,-89.0,-1309.0,347.0,-244.0,0.0,0.0,0.0
19:33:10.262000,-210.0,337.0,-105.0,-1309.0,347.0,-244.0,0.0,0.0,0.0
19:33:10.266000,-185.0,334.0,-130.0,-1203.0,189.0,-236.0,0.0,0.0,0.0
19:33:10.271000,-161.0,323.0,-140.0,-1203.0,189.0,-236.0,0.0,0.0,0.0
19:33:10.276000,-132.0,301.0,-128.0,-1104.0,200.0,-237.0,0.0,0.0,0.0
19:33:10.280000,-112.0,289.0,-168.0,-1104.0,200.0,-237.0,0.0,0.0,0.0
19:33:10.285000,-105.0,265.0,-173.0,-1047.0,243.0,-245.0,0.0,0.0,0.0
19:33:10.290000,-83.0,244.0,-121.0,-1047.0,243.0,-245.0,0.0,0.0,0.0
19:33:10.295000,-72.0,233.0,-118.0,-1038.0,298.0,-269.0,0.0,0.0,0.0
19:33:10.299000,-65.0,221.0,-134.0,-1038.0,298.0,-269.0,0.0,0.0,0.0
19:33:10.304000,-62.0,211.0,-122.0,-1038.0,298.0,-269.0,0.0,0.0,0.0
19:33:10.309000,-56.0,200.0,-107.0,-1048.0,329.0,-298.0,0.0,0.0,0.0
19:33:10.313000,-46.0,193.0,-109.0,-1048.0,329.0,-298.0,0.0,0.0,0.0
19:33:10.318000,-38.0,177.0,-103.0,-1048.0,327.0,-315.0,0.0,0.0,0.0
19:33:10.323000,-24.0,165.0,-99.0,-1048.0,327.0,-315.0,0.0,0.0,0.0
19:33:10.327000,-11.0,149.0,-116.0,-1022.0,338.0,-326.0,0.0,0.0,0.0
19:33:10.332000,2.0,128.0,-114.0,-1022.0,338.0,-326.0,0.0,0.0,0.0
19:33:10.337000,30.0,100.0,-114.0,-955.0,333.0,-332.0,0.0,0.0,0.0
19:33:10.342000,56.0,71.0,-135.0,-955.0,333.0,-332.0,0.0,0.0,0.0
19:33:10.346000,71.0,71.0,-135.0,-879.0,334.0,-339.0,0.0,0.0,0.0
19:33:10.351000,71.0,42.0,-156.0,-879.0,334.0,-339.0,0.0,0.0,0.0
19:33:10.356000,84.0,15.0,-177.0,-826.0,383.0,-345.0,0.0,0.0,0.0
19:33:10.360000,87.0,-16.0,-194.0,-826.0,383.0,-345.0,0.0,0.0,0.0
19:33:10.365000,74.0,-38.0,-206.0,-784.0,452.0,-335.0,0.0,0.0,0.0
19:33:10.369000,55.0,-56.0,-224.0,-784.0,452.0,-335.0,0.0,0.0,0.0
19:33:10.374000,28.0,-71.0,-238.0,-725.0,489.0,-308.0,0.0,0.0,0.0
19:33:10.379000,-1.0,-86.0,-236.0,-725.0,489.0,-308.0,0.0,0.0,0.0
19:33:10.384000,-21.0,-100.0,-224.0,-634.0,476.0,-269.0,0.0,0.0,0.0
19:33:10.389000,-28.0,-109.0,-205.0,-634.0,476.0,-269.0,0.0,0.0,0.0
19:33:10.393000,-17.0,-119.0,-184.0,-551.0,423.0,-230.0,0.0,0.0,0.0
19:33:10.398000,4.0,-127.0,-160.0,-551.0,423.0,-230.0,0.0,0.0,0.0
19:33:10.403000,38.0,-133.0,-146.0,-530.0,403.0,-202.0,0.0,0.0,0.0
19:33:10.407000,74.0,-139.0,-147.0,-530.0,403.0,-202.0,0.0,0.0,0.0
19:33:10.412000,103.0,-143.0,-134.0,-530.0,403.0,-202.0,0.0,0.0,0.0
19:33:10.417000,127.0,-147.0,-86.0,-540.0,451.0,-175.0,0.0,0.0,0.0
19:33:10.421000,143.0,-149.0,-25.0,-540.0,451.0,-175.0,0.0,0.0,0.0
19:33:10.426000,149.0,-153.0,32.0,-553.0,514.0,-150.0,0.0,0.0,0.0
19:33:10.431000,147.0,-159.0,91.0,-553.0,514.0,-150.0,0.0,0.0,0.0
19:33:10.436000,135.0,-170.0,145.0,-579.0,556.0,-127.0,0.0,0.0,0.0
19:33:10.440000,112.0,-184.0,189.0,-579.0,556.0,-127.0,0.0,0.0,0.0
19:33:10.445000,76.0,-199.0,219.0,-575.0,594.0,-106.0,0.0,0.0,0.0
19:33:10.450000,35.0,-214.0,240.0,-575.0,594.0,-106.0,0.0,0.0,0.0
19:33:10.454000,-9.0,-227.0,246.0,-535.0,622.0,-94.0,0.0,0.0,0.0
19:33:10.459000,-9.0,-227.0,246.0,-535.0,622.0,-94.0,0.0,0.0,0.0
19:33:10.464000,-55.0,-233.0,235.0,-521.0,613.0,-92.0,0.0,0.0,0.0
19:33:10.468000,-102.0,-230.0,220.0,-521.0,613.0,-92.0,0.0,0.0,0.0
19:33:10.473000,-149.0,-220.0,205.0,-555.0,566.0,-103.0,0.0,0.0,0.0
19:33:10.478000,-190.0,-206.0,183.0,-555.0,566.0,-103.0,0.0,0.0,0.0
19:33:10.483000,-222.0,-188.0,149.0,-597.0,485.0,-120.0,0.0,0.0,0.0
19:33:10.487000,-238.0,-170.0,113.0,-597.0,485.0,-120.0,0.0,0.0,0.0
19:33:10.491000,-229.0,-158.0,80.0,-587.0,354.0,-135.0,0.0,0.0,0.0
19:33:10.497000,-200.0,-147.0,46.0,-587.0,354.0,-135.0,0.0,0.0,0.0
19:33:10.501000,-156.0,-140.0,17.0,-543.0,213.0,-143.0,0.0,0.0,0.0
19:33:10.506000,-107.0,-135.0,-5.0,-543.0,213.0,-143.0,0.0,0.0,0.0
19:33:10.511000,-68.0,-127.0,-29.0,-523.0,165.0,-137.0,0.0,0.0,0.0
19:33:10.515000,-46.0,-117.0,-53.0,-523.0,165.0,-137.0,0.0,0.0,0.0
19:33:10.520000,-42.0,-101.0,-82.0,-523.0,165.0,-137.0,0.0,0.0,0.0
19:33:10.525000,-55.0,-81.0,-114.0,-516.0,218.0,-105.0,0.0,0.0,0.0
19:33:10.529000,-80.0,-55.0,-146.0,-516.0,218.0,-105.0,0.0,0.0,0.0
19:33:10.534000,-107.0,-25.0,-173.0,-497.0,292.0,-50.0,0.0,0.0,0.0
19:33:10.539000,-126.0,9.0,-191.0,-497.0,292.0,-50.0,0.0,0.0,0.0
19:33:10.544000,-123.0,46.0,-192.0,-480.0,307.0,2.0,0.0,0.0,0.0
19:33:10.548000,-106.0,84.0,-193.0,-480.0,307.0,2.0,0.0,0.0,0.0
19:33:10.553000,-85.0,124.0,-197.0,-515.0,282.0,19.0,0.0,0.0,0.0
19:33:10.558000,-67.0,163.0,-190.0,-515.0,282.0,19.0,0.0,0.0,0.0
19:33:10.562000,-51.0,193.0,-158.0,-601.0,292.0,5.0,0.0,0.0,0.0
19:33:10.567000,-51.0,193.0,-158.0,-601.0,292.0,5.0,0.0,0.0,0.0
19:33:10.572000,-38.0,217.0,-102.0,-644.0,290.0,-14.0,0.0,0.0,0.0
19:33:10.576000,-30.0,231.0,-46.0,-644.0,290.0,-14.0,0.0,0.0,0.0
19:33:10.581000,-26.0,242.0,-8.0,-646.0,285.0,-37.0,0.0,0.0,0.0
19:33:10.586000,-32.0,249.0,5.0,-646.0,285.0,-37.0,0.0,0.0,0.0
19:33:10.591000,-52.0,250.0,1.0,-676.0,329.0,-68.0,0.0,0.0,0.0
19:33:10.595000,-77.0,247.0,-15.0,-676.0,329.0,-68.0,0.0,0.0,0.0
19:33:10.600000,-97.0,246.0,-36.0,-707.0,311.0,-94.0,0.0,0.0,0.0
19:33:10.605000,-107.0,247.0,-63.0,-707.0,311.0,-94.0,0.0,0.0,0.0
19:33:10.609000,-101.0,259.0,-99.0,-711.0,179.0,-107.0,0.0,0.0,0.0
19:33:10.614000,-81.0,278.0,-149.0,-711.0,179.0,-107.0,0.0,0.0,0.0
19:33:10.619000,-56.0,303.0,-216.0,-753.0,67.0,-120.0,0.0,0.0,0.0
19:33:10.623000,-35.0,324.0,-290.0,-753.0,67.0,-120.0,0.0,0.0,0.0
19:33:10.628000,-21.0,341.0,-358.0,-753.0,71.0,-120.0,0.0,0.0,0.0
19:33:10.633000,-21.0,352.0,-407.0,-836.0,71.0,-152.0,0.0,0.0,0.0
19:33:10.638000,-28.0,350.0,-436.0,-836.0,71.0,-152.0,0.0,0.0,0.0
19:33:10.642000,-33.0,334.0,-448.0,-874.0,140.0,-190.0,0.0,0.0,0.0
19:33:10.647000,-32.0,308.0,-443.0,-874.0,140.0,-190.0,0.0,0.0,0.0
19:33:10.652000,-28.0,273.0,-422.0,-836.0,175.0,-212.0,0.0,0.0,0.0
19:33:10.656000,-23.0,233.0,-382.0,-836.0,175.0,-212.0,0.0,0.0,0.0
19:33:10.661000,-16.0,193.0,-332.0,-795.0,164.0,-214.0,0.0,0.0,0.0
19:33:10.666000,-7.0,154.0,-285.0,-795.0,164.0,-214.0,0.0,0.0,0.0
19:33:10.670000,5.0,120.0,-242.0,-808.0,126.0,-200.0,0.0,0.0,0.0
19:33:10.675000,5.0,120.0,-242.0,-808.0,126.0,-200.0,0.0,0.0,0.0
19:33:10.680000,23.0,94.0,-209.0,-827.0,50.0,-184.0,0.0,0.0,0.0
19:33:10.685000,40.0,77.0,-189.0,-827.0,50.0,-184.0,0.0,0.0,0.0
19:33:10.689000,52.0,70.0,-184.0,-821.0,-11.0,-172.0,0.0,0.0,0.0
19:33:10.694000,59.0,71.0,-193.0,-821.0,-11.0,-172.0,0.0,0.0,0.0
19:33:10.699000,65.0,79.0,-215.0,-805.0,-16.0,-165.0,0.0,0.0,0.0
19:33:10.703000,74.0,86.0,-243.0,-805.0,-16.0,-165.0,0.0,0.0,0.0
19:33:10.708000,93.0,91.0,-265.0,-778.0,-13.0,-163.0,0.0,0.0,0.0
19:33:10.713000,116.0,91.0,-272.0,-778.0,-13.0,-163.0,0.0,0.0,0.0
19:33:10.717000,135.0,82.0,-268.0,-751.0,1.0,-156.0,0.0,0.0,0.0
19:33:10.722000,141.0,65.0,-248.0,-751.0,1.0,-156.0,0.0,0.0,0.0
19:33:10.726000,131.0,41.0,-213.0,-721.0,66.0,-138.0,0.0,0.0,0.0
19:33:10.732000,103.0,12.0,-175.0,-721.0,66.0,-138.0,0.0,0.0,0.0
19:33:10.736000,64.0,-16.0,-146.0,-693.0,140.0,-122.0,0.0,0.0,0.0
19:33:10.741000,26.0,-44.0,-129.0,-693.0,140.0,-122.0,0.0,0.0,0.0
19:33:10.746000,4.0,-70.0,-122.0,-693.0,140.0,-122.0,0.0,0.0,0.0
19:33:10.750000,0.0,-91.0,-125.0,-689.0,120.0,-133.0,0.0,0.0,0.0
19:33:10.755000,7.0,-107.0,-136.0,-689.0,120.0,-133.0,0.0,0.0,0.0
19:33:10.760000,19.0,-116.0,-151.0,-723.0,17.0,-172.0,0.0,0.0,0.0
19:33:10.764000,34.0,-119.0,-171.0,-723.0,17.0,-172.0,0.0,0.0,0.0
19:33:10.769000,51.0,-118.0,-203.0,-759.0,-55.0,-213.0,0.0,0.0,0.0
19:33:10.774000,70.0,-116.0,-246.0,-759.0,-55.0,-213.0,0.0,0.0,0.0
19:33:10.779000,86.0,-114.0,-287.0,-752.0,-56.0,-246.0,0.0,0.0,0.0
19:33:10.783000,102.0,-116.0,-312.0,-752.0,-56.0,-246.0,0.0,0.0,0.0
19:33:10.788000,102.0,-116.0,-312.0,-719.0,-7.0,-277.0,0.0,0.0,0.0
19:33:10.793000,123.0,-121.0,-312.0,-719.0,-7.0,-277.0,0.0,0.0,0.0
19:33:10.797000,141.0,-133.0,-288.0,-688.0,55.0,-294.0,0.0,0.0,0.0
19:33:10.802000,142.0,-151.0,-241.0,-688.0,55.0,-294.0,0.0,0.0,0.0
19:33:10.807000,119.0,-179.0,-173.0,-661.0,168.0,-287.0,0.0,0.0,0.0
19:33:10.811000,78.0,-219.0,-90.0,-661.0,168.0,-287.0,0.0,0.0,0.0
19:33:10.816000,28.0,-266.0,-2.0,-608.0,279.0,-260.0,0.0,0.0,0.0
19:33:10.821000,-24.0,-315.0,79.0,-608.0,279.0,-260.0,0.0,0.0,0.0
19:33:10.826000,-71.0,-361.0,149.0,-558.0,297.0,-223.0,0.0,0.0,0.0
19:33:10.830000,-107.0,-406.0,201.0,-558.0,297.0,-223.0,0.0,0.0,0.0
19:33:10.835000,-123.0,-443.0,235.0,-571.0,239.0,-188.0,0.0,0.0,0.0
19:33:10.840000,-121.0,-469.0,259.0,-571.0,239.0,-188.0,0.0,0.0,0.0
19:33:10.844000,-102.0,-479.0,286.0,-653.0,132.0,-162.0,0.0,0.0,0.0
19:33:10.848000,-76.0,-472.0,303.0,-653.0,132.0,-162.0,0.0,0.0,0.0
19:33:10.854000,-49.0,-450.0,308.0,-653.0,132.0,-162.0,0.0,0.0,0.0
19:33:10.858000,-28.0,-415.0,304.0,-778.0,60.0,-142.0,0.0,0.0,0.0
19:33:10.863000,-16.0,-369.0,302.0,-778.0,60.0,-142.0,0.0,0.0,0.0
19:33:10.868000,-18.0,-319.0,308.0,-882.0,84.0,-123.0,0.0,0.0,0.0
19:33:10.873000,-33.0,-273.0,330.0,-882.0,84.0,-123.0,0.0,0.0,0.0
19:33:10.877000,-51.0,-235.0,369.0,-921.0,137.0,-103.0,0.0,0.0,0.0
19:33:10.882000,-71.0,-211.0,422.0,-921.0,137.0,-103.0,0.0,0.0,0.0
19:33:10.887000,-95.0,-200.0,478.0,-900.0,124.0,-85.0,0.0,0.0,0.0
19:33:10.891000,-121.0,-203.0,520.0,-900.0,124.0,-85.0,0.0,0.0,0.0
19:33:10.896000,-121.0,-203.0,520.0,-863.0,80.0,-83.0,0.0,0.0,0.0
19:33:10.901000,-154.0,-213.0,525.0,-863.0,80.0,-83.0,0.0,0.0,0.0
19:33:10.905000,-200.0,-230.0,495.0,-850.0,116.0,-95.0,0.0,0.0,0.0
19:33:10.910000,-254.0,-249.0,439.0,-850.0,116.0,-95.0,0.0,0.0,0.0
19:33:10.915000,-303.0,-268.0,375.0,-826.0,165.0,-114.0,0.0,0.0,0.0
19:33:10.920000,-331.0,-287.0,312.0,-826.0,165.0,-114.0,0.0,0.0,0.0
19:33:10.924000,-337.0,-303.0,249.0,-778.0,115.0,-138.0,0.0,0.0,0.0
19:33:10.929000,-325.0,-315.0,193.0,-778.0,115.0,-138.0,0.0,0.0,0.0
19:33:10.934000,-307.0,-319.0,145.0,-755.0,74.0,-164.0,0.0,0.0,0.0
19:33:10.938000,-288.0,-315.0,114.0,-755.0,74.0,-164.0,0.0,0.0,0.0
19:33:10.943000,-271.0,-307.0,103.0,-749.0,131.0,-180.0,0.0,0.0,0.0
19:33:10.948000,-257.0,-295.0,116.0,-749.0,131.0,-180.0,0.0,0.0,0.0
19:33:10.952000,-246.0,-282.0,155.0,-724.0,216.0,-186.0,0.0,0.0,0.0
19:33:10.957000,-231.0,-269.0,216.0,-724.0,216.0,-186.0,0.0,0.0,0.0
19:33:10.961000,-210.0,-258.0,295.0,-724.0,216.0,-186.0,0.0,0.0,0.0
19:33:10.967000,-183.0,-247.0,382.0,-693.0,267.0,-193.0,0.0,0.0,0.0
19:33:10.971000,-154.0,-238.0,469.0,-693.0,267.0,-193.0,0.0,0.0,0.0
19:33:10.976000,-126.0,-231.0,555.0,-693.0,295.0,-207.0,0.0,0.0,0.0
19:33:10.981000,-102.0,-228.0,646.0,-693.0,295.0,-207.0,0.0,0.0,0.0
19:33:10.985000,-82.0,-233.0,739.0,-714.0,309.0,-222.0,0.0,0.0,0.0
19:33:10.990000,-67.0,-242.0,824.0,-714.0,309.0,-222.0,0.0,0.0,0.0
19:33:10.995000,-56.0,-255.0,888.0,-721.0,286.0,-227.0,0.0,0.0,0.0
19:33:10.999000,-52.0,-269.0,921.0,-721.0,286.0,-227.0,0.0,0.0,0.0
19:33:11.004000,-52.0,-269.0,921.0,-704.0,256.0,-221.0,0.0,0.0,0.0
19:33:11.009000,-58.0,-282.0,919.0,-704.0,256.0,-221.0,0.0,0.0,0.0
19:33:11.014000,-77.0,-288.0,885.0,-694.0,264.0,-208.0,0.0,0.0,0.0
19:33:11.018000,-105.0,-294.0,831.0,-694.0,264.0,-208.0,0.0,0.0,0.0
19:33:11.023000,-128.0,-298.0,770.0,-718.0,257.0,-189.0,0.0,0.0,0.0
19:33:11.028000,-144.0,-301.0,709.0,-718.0,257.0,-189.0,0.0,0.0,0.0
19:33:11.032000,-156.0,-301.0,646.0,-767.0,213.0,-169.0,0.0,0.0,0.0
19:33:11.037000,-169.0,-298.0,577.0,-767.0,213.0,-169.0,0.0,0.0,0.0
19:33:11.042000,-179.0,-296.0,515.0,-799.0,164.0,-142.0,0.0,0.0,0.0
19:33:11.046000,-175.0,-293.0,471.0,-799.0,164.0,-142.0,0.0,0.0,0.0
19:33:11.051000,-155.0,-286.0,436.0,-766.0,86.0,-108.0,0.0,0.0,0.0
19:33:11.056000,-132.0,-282.0,405.0,-766.0,86.0,-108.0,0.0,0.0,0.0
19:33:11.061000,-112.0,-273.0,383.0,-721.0,51.0,-71.0,0.0,0.0,0.0
19:33:11.065000,-93.0,-257.0,372.0,-721.0,51.0,-71.0,0.0,0.0,0.0
19:33:11.070000,-63.0,-241.0,357.0,-721.0,51.0,-71.0,0.0,0.0,0.0
19:33:11.075000,-40.0,-212.0,336.0,-701.0,57.0,-38.0,0.0,0.0,0.0
19:33:11.079000,-20.0,-177.0,317.0,-701.0,57.0,-38.0,0.0,0.0,0.0
19:33:11.084000,-2.0,-137.0,291.0,-696.0,59.0,-19.0,0.0,0.0,0.0
19:33:11.089000,1.0,-91.0,263.0,-696.0,59.0,-19.0,0.0,0.0,0.0
19:33:11.093000,25.0,-58.0,259.0,-768.0,106.0,-13.0,0.0,0.0,0.0
19:33:11.098000,52.0,-28.0,261.0,-768.0,106.0,-13.0,0.0,0.0,0.0
19:33:11.103000,71.0,-9.0,252.0,-877.0,99.0,9.0,0.0,0.0,0.0
19:33:11.108000,93.0,-3.0,291.0,-877.0,99.0,9.0,0.0,0.0,0.0
19:33:11.112000,118.0,-4.0,353.0,-868.0,44.0,48.0,0.0,0.0,0.0
19:33:11.117000,118.0,-4.0,353.0,-868.0,44.0,48.0,0.0,0.0,0.0
19:33:11.122000,124.0,0.0,401.0,-771.0,53.0,67.0,0.0,0.0,0.0
19:33:11.126000,121.0,11.0,424.0,-771.0,53.0,67.0,0.0,0.0,0.0
19:33:11.131000,88.0,37.0,450.0,-743.0,136.0,55.0,0.0,0.0,0.0
19:33:11.136000,53.0,58.0,488.0,-743.0,136.0,55.0,0.0,0.0,0.0
19:33:11.140000,38.0,52.0,478.0,-952.0,229.0,30.0,0.0,0.0,0.0
19:33:11.145000,-25.0,69.0,455.0,-952.0,229.0,30.0,0.0,0.0,0.0
19:33:11.150000,-30.0,97.0,519.0,-1011.0,167.0,-23.0,0.0,0.0,0.0
19:33:11.155000,72.0,105.0,508.0,-1011.0,167.0,-23.0,0.0,0.0,0.0
19:33:11.159000,137.0,140.0,324.0,-697.0,198.0,-101.0,0.0,0.0,0.0
19:33:11.164000,137.0,149.0,306.0,-697.0,198.0,-101.0,0.0,0.0,0.0
19:33:11.169000,153.0,165.0,417.0,-586.0,367.0,-156.0,0.0,0.0,0.0
19:33:11.173000,160.0,179.0,354.0,-586.0,367.0,-156.0,0.0,0.0,0.0
19:33:11.178000,151.0,203.0,253.0,-586.0,367.0,-156.0,0.0,0.0,0.0
19:33:11.183000,165.0,210.0,312.0,-752.0,443.0,-213.0,0.0,0.0,0.0
19:33:11.187000,172.0,200.0,406.0,-752.0,443.0,-213.0,0.0,0.0,0.0
19:33:11.192000,149.0,182.0,401.0,-949.0,523.0,-306.0,0.0,0.0,0.0
19:33:11.196000,112.0,152.0,360.0,-949.0,523.0,-306.0,0.0,0.0,0.0
19:33:11.202000,80.0,116.0,382.0,-1112.0,678.0,-384.0,0.0,0.0,0.0
19:33:11.206000,55.0,79.0,431.0,-1112.0,678.0,-384.0,0.0,0.0,0.0
19:33:11.211000,51.0,42.0,449.0,-1085.0,737.0,-415.0,0.0,0.0,0.0
19:33:11.216000,60.0,5.0,448.0,-1085.0,737.0,-415.0,0.0,0.0,0.0
19:33:11.220000,87.0,-30.0,438.0,-850.0,603.0,-408.0,0.0,0.0,0.0
19:33:11.225000,87.0,-30.0,438.0,-850.0,603.0,-408.0,0.0,0.0,0.0
19:33:11.230000,118.0,-66.0,375.0,-679.0,528.0,-376.0,0.0,0.0,0.0
19:33:11.234000,135.0,-101.0,287.0,-679.0,528.0,-376.0,0.0,0.0,0.0
19:33:11.239000,149.0,-129.0,228.0,-724.0,539.0,-317.0,0.0,0.0,0.0
19:33:11.244000,140.0,-154.0,174.0,-724.0,539.0,-317.0,0.0,0.0,0.0
19:33:11.249000,124.0,-173.0,120.0,-830.0,477.0,-211.0,0.0,0.0,0.0
19:33:11.253000,88.0,-187.0,119.0,-830.0,477.0,-211.0,0.0,0.0,0.0
19:33:11.258000,44.0,-199.0,135.0,-801.0,312.0,-99.0,0.0,0.0,0.0
19:33:11.263000,14.0,-198.0,142.0,-801.0,312.0,-99.0,0.0,0.0,0.0
19:33:11.267000,-21.0,-207.0,134.0,-814.0,203.0,-26.0,0.0,0.0,0.0
19:33:11.272000,-30.0,-195.0,77.0,-814.0,203.0,-26.0,0.0,0.0,0.0
19:33:11.276000,-48.0,-179.0,-92.0,-954.0,354.0,-20.0,0.0,0.0,0.0
19:33:11.281000,-88.0,-160.0,-277.0,-954.0,354.0,-20.0,0.0,0.0,0.0
19:33:11.286000,-119.0,-152.0,-394.0,-954.0,354.0,-20.0,0.0,0.0,0.0
19:33:11.291000,-101.0,-128.0,-478.0,-1191.0,549.0,-54.0,0.0,0.0,0.0
19:33:11.296000,-96.0,-107.0,-529.0,-1191.0,549.0,-54.0,0.0,0.0,0.0
19:33:11.300000,-109.0,-69.0,-604.0,-1424.0,560.0,-81.0,0.0,0.0,0.0
19:33:11.305000,-122.0,-31.0,-702.0,-1424.0,560.0,-81.0,0.0,0.0,0.0
19:33:11.310000,-72.0,0.0,-685.0,-1488.0,410.0,-101.0,0.0,0.0,0.0
19:33:11.314000,-51.0,53.0,-625.0,-1488.0,410.0,-101.0,0.0,0.0,0.0
19:33:11.319000,-22.0,93.0,-639.0,-1513.0,223.0,-102.0,0.0,0.0,0.0
19:33:11.324000,44.0,144.0,-739.0,-1513.0,223.0,-102.0,0.0,0.0,0.0
19:33:11.328000,44.0,144.0,-739.0,-1561.0,96.0,-101.0,0.0,0.0,0.0
19:33:11.333000,58.0,179.0,-724.0,-1561.0,96.0,-101.0,0.0,0.0,0.0
19:33:11.338000,66.0,212.0,-626.0,-1440.0,-24.0,-96.0,0.0,0.0,0.0
19:33:11.343000,102.0,242.0,-553.0,-1440.0,-24.0,-96.0,0.0,0.0,0.0
19:33:11.347000,103.0,273.0,-518.0,-1204.0,-79.0,-96.0,0.0,0.0,0.0
19:33:11.352000,137.0,287.0,-518.0,-1204.0,-79.0,-96.0,0.0,0.0,0.0
19:33:11.357000,146.0,294.0,-498.0,-1146.0,-45.0,-117.0,0.0,0.0,0.0
19:33:11.361000,135.0,309.0,-489.0,-1146.0,-45.0,-117.0,0.0,0.0,0.0
19:33:11.366000,156.0,317.0,-514.0,-1214.0,-35.0,-151.0,0.0,0.0,0.0
19:33:11.371000,143.0,322.0,-518.0,-1214.0,-35.0,-151.0,0.0,0.0,0.0
19:33:11.375000,116.0,323.0,-526.0,-1210.0,-67.0,-167.0,0.0,0.0,0.0
19:33:11.380000,108.0,324.0,-506.0,-1210.0,-67.0,-167.0,0.0,0.0,0.0
19:33:11.385000,107.0,319.0,-505.0,-1139.0,-67.0,-166.0,0.0,0.0,0.0
19:33:11.390000,98.0,312.0,-535.0,-1139.0,-67.0,-166.0,0.0,0.0,0.0
19:33:11.394000,88.0,302.0,-500.0,-1139.0,-109.0,-167.0,0.0,0.0,0.0
19:33:11.399000,91.0,289.0,-465.0,-1069.0,-109.0,-167.0,0.0,0.0,0.0
19:33:11.404000,102.0,271.0,-499.0,-1069.0,-109.0,-167.0,0.0,0.0,0.0
19:33:11.408000,93.0,259.0,-475.0,-1040.0,-193.0,-156.0,0.0,0.0,0.0
19:33:11.413000,137.0,243.0,-389.0,-1040.0,-193.0,-156.0,0.0,0.0,0.0
19:33:11.418000,168.0,218.0,-421.0,-1044.0,-260.0,-157.0,0.0,0.0,0.0
19:33:11.422000,170.0,199.0,-490.0,-1044.0,-260.0,-157.0,0.0,0.0,0.0
19:33:11.427000,175.0,186.0,-544.0,-1059.0,-191.0,-170.0,0.0,0.0,0.0
19:33:11.431000,175.0,186.0,-544.0,-1059.0,-191.0,-170.0,0.0,0.0,0.0
19:33:11.437000,177.0,161.0,-590.0,-1093.0,7.0,-179.0,0.0,0.0,0.0
19:33:11.441000,163.0,149.0,-567.0,-1093.0,7.0,-179.0,0.0,0.0,0.0
19:33:11.446000,163.0,149.0,-567.0,-1152.0,117.0,-187.0,0.0,0.0,0.0
19:33:11.451000,172.0,136.0,-569.0,-1152.0,117.0,-187.0,0.0,0.0,0.0
19:33:11.455000,191.0,125.0,-629.0,-1234.0,207.0,-191.0,0.0,0.0,0.0
19:33:11.460000,177.0,124.0,-693.0,-1234.0,207.0,-191.0,0.0,0.0,0.0
19:33:11.465000,159.0,128.0,-700.0,-1228.0,333.0,-197.0,0.0,0.0,0.0
19:33:11.469000,144.0,128.0,-609.0,-1228.0,333.0,-197.0,0.0,0.0,0.0
19:33:11.474000,95.0,132.0,-539.0,-1264.0,438.0,-208.0,0.0,0.0,0.0
19:33:11.479000,78.0,130.0,-481.0,-1264.0,438.0,-208.0,0.0,0.0,0.0
19:33:11.484000,32.0,133.0,-426.0,-1305.0,520.0,-208.0,0.0,0.0,0.0
19:33:11.488000,-10.0,130.0,-385.0,-1305.0,520.0,-208.0,0.0,0.0,0.0
19:33:11.493000,-34.0,130.0,-338.0,-1256.0,536.0,-208.0,0.0,0.0,0.0
19:33:11.498000,-30.0,128.0,-301.0,-1256.0,536.0,-208.0,0.0,0.0,0.0
19:33:11.502000,-47.0,125.0,-247.0,-1242.0,494.0,-215.0,0.0,0.0,0.0
19:33:11.507000,-46.0,118.0,-182.0,-1242.0,494.0,-215.0,0.0,0.0,0.0
19:33:11.512000,-16.0,109.0,-154.0,-1242.0,494.0,-215.0,0.0,0.0,0.0
19:33:11.516000,-32.0,105.0,-156.0,-1310.0,477.0,-223.0,0.0,0.0,0.0
19:33:11.521000,-30.0,98.0,-107.0,-1310.0,477.0,-223.0,0.0,0.0,0.0
19:33:11.526000,0.0,81.0,-44.0,-1319.0,455.0,-233.0,0.0,0.0,0.0
19:33:11.531000,-12.0,68.0,-52.0,-1319.0,455.0,-233.0,0.0,0.0,0.0
19:33:11.535000,-2.0,60.0,-53.0,-1276.0,494.0,-238.0,0.0,0.0,0.0
19:33:11.540000,15.0,51.0,32.0,-1276.0,494.0,-238.0,0.0,0.0,0.0
19:33:11.545000,18.0,48.0,101.0,-1318.0,564.0,-256.0,0.0,0.0,0.0
19:33:11.549000,11.0,41.0,109.0,-1318.0,564.0,-256.0,0.0,0.0,0.0
19:33:11.554000,11.0,41.0,109.0,-1380.0,556.0,-276.0,0.0,0.0,0.0
19:33:11.559000,11.0,34.0,100.0,-1380.0,556.0,-276.0,0.0,0.0,0.0
19:33:11.563000,0.0,25.0,101.0,-1444.0,565.0,-298.0,0.0,0.0,0.0
19:33:11.568000,-4.0,23.0,100.0,-1444.0,565.0,-298.0,0.0,0.0,0.0
19:33:11.573000,-47.0,25.0,84.0,-1444.0,580.0,-310.0,0.0,0.0,0.0
19:33:11.578000,-62.0,26.0,101.0,-1444.0,580.0,-310.0,0.0,0.0,0.0
19:33:11.582000,-65.0,21.0,158.0,-1413.0,583.0,-320.0,0.0,0.0,0.0
19:33:11.587000,-111.0,24.0,163.0,-1413.0,583.0,-320.0,0.0,0.0,0.0
19:33:11.592000,-114.0,28.0,98.0,-1452.0,515.0,-339.0,0.0,0.0,0.0
19:33:11.596000,-101.0,25.0,114.0,-1452.0,515.0,-339.0,0.0,0.0,0.0
19:33:11.601000,-122.0,21.0,149.0,-1463.0,435.0,-341.0,0.0,0.0,0.0
19:33:11.606000,-121.0,17.0,113.0,-1463.0,435.0,-341.0,0.0,0.0,0.0
19:33:11.610000,-112.0,7.0,99.0,-1417.0,427.0,-341.0,0.0,0.0,0.0
19:33:11.615000,-118.0,2.0,102.0,-1417.0,427.0,-341.0,0.0,0.0,0.0
19:33:11.620000,-119.0,-5.0,120.0,-1417.0,427.0,-341.0,0.0,0.0,0.0
19:33:11.625000,-90.0,-19.0,130.0,-1428.0,385.0,-347.0,0.0,0.0,0.0
19:33:11.629000,-97.0,-26.0,105.0,-1428.0,385.0,-347.0,0.0,0.0,0.0
19:33:11.634000,-100.0,-34.0,83.0,-1436.0,392.0,-347.0,0.0,0.0,0.0
19:33:11.639000,-86.0,-52.0,111.0,-1436.0,392.0,-347.0,0.0,0.0,0.0
19:33:11.643000,-70.0,-64.0,121.0,-1388.0,398.0,-352.0,0.0,0.0,0.0
19:33:11.648000,-30.0,-74.0,72.0,-1388.0,398.0,-352.0,0.0,0.0,0.0
19:33:11.653000,-3.0,-72.0,9.0,-1362.0,346.0,-356.0,0.0,0.0,0.0
19:33:11.657000,20.0,-63.0,-16.0,-1362.0,346.0,-356.0,0.0,0.0,0.0
19:33:11.662000,20.0,-63.0,-16.0,-1349.0,293.0,-342.0,0.0,0.0,0.0
19:33:11.666000,45.0,-58.0,18.0,-1349.0,293.0,-342.0,0.0,0.0,0.0
19:33:11.672000,23.0,-54.0,20.0,-1370.0,232.0,-311.0,0.0,0.0,0.0
19:33:11.676000,44.0,-69.0,-49.0,-1370.0,232.0,-311.0,0.0,0.0,0.0
19:33:11.681000,53.0,-62.0,-77.0,-1361.0,238.0,-291.0,0.0,0.0,0.0
19:33:11.686000,16.0,-68.0,-77.0,-1361.0,238.0,-291.0,0.0,0.0,0.0
19:33:11.690000,6.0,-65.0,-79.0,-1248.0,231.0,-279.0,0.0,0.0,0.0
19:33:11.695000,6.0,-60.0,-121.0,-1248.0,231.0,-279.0,0.0,0.0,0.0
19:33:11.700000,12.0,-72.0,-178.0,-1141.0,194.0,-247.0,0.0,0.0,0.0
19:33:11.704000,-38.0,-79.0,-234.0,-1141.0,194.0,-247.0,0.0,0.0,0.0
19:33:11.709000,-56.0,-67.0,-296.0,-1162.0,215.0,-227.0,0.0,0.0,0.0
19:33:11.714000,-51.0,-45.0,-331.0,-1162.0,215.0,-227.0,0.0,0.0,0.0
19:33:11.719000,-91.0,-29.0,-268.0,-1197.0,253.0,-220.0,0.0,0.0,0.0
19:33:11.723000,-79.0,-13.0,-214.0,-1197.0,253.0,-220.0,0.0,0.0,0.0
19:33:11.728000,-58.0,4.0,-281.0,-1197.0,253.0,-220.0,0.0,0.0,0.0
19:33:11.733000,-89.0,41.0,-385.0,-1219.0,282.0,-235.0,0.0,0.0,0.0
19:33:11.737000,-42.0,62.0,-425.0,-1219.0,282.0,-235.0,0.0,0.0,0.0
19:33:11.742000,-53.0,83.0,-427.0,-1300.0,289.0,-260.0,0.0,0.0,0.0
19:33:11.747000,-53.0,98.0,-440.0,-1300.0,289.0,-260.0,0.0,0.0,0.0
19:33:11.751000,-18.0,119.0,-430.0,-1263.0,369.0,-263.0,0.0,0.0,0.0
19:33:11.756000,-1.0,104.0,-360.0,-1263.0,369.0,-263.0,0.0,0.0,0.0
19:33:11.761000,13.0,110.0,-294.0,-1129.0,371.0,-240.0,0.0,0.0,0.0
19:33:11.766000,24.0,121.0,-280.0,-1129.0,371.0,-240.0,0.0,0.0,0.0
19:33:11.770000,24.0,121.0,-280.0,-993.0,419.0,-229.0,0.0,0.0,0.0
19:33:11.775000,46.0,142.0,-252.0,-993.0,419.0,-229.0,0.0,0.0,0.0
19:33:11.780000,67.0,145.0,-277.0,-975.0,493.0,-217.0,0.0,0.0,0.0
19:33:11.784000,88.0,118.0,-313.0,-975.0,493.0,-217.0,0.0,0.0,0.0
19:33:11.789000,119.0,105.0,-359.0,-926.0,357.0,-192.0,0.0,0.0,0.0
19:33:11.794000,135.0,95.0,-378.0,-926.0,357.0,-192.0,0.0,0.0,0.0
19:33:11.798000,96.0,81.0,-353.0,-808.0,409.0,-167.0,0.0,0.0,0.0
19:33:11.803000,67.0,63.0,-274.0,-808.0,409.0,-167.0,0.0,0.0,0.0
19:33:11.808000,22.0,44.0,-222.0,-822.0,613.0,-141.0,0.0,0.0,0.0
19:33:11.813000,-21.0,32.0,-223.0,-822.0,613.0,-141.0,0.0,0.0,0.0
19:33:11.817000,-65.0,18.0,-245.0,-774.0,662.0,-134.0,0.0,0.0,0.0
19:33:11.822000,-112.0,11.0,-203.0,-774.0,662.0,-134.0,0.0,0.0,0.0
19:33:11.827000,-158.0,1.0,-175.0,-755.0,606.0,-133.0,0.0,0.0,0.0
19:33:11.831000,-207.0,-14.0,-196.0,-755.0,606.0,-133.0,0.0,0.0,0.0
19:33:11.836000,-250.0,-19.0,-260.0,-755.0,606.0,-133.0,0.0,0.0,0.0
19:33:11.841000,-267.0,-23.0,-268.0,-829.0,555.0,-145.0,0.0,0.0,0.0
19:33:11.845000,-277.0,-33.0,-205.0,-829.0,555.0,-145.0,0.0,0.0,0.0
19:33:11.850000,-257.0,-37.0,-162.0,-786.0,502.0,-178.0,0.0,0.0,0.0
19:33:11.855000,-240.0,-35.0,-158.0,-786.0,502.0,-178.0,0.0,0.0,0.0
19:33:11.860000,-214.0,-36.0,-149.0,-698.0,474.0,-213.0,0.0,0.0,0.0
19:33:11.864000,-180.0,-38.0,-133.0,-698.0,474.0,-213.0,0.0,0.0,0.0
19:33:11.869000,-131.0,-46.0,-103.0,-690.0,432.0,-233.0,0.0,0.0,0.0
19:33:11.874000,-76.0,-58.0,-88.0,-690.0,432.0,-233.0,0.0,0.0,0.0
19:33:11.878000,-35.0,-73.0,-93.0,-727.0,345.0,-233.0,0.0,0.0,0.0
19:33:11.883000,-35.0,-73.0,-93.0,-727.0,345.0,-233.0,0.0,0.0,0.0
19:33:11.888000,0.0,-91.0,-78.0,-688.0,324.0,-223.0,0.0,0.0,0.0
19:33:11.892000,37.0,-109.0,-35.0,-688.0,324.0,-223.0,0.0,0.0,0.0
19:33:11.897000,62.0,-131.0,4.0,-557.0,388.0,-215.0,0.0,0.0,0.0
19:33:11.901000,64.0,-154.0,48.0,-557.0,388.0,-215.0,0.0,0.0,0.0
19:33:11.907000,60.0,-174.0,53.0,-470.0,488.0,-212.0,0.0,0.0,0.0
19:33:11.911000,39.0,-190.0,55.0,-470.0,488.0,-212.0,0.0,0.0,0.0
19:33:11.916000,2.0,-199.0,46.0,-437.0,577.0,-206.0,0.0,0.0,0.0
19:33:11.921000,-36.0,-202.0,45.0,-437.0,577.0,-206.0,0.0,0.0,0.0
19:33:11.925000,-77.0,-200.0,60.0,-419.0,619.0,-204.0,0.0,0.0,0.0
19:33:11.930000,-112.0,-191.0,30.0,-419.0,619.0,-204.0,0.0,0.0,0.0
19:33:11.935000,-158.0,-175.0,2.0,-432.0,649.0,-207.0,0.0,0.0,0.0
19:33:11.939000,-200.0,-154.0,5.0,-432.0,649.0,-207.0,0.0,0.0,0.0
19:33:11.944000,-223.0,-133.0,-1.0,-432.0,649.0,-207.0,0.0,0.0,0.0
19:33:11.949000,-238.0,-113.0,-18.0,-482.0,661.0,-212.0,0.0,0.0,0.0
19:33:11.954000,-233.0,-103.0,-10.0,-482.0,661.0,-212.0,0.0,0.0,0.0
19:33:11.958000,-215.0,-98.0,25.0,-533.0,603.0,-215.0,0.0,0.0,0.0
19:33:11.963000,-185.0,-101.0,81.0,-533.0,603.0,-215.0,0.0,0.0,0.0
19:33:11.968000,-152.0,-108.0,144.0,-524.0,503.0,-199.0,0.0,0.0,0.0
19:33:11.972000,-114.0,-117.0,217.0,-524.0,503.0,-199.0,0.0,0.0,0.0
19:33:11.977000,-81.0,-122.0,283.0,-463.0,413.0,-170.0,0.0,0.0,0.0
19:33:11.982000,-54.0,-125.0,322.0,-463.0,413.0,-170.0,0.0,0.0,0.0
19:33:11.986000,-41.0,-124.0,341.0,-422.0,392.0,-139.0,0.0,0.0,0.0
19:33:11.991000,-41.0,-124.0,341.0,-422.0,392.0,-139.0,0.0,0.0,0.0
19:33:11.996000,-41.0,-116.0,338.0,-426.0,426.0,-108.0,0.0,0.0,0.0
19:33:12.001000,-47.0,-105.0,318.0,-426.0,426.0,-108.0,0.0,0.0,0.0
19:33:12.005000,-53.0,-91.0,289.0,-445.0,439.0,-89.0,0.0,0.0,0.0
19:33:12.010000,-54.0,-79.0,249.0,-445.0,439.0,-89.0,0.0,0.0,0.0
19:33:12.015000,-52.0,-63.0,198.0,-479.0,440.0,-96.0,0.0,0.0,0.0
19:33:12.019000,-49.0,-48.0,158.0,-479.0,440.0,-96.0,0.0,0.0,0.0
19:33:12.024000,-44.0,-32.0,146.0,-532.0,441.0,-118.0,0.0,0.0,0.0
19:33:12.029000,-38.0,-16.0,133.0,-532.0,441.0,-118.0,0.0,0.0,0.0
19:33:12.033000,-34.0,0.0,129.0,-583.0,431.0,-137.0,0.0,0.0,0.0
19:33:12.038000,-31.0,11.0,137.0,-583.0,431.0,-137.0,0.0,0.0,0.0
19:33:12.043000,-34.0,18.0,149.0,-605.0,416.0,-145.0,0.0,0.0,0.0
19:33:12.048000,-35.0,21.0,172.0,-605.0,416.0,-145.0,0.0,0.0,0.0
19:33:12.052000,-38.0,25.0,196.0,-605.0,416.0,-145.0,0.0,0.0,0.0
19:33:12.057000,-37.0,30.0,208.0,-601.0,375.0,-146.0,0.0,0.0,0.0
19:33:12.062000,-41.0,35.0,194.0,-601.0,375.0,-146.0,0.0,0.0,0.0
19:33:12.066000,-45.0,38.0,158.0,-607.0,329.0,-148.0,0.0,0.0,0.0
19:33:12.071000,-49.0,42.0,109.0,-607.0,329.0,-148.0,0.0,0.0,0.0
19:33:12.076000,-51.0,48.0,53.0,-626.0,293.0,-151.0,0.0,0.0,0.0
19:33:12.080000,-53.0,55.0,7.0,-626.0,293.0,-151.0,0.0,0.0,0.0
19:33:12.085000,-57.0,62.0,-26.0,-631.0,256.0,-157.0,0.0,0.0,0.0
19:33:12.090000,-61.0,71.0,-61.0,-631.0,256.0,-157.0,0.0,0.0,0.0
19:33:12.095000,-62.0,84.0,-91.0,-636.0,237.0,-170.0,0.0,0.0,0.0
19:33:12.099000,-62.0,84.0,-91.0,-636.0,237.0,-170.0,0.0,0.0,0.0
19:33:12.104000,-60.0,98.0,-117.0,-661.0,227.0,-191.0,0.0,0.0,0.0
19:33:12.109000,-55.0,114.0,-137.0,-661.0,227.0,-191.0,0.0,0.0,0.0
19:33:12.113000,-47.0,128.0,-144.0,-696.0,210.0,-209.0,0.0,0.0,0.0
19:33:12.118000,-38.0,137.0,-128.0,-696.0,210.0,-209.0,0.0,0.0,0.0
19:33:12.123000,-34.0,141.0,-91.0,-720.0,188.0,-207.0,0.0,0.0,0.0
19:33:12.127000,-36.0,140.0,-42.0,-720.0,188.0,-207.0,0.0,0.0,0.0
19:33:12.132000,-46.0,137.0,-4.0,-724.0,163.0,-174.0,0.0,0.0,0.0
19:33:12.136000,-63.0,130.0,0.0,-724.0,163.0,-174.0,0.0,0.0,0.0
19:33:12.141000,-80.0,120.0,-29.0,-719.0,133.0,-119.0,0.0,0.0,0.0
19:33:12.146000,-95.0,107.0,-80.0,-719.0,133.0,-119.0,0.0,0.0,0.0
19:33:12.151000,-105.0,93.0,-133.0,-710.0,60.0,-63.0,0.0,0.0,0.0
19:33:12.156000,-101.0,80.0,-168.0,-710.0,60.0,-63.0,0.0,0.0,0.0
19:33:12.160000,-81.0,70.0,-196.0,-708.0,-63.0,-31.0,0.0,0.0,0.0
19:33:12.165000,-54.0,67.0,-228.0,-708.0,-63.0,-31.0,0.0,0.0,0.0
19:33:12.170000,-28.0,68.0,-268.0,-708.0,-63.0,-31.0,0.0,0.0,0.0
19:33:12.174000,-11.0,77.0,-311.0,-760.0,-124.0,-32.0,0.0,0.0,0.0
19:33:12.179000,0.0,88.0,-340.0,-760.0,-124.0,-32.0,0.0,0.0,0.0
19:33:12.184000,7.0,100.0,-352.0,-837.0,-74.0,-50.0,0.0,0.0,0.0
19:33:12.188000,17.0,112.0,-347.0,-837.0,-74.0,-50.0,0.0,0.0,0.0
19:33:12.193000,32.0,119.0,-331.0,-853.0,-13.0,-73.0,0.0,0.0,0.0
19:33:12.198000,48.0,121.0,-316.0,-853.0,-13.0,-73.0,0.0,0.0,0.0
19:33:12.203000,58.0,118.0,-305.0,-806.0,22.0,-96.0,0.0,0.0,0.0
19:33:12.207000,63.0,111.0,-291.0,-806.0,22.0,-96.0,0.0,0.0,0.0
19:33:12.212000,63.0,111.0,-291.0,-761.0,57.0,-111.0,0.0,0.0,0.0
19:33:12.217000,60.0,100.0,-277.0,-761.0,57.0,-111.0,0.0,0.0,0.0
19:33:12.221000,44.0,88.0,-272.0,-744.0,95.0,-110.0,0.0,0.0,0.0
19:33:12.226000,20.0,73.0,-282.0,-744.0,95.0,-110.0,0.0,0.0,0.0
19:33:12.231000,-3.0,55.0,-304.0,-733.0,107.0,-95.0,0.0,0.0,0.0
19:33:12.235000,-21.0,34.0,-331.0,-733.0,107.0,-95.0,0.0,0.0,0.0
19:33:12.240000,-30.0,16.0,-360.0,-723.0,70.0,-85.0,0.0,0.0,0.0
19:33:12.245000,-35.0,0.0,-385.0,-723.0,70.0,-85.0,0.0,0.0,0.0
19:33:12.250000,-36.0,-9.0,-406.0,-741.0,33.0,-92.0,0.0,0.0,0.0
19:33:12.254000,-33.0,-11.0,-428.0,-741.0,33.0,-92.0,0.0,0.0,0.0
19:33:12.259000,-28.0,-9.0,-446.0,-772.0,28.0,-118.0,0.0,0.0,0.0
19:33:12.264000,-14.0,-8.0,-450.0,-772.0,28.0,-118.0,0.0,0.0,0.0
19:33:12.268000,9.0,-4.0,-442.0,-780.0,29.0,-155.0,0.0,0.0,0.0
19:33:12.273000,37.0,-4.0,-423.0,-780.0,29.0,-155.0,0.0,0.0,0.0
19:33:12.278000,67.0,-10.0,-391.0,-780.0,29.0,-155.0,0.0,0.0,0.0
19:33:12.282000,95.0,-22.0,-349.0,-763.0,57.0,-189.0,0.0,0.0,0.0
19:33:12.287000,114.0,-40.0,-298.0,-735.0,145.0,-215.0,0.0,0.0,0.0
19:33:12.292000,118.0,-64.0,-233.0,-735.0,145.0,-215.0,0.0,0.0,0.0
19:33:12.297000,103.0,-93.0,-154.0,-735.0,145.0,-215.0,0.0,0.0,0.0
19:33:12.301000,77.0,-129.0,-66.0,-704.0,253.0,-221.0,0.0,0.0,0.0
19:33:12.306000,48.0,-168.0,18.0,-704.0,253.0,-221.0,0.0,0.0,0.0
19:33:12.311000,21.0,-206.0,86.0,-667.0,304.0,-212.0,0.0,0.0,0.0
19:33:12.315000,3.0,-244.0,140.0,-667.0,304.0,-212.0,0.0,0.0,0.0
19:33:12.320000,3.0,-244.0,140.0,-641.0,274.0,-203.0,0.0,0.0,0.0
19:33:12.325000,-2.0,-280.0,179.0,-641.0,274.0,-203.0,0.0,0.0,0.0
19:33:12.329000,3.0,-312.0,210.0,-646.0,191.0,-189.0,0.0,0.0,0.0
19:33:12.334000,21.0,-336.0,235.0,-646.0,191.0,-189.0,0.0,0.0,0.0
19:33:12.339000,39.0,-353.0,250.0,-675.0,132.0,-161.0,0.0,0.0,0.0
19:33:12.344000,49.0,-363.0,253.0,-675.0,132.0,-161.0,0.0,0.0,0.0
19:33:12.348000,44.0,-366.0,249.0,-723.0,188.0,-129.0,0.0,0.0,0.0
19:33:12.353000,23.0,-365.0,249.0,-723.0,188.0,-129.0,0.0,0.0,0.0
19:33:12.358000,-2.0,-358.0,259.0,-769.0,287.0,-109.0,0.0,0.0,0.0
19:33:12.362000,-25.0,-348.0,283.0,-769.0,287.0,-109.0,0.0,0.0,0.0
19:33:12.367000,-42.0,-336.0,317.0,-799.0,314.0,-100.0,0.0,0.0,0.0
19:33:12.371000,-51.0,-323.0,368.0,-799.0,314.0,-100.0,0.0,0.0,0.0
19:33:12.376000,-54.0,-308.0,438.0,-836.0,271.0,-87.0,0.0,0.0,0.0
19:33:12.381000,-53.0,-291.0,525.0,-836.0,271.0,-87.0,0.0,0.0,0.0
19:33:12.386000,-46.0,-273.0,622.0,-836.0,271.0,-87.0,0.0,0.0,0.0
19:33:12.391000,-33.0,-249.0,718.0,-901.0,182.0,-77.0,0.0,0.0,0.0
19:33:12.395000,-22.0,-224.0,793.0,-901.0,182.0,-77.0,0.0,0.0,0.0
19:33:12.400000,-14.0,-201.0,843.0,-982.0,84.0,-87.0,0.0,0.0,0.0
19:33:12.405000,-11.0,-179.0,865.0,-982.0,84.0,-87.0,0.0,0.0,0.0
19:33:12.409000,-15.0,-158.0,855.0,-1012.0,47.0,-113.0,0.0,0.0,0.0
19:33:12.414000,-19.0,-142.0,823.0,-1012.0,47.0,-113.0,0.0,0.0,0.0
19:33:12.419000,-21.0,-134.0,781.0,-942.0,64.0,-142.0,0.0,0.0,0.0
19:33:12.423000,-17.0,-133.0,730.0,-942.0,64.0,-142.0,0.0,0.0,0.0
19:33:12.428000,-17.0,-133.0,730.0,-818.0,77.0,-170.0,0.0,0.0,0.0
19:33:12.433000,-11.0,-141.0,682.0,-818.0,77.0,-170.0,0.0,0.0,0.0
19:33:12.438000,-9.0,-157.0,644.0,-705.0,95.0,-191.0,0.0,0.0,0.0
19:33:12.442000,-15.0,-180.0,631.0,-705.0,95.0,-191.0,0.0,0.0,0.0
19:33:12.447000,-23.0,-209.0,646.0,-629.0,108.0,-197.0,0.0,0.0,0.0
19:33:12.452000,-32.0,-242.0,672.0,-629.0,108.0,-197.0,0.0,0.0,0.0
19:33:12.456000,-47.0,-280.0,688.0,-623.0,123.0,-196.0,0.0,0.0,0.0
19:33:12.461000,-68.0,-320.0,690.0,-623.0,123.0,-196.0,0.0,0.0,0.0
19:33:12.466000,-93.0,-359.0,683.0,-668.0,170.0,-188.0,0.0,0.0,0.0
19:33:12.470000,-114.0,-394.0,669.0,-668.0,170.0,-188.0,0.0,0.0,0.0
19:33:12.475000,-129.0,-425.0,646.0,-697.0,184.0,-177.0,0.0,0.0,0.0
19:33:12.480000,-136.0,-448.0,613.0,-697.0,184.0,-177.0,0.0,0.0,0.0
19:33:12.485000,-136.0,-461.0,575.0,-724.0,162.0,-165.0,0.0,0.0,0.0
19:33:12.489000,-134.0,-466.0,531.0,-724.0,162.0,-165.0,0.0,0.0,0.0
19:33:12.494000,-132.0,-461.0,496.0,-724.0,162.0,-165.0,0.0,0.0,0.0
19:33:12.499000,-133.0,-447.0,472.0,-791.0,174.0,-154.0,0.0,0.0,0.0
19:33:12.503000,-132.0,-423.0,454.0,-791.0,174.0,-154.0,0.0,0.0,0.0
19:33:12.508000,-137.0,-391.0,434.0,-887.0,208.0,-141.0,0.0,0.0,0.0
19:33:12.513000,-141.0,-352.0,417.0,-887.0,208.0,-141.0,0.0,0.0,0.0
19:33:12.517000,-137.0,-310.0,407.0,-946.0,196.0,-122.0,0.0,0.0,0.0
19:33:12.522000,-127.0,-266.0,387.0,-946.0,196.0,-122.0,0.0,0.0,0.0
19:33:12.527000,-116.0,-219.0,347.0,-931.0,136.0,-105.0,0.0,0.0,0.0
19:33:12.532000,-109.0,-175.0,290.0,-931.0,136.0,-105.0,0.0,0.0,0.0
19:33:12.536000,-101.0,-130.0,222.0,-899.0,117.0,-94.0,0.0,0.0,0.0
19:33:12.541000,-101.0,-130.0,222.0,-899.0,117.0,-94.0,0.0,0.0,0.0
19:33:12.546000,-94.0,-84.0,149.0,-879.0,134.0,-88.0,0.0,0.0,0.0
19:33:12.550000,-86.0,-42.0,77.0,-879.0,134.0,-88.0,0.0,0.0,0.0
19:33:12.555000,-76.0,0.0,8.0,-845.0,123.0,-80.0,0.0,0.0,0.0
19:33:12.560000,-63.0,33.0,-52.0,-845.0,123.0,-80.0,0.0,0.0,0.0
19:33:12.564000,-43.0,60.0,-98.0,-771.0,86.0,-66.0,0.0,0.0,0.0
19:33:12.569000,-18.0,82.0,-126.0,-771.0,86.0,-66.0,0.0,0.0,0.0
19:33:12.574000,2.0,103.0,-141.0,-692.0,90.0,-54.0,0.0,0.0,0.0
19:33:12.579000,16.0,119.0,-143.0,-692.0,90.0,-54.0,0.0,0.0,0.0
19:33:12.583000,22.0,131.0,-137.0,-676.0,169.0,-45.0,0.0,0.0,0.0
19:33:12.588000,27.0,139.0,-123.0,-676.0,169.0,-45.0,0.0,0.0,0.0
19:33:12.593000,27.0,147.0,-95.0,-694.0,229.0,-49.0,0.0,0.0,0.0
19:33:12.597000,26.0,151.0,-39.0,-694.0,229.0,-49.0,0.0,0.0,0.0
19:33:12.602000,28.0,152.0,39.0,-694.0,229.0,-49.0,0.0,0.0,0.0
19:33:12.606000,33.0,152.0,117.0,-701.0,226.0,-65.0,0.0,0.0,0.0
19:33:12.611000,32.0,147.0,177.0,-701.0,226.0,-65.0,0.0,0.0,0.0
19:33:12.616000,28.0,135.0,241.0,-724.0,233.0,-76.0,0.0,0.0,0.0
19:33:12.621000,37.0,119.0,330.0,-724.0,233.0,-76.0,0.0,0.0,0.0
19:33:12.626000,64.0,99.0,420.0,-738.0,215.0,-78.0,0.0,0.0,0.0
19:33:12.630000,88.0,81.0,472.0,-738.0,215.0,-78.0,0.0,0.0,0.0
19:33:12.635000,103.0,62.0,496.0,-717.0,171.0,-78.0,0.0,0.0,0.0
19:33:12.640000,103.0,47.0,517.0,-717.0,171.0,-78.0,0.0,0.0,0.0
19:33:12.644000,94.0,32.0,539.0,-688.0,190.0,-69.0,0.0,0.0,0.0
