hh:mm:ss.ms,gyroX[mdps],gyroY[mdps],gyroZ[mdps],accX[mg],accY[mg],accZ[mg],magX[mG],magY[mG],magZ[mG]
19:32:41.626000,308.0,-176.0,81.0,-546.0,443.0,-232.0,0.0,0.0,0.0
19:32:41.631000,289.0,-203.0,83.0,-479.0,508.0,-195.0,0.0,0.0,0.0
19:32:41.636000,249.0,-225.0,105.0,-479.0,508.0,-195.0,0.0,0.0,0.0
19:32:41.640000,179.0,-238.0,135.0,-432.0,610.0,-150.0,0.0,0.0,0.0
19:32:41.645000,101.0,-238.0,149.0,-432.0,610.0,-150.0,0.0,0.0,0.0
19:32:41.650000,101.0,-238.0,149.0,-428.0,738.0,-99.0,0.0,0.0,0.0
19:32:41.654000,11.0,-228.0,132.0,-428.0,738.0,-99.0,0.0,0.0,0.0
19:32:41.659000,-74.0,-207.0,107.0,-451.0,789.0,-72.0,0.0,0.0,0.0
19:32:41.664000,-154.0,-178.0,100.0,-451.0,789.0,-72.0,0.0,0.0,0.0
19:32:41.669000,-219.0,-142.0,119.0,-502.0,693.0,-84.0,0.0,0.0,0.0
19:32:41.673000,-262.0,-99.0,140.0,-502.0,693.0,-84.0,0.0,0.0,0.0
19:32:41.678000,-278.0,-54.0,141.0,-591.0,499.0,-122.0,0.0,0.0,0.0
19:32:41.683000,-264.0,-20.0,145.0,-591.0,499.0,-122.0,0.0,0.0,0.0
19:32:41.687000,-216.0,2.0,156.0,-621.0,244.0,-159.0,0.0,0.0,0.0
19:32:41.692000,-146.0,8.0,159.0,-621.0,244.0,-159.0,0.0,0.0,0.0
19:32:41.697000,-62.0,0.0,141.0,-558.0,50.0,-175.0,0.0,0.0,0.0
19:32:41.701000,16.0,-16.0,114.0,-558.0,50.0,-175.0,0.0,0.0,0.0
19:32:41.706000,70.0,-41.0,88.0,-464.0,65.0,-166.0,0.0,0.0,0.0
19:32:41.720000,60.0,-120.0,18.0,-384.0,238.0,-142.0,0.0,0.0,0.0
19:32:41.725000,21.0,-142.0,-14.0,-384.0,238.0,-142.0,0.0,0.0,0.0
19:32:41.730000,-14.0,-158.0,-47.0,-353.0,408.0,-126.0,0.0,0.0,0.0
19:32:41.734000,-44.0,-166.0,-77.0,-353.0,408.0,-126.0,0.0,0.0,0.0
19:32:41.739000,-65.0,-170.0,-98.0,-405.0,485.0,-129.0,0.0,0.0,0.0
19:32:41.744000,-74.0,-167.0,-107.0,-405.0,485.0,-129.0,0.0,0.0,0.0
19:32:41.748000,-72.0,-161.0,-105.0,-548.0,478.0,-141.0,0.0,0.0,0.0
19:32:41.753000,-61.0,-153.0,-90.0,-548.0,478.0,-141.0,0.0,0.0,0.0
19:32:41.758000,-48.0,-145.0,-69.0,-700.0,415.0,-147.0,0.0,0.0,0.0
19:32:41.763000,-48.0,-145.0,-69.0,-700.0,415.0,-147.0,0.0,0.0,0.0
19:32:41.767000,-38.0,-139.0,-55.0,-768.0,362.0,-140.0,0.0,0.0,0.0
19:32:41.772000,-37.0,-134.0,-45.0,-768.0,362.0,-140.0,0.0,0.0,0.0
19:32:41.777000,-49.0,-131.0,-42.0,-755.0,370.0,-118.0,0.0,0.0,0.0
19:32:41.781000,-67.0,-129.0,-44.0,-755.0,370.0,-118.0,0.0,0.0,0.0
19:32:41.786000,-88.0,-127.0,-49.0,-707.0,364.0,-94.0,0.0,0.0,0.0
19:32:41.791000,-109.0,-123.0,-61.0,-707.0,364.0,-94.0,0.0,0.0,0.0
19:32:41.795000,-130.0,-118.0,-86.0,-672.0,317.0,-78.0,0.0,0.0,0.0
19:32:41.800000,-149.0,-110.0,-114.0,-672.0,317.0,-78.0,0.0,0.0,0.0
19:32:41.805000,-159.0,-99.0,-135.0,-668.0,250.0,-75.0,0.0,0.0,0.0
19:32:41.810000,-156.0,-87.0,-146.0,-668.0,250.0,-75.0,0.0,0.0,0.0
19:32:41.814000,-144.0,-74.0,-147.0,-701.0,161.0,-80.0,0.0,0.0,0.0
19:32:41.819000,-125.0,-62.0,-141.0,-701.0,161.0,-80.0,0.0,0.0,0.0
19:32:41.824000,-100.0,-51.0,-129.0,-701.0,161.0,-80.0,0.0,0.0,0.0
19:32:41.828000,-77.0,-48.0,-114.0,-742.0,82.0,-86.0,0.0,0.0,0.0
19:32:41.833000,-65.0,-49.0,-94.0,-742.0,82.0,-86.0,0.0,0.0,0.0
19:32:41.838000,-72.0,-53.0,-67.0,-747.0,86.0,-85.0,0.0,0.0,0.0
19:32:41.842000,-97.0,-62.0,-40.0,-747.0,86.0,-85.0,0.0,0.0,0.0
19:32:41.847000,-126.0,-74.0,-16.0,-717.0,149.0,-67.0,0.0,0.0,0.0
19:32:41.851000,-151.0,-92.0,0.0,-717.0,149.0,-67.0,0.0,0.0,0.0
19:32:41.857000,-172.0,-111.0,-2.0,-659.0,138.0,-34.0,0.0,0.0,0.0
19:32:41.861000,-198.0,-128.0,-21.0,-659.0,138.0,-34.0,0.0,0.0,0.0
19:32:41.866000,-226.0,-142.0,-42.0,-626.0,94.0,-2.0,0.0,0.0,0.0
19:32:41.871000,-226.0,-142.0,-42.0,-626.0,94.0,-2.0,0.0,0.0,0.0
19:32:41.875000,-244.0,-150.0,-63.0,-646.0,65.0,18.0,0.0,0.0,0.0
19:32:41.880000,-242.0,-151.0,-81.0,-646.0,65.0,18.0,0.0,0.0,0.0
19:32:41.885000,-224.0,-147.0,-100.0,-692.0,3.0,14.0,0.0,0.0,0.0
19:32:41.889000,-199.0,-137.0,-114.0,-692.0,3.0,14.0,0.0,0.0,0.0
19:32:41.894000,-172.0,-124.0,-112.0,-757.0,-35.0,-5.0,0.0,0.0,0.0
19:32:41.899000,-142.0,-107.0,-98.0,-757.0,-35.0,-5.0,0.0,0.0,0.0
19:32:41.904000,-110.0,-90.0,-86.0,-804.0,-39.0,-27.0,0.0,0.0,0.0
19:32:41.908000,-78.0,-73.0,-85.0,-804.0,-39.0,-27.0,0.0,0.0,0.0
19:32:41.913000,-53.0,-61.0,-86.0,-800.0,-12.0,-43.0,0.0,0.0,0.0
19:32:41.918000,-39.0,-49.0,-79.0,-800.0,-12.0,-43.0,0.0,0.0,0.0
19:32:41.922000,-38.0,-38.0,-71.0,-761.0,49.0,-41.0,0.0,0.0,0.0
19:32:41.927000,-43.0,-33.0,-72.0,-761.0,49.0,-41.0,0.0,0.0,0.0
19:32:41.932000,-46.0,-35.0,-82.0,-761.0,49.0,-41.0,0.0,0.0,0.0
19:32:41.936000,-46.0,-44.0,-95.0,-712.0,86.0,-35.0,0.0,0.0,0.0
19:32:41.941000,-43.0,-58.0,-102.0,-712.0,86.0,-35.0,0.0,0.0,0.0
19:32:41.946000,-43.0,-75.0,-98.0,-685.0,96.0,-48.0,0.0,0.0,0.0
19:32:41.951000,-45.0,-96.0,-84.0,-685.0,96.0,-48.0,0.0,0.0,0.0
19:32:41.955000,-48.0,-116.0,-56.0,-688.0,134.0,-72.0,0.0,0.0,0.0
19:32:41.959000,-50.0,-137.0,-16.0,-688.0,134.0,-72.0,0.0,0.0,0.0
19:32:41.965000,-51.0,-156.0,30.0,-706.0,176.0,-98.0,0.0,0.0,0.0
19:32:41.969000,-47.0,-172.0,77.0,-706.0,176.0,-98.0,0.0,0.0,0.0
19:32:41.974000,-38.0,-184.0,129.0,-746.0,175.0,-125.0,0.0,0.0,0.0
19:32:41.979000,-38.0,-184.0,129.0,-746.0,175.0,-125.0,0.0,0.0,0.0
19:32:41.983000,-23.0,-193.0,186.0,-795.0,103.0,-144.0,0.0,0.0,0.0
19:32:41.988000,-1.0,-200.0,243.0,-795.0,103.0,-144.0,0.0,0.0,0.0
19:32:41.993000,23.0,-205.0,294.0,-838.0,0.0,-144.0,0.0,0.0,0.0
19:32:41.998000,45.0,-207.0,329.0,-838.0,0.0,-144.0,0.0,0.0,0.0
19:32:42.002000,58.0,-206.0,344.0,-883.0,-15.0,-132.0,0.0,0.0,0.0
19:32:42.007000,57.0,-206.0,344.0,-883.0,-15.0,-132.0,0.0,0.0,0.0
19:32:42.012000,40.0,-207.0,335.0,-901.0,95.0,-109.0,0.0,0.0,0.0
19:32:42.016000,9.0,-210.0,333.0,-901.0,95.0,-109.0,0.0,0.0,0.0
19:32:42.021000,-28.0,-212.0,343.0,-869.0,210.0,-78.0,0.0,0.0,0.0
19:32:42.026000,-67.0,-215.0,359.0,-869.0,210.0,-78.0,0.0,0.0,0.0
19:32:42.030000,-100.0,-219.0,378.0,-821.0,213.0,-55.0,0.0,0.0,0.0
19:32:42.035000,-121.0,-221.0,399.0,-821.0,213.0,-55.0,0.0,0.0,0.0
19:32:42.040000,-130.0,-221.0,422.0,-829.0,139.0,-54.0,0.0,0.0,0.0
19:32:42.045000,-137.0,-216.0,443.0,-829.0,139.0,-54.0,0.0,0.0,0.0
19:32:42.049000,-145.0,-208.0,462.0,-829.0,139.0,-54.0,0.0,0.0,0.0
19:32:42.054000,-156.0,-198.0,476.0,-887.0,88.0,-71.0,0.0,0.0,0.0
19:32:42.059000,-170.0,-186.0,489.0,-887.0,88.0,-71.0,0.0,0.0,0.0
19:32:42.063000,-179.0,-174.0,502.0,-903.0,79.0,-91.0,0.0,0.0,0.0
19:32:42.068000,-182.0,-163.0,513.0,-903.0,79.0,-91.0,0.0,0.0,0.0
19:32:42.073000,-175.0,-152.0,517.0,-854.0,51.0,-109.0,0.0,0.0,0.0
19:32:42.077000,-161.0,-143.0,518.0,-854.0,51.0,-109.0,0.0,0.0,0.0
19:32:42.082000,-147.0,-133.0,522.0,-810.0,20.0,-133.0,0.0,0.0,0.0
19:32:42.086000,-147.0,-133.0,522.0,-810.0,20.0,-133.0,0.0,0.0,0.0
19:32:42.092000,-138.0,-123.0,532.0,-796.0,43.0,-155.0,0.0,0.0,0.0
19:32:42.096000,-134.0,-119.0,552.0,-796.0,43.0,-155.0,0.0,0.0,0.0
19:32:42.101000,-127.0,-117.0,587.0,-758.0,60.0,-165.0,0.0,0.0,0.0
19:32:42.106000,-111.0,-121.0,631.0,-758.0,60.0,-165.0,0.0,0.0,0.0
19:32:42.110000,-88.0,-125.0,671.0,-716.0,50.0,-172.0,0.0,0.0,0.0
19:32:42.115000,-71.0,-130.0,700.0,-716.0,50.0,-172.0,0.0,0.0,0.0
19:32:42.120000,-59.0,-137.0,721.0,-723.0,78.0,-175.0,0.0,0.0,0.0
19:32:42.124000,-49.0,-147.0,739.0,-723.0,78.0,-175.0,0.0,0.0,0.0
19:32:42.129000,-38.0,-156.0,752.0,-723.0,112.0,-172.0,0.0,0.0,0.0
19:32:42.134000,-28.0,-164.0,758.0,-723.0,112.0,-172.0,0.0,0.0,0.0
19:32:42.139000,-21.0,-171.0,758.0,-710.0,150.0,-172.0,0.0,0.0,0.0
19:32:42.143000,-16.0,-177.0,758.0,-710.0,150.0,-172.0,0.0,0.0,0.0
19:32:42.148000,-21.0,-181.0,752.0,-736.0,216.0,-176.0,0.0,0.0,0.0
19:32:42.153000,-24.0,-185.0,746.0,-736.0,216.0,-176.0,0.0,0.0,0.0
19:32:42.157000,-28.0,-189.0,745.0,-736.0,216.0,-176.0,0.0,0.0,0.0
19:32:42.162000,-30.0,-190.0,751.0,-788.0,244.0,-186.0,0.0,0.0,0.0
19:32:42.167000,-33.0,-188.0,765.0,-788.0,244.0,-186.0,0.0,0.0,0.0
19:32:42.171000,-43.0,-184.0,777.0,-838.0,222.0,-200.0,0.0,0.0,0.0
19:32:42.176000,-60.0,-177.0,776.0,-838.0,222.0,-200.0,0.0,0.0,0.0
19:32:42.181000,-82.0,-173.0,766.0,-891.0,215.0,-212.0,0.0,0.0,0.0
19:32:42.186000,-105.0,-170.0,754.0,-891.0,215.0,-212.0,0.0,0.0,0.0
19:32:42.190000,-126.0,-159.0,742.0,-936.0,215.0,-222.0,0.0,0.0,0.0
19:32:42.195000,-149.0,-135.0,732.0,-936.0,215.0,-222.0,0.0,0.0,0.0
19:32:42.200000,-149.0,-135.0,732.0,-992.0,195.0,-233.0,0.0,0.0,0.0
19:32:42.204000,-170.0,-112.0,736.0,-992.0,195.0,-233.0,0.0,0.0,0.0
19:32:42.209000,-184.0,-93.0,753.0,-1076.0,131.0,-235.0,0.0,0.0,0.0
19:32:42.214000,-191.0,-74.0,765.0,-1076.0,131.0,-235.0,0.0,0.0,0.0
19:32:42.218000,-186.0,-58.0,756.0,-1102.0,21.0,-228.0,0.0,0.0,0.0
19:32:42.223000,-181.0,-41.0,730.0,-1102.0,21.0,-228.0,0.0,0.0,0.0
19:32:42.228000,-170.0,-25.0,713.0,-1012.0,-59.0,-211.0,0.0,0.0,0.0
19:32:42.233000,-153.0,-13.0,699.0,-1012.0,-59.0,-211.0,0.0,0.0,0.0
19:32:42.237000,-134.0,-3.0,671.0,-895.0,-81.0,-186.0,0.0,0.0,0.0
19:32:42.242000,-109.0,2.0,630.0,-895.0,-81.0,-186.0,0.0,0.0,0.0
19:32:42.247000,-74.0,4.0,582.0,-832.0,-101.0,-157.0,0.0,0.0,0.0
19:32:42.251000,-37.0,-4.0,534.0,-832.0,-101.0,-157.0,0.0,0.0,0.0
19:32:42.256000,-6.0,-8.0,505.0,-741.0,-105.0,-126.0,0.0,0.0,0.0
19:32:42.261000,17.0,-14.0,457.0,-741.0,-105.0,-126.0,0.0,0.0,0.0
19:32:42.265000,32.0,-22.0,382.0,-741.0,-105.0,-126.0,0.0,0.0,0.0
19:32:42.270000,47.0,-37.0,319.0,-662.0,-29.0,-85.0,0.0,0.0,0.0
19:32:42.275000,58.0,-49.0,291.0,-662.0,-29.0,-85.0,0.0,0.0,0.0
19:32:42.280000,71.0,-65.0,281.0,-642.0,28.0,-39.0,0.0,0.0,0.0
19:32:42.284000,92.0,-85.0,238.0,-642.0,28.0,-39.0,0.0,0.0,0.0
19:32:42.289000,109.0,-110.0,186.0,-631.0,42.0,-8.0,0.0,0.0,0.0
19:32:42.294000,131.0,-126.0,173.0,-631.0,42.0,-8.0,0.0,0.0,0.0
19:32:42.298000,146.0,-135.0,149.0,-645.0,30.0,-11.0,0.0,0.0,0.0
19:32:42.303000,176.0,-145.0,159.0,-645.0,30.0,-11.0,0.0,0.0,0.0
19:32:42.308000,176.0,-145.0,159.0,-804.0,7.0,-18.0,0.0,0.0,0.0
19:32:42.312000,189.0,-151.0,328.0,-804.0,7.0,-18.0,0.0,0.0,0.0
19:32:42.317000,216.0,-156.0,485.0,-926.0,-1.0,-4.0,0.0,0.0,0.0
19:32:42.322000,259.0,-151.0,476.0,-926.0,-1.0,-4.0,0.0,0.0,0.0
19:32:42.327000,298.0,-117.0,323.0,-814.0,15.0,11.0,0.0,0.0,0.0
19:32:42.331000,280.0,-92.0,233.0,-814.0,15.0,11.0,0.0,0.0,0.0
19:32:42.336000,247.0,-61.0,296.0,-670.0,49.0,24.0,0.0,0.0,0.0
19:32:42.341000,200.0,-28.0,294.0,-670.0,49.0,24.0,0.0,0.0,0.0
19:32:42.345000,182.0,-6.0,217.0,-648.0,115.0,9.0,0.0,0.0,0.0
19:32:42.350000,170.0,11.0,126.0,-648.0,115.0,9.0,0.0,0.0,0.0
19:32:42.355000,163.0,28.0,79.0,-699.0,181.0,-41.0,0.0,0.0,0.0
19:32:42.359000,174.0,41.0,27.0,-699.0,181.0,-41.0,0.0,0.0,0.0
19:32:42.364000,193.0,57.0,-93.0,-721.0,190.0,-108.0,0.0,0.0,0.0
19:32:42.369000,222.0,73.0,-214.0,-721.0,190.0,-108.0,0.0,0.0,0.0
19:32:42.374000,252.0,86.0,-279.0,-721.0,190.0,-108.0,0.0,0.0,0.0
19:32:42.378000,274.0,91.0,-276.0,-749.0,203.0,-177.0,0.0,0.0,0.0
19:32:42.383000,298.0,85.0,-217.0,-835.0,242.0,-234.0,0.0,0.0,0.0
19:32:42.388000,308.0,80.0,-156.0,-835.0,242.0,-234.0,0.0,0.0,0.0
19:32:42.392000,315.0,74.0,-167.0,-835.0,242.0,-234.0,0.0,0.0,0.0
19:32:42.397000,288.0,62.0,-203.0,-913.0,409.0,-291.0,0.0,0.0,0.0
19:32:42.402000,256.0,31.0,-192.0,-913.0,409.0,-291.0,0.0,0.0,0.0
19:32:42.406000,215.0,-6.0,-175.0,-914.0,690.0,-326.0,0.0,0.0,0.0
19:32:42.411000,142.0,-44.0,-149.0,-914.0,690.0,-326.0,0.0,0.0,0.0
19:32:42.416000,97.0,-90.0,-144.0,-894.0,915.0,-327.0,0.0,0.0,0.0
19:32:42.421000,97.0,-90.0,-144.0,-894.0,915.0,-327.0,0.0,0.0,0.0
19:32:42.425000,60.0,-135.0,-126.0,-913.0,950.0,-321.0,0.0,0.0,0.0
19:32:42.430000,16.0,-178.0,-67.0,-913.0,950.0,-321.0,0.0,0.0,0.0
19:32:42.435000,-15.0,-217.0,2.0,-931.0,848.0,-306.0,0.0,0.0,0.0
19:32:42.439000,-31.0,-251.0,52.0,-931.0,848.0,-306.0,0.0,0.0,0.0
19:32:42.443000,-58.0,-279.0,82.0,-991.0,753.0,-267.0,0.0,0.0,0.0
19:32:42.449000,-88.0,-298.0,112.0,-991.0,753.0,-267.0,0.0,0.0,0.0
19:32:42.453000,-68.0,-317.0,116.0,-1131.0,635.0,-203.0,0.0,0.0,0.0
19:32:42.458000,-77.0,-295.0,52.0,-1131.0,635.0,-203.0,0.0,0.0,0.0
19:32:42.463000,-91.0,-265.0,-45.0,-1275.0,487.0,-148.0,0.0,0.0,0.0
19:32:42.468000,-105.0,-225.0,-121.0,-1275.0,487.0,-148.0,0.0,0.0,0.0
19:32:42.472000,-62.0,-189.0,-121.0,-1390.0,310.0,-128.0,0.0,0.0,0.0
19:32:42.477000,-20.0,-130.0,-164.0,-1390.0,310.0,-128.0,0.0,0.0,0.0
19:32:42.482000,-49.0,-93.0,-338.0,-1390.0,310.0,-128.0,0.0,0.0,0.0
19:32:42.486000,-49.0,-44.0,-514.0,-1439.0,198.0,-83.0,0.0,0.0,0.0
19:32:42.491000,37.0,-7.0,-597.0,-1439.0,198.0,-83.0,0.0,0.0,0.0
19:32:42.496000,34.0,53.0,-576.0,-1380.0,74.0,-44.0,0.0,0.0,0.0
19:32:42.500000,-2.0,67.0,-531.0,-1380.0,74.0,-44.0,0.0,0.0,0.0
19:32:42.505000,13.0,102.0,-611.0,-1295.0,-91.0,-15.0,0.0,0.0,0.0
19:32:42.510000,0.0,133.0,-662.0,-1295.0,-91.0,-15.0,0.0,0.0,0.0
19:32:42.515000,-16.0,150.0,-568.0,-1287.0,-133.0,25.0,0.0,0.0,0.0
19:32:42.519000,-4.0,172.0,-458.0,-1287.0,-133.0,25.0,0.0,0.0,0.0
19:32:42.524000,2.0,185.0,-438.0,-1267.0,-143.0,26.0,0.0,0.0,0.0
19:32:42.529000,2.0,185.0,-438.0,-1267.0,-143.0,26.0,0.0,0.0,0.0
19:32:42.533000,-22.0,212.0,-416.0,-1223.0,-183.0,25.0,0.0,0.0,0.0
19:32:42.538000,0.0,227.0,-441.0,-1223.0,-183.0,25.0,0.0,0.0,0.0
19:32:42.543000,10.0,235.0,-496.0,-1161.0,-244.0,24.0,0.0,0.0,0.0
19:32:42.547000,22.0,251.0,-514.0,-1161.0,-244.0,24.0,0.0,0.0,0.0
19:32:42.552000,21.0,271.0,-523.0,-1101.0,-221.0,-2.0,0.0,0.0,0.0
19:32:42.556000,25.0,282.0,-548.0,-1101.0,-221.0,-2.0,0.0,0.0,0.0
19:32:42.566000,1.0,307.0,-617.0,-1160.0,-71.0,-49.0,0.0,0.0,0.0
19:32:42.571000,-17.0,323.0,-666.0,-1285.0,47.0,-92.0,0.0,0.0,0.0
19:32:42.576000,-7.0,330.0,-683.0,-1285.0,47.0,-92.0,0.0,0.0,0.0
19:32:42.580000,-3.0,347.0,-694.0,-1377.0,73.0,-130.0,0.0,0.0,0.0
19:32:42.585000,-9.0,361.0,-680.0,-1377.0,73.0,-130.0,0.0,0.0,0.0
19:32:42.590000,1.0,368.0,-627.0,-1377.0,73.0,-130.0,0.0,0.0,0.0
19:32:42.594000,14.0,376.0,-595.0,-1397.0,84.0,-156.0,0.0,0.0,0.0
19:32:42.599000,43.0,389.0,-614.0,-1397.0,84.0,-156.0,0.0,0.0,0.0
19:32:42.604000,106.0,394.0,-632.0,-1370.0,30.0,-168.0,0.0,0.0,0.0
19:32:42.609000,163.0,396.0,-670.0,-1370.0,30.0,-168.0,0.0,0.0,0.0
19:32:42.613000,203.0,398.0,-715.0,-1322.0,-6.0,-183.0,0.0,0.0,0.0
19:32:42.618000,260.0,392.0,-753.0,-1322.0,-6.0,-183.0,0.0,0.0,0.0
19:32:42.623000,261.0,382.0,-753.0,-1243.0,85.0,-186.0,0.0,0.0,0.0
19:32:42.627000,261.0,382.0,-753.0,-1243.0,85.0,-186.0,0.0,0.0,0.0
19:32:42.632000,268.0,353.0,-585.0,-1193.0,160.0,-187.0,0.0,0.0,0.0
19:32:42.637000,268.0,353.0,-585.0,-1193.0,160.0,-187.0,0.0,0.0,0.0
19:32:42.641000,302.0,331.0,-596.0,-1233.0,176.0,-204.0,0.0,0.0,0.0
19:32:42.646000,266.0,312.0,-555.0,-1233.0,176.0,-204.0,0.0,0.0,0.0
19:32:42.651000,277.0,292.0,-541.0,-1278.0,260.0,-238.0,0.0,0.0,0.0
19:32:42.656000,250.0,277.0,-541.0,-1278.0,260.0,-238.0,0.0,0.0,0.0
19:32:42.660000,215.0,261.0,-541.0,-1228.0,374.0,-265.0,0.0,0.0,0.0
19:32:42.665000,191.0,245.0,-525.0,-1228.0,374.0,-265.0,0.0,0.0,0.0
19:32:42.670000,191.0,222.0,-508.0,-1168.0,458.0,-278.0,0.0,0.0,0.0
19:32:42.674000,164.0,206.0,-503.0,-1168.0,458.0,-278.0,0.0,0.0,0.0
19:32:42.679000,135.0,192.0,-494.0,-1128.0,467.0,-275.0,0.0,0.0,0.0
19:32:42.684000,137.0,184.0,-431.0,-1128.0,467.0,-275.0,0.0,0.0,0.0
19:32:42.688000,144.0,163.0,-415.0,-1153.0,397.0,-245.0,0.0,0.0,0.0
19:32:42.693000,137.0,152.0,-482.0,-1153.0,397.0,-245.0,0.0,0.0,0.0
19:32:42.698000,125.0,130.0,-486.0,-1153.0,388.0,-245.0,0.0,0.0,0.0
19:32:42.703000,149.0,100.0,-394.0,-1196.0,388.0,-239.0,0.0,0.0,0.0
19:32:42.707000,126.0,75.0,-276.0,-1196.0,388.0,-239.0,0.0,0.0,0.0
19:32:42.712000,110.0,58.0,-197.0,-1103.0,463.0,-245.0,0.0,0.0,0.0
19:32:42.717000,112.0,43.0,-163.0,-1103.0,463.0,-245.0,0.0,0.0,0.0
19:32:42.721000,74.0,28.0,-193.0,-1068.0,515.0,-195.0,0.0,0.0,0.0
19:32:42.726000,71.0,30.0,-284.0,-1068.0,515.0,-195.0,0.0,0.0,0.0
19:32:42.731000,55.0,34.0,-407.0,-1227.0,520.0,-165.0,0.0,0.0,0.0
19:32:42.735000,65.0,52.0,-451.0,-1227.0,520.0,-165.0,0.0,0.0,0.0
19:32:42.740000,58.0,70.0,-329.0,-1421.0,589.0,-224.0,0.0,0.0,0.0
19:32:42.745000,58.0,70.0,-329.0,-1421.0,589.0,-224.0,0.0,0.0,0.0
19:32:42.750000,-28.0,77.0,-159.0,-1516.0,773.0,-280.0,0.0,0.0,0.0
19:32:42.754000,-132.0,80.0,-79.0,-1516.0,773.0,-280.0,0.0,0.0,0.0
19:32:42.759000,-200.0,83.0,-52.0,-1417.0,835.0,-283.0,0.0,0.0,0.0
19:32:42.764000,-218.0,80.0,-41.0,-1417.0,835.0,-283.0,0.0,0.0,0.0
19:32:42.768000,-212.0,81.0,-18.0,-1256.0,668.0,-265.0,0.0,0.0,0.0
19:32:42.773000,-243.0,74.0,35.0,-1256.0,668.0,-265.0,0.0,0.0,0.0
19:32:42.778000,-231.0,65.0,81.0,-1221.0,531.0,-232.0,0.0,0.0,0.0
19:32:42.782000,-145.0,43.0,88.0,-1221.0,531.0,-232.0,0.0,0.0,0.0
19:32:42.787000,-87.0,22.0,88.0,-1203.0,365.0,-245.0,0.0,0.0,0.0
19:32:42.791000,-92.0,3.0,39.0,-1203.0,365.0,-245.0,0.0,0.0,0.0
19:32:42.797000,-116.0,13.0,-60.0,-1292.0,268.0,-327.0,0.0,0.0,0.0
19:32:42.801000,-50.0,-7.0,-33.0,-1292.0,268.0,-327.0,0.0,0.0,0.0
19:32:42.806000,-86.0,-28.0,44.0,-1397.0,410.0,-376.0,0.0,0.0,0.0
19:32:42.811000,-128.0,-38.0,72.0,-1397.0,410.0,-376.0,0.0,0.0,0.0
19:32:42.815000,-158.0,-36.0,118.0,-1397.0,410.0,-376.0,0.0,0.0,0.0
19:32:42.820000,-137.0,-60.0,86.0,-1260.0,448.0,-366.0,0.0,0.0,0.0
19:32:42.825000,-65.0,-81.0,15.0,-1260.0,448.0,-366.0,0.0,0.0,0.0
19:32:42.829000,4.0,-93.0,-93.0,-1158.0,295.0,-361.0,0.0,0.0,0.0
19:32:42.834000,23.0,-125.0,-102.0,-1158.0,295.0,-361.0,0.0,0.0,0.0
19:32:42.839000,46.0,-191.0,-26.0,-1149.0,234.0,-337.0,0.0,0.0,0.0
19:32:42.844000,77.0,-247.0,91.0,-1149.0,234.0,-337.0,0.0,0.0,0.0
19:32:42.848000,73.0,-280.0,112.0,-1121.0,295.0,-311.0,0.0,0.0,0.0
19:32:42.853000,45.0,-303.0,65.0,-1121.0,295.0,-311.0,0.0,0.0,0.0
19:32:42.858000,45.0,-303.0,65.0,-1181.0,312.0,-279.0,0.0,0.0,0.0
19:32:42.862000,74.0,-317.0,76.0,-1181.0,312.0,-279.0,0.0,0.0,0.0
19:32:42.867000,66.0,-332.0,73.0,-1211.0,305.0,-228.0,0.0,0.0,0.0
19:32:42.872000,56.0,-326.0,31.0,-1211.0,305.0,-228.0,0.0,0.0,0.0
19:32:42.876000,69.0,-308.0,-49.0,-1209.0,352.0,-197.0,0.0,0.0,0.0
19:32:42.881000,60.0,-277.0,-17.0,-1209.0,352.0,-197.0,0.0,0.0,0.0
19:32:42.886000,5.0,-257.0,81.0,-1298.0,346.0,-150.0,0.0,0.0,0.0
19:32:42.891000,18.0,-215.0,-51.0,-1298.0,346.0,-150.0,0.0,0.0,0.0
19:32:42.895000,34.0,-155.0,-242.0,-1393.0,376.0,-126.0,0.0,0.0,0.0
19:32:42.900000,28.0,-98.0,-229.0,-1393.0,376.0,-126.0,0.0,0.0,0.0
19:32:42.905000,-9.0,-38.0,-139.0,-1455.0,423.0,-130.0,0.0,0.0,0.0
19:32:42.909000,-46.0,14.0,-88.0,-1455.0,423.0,-130.0,0.0,0.0,0.0
19:32:42.914000,-44.0,63.0,-168.0,-1541.0,421.0,-136.0,0.0,0.0,0.0
19:32:42.919000,-44.0,98.0,-256.0,-1541.0,421.0,-136.0,0.0,0.0,0.0
19:32:42.923000,-46.0,133.0,-182.0,-1442.0,419.0,-172.0,0.0,0.0,0.0
19:32:42.928000,-43.0,150.0,-138.0,-1442.0,419.0,-172.0,0.0,0.0,0.0
19:32:42.933000,-21.0,160.0,-170.0,-1442.0,419.0,-172.0,0.0,0.0,0.0
19:32:42.938000,39.0,151.0,-217.0,-1195.0,360.0,-213.0,0.0,0.0,0.0
19:32:42.942000,86.0,113.0,-258.0,-1195.0,360.0,-213.0,0.0,0.0,0.0
19:32:42.947000,174.0,83.0,-329.0,-990.0,303.0,-231.0,0.0,0.0,0.0
19:32:42.952000,214.0,56.0,-401.0,-990.0,303.0,-231.0,0.0,0.0,0.0
19:32:42.956000,236.0,32.0,-399.0,-773.0,344.0,-240.0,0.0,0.0,0.0
19:32:42.961000,224.0,22.0,-373.0,-773.0,344.0,-240.0,0.0,0.0,0.0
19:32:42.966000,224.0,22.0,-373.0,-671.0,524.0,-244.0,0.0,0.0,0.0
19:32:42.970000,181.0,26.0,-397.0,-671.0,524.0,-244.0,0.0,0.0,0.0
19:32:42.975000,126.0,35.0,-399.0,-698.0,764.0,-247.0,0.0,0.0,0.0
19:32:42.980000,72.0,40.0,-349.0,-698.0,764.0,-247.0,0.0,0.0,0.0
19:32:42.985000,41.0,49.0,-321.0,-714.0,860.0,-255.0,0.0,0.0,0.0
19:32:42.989000,15.0,45.0,-276.0,-714.0,860.0,-255.0,0.0,0.0,0.0
19:32:42.994000,0.0,41.0,-206.0,-658.0,756.0,-245.0,0.0,0.0,0.0
19:32:42.999000,3.0,29.0,-146.0,-658.0,756.0,-245.0,0.0,0.0,0.0
19:32:43.003000,7.0,6.0,-75.0,-534.0,634.0,-219.0,0.0,0.0,0.0
19:32:43.008000,26.0,-2.0,9.0,-534.0,634.0,-219.0,0.0,0.0,0.0
19:32:43.013000,43.0,-17.0,47.0,-413.0,610.0,-194.0,0.0,0.0,0.0
19:32:43.017000,59.0,-23.0,59.0,-413.0,610.0,-194.0,0.0,0.0,0.0
19:32:43.022000,54.0,-25.0,90.0,-360.0,692.0,-169.0,0.0,0.0,0.0
19:32:43.026000,50.0,-23.0,123.0,-360.0,692.0,-169.0,0.0,0.0,0.0
19:32:43.032000,28.0,-16.0,147.0,-360.0,692.0,-169.0,0.0,0.0,0.0
19:32:43.036000,1.0,-10.0,191.0,-408.0,780.0,-146.0,0.0,0.0,0.0
19:32:43.041000,-28.0,-7.0,249.0,-408.0,780.0,-146.0,0.0,0.0,0.0
19:32:43.046000,-56.0,-6.0,320.0,-515.0,803.0,-125.0,0.0,0.0,0.0
19:32:43.050000,-76.0,-13.0,387.0,-515.0,803.0,-125.0,0.0,0.0,0.0
19:32:43.055000,-85.0,-25.0,452.0,-564.0,718.0,-102.0,0.0,0.0,0.0
19:32:43.060000,-79.0,-46.0,488.0,-564.0,718.0,-102.0,0.0,0.0,0.0
19:32:43.064000,-65.0,-71.0,499.0,-522.0,556.0,-90.0,0.0,0.0,0.0
19:32:43.069000,-57.0,-95.0,485.0,-522.0,556.0,-90.0,0.0,0.0,0.0
19:32:43.074000,-57.0,-95.0,485.0,-448.0,457.0,-88.0,0.0,0.0,0.0
19:32:43.079000,-69.0,-118.0,454.0,-448.0,457.0,-88.0,0.0,0.0,0.0
19:32:43.083000,-88.0,-137.0,403.0,-432.0,491.0,-75.0,0.0,0.0,0.0
19:32:43.088000,-122.0,-153.0,351.0,-432.0,491.0,-75.0,0.0,0.0,0.0
19:32:43.093000,-164.0,-162.0,301.0,-478.0,535.0,-63.0,0.0,0.0,0.0
19:32:43.097000,-206.0,-159.0,238.0,-478.0,535.0,-63.0,0.0,0.0,0.0
19:32:43.102000,-242.0,-144.0,184.0,-539.0,514.0,-71.0,0.0,0.0,0.0
19:32:43.107000,-273.0,-119.0,142.0,-539.0,514.0,-71.0,0.0,0.0,0.0
19:32:43.111000,-299.0,-80.0,105.0,-618.0,466.0,-103.0,0.0,0.0,0.0
19:32:43.116000,-316.0,-35.0,75.0,-618.0,466.0,-103.0,0.0,0.0,0.0
19:32:43.121000,-322.0,9.0,70.0,-725.0,367.0,-146.0,0.0,0.0,0.0
19:32:43.126000,-305.0,48.0,87.0,-725.0,367.0,-146.0,0.0,0.0,0.0
19:32:43.130000,-266.0,77.0,112.0,-798.0,192.0,-179.0,0.0,0.0,0.0
19:32:43.135000,-213.0,101.0,128.0,-798.0,192.0,-179.0,0.0,0.0,0.0
19:32:43.140000,-153.0,116.0,142.0,-798.0,192.0,-179.0,0.0,0.0,0.0
19:32:43.144000,-92.0,123.0,140.0,-751.0,57.0,-201.0,0.0,0.0,0.0
19:32:43.149000,-41.0,120.0,114.0,-751.0,57.0,-201.0,0.0,0.0,0.0
19:32:43.154000,0.0,109.0,77.0,-630.0,76.0,-204.0,0.0,0.0,0.0
19:32:43.158000,30.0,91.0,41.0,-630.0,76.0,-204.0,0.0,0.0,0.0
19:32:43.163000,43.0,74.0,12.0,-521.0,162.0,-176.0,0.0,0.0,0.0
19:32:43.168000,39.0,54.0,-9.0,-521.0,162.0,-176.0,0.0,0.0,0.0
19:32:43.173000,21.0,31.0,-28.0,-451.0,263.0,-127.0,0.0,0.0,0.0
19:32:43.177000,-4.0,9.0,-46.0,-451.0,263.0,-127.0,0.0,0.0,0.0
19:32:43.182000,-34.0,-9.0,-60.0,-428.0,390.0,-88.0,0.0,0.0,0.0
19:32:43.187000,-34.0,-9.0,-60.0,-428.0,390.0,-88.0,0.0,0.0,0.0
19:32:43.191000,-54.0,-22.0,-64.0,-455.0,462.0,-77.0,0.0,0.0,0.0
19:32:43.196000,-68.0,-29.0,-52.0,-455.0,462.0,-77.0,0.0,0.0,0.0
19:32:43.201000,-73.0,-27.0,-21.0,-545.0,448.0,-81.0,0.0,0.0,0.0
19:32:43.205000,-74.0,-17.0,26.0,-545.0,448.0,-81.0,0.0,0.0,0.0
19:32:43.210000,-75.0,0.0,77.0,-672.0,414.0,-86.0,0.0,0.0,0.0
19:32:43.215000,-77.0,18.0,123.0,-672.0,414.0,-86.0,0.0,0.0,0.0
19:32:43.220000,-79.0,39.0,151.0,-770.0,393.0,-84.0,0.0,0.0,0.0
19:32:43.224000,-81.0,59.0,170.0,-770.0,393.0,-84.0,0.0,0.0,0.0
19:32:43.229000,-85.0,77.0,185.0,-794.0,351.0,-76.0,0.0,0.0,0.0
19:32:43.234000,-86.0,90.0,198.0,-794.0,351.0,-76.0,0.0,0.0,0.0
19:32:43.238000,-90.0,97.0,199.0,-764.0,289.0,-65.0,0.0,0.0,0.0
19:32:43.243000,-97.0,98.0,186.0,-764.0,289.0,-65.0,0.0,0.0,0.0
19:32:43.248000,-107.0,96.0,168.0,-764.0,289.0,-65.0,0.0,0.0,0.0
19:32:43.252000,-118.0,92.0,148.0,-714.0,237.0,-62.0,0.0,0.0,0.0
19:32:43.257000,-137.0,82.0,131.0,-714.0,237.0,-62.0,0.0,0.0,0.0
19:32:43.261000,-158.0,70.0,119.0,-661.0,190.0,-67.0,0.0,0.0,0.0
19:32:43.266000,-170.0,57.0,114.0,-661.0,190.0,-67.0,0.0,0.0,0.0
19:32:43.271000,-173.0,46.0,115.0,-604.0,110.0,-73.0,0.0,0.0,0.0
19:32:43.276000,-165.0,38.0,112.0,-604.0,110.0,-73.0,0.0,0.0,0.0
19:32:43.281000,-156.0,37.0,98.0,-569.0,16.0,-88.0,0.0,0.0,0.0
19:32:43.285000,-156.0,42.0,81.0,-569.0,16.0,-88.0,0.0,0.0,0.0
19:32:43.290000,-152.0,49.0,72.0,-615.0,-17.0,-107.0,0.0,0.0,0.0
19:32:43.295000,-152.0,49.0,72.0,-615.0,-17.0,-107.0,0.0,0.0,0.0
19:32:43.299000,-140.0,59.0,69.0,-698.0,-55.0,-115.0,0.0,0.0,0.0
19:32:43.304000,-119.0,65.0,65.0,-698.0,-55.0,-115.0,0.0,0.0,0.0
19:32:43.309000,-98.0,67.0,63.0,-746.0,-113.0,-112.0,0.0,0.0,0.0
19:32:43.313000,-82.0,64.0,63.0,-746.0,-113.0,-112.0,0.0,0.0,0.0
19:32:43.318000,-77.0,60.0,63.0,-757.0,-98.0,-103.0,0.0,0.0,0.0
19:32:43.323000,-88.0,51.0,52.0,-757.0,-98.0,-103.0,0.0,0.0,0.0
19:32:43.328000,-107.0,42.0,29.0,-742.0,-55.0,-96.0,0.0,0.0,0.0
19:32:43.332000,-123.0,29.0,-4.0,-742.0,-55.0,-96.0,0.0,0.0,0.0
19:32:43.337000,-132.0,16.0,-42.0,-716.0,-48.0,-100.0,0.0,0.0,0.0
19:32:43.342000,-137.0,0.0,-81.0,-716.0,-48.0,-100.0,0.0,0.0,0.0
19:32:43.346000,-139.0,-16.0,-116.0,-712.0,-38.0,-110.0,0.0,0.0,0.0
19:32:43.351000,-135.0,-25.0,-146.0,-712.0,-38.0,-110.0,0.0,0.0,0.0
19:32:43.356000,-124.0,-30.0,-164.0,-727.0,-35.0,-117.0,0.0,0.0,0.0
19:32:43.360000,-109.0,-28.0,-170.0,-727.0,-35.0,-117.0,0.0,0.0,0.0
19:32:43.365000,-93.0,-22.0,-169.0,-727.0,-35.0,-117.0,0.0,0.0,0.0
19:32:43.370000,-71.0,-14.0,-164.0,-741.0,-60.0,-121.0,0.0,0.0,0.0
19:32:43.375000,-44.0,-4.0,-158.0,-741.0,-60.0,-121.0,0.0,0.0,0.0
19:32:43.379000,-11.0,1.0,-147.0,-761.0,-69.0,-129.0,0.0,0.0,0.0
19:32:43.384000,16.0,4.0,-128.0,-761.0,-69.0,-129.0,0.0,0.0,0.0
19:32:43.389000,25.0,0.0,-97.0,-792.0,-40.0,-138.0,0.0,0.0,0.0
19:32:43.393000,18.0,-11.0,-58.0,-792.0,-40.0,-138.0,0.0,0.0,0.0
19:32:43.398000,0.0,-35.0,-22.0,-798.0,24.0,-136.0,0.0,0.0,0.0
19:32:43.403000,0.0,-35.0,-22.0,-798.0,24.0,-136.0,0.0,0.0,0.0
19:32:43.407000,-24.0,-65.0,0.0,-757.0,80.0,-130.0,0.0,0.0,0.0
19:32:43.412000,-52.0,-102.0,9.0,-757.0,80.0,-130.0,0.0,0.0,0.0
19:32:43.454000,49.0,-313.0,102.0,-928.0,-107.0,-126.0,0.0,0.0,0.0
19:32:43.459000,56.0,-305.0,100.0,-928.0,-107.0,-126.0,0.0,0.0,0.0
19:32:43.464000,56.0,-300.0,93.0,-934.0,-63.0,-71.0,0.0,0.0,0.0
19:32:43.469000,53.0,-298.0,87.0,-934.0,-63.0,-71.0,0.0,0.0,0.0
19:32:43.473000,56.0,-297.0,88.0,-934.0,-63.0,-71.0,0.0,0.0,0.0
19:32:43.478000,63.0,-291.0,99.0,-933.0,-27.0,-21.0,0.0,0.0,0.0
19:32:43.483000,67.0,-287.0,114.0,-933.0,-27.0,-21.0,0.0,0.0,0.0
19:32:43.487000,57.0,-280.0,126.0,-926.0,-11.0,11.0,0.0,0.0,0.0
19:32:43.492000,35.0,-275.0,143.0,-926.0,-11.0,11.0,0.0,0.0,0.0
19:32:43.497000,10.0,-273.0,175.0,-928.0,77.0,25.0,0.0,0.0,0.0
19:32:43.501000,-9.0,-269.0,224.0,-928.0,77.0,25.0,0.0,0.0,0.0
19:32:43.506000,-18.0,-268.0,283.0,-894.0,143.0,18.0,0.0,0.0,0.0
19:32:43.511000,-26.0,-266.0,346.0,-894.0,143.0,18.0,0.0,0.0,0.0
19:32:43.515000,-26.0,-266.0,346.0,-835.0,154.0,-3.0,0.0,0.0,0.0
19:32:43.520000,-39.0,-262.0,413.0,-835.0,154.0,-3.0,0.0,0.0,0.0
19:32:43.525000,-44.0,-257.0,492.0,-783.0,129.0,-21.0,0.0,0.0,0.0
19:32:43.530000,-39.0,-253.0,581.0,-783.0,129.0,-21.0,0.0,0.0,0.0
19:32:43.534000,-28.0,-245.0,665.0,-754.0,53.0,-33.0,0.0,0.0,0.0
19:32:43.539000,-21.0,-228.0,727.0,-754.0,53.0,-33.0,0.0,0.0,0.0
19:32:43.544000,-17.0,-210.0,763.0,-801.0,-6.0,-46.0,0.0,0.0,0.0
19:32:43.548000,-8.0,-196.0,781.0,-801.0,-6.0,-46.0,0.0,0.0,0.0
19:32:43.553000,7.0,-186.0,784.0,-859.0,-53.0,-59.0,0.0,0.0,0.0
19:32:43.558000,24.0,-181.0,772.0,-859.0,-53.0,-59.0,0.0,0.0,0.0
19:32:43.563000,34.0,-181.0,748.0,-845.0,-32.0,-72.0,0.0,0.0,0.0
19:32:43.567000,28.0,-186.0,718.0,-845.0,-32.0,-72.0,0.0,0.0,0.0
19:32:43.572000,11.0,-193.0,688.0,-776.0,67.0,-75.0,0.0,0.0,0.0
19:32:43.577000,-2.0,-207.0,672.0,-776.0,67.0,-75.0,0.0,0.0,0.0
19:32:43.581000,-11.0,-229.0,665.0,-776.0,67.0,-75.0,0.0,0.0,0.0
19:32:43.586000,-30.0,-253.0,656.0,-680.0,130.0,-77.0,0.0,0.0,0.0
19:32:43.591000,-54.0,-275.0,646.0,-680.0,130.0,-77.0,0.0,0.0,0.0
19:32:43.595000,-72.0,-294.0,640.0,-622.0,177.0,-75.0,0.0,0.0,0.0
19:32:43.600000,-75.0,-309.0,630.0,-622.0,177.0,-75.0,0.0,0.0,0.0
19:32:43.605000,-64.0,-322.0,611.0,-631.0,167.0,-77.0,0.0,0.0,0.0
19:32:43.610000,-47.0,-326.0,586.0,-631.0,167.0,-77.0,0.0,0.0,0.0
19:32:43.614000,-35.0,-331.0,556.0,-692.0,129.0,-105.0,0.0,0.0,0.0
19:32:43.619000,-22.0,-338.0,529.0,-692.0,129.0,-105.0,0.0,0.0,0.0
19:32:43.624000,-22.0,-338.0,529.0,-790.0,155.0,-134.0,0.0,0.0,0.0
19:32:43.628000,-8.0,-344.0,514.0,-790.0,155.0,-134.0,0.0,0.0,0.0
19:32:43.633000,8.0,-347.0,515.0,-862.0,152.0,-145.0,0.0,0.0,0.0
19:32:43.638000,22.0,-350.0,525.0,-862.0,152.0,-145.0,0.0,0.0,0.0
19:32:43.642000,23.0,-350.0,544.0,-908.0,138.0,-141.0,0.0,0.0,0.0
19:32:43.647000,16.0,-348.0,569.0,-908.0,138.0,-141.0,0.0,0.0,0.0
19:32:43.652000,1.0,-345.0,587.0,-949.0,185.0,-126.0,0.0,0.0,0.0
19:32:43.657000,-28.0,-336.0,597.0,-949.0,185.0,-126.0,0.0,0.0,0.0
19:32:43.661000,-67.0,-322.0,605.0,-954.0,223.0,-98.0,0.0,0.0,0.0
19:32:43.666000,-95.0,-322.0,617.0,-954.0,223.0,-98.0,0.0,0.0,0.0
19:32:43.671000,-114.0,-320.0,640.0,-892.0,143.0,-66.0,0.0,0.0,0.0
19:32:43.675000,-121.0,-312.0,646.0,-892.0,143.0,-66.0,0.0,0.0,0.0
19:32:43.680000,-118.0,-296.0,646.0,-801.0,15.0,-47.0,0.0,0.0,0.0
19:32:43.685000,-129.0,-277.0,667.0,-801.0,15.0,-47.0,0.0,0.0,0.0
19:32:43.689000,-144.0,-260.0,712.0,-801.0,15.0,-47.0,0.0,0.0,0.0
19:32:43.694000,-149.0,-231.0,613.0,-788.0,5.0,-37.0,0.0,0.0,0.0
19:32:43.699000,-182.0,-207.0,474.0,-757.0,42.0,-19.0,0.0,0.0,0.0
19:32:43.704000,-195.0,-199.0,497.0,-757.0,42.0,-19.0,0.0,0.0,0.0
19:32:43.708000,-191.0,-191.0,537.0,-757.0,42.0,-19.0,0.0,0.0,0.0
19:32:43.713000,-178.0,-182.0,493.0,-674.0,12.0,0.0,0.0,0.0,0.0
19:32:43.718000,-162.0,-169.0,506.0,-674.0,12.0,0.0,0.0,0.0,0.0
19:32:43.722000,-116.0,-177.0,457.0,-754.0,-11.0,15.0,0.0,0.0,0.0
19:32:43.727000,-91.0,-175.0,275.0,-952.0,-31.0,48.0,0.0,0.0,0.0
19:32:43.732000,-91.0,-175.0,275.0,-952.0,-31.0,48.0,0.0,0.0,0.0
19:32:43.736000,-69.0,-114.0,298.0,-952.0,-31.0,48.0,0.0,0.0,0.0
19:32:43.741000,26.0,-88.0,387.0,-646.0,-65.0,46.0,0.0,0.0,0.0
19:32:43.746000,91.0,-87.0,453.0,-646.0,-65.0,46.0,0.0,0.0,0.0
19:32:43.751000,102.0,-86.0,471.0,-467.0,3.0,42.0,0.0,0.0,0.0
19:32:43.755000,103.0,-58.0,485.0,-467.0,3.0,42.0,0.0,0.0,0.0
19:32:43.760000,93.0,-29.0,494.0,-796.0,86.0,61.0,0.0,0.0,0.0
19:32:43.765000,105.0,-10.0,570.0,-796.0,86.0,61.0,0.0,0.0,0.0
19:32:43.769000,100.0,5.0,728.0,-871.0,74.0,64.0,0.0,0.0,0.0
19:32:43.774000,70.0,12.0,884.0,-871.0,74.0,64.0,0.0,0.0,0.0
19:32:43.779000,39.0,24.0,935.0,-857.0,83.0,68.0,0.0,0.0,0.0
19:32:43.783000,7.0,32.0,926.0,-857.0,83.0,68.0,0.0,0.0,0.0
19:32:43.788000,-9.0,35.0,946.0,-821.0,32.0,52.0,0.0,0.0,0.0
19:32:43.793000,-3.0,32.0,1015.0,-821.0,32.0,52.0,0.0,0.0,0.0
19:32:43.798000,21.0,28.0,1064.0,-821.0,32.0,52.0,0.0,0.0,0.0
19:32:43.802000,38.0,32.0,1047.0,-719.0,-90.0,8.0,0.0,0.0,0.0
19:32:43.807000,70.0,24.0,971.0,-719.0,-90.0,8.0,0.0,0.0,0.0
19:32:43.812000,116.0,14.0,894.0,-732.0,-123.0,-51.0,0.0,0.0,0.0
19:32:43.816000,171.0,11.0,840.0,-732.0,-123.0,-51.0,0.0,0.0,0.0
19:32:43.821000,228.0,10.0,780.0,-819.0,-92.0,-124.0,0.0,0.0,0.0
19:32:43.826000,257.0,10.0,709.0,-819.0,-92.0,-124.0,0.0,0.0,0.0
19:32:43.830000,268.0,6.0,640.0,-917.0,34.0,-187.0,0.0,0.0,0.0
19:32:43.835000,261.0,0.0,597.0,-917.0,34.0,-187.0,0.0,0.0,0.0
19:32:43.840000,245.0,-9.0,596.0,-1011.0,211.0,-214.0,0.0,0.0,0.0
19:32:43.845000,245.0,-9.0,596.0,-1011.0,211.0,-214.0,0.0,0.0,0.0
19:32:43.849000,214.0,-30.0,611.0,-1052.0,301.0,-224.0,0.0,0.0,0.0
19:32:43.854000,190.0,-53.0,627.0,-1052.0,301.0,-224.0,0.0,0.0,0.0
19:32:43.859000,173.0,-84.0,659.0,-1089.0,359.0,-246.0,0.0,0.0,0.0
19:32:43.863000,137.0,-116.0,742.0,-1089.0,359.0,-246.0,0.0,0.0,0.0
19:32:43.868000,93.0,-151.0,784.0,-1115.0,447.0,-264.0,0.0,0.0,0.0
19:32:43.873000,58.0,-196.0,763.0,-1115.0,447.0,-264.0,0.0,0.0,0.0
19:32:43.877000,21.0,-241.0,741.0,-1124.0,488.0,-266.0,0.0,0.0,0.0
19:32:43.882000,2.0,-289.0,733.0,-1124.0,488.0,-266.0,0.0,0.0,0.0
19:32:43.887000,-9.0,-331.0,697.0,-1148.0,458.0,-256.0,0.0,0.0,0.0
19:32:43.892000,-34.0,-357.0,582.0,-1148.0,458.0,-256.0,0.0,0.0,0.0
19:32:43.896000,-37.0,-376.0,431.0,-1221.0,382.0,-238.0,0.0,0.0,0.0
19:32:43.901000,-31.0,-385.0,276.0,-1221.0,382.0,-238.0,0.0,0.0,0.0
19:32:43.906000,3.0,-401.0,131.0,-1221.0,382.0,-238.0,0.0,0.0,0.0
19:32:43.910000,49.0,-365.0,24.0,-1345.0,221.0,-212.0,0.0,0.0,0.0
19:32:43.915000,-13.0,-344.0,-105.0,-1345.0,221.0,-212.0,0.0,0.0,0.0
19:32:43.920000,2.0,-303.0,-269.0,-1499.0,55.0,-155.0,0.0,0.0,0.0
19:32:43.924000,89.0,-249.0,-364.0,-1499.0,55.0,-155.0,0.0,0.0,0.0
19:32:43.929000,157.0,-198.0,-399.0,-1571.0,-123.0,-102.0,0.0,0.0,0.0
19:32:43.934000,133.0,-146.0,-574.0,-1571.0,-123.0,-102.0,0.0,0.0,0.0
19:32:43.939000,101.0,-119.0,-765.0,-1520.0,-61.0,-59.0,0.0,0.0,0.0
19:32:43.943000,101.0,-119.0,-765.0,-1520.0,-61.0,-59.0,0.0,0.0,0.0
19:32:43.948000,128.0,-53.0,-702.0,-1465.0,-21.0,-28.0,0.0,0.0,0.0
19:32:43.953000,128.0,-53.0,-702.0,-1465.0,-21.0,-28.0,0.0,0.0,0.0
19:32:43.957000,137.0,-13.0,-694.0,-1429.0,-209.0,-16.0,0.0,0.0,0.0
19:32:43.962000,161.0,26.0,-769.0,-1429.0,-209.0,-16.0,0.0,0.0,0.0
19:32:43.967000,166.0,58.0,-844.0,-1368.0,-293.0,10.0,0.0,0.0,0.0
19:32:43.971000,193.0,88.0,-864.0,-1368.0,-293.0,10.0,0.0,0.0,0.0
19:32:43.976000,170.0,118.0,-830.0,-1254.0,-391.0,38.0,0.0,0.0,0.0
19:32:43.981000,156.0,142.0,-851.0,-1254.0,-391.0,38.0,0.0,0.0,0.0
19:32:43.986000,142.0,163.0,-882.0,-1064.0,-465.0,61.0,0.0,0.0,0.0
19:32:43.990000,122.0,178.0,-897.0,-1064.0,-465.0,61.0,0.0,0.0,0.0
19:32:43.995000,107.0,184.0,-872.0,-871.0,-463.0,68.0,0.0,0.0,0.0
19:32:44.000000,103.0,189.0,-843.0,-871.0,-463.0,68.0,0.0,0.0,0.0
19:32:44.004000,58.0,197.0,-854.0,-803.0,-431.0,56.0,0.0,0.0,0.0
19:32:44.009000,21.0,201.0,-781.0,-803.0,-431.0,56.0,0.0,0.0,0.0
19:32:44.014000,7.0,207.0,-734.0,-803.0,-431.0,56.0,0.0,0.0,0.0
19:32:44.018000,-10.0,217.0,-759.0,-882.0,-370.0,18.0,0.0,0.0,0.0
19:32:44.023000,-17.0,228.0,-779.0,-882.0,-370.0,18.0,0.0,0.0,0.0
19:32:44.028000,-27.0,247.0,-781.0,-1054.0,-242.0,-26.0,0.0,0.0,0.0
19:32:44.033000,-20.0,259.0,-767.0,-1054.0,-242.0,-26.0,0.0,0.0,0.0
19:32:44.037000,-12.0,276.0,-727.0,-1195.0,-110.0,-55.0,0.0,0.0,0.0
19:32:44.042000,13.0,290.0,-721.0,-1195.0,-110.0,-55.0,0.0,0.0,0.0
19:32:44.047000,25.0,310.0,-726.0,-1270.0,-26.0,-71.0,0.0,0.0,0.0
19:32:44.051000,48.0,328.0,-676.0,-1270.0,-26.0,-71.0,0.0,0.0,0.0
19:32:44.056000,72.0,350.0,-604.0,-1305.0,1.0,-70.0,0.0,0.0,0.0
19:32:44.061000,72.0,350.0,-604.0,-1305.0,1.0,-70.0,0.0,0.0,0.0
19:32:44.065000,101.0,364.0,-594.0,-1321.0,-56.0,-61.0,0.0,0.0,0.0
19:32:44.070000,156.0,379.0,-588.0,-1321.0,-56.0,-61.0,0.0,0.0,0.0
19:32:44.075000,193.0,387.0,-518.0,-1325.0,-124.0,-54.0,0.0,0.0,0.0
19:32:44.080000,273.0,386.0,-470.0,-1325.0,-124.0,-54.0,0.0,0.0,0.0
19:32:44.084000,327.0,390.0,-426.0,-1315.0,-112.0,-58.0,0.0,0.0,0.0
19:32:44.089000,361.0,386.0,-408.0,-1315.0,-112.0,-58.0,0.0,0.0,0.0
19:32:44.094000,359.0,382.0,-403.0,-1340.0,-3.0,-61.0,0.0,0.0,0.0
19:32:44.098000,343.0,383.0,-392.0,-1340.0,-3.0,-61.0,0.0,0.0,0.0
