hh:mm:ss.ms,gyroX[mdps],gyroY[mdps],gyroZ[mdps],accX[mg],accY[mg],accZ[mg],magX[mG],magY[mG],magZ[mG]
19:32:32.307000,-76.0,128.0,-86.0,-1154.0,197.0,-170.0,0.0,0.0,0.0
19:32:32.311000,-98.0,135.0,-7.0,-1141.0,141.0,-173.0,0.0,0.0,0.0
19:32:32.316000,-103.0,133.0,-18.0,-1141.0,141.0,-173.0,0.0,0.0,0.0
19:32:32.321000,-88.0,133.0,-119.0,-1154.0,118.0,-177.0,0.0,0.0,0.0
19:32:32.325000,-88.0,133.0,-119.0,-1154.0,118.0,-177.0,0.0,0.0,0.0
19:32:32.330000,-66.0,131.0,-277.0,-1170.0,105.0,-185.0,0.0,0.0,0.0
19:32:32.335000,-54.0,128.0,-319.0,-1170.0,105.0,-185.0,0.0,0.0,0.0
19:32:32.340000,-54.0,128.0,-319.0,-1098.0,94.0,-188.0,0.0,0.0,0.0
19:32:32.344000,-41.0,126.0,-357.0,-1098.0,94.0,-188.0,0.0,0.0,0.0
19:32:32.349000,-35.0,125.0,-345.0,-1039.0,110.0,-189.0,0.0,0.0,0.0
19:32:32.354000,-43.0,119.0,-291.0,-1039.0,110.0,-189.0,0.0,0.0,0.0
19:32:32.358000,-46.0,114.0,-258.0,-1065.0,121.0,-195.0,0.0,0.0,0.0
19:32:32.363000,-37.0,106.0,-275.0,-1065.0,121.0,-195.0,0.0,0.0,0.0
19:32:32.368000,-18.0,97.0,-297.0,-1105.0,105.0,-205.0,0.0,0.0,0.0
19:32:32.373000,0.0,88.0,-273.0,-1105.0,105.0,-205.0,0.0,0.0,0.0
19:32:32.377000,4.0,81.0,-237.0,-1108.0,92.0,-212.0,0.0,0.0,0.0
19:32:32.382000,8.0,75.0,-250.0,-1108.0,92.0,-212.0,0.0,0.0,0.0
19:32:32.387000,13.0,69.0,-278.0,-1107.0,146.0,-215.0,0.0,0.0,0.0
19:32:32.391000,9.0,63.0,-288.0,-1107.0,146.0,-215.0,0.0,0.0,0.0
19:32:32.396000,1.0,56.0,-298.0,-1076.0,209.0,-211.0,0.0,0.0,0.0
19:32:32.401000,-16.0,53.0,-301.0,-1076.0,209.0,-211.0,0.0,0.0,0.0
19:32:32.405000,-39.0,49.0,-287.0,-1076.0,209.0,-211.0,0.0,0.0,0.0
19:32:32.410000,-44.0,46.0,-268.0,-1023.0,211.0,-209.0,0.0,0.0,0.0
19:32:32.415000,-39.0,39.0,-247.0,-1023.0,211.0,-209.0,0.0,0.0,0.0
19:32:32.420000,-40.0,40.0,-238.0,-1034.0,194.0,-215.0,0.0,0.0,0.0
19:32:32.424000,-41.0,46.0,-261.0,-1034.0,194.0,-215.0,0.0,0.0,0.0
19:32:32.429000,-50.0,53.0,-315.0,-1115.0,223.0,-222.0,0.0,0.0,0.0
19:32:32.434000,-67.0,65.0,-344.0,-1115.0,223.0,-222.0,0.0,0.0,0.0
19:32:32.438000,-77.0,74.0,-333.0,-1180.0,254.0,-227.0,0.0,0.0,0.0
19:32:32.443000,-75.0,82.0,-305.0,-1180.0,254.0,-227.0,0.0,0.0,0.0
19:32:32.448000,-75.0,82.0,-305.0,-1194.0,250.0,-235.0,0.0,0.0,0.0
19:32:32.452000,-65.0,102.0,-261.0,-1194.0,250.0,-235.0,0.0,0.0,0.0
19:32:32.457000,-60.0,125.0,-209.0,-1202.0,231.0,-248.0,0.0,0.0,0.0
19:32:32.462000,-54.0,151.0,-164.0,-1202.0,231.0,-248.0,0.0,0.0,0.0
19:32:32.467000,-48.0,173.0,-130.0,-1246.0,205.0,-257.0,0.0,0.0,0.0
19:32:32.471000,-30.0,193.0,-140.0,-1246.0,205.0,-257.0,0.0,0.0,0.0
19:32:32.476000,4.0,210.0,-209.0,-1322.0,185.0,-272.0,0.0,0.0,0.0
19:32:32.481000,38.0,221.0,-288.0,-1322.0,185.0,-272.0,0.0,0.0,0.0
19:32:32.485000,75.0,234.0,-336.0,-1327.0,164.0,-290.0,0.0,0.0,0.0
19:32:32.490000,119.0,238.0,-360.0,-1327.0,164.0,-290.0,0.0,0.0,0.0
19:32:32.495000,153.0,243.0,-375.0,-1228.0,163.0,-303.0,0.0,0.0,0.0
19:32:32.499000,182.0,247.0,-378.0,-1228.0,163.0,-303.0,0.0,0.0,0.0
19:32:32.504000,219.0,236.0,-371.0,-1079.0,252.0,-317.0,0.0,0.0,0.0
19:32:32.509000,245.0,217.0,-357.0,-1079.0,252.0,-317.0,0.0,0.0,0.0
19:32:32.514000,239.0,194.0,-324.0,-1079.0,252.0,-317.0,0.0,0.0,0.0
19:32:32.518000,211.0,177.0,-282.0,-954.0,442.0,-327.0,0.0,0.0,0.0
19:32:32.523000,172.0,163.0,-279.0,-954.0,442.0,-327.0,0.0,0.0,0.0
19:32:32.528000,120.0,154.0,-319.0,-916.0,665.0,-321.0,0.0,0.0,0.0
19:32:32.532000,65.0,144.0,-359.0,-916.0,665.0,-321.0,0.0,0.0,0.0
19:32:32.537000,31.0,128.0,-336.0,-927.0,742.0,-305.0,0.0,0.0,0.0
19:32:32.542000,23.0,105.0,-259.0,-927.0,742.0,-305.0,0.0,0.0,0.0
19:32:32.546000,22.0,83.0,-202.0,-931.0,616.0,-295.0,0.0,0.0,0.0
19:32:32.551000,4.0,60.0,-163.0,-931.0,616.0,-295.0,0.0,0.0,0.0
19:32:32.556000,-28.0,29.0,-137.0,-939.0,489.0,-280.0,0.0,0.0,0.0
19:32:32.561000,-28.0,29.0,-137.0,-939.0,489.0,-280.0,0.0,0.0,0.0
19:32:32.565000,-46.0,2.0,-150.0,-932.0,494.0,-260.0,0.0,0.0,0.0
19:32:32.570000,-31.0,-18.0,-203.0,-932.0,494.0,-260.0,0.0,0.0,0.0
19:32:32.575000,-22.0,-11.0,-283.0,-894.0,560.0,-255.0,0.0,0.0,0.0
19:32:32.579000,-23.0,-4.0,-350.0,-894.0,560.0,-255.0,0.0,0.0,0.0
19:32:32.584000,-53.0,11.0,-374.0,-888.0,536.0,-248.0,0.0,0.0,0.0
19:32:32.589000,-46.0,23.0,-378.0,-888.0,536.0,-248.0,0.0,0.0,0.0
19:32:32.593000,-15.0,36.0,-408.0,-957.0,386.0,-244.0,0.0,0.0,0.0
19:32:32.598000,61.0,39.0,-456.0,-957.0,386.0,-244.0,0.0,0.0,0.0
19:32:32.603000,155.0,25.0,-469.0,-940.0,251.0,-247.0,0.0,0.0,0.0
19:32:32.608000,243.0,20.0,-450.0,-940.0,251.0,-247.0,0.0,0.0,0.0
19:32:32.612000,371.0,-4.0,-473.0,-792.0,264.0,-239.0,0.0,0.0,0.0
19:32:32.617000,474.0,-42.0,-506.0,-792.0,264.0,-239.0,0.0,0.0,0.0
19:32:32.622000,485.0,-74.0,-530.0,-686.0,340.0,-205.0,0.0,0.0,0.0
19:32:32.626000,458.0,-109.0,-436.0,-686.0,340.0,-205.0,0.0,0.0,0.0
19:32:32.631000,476.0,-153.0,-287.0,-686.0,340.0,-205.0,0.0,0.0,0.0
19:32:32.636000,464.0,-191.0,-201.0,-676.0,427.0,-163.0,0.0,0.0,0.0
19:32:32.640000,427.0,-221.0,-200.0,-676.0,427.0,-163.0,0.0,0.0,0.0
19:32:32.645000,417.0,-232.0,-253.0,-680.0,561.0,-125.0,0.0,0.0,0.0
19:32:32.650000,378.0,-231.0,-255.0,-680.0,561.0,-125.0,0.0,0.0,0.0
19:32:32.655000,296.0,-224.0,-214.0,-560.0,716.0,-86.0,0.0,0.0,0.0
19:32:32.659000,168.0,-203.0,-179.0,-560.0,716.0,-86.0,0.0,0.0,0.0
19:32:32.664000,15.0,-165.0,-184.0,-445.0,876.0,-50.0,0.0,0.0,0.0
19:32:32.669000,15.0,-165.0,-184.0,-445.0,876.0,-50.0,0.0,0.0,0.0
19:32:32.673000,-135.0,-119.0,-193.0,-472.0,947.0,-24.0,0.0,0.0,0.0
19:32:32.678000,-221.0,-93.0,-253.0,-472.0,947.0,-24.0,0.0,0.0,0.0
19:32:32.683000,-277.0,-51.0,-319.0,-530.0,799.0,-39.0,0.0,0.0,0.0
19:32:32.687000,-330.0,-25.0,-291.0,-530.0,799.0,-39.0,0.0,0.0,0.0
19:32:32.692000,-324.0,-7.0,-235.0,-534.0,470.0,-92.0,0.0,0.0,0.0
19:32:32.697000,-305.0,14.0,-217.0,-534.0,470.0,-92.0,0.0,0.0,0.0
19:32:32.702000,-254.0,28.0,-213.0,-503.0,222.0,-160.0,0.0,0.0,0.0
19:32:32.706000,-178.0,32.0,-160.0,-503.0,222.0,-160.0,0.0,0.0,0.0
19:32:32.711000,-122.0,34.0,-79.0,-486.0,162.0,-199.0,0.0,0.0,0.0
19:32:32.716000,-81.0,32.0,-16.0,-486.0,162.0,-199.0,0.0,0.0,0.0
19:32:32.720000,-49.0,28.0,3.0,-516.0,257.0,-207.0,0.0,0.0,0.0
19:32:32.725000,-32.0,17.0,-43.0,-516.0,257.0,-207.0,0.0,0.0,0.0
19:32:32.730000,-53.0,15.0,-87.0,-516.0,257.0,-207.0,0.0,0.0,0.0
19:32:32.734000,-88.0,16.0,-105.0,-549.0,468.0,-194.0,0.0,0.0,0.0
19:32:32.739000,-131.0,15.0,-85.0,-559.0,564.0,-163.0,0.0,0.0,0.0
19:32:32.744000,-170.0,19.0,-58.0,-559.0,564.0,-163.0,0.0,0.0,0.0
19:32:32.749000,-187.0,30.0,-43.0,-559.0,564.0,-163.0,0.0,0.0,0.0
19:32:32.753000,-194.0,32.0,-26.0,-591.0,475.0,-147.0,0.0,0.0,0.0
19:32:32.758000,-188.0,33.0,-28.0,-591.0,475.0,-147.0,0.0,0.0,0.0
19:32:32.763000,-172.0,29.0,-26.0,-648.0,348.0,-141.0,0.0,0.0,0.0
19:32:32.767000,-147.0,23.0,-12.0,-648.0,348.0,-141.0,0.0,0.0,0.0
19:32:32.772000,-123.0,16.0,3.0,-683.0,251.0,-127.0,0.0,0.0,0.0
19:32:32.777000,-123.0,16.0,3.0,-683.0,251.0,-127.0,0.0,0.0,0.0
19:32:32.781000,-95.0,9.0,16.0,-687.0,199.0,-114.0,0.0,0.0,0.0
19:32:32.786000,-68.0,0.0,4.0,-687.0,199.0,-114.0,0.0,0.0,0.0
19:32:32.791000,-48.0,-11.0,-35.0,-682.0,237.0,-109.0,0.0,0.0,0.0
19:32:32.796000,-46.0,-25.0,-64.0,-682.0,237.0,-109.0,0.0,0.0,0.0
19:32:32.800000,-58.0,-40.0,-78.0,-691.0,342.0,-100.0,0.0,0.0,0.0
19:32:32.805000,-92.0,-53.0,-82.0,-691.0,342.0,-100.0,0.0,0.0,0.0
19:32:32.810000,-134.0,-58.0,-62.0,-731.0,365.0,-78.0,0.0,0.0,0.0
19:32:32.814000,-165.0,-63.0,-42.0,-731.0,365.0,-78.0,0.0,0.0,0.0
19:32:32.819000,-186.0,-61.0,-35.0,-773.0,246.0,-65.0,0.0,0.0,0.0
19:32:32.824000,-198.0,-54.0,-36.0,-773.0,246.0,-65.0,0.0,0.0,0.0
19:32:32.828000,-196.0,-46.0,-30.0,-798.0,92.0,-69.0,0.0,0.0,0.0
19:32:32.833000,-186.0,-37.0,-5.0,-798.0,92.0,-69.0,0.0,0.0,0.0
19:32:32.838000,-167.0,-30.0,13.0,-807.0,-10.0,-89.0,0.0,0.0,0.0
19:32:32.843000,-138.0,-18.0,19.0,-807.0,-10.0,-89.0,0.0,0.0,0.0
19:32:32.847000,-112.0,-14.0,11.0,-807.0,-10.0,-89.0,0.0,0.0,0.0
19:32:32.852000,-87.0,-20.0,24.0,-801.0,-33.0,-111.0,0.0,0.0,0.0
19:32:32.857000,-68.0,-32.0,44.0,-801.0,-33.0,-111.0,0.0,0.0,0.0
19:32:32.861000,-46.0,-54.0,41.0,-734.0,-26.0,-110.0,0.0,0.0,0.0
19:32:32.866000,-32.0,-77.0,20.0,-734.0,-26.0,-110.0,0.0,0.0,0.0
19:32:32.871000,-39.0,-99.0,1.0,-633.0,-6.0,-84.0,0.0,0.0,0.0
19:32:32.875000,-66.0,-118.0,-15.0,-633.0,-6.0,-84.0,0.0,0.0,0.0
19:32:32.880000,-110.0,-133.0,-19.0,-593.0,69.0,-39.0,0.0,0.0,0.0
19:32:32.885000,-149.0,-136.0,-30.0,-593.0,69.0,-39.0,0.0,0.0,0.0
19:32:32.890000,-149.0,-136.0,-30.0,-648.0,98.0,-4.0,0.0,0.0,0.0
19:32:32.894000,-170.0,-134.0,-60.0,-648.0,98.0,-4.0,0.0,0.0,0.0
19:32:32.899000,-173.0,-120.0,-80.0,-759.0,13.0,-7.0,0.0,0.0,0.0
19:32:32.904000,-158.0,-102.0,-102.0,-759.0,13.0,-7.0,0.0,0.0,0.0
19:32:32.908000,-133.0,-83.0,-119.0,-853.0,-89.0,-32.0,0.0,0.0,0.0
19:32:32.913000,-108.0,-58.0,-116.0,-853.0,-89.0,-32.0,0.0,0.0,0.0
19:32:32.918000,-81.0,-32.0,-109.0,-866.0,-123.0,-63.0,0.0,0.0,0.0
19:32:32.922000,-55.0,-6.0,-102.0,-866.0,-123.0,-63.0,0.0,0.0,0.0
19:32:32.927000,-31.0,13.0,-100.0,-802.0,-80.0,-97.0,0.0,0.0,0.0
19:32:32.932000,-7.0,27.0,-103.0,-802.0,-80.0,-97.0,0.0,0.0,0.0
19:32:32.937000,18.0,31.0,-102.0,-716.0,0.0,-134.0,0.0,0.0,0.0
19:32:32.941000,37.0,25.0,-85.0,-716.0,0.0,-134.0,0.0,0.0,0.0
19:32:32.946000,50.0,6.0,-56.0,-655.0,82.0,-171.0,0.0,0.0,0.0
19:32:32.951000,56.0,-28.0,-23.0,-655.0,82.0,-171.0,0.0,0.0,0.0
19:32:32.955000,51.0,-73.0,15.0,-655.0,82.0,-171.0,0.0,0.0,0.0
19:32:32.960000,40.0,-126.0,68.0,-633.0,156.0,-185.0,0.0,0.0,0.0
19:32:32.965000,26.0,-180.0,134.0,-633.0,156.0,-185.0,0.0,0.0,0.0
19:32:32.969000,11.0,-234.0,197.0,-614.0,184.0,-174.0,0.0,0.0,0.0
19:32:32.974000,-1.0,-284.0,263.0,-614.0,184.0,-174.0,0.0,0.0,0.0
19:32:32.979000,-3.0,-326.0,309.0,-607.0,160.0,-157.0,0.0,0.0,0.0
19:32:32.984000,-6.0,-361.0,350.0,-607.0,160.0,-157.0,0.0,0.0,0.0
19:32:32.988000,-3.0,-389.0,392.0,-655.0,128.0,-147.0,0.0,0.0,0.0
19:32:32.993000,6.0,-413.0,441.0,-655.0,128.0,-147.0,0.0,0.0,0.0
19:32:32.998000,6.0,-413.0,441.0,-726.0,89.0,-142.0,0.0,0.0,0.0
19:32:33.002000,19.0,-433.0,508.0,-726.0,89.0,-142.0,0.0,0.0,0.0
19:32:33.007000,21.0,-444.0,569.0,-783.0,84.0,-127.0,0.0,0.0,0.0
19:32:33.012000,7.0,-451.0,621.0,-783.0,84.0,-127.0,0.0,0.0,0.0
19:32:33.016000,-20.0,-456.0,681.0,-808.0,134.0,-79.0,0.0,0.0,0.0
19:32:33.021000,-61.0,-459.0,739.0,-808.0,134.0,-79.0,0.0,0.0,0.0
19:32:33.026000,-110.0,-464.0,790.0,-775.0,177.0,-11.0,0.0,0.0,0.0
19:32:33.031000,-156.0,-465.0,828.0,-775.0,177.0,-11.0,0.0,0.0,0.0
19:32:33.035000,-196.0,-464.0,854.0,-722.0,165.0,46.0,0.0,0.0,0.0
19:32:33.040000,-223.0,-455.0,881.0,-722.0,165.0,46.0,0.0,0.0,0.0
19:32:33.045000,-238.0,-441.0,910.0,-714.0,95.0,79.0,0.0,0.0,0.0
19:32:33.049000,-242.0,-419.0,934.0,-714.0,95.0,79.0,0.0,0.0,0.0
19:32:33.054000,-237.0,-393.0,957.0,-759.0,38.0,66.0,0.0,0.0,0.0
19:32:33.059000,-226.0,-367.0,981.0,-759.0,38.0,66.0,0.0,0.0,0.0
19:32:33.063000,-207.0,-341.0,1008.0,-759.0,38.0,66.0,0.0,0.0,0.0
19:32:33.068000,-185.0,-312.0,1052.0,-813.0,0.0,8.0,0.0,0.0,0.0
19:32:33.073000,-163.0,-294.0,1117.0,-813.0,0.0,8.0,0.0,0.0,0.0
19:32:33.078000,-150.0,-284.0,1186.0,-840.0,-39.0,-63.0,0.0,0.0,0.0
19:32:33.082000,-148.0,-282.0,1255.0,-840.0,-39.0,-63.0,0.0,0.0,0.0
19:32:33.087000,-155.0,-294.0,1334.0,-803.0,-33.0,-118.0,0.0,0.0,0.0
19:32:33.092000,-167.0,-321.0,1404.0,-803.0,-33.0,-118.0,0.0,0.0,0.0
19:32:33.096000,-180.0,-357.0,1464.0,-669.0,-22.0,-139.0,0.0,0.0,0.0
19:32:33.101000,-198.0,-396.0,1508.0,-669.0,-22.0,-139.0,0.0,0.0,0.0
19:32:33.106000,-198.0,-396.0,1508.0,-527.0,-42.0,-133.0,0.0,0.0,0.0
19:32:33.110000,-208.0,-438.0,1509.0,-527.0,-42.0,-133.0,0.0,0.0,0.0
19:32:33.115000,-221.0,-480.0,1479.0,-480.0,-47.0,-115.0,0.0,0.0,0.0
19:32:33.120000,-231.0,-518.0,1444.0,-480.0,-47.0,-115.0,0.0,0.0,0.0
19:32:33.125000,-226.0,-542.0,1393.0,-498.0,-65.0,-90.0,0.0,0.0,0.0
19:32:33.129000,-206.0,-555.0,1329.0,-498.0,-65.0,-90.0,0.0,0.0,0.0
19:32:33.134000,-172.0,-553.0,1258.0,-544.0,-100.0,-63.0,0.0,0.0,0.0
19:32:33.139000,-130.0,-532.0,1194.0,-544.0,-100.0,-63.0,0.0,0.0,0.0
19:32:33.143000,-86.0,-499.0,1133.0,-658.0,-91.0,-41.0,0.0,0.0,0.0
19:32:33.148000,-40.0,-458.0,1076.0,-658.0,-91.0,-41.0,0.0,0.0,0.0
19:32:33.153000,2.0,-401.0,1029.0,-802.0,-55.0,-14.0,0.0,0.0,0.0
19:32:33.157000,32.0,-331.0,1001.0,-802.0,-55.0,-14.0,0.0,0.0,0.0
19:32:33.162000,56.0,-259.0,980.0,-908.0,-18.0,4.0,0.0,0.0,0.0
19:32:33.167000,77.0,-192.0,947.0,-908.0,-18.0,4.0,0.0,0.0,0.0
19:32:33.172000,87.0,-137.0,896.0,-908.0,-18.0,4.0,0.0,0.0,0.0
19:32:33.176000,87.0,-97.0,830.0,-972.0,51.0,2.0,0.0,0.0,0.0
19:32:33.181000,81.0,-67.0,765.0,-972.0,51.0,2.0,0.0,0.0,0.0
19:32:33.186000,70.0,-47.0,712.0,-953.0,130.0,-14.0,0.0,0.0,0.0
19:32:33.190000,58.0,-43.0,673.0,-953.0,130.0,-14.0,0.0,0.0,0.0
19:32:33.195000,39.0,-49.0,641.0,-848.0,165.0,-33.0,0.0,0.0,0.0
19:32:33.200000,15.0,-59.0,614.0,-848.0,165.0,-33.0,0.0,0.0,0.0
19:32:33.204000,-11.0,-68.0,601.0,-757.0,178.0,-41.0,0.0,0.0,0.0
19:32:33.209000,-37.0,-77.0,597.0,-757.0,178.0,-41.0,0.0,0.0,0.0
19:32:33.214000,-45.0,-88.0,588.0,-735.0,135.0,-49.0,0.0,0.0,0.0
19:32:33.219000,-45.0,-88.0,588.0,-735.0,135.0,-49.0,0.0,0.0,0.0
19:32:33.223000,-52.0,-91.0,573.0,-761.0,19.0,-58.0,0.0,0.0,0.0
19:32:33.228000,-65.0,-88.0,559.0,-761.0,19.0,-58.0,0.0,0.0,0.0
19:32:33.233000,-74.0,-81.0,561.0,-815.0,-78.0,-50.0,0.0,0.0,0.0
19:32:33.237000,-67.0,-72.0,569.0,-815.0,-78.0,-50.0,0.0,0.0,0.0
19:32:33.242000,-48.0,-63.0,538.0,-903.0,-138.0,-27.0,0.0,0.0,0.0
19:32:33.247000,-35.0,-51.0,474.0,-903.0,-138.0,-27.0,0.0,0.0,0.0
19:32:33.251000,-12.0,-63.0,411.0,-948.0,-185.0,-1.0,0.0,0.0,0.0
19:32:33.256000,1.0,-63.0,401.0,-948.0,-185.0,-1.0,0.0,0.0,0.0
19:32:33.261000,20.0,-47.0,417.0,-889.0,-208.0,17.0,0.0,0.0,0.0
19:32:33.266000,35.0,-65.0,389.0,-889.0,-208.0,17.0,0.0,0.0,0.0
19:32:33.270000,7.0,-72.0,354.0,-863.0,-107.0,39.0,0.0,0.0,0.0
19:32:33.275000,-64.0,-74.0,368.0,-863.0,-107.0,39.0,0.0,0.0,0.0
19:32:33.280000,-138.0,-107.0,387.0,-863.0,-107.0,39.0,0.0,0.0,0.0
19:32:33.284000,-143.0,-100.0,379.0,-1008.0,45.0,52.0,0.0,0.0,0.0
19:32:33.288000,-183.0,-67.0,308.0,-851.0,94.0,25.0,0.0,0.0,0.0
19:32:33.294000,-207.0,-65.0,215.0,-851.0,94.0,25.0,0.0,0.0,0.0
19:32:33.298000,-233.0,-105.0,158.0,-851.0,94.0,25.0,0.0,0.0,0.0
19:32:33.303000,-315.0,-106.0,340.0,-586.0,49.0,21.0,0.0,0.0,0.0
19:32:33.308000,-361.0,-117.0,551.0,-586.0,49.0,21.0,0.0,0.0,0.0
19:32:33.313000,-352.0,-123.0,646.0,-649.0,-120.0,29.0,0.0,0.0,0.0
19:32:33.317000,-297.0,-135.0,681.0,-649.0,-120.0,29.0,0.0,0.0,0.0
19:32:33.322000,-231.0,-149.0,675.0,-782.0,-292.0,-3.0,0.0,0.0,0.0
19:32:33.327000,-231.0,-149.0,675.0,-782.0,-292.0,-3.0,0.0,0.0,0.0
19:32:33.331000,-165.0,-151.0,627.0,-811.0,-334.0,-18.0,0.0,0.0,0.0
19:32:33.336000,-144.0,-134.0,639.0,-811.0,-334.0,-18.0,0.0,0.0,0.0
19:32:33.341000,-112.0,-137.0,676.0,-645.0,-323.0,-13.0,0.0,0.0,0.0
19:32:33.345000,-87.0,-128.0,691.0,-645.0,-323.0,-13.0,0.0,0.0,0.0
19:32:33.350000,-61.0,-109.0,607.0,-578.0,-318.0,-13.0,0.0,0.0,0.0
19:32:33.355000,-20.0,-106.0,480.0,-578.0,-318.0,-13.0,0.0,0.0,0.0
19:32:33.360000,28.0,-105.0,403.0,-634.0,-315.0,-31.0,0.0,0.0,0.0
19:32:33.364000,77.0,-95.0,298.0,-634.0,-315.0,-31.0,0.0,0.0,0.0
19:32:33.369000,109.0,-95.0,226.0,-664.0,-247.0,-64.0,0.0,0.0,0.0
19:32:33.374000,117.0,-95.0,182.0,-664.0,-247.0,-64.0,0.0,0.0,0.0
19:32:33.378000,104.0,-90.0,153.0,-754.0,-92.0,-101.0,0.0,0.0,0.0
19:32:33.383000,96.0,-95.0,199.0,-754.0,-92.0,-101.0,0.0,0.0,0.0
19:32:33.388000,88.0,-105.0,284.0,-754.0,-92.0,-101.0,0.0,0.0,0.0
19:32:33.392000,88.0,-123.0,347.0,-877.0,66.0,-131.0,0.0,0.0,0.0
19:32:33.397000,58.0,-130.0,443.0,-877.0,66.0,-131.0,0.0,0.0,0.0
19:32:33.402000,26.0,-136.0,560.0,-1008.0,166.0,-131.0,0.0,0.0,0.0
19:32:33.407000,-11.0,-144.0,585.0,-1008.0,166.0,-131.0,0.0,0.0,0.0
19:32:33.411000,-21.0,-152.0,558.0,-1148.0,192.0,-119.0,0.0,0.0,0.0
19:32:33.416000,-37.0,-160.0,509.0,-1148.0,192.0,-119.0,0.0,0.0,0.0
19:32:33.421000,-44.0,-162.0,426.0,-1240.0,128.0,-130.0,0.0,0.0,0.0
19:32:33.425000,-46.0,-144.0,236.0,-1240.0,128.0,-130.0,0.0,0.0,0.0
19:32:33.430000,-58.0,-116.0,-9.0,-1286.0,99.0,-165.0,0.0,0.0,0.0
19:32:33.435000,-58.0,-116.0,-9.0,-1286.0,99.0,-165.0,0.0,0.0,0.0
19:32:33.439000,-43.0,-104.0,-156.0,-1318.0,164.0,-190.0,0.0,0.0,0.0
19:32:33.444000,-6.0,-98.0,-219.0,-1318.0,164.0,-190.0,0.0,0.0,0.0
19:32:33.449000,26.0,-96.0,-256.0,-1366.0,164.0,-156.0,0.0,0.0,0.0
19:32:33.454000,49.0,-72.0,-257.0,-1366.0,164.0,-156.0,0.0,0.0,0.0
19:32:33.458000,74.0,-70.0,-238.0,-1374.0,-44.0,-90.0,0.0,0.0,0.0
19:32:33.463000,86.0,-12.0,-227.0,-1374.0,-44.0,-90.0,0.0,0.0,0.0
19:32:33.468000,114.0,56.0,-182.0,-1224.0,-370.0,-80.0,0.0,0.0,0.0
19:32:33.472000,298.0,92.0,-210.0,-1224.0,-370.0,-80.0,0.0,0.0,0.0
19:32:33.477000,361.0,144.0,-304.0,-1176.0,-391.0,-104.0,0.0,0.0,0.0
19:32:33.482000,425.0,175.0,-452.0,-1176.0,-391.0,-104.0,0.0,0.0,0.0
19:32:33.486000,439.0,213.0,-632.0,-1345.0,-52.0,-111.0,0.0,0.0,0.0
19:32:33.491000,459.0,240.0,-735.0,-1345.0,-52.0,-111.0,0.0,0.0,0.0
19:32:33.496000,378.0,287.0,-851.0,-1345.0,265.0,-88.0,0.0,0.0,0.0
19:32:33.501000,322.0,291.0,-968.0,-1530.0,265.0,-88.0,0.0,0.0,0.0
19:32:33.505000,274.0,277.0,-973.0,-1530.0,265.0,-88.0,0.0,0.0,0.0
19:32:33.510000,254.0,273.0,-924.0,-1600.0,279.0,-63.0,0.0,0.0,0.0
19:32:33.515000,200.0,265.0,-907.0,-1600.0,279.0,-63.0,0.0,0.0,0.0
19:32:33.519000,162.0,249.0,-868.0,-1453.0,17.0,-46.0,0.0,0.0,0.0
19:32:33.524000,123.0,239.0,-763.0,-1453.0,17.0,-46.0,0.0,0.0,0.0
19:32:33.529000,95.0,233.0,-693.0,-1198.0,-316.0,-32.0,0.0,0.0,0.0
19:32:33.533000,102.0,217.0,-639.0,-1198.0,-316.0,-32.0,0.0,0.0,0.0
19:32:33.538000,140.0,201.0,-677.0,-1054.0,-540.0,-33.0,0.0,0.0,0.0
19:32:33.543000,140.0,201.0,-677.0,-1054.0,-540.0,-33.0,0.0,0.0,0.0
19:32:33.548000,205.0,179.0,-793.0,-1062.0,-560.0,-38.0,0.0,0.0,0.0
19:32:33.552000,219.0,192.0,-891.0,-1062.0,-560.0,-38.0,0.0,0.0,0.0
19:32:33.557000,273.0,176.0,-867.0,-1031.0,-526.0,-32.0,0.0,0.0,0.0
19:32:33.562000,273.0,148.0,-872.0,-1031.0,-526.0,-32.0,0.0,0.0,0.0
19:32:33.566000,244.0,161.0,-970.0,-1044.0,-460.0,-12.0,0.0,0.0,0.0
19:32:33.571000,219.0,158.0,-1016.0,-1044.0,-460.0,-12.0,0.0,0.0,0.0
19:32:33.576000,228.0,139.0,-961.0,-1120.0,-430.0,2.0,0.0,0.0,0.0
19:32:33.580000,231.0,131.0,-921.0,-1120.0,-430.0,2.0,0.0,0.0,0.0
19:32:33.585000,221.0,137.0,-947.0,-1137.0,-441.0,11.0,0.0,0.0,0.0
19:32:33.590000,245.0,122.0,-1009.0,-1137.0,-441.0,11.0,0.0,0.0,0.0
19:32:33.595000,269.0,119.0,-1004.0,-1143.0,-405.0,6.0,0.0,0.0,0.0
19:32:33.599000,287.0,112.0,-945.0,-1143.0,-405.0,6.0,0.0,0.0,0.0
19:32:33.604000,301.0,114.0,-926.0,-1148.0,-312.0,-5.0,0.0,0.0,0.0
19:32:33.609000,268.0,129.0,-904.0,-1148.0,-312.0,-5.0,0.0,0.0,0.0
19:32:33.613000,231.0,142.0,-889.0,-1148.0,-312.0,-5.0,0.0,0.0,0.0
19:32:33.618000,231.0,143.0,-856.0,-1215.0,-131.0,-7.0,0.0,0.0,0.0
19:32:33.623000,238.0,149.0,-821.0,-1215.0,-131.0,-7.0,0.0,0.0,0.0
19:32:33.627000,227.0,161.0,-838.0,-1344.0,-51.0,-26.0,0.0,0.0,0.0
19:32:33.632000,215.0,176.0,-865.0,-1344.0,-51.0,-26.0,0.0,0.0,0.0
19:32:33.637000,199.0,182.0,-816.0,-1372.0,-29.0,-45.0,0.0,0.0,0.0
19:32:33.641000,183.0,196.0,-765.0,-1372.0,-29.0,-45.0,0.0,0.0,0.0
19:32:33.646000,183.0,196.0,-765.0,-1277.0,78.0,-42.0,0.0,0.0,0.0
19:32:33.651000,165.0,222.0,-756.0,-1277.0,78.0,-42.0,0.0,0.0,0.0
19:32:33.656000,165.0,222.0,-756.0,-1269.0,98.0,-41.0,0.0,0.0,0.0
19:32:33.660000,161.0,221.0,-781.0,-1269.0,98.0,-41.0,0.0,0.0,0.0
19:32:33.665000,131.0,230.0,-777.0,-1303.0,22.0,-49.0,0.0,0.0,0.0
19:32:33.670000,114.0,238.0,-723.0,-1303.0,22.0,-49.0,0.0,0.0,0.0
19:32:33.674000,106.0,233.0,-666.0,-1273.0,15.0,-65.0,0.0,0.0,0.0
19:32:33.679000,73.0,228.0,-599.0,-1273.0,15.0,-65.0,0.0,0.0,0.0
19:32:33.684000,35.0,222.0,-532.0,-1263.0,55.0,-81.0,0.0,0.0,0.0
19:32:33.688000,11.0,216.0,-503.0,-1263.0,55.0,-81.0,0.0,0.0,0.0
19:32:33.693000,-7.0,214.0,-534.0,-1262.0,90.0,-100.0,0.0,0.0,0.0
19:32:33.698000,-18.0,203.0,-564.0,-1262.0,90.0,-100.0,0.0,0.0,0.0
19:32:33.703000,-37.0,196.0,-529.0,-1221.0,92.0,-122.0,0.0,0.0,0.0
19:32:33.707000,-51.0,192.0,-479.0,-1221.0,92.0,-122.0,0.0,0.0,0.0
19:32:33.712000,-33.0,178.0,-489.0,-1215.0,99.0,-146.0,0.0,0.0,0.0
19:32:33.717000,-16.0,168.0,-528.0,-1215.0,99.0,-146.0,0.0,0.0,0.0
19:32:33.721000,0.0,160.0,-543.0,-1215.0,99.0,-146.0,0.0,0.0,0.0
19:32:33.726000,7.0,146.0,-507.0,-1244.0,119.0,-162.0,0.0,0.0,0.0
19:32:33.731000,23.0,137.0,-459.0,-1244.0,119.0,-162.0,0.0,0.0,0.0
19:32:33.735000,52.0,133.0,-448.0,-1231.0,118.0,-171.0,0.0,0.0,0.0
19:32:33.740000,80.0,128.0,-450.0,-1231.0,118.0,-171.0,0.0,0.0,0.0
19:32:33.745000,102.0,128.0,-439.0,-1210.0,124.0,-178.0,0.0,0.0,0.0
19:32:33.750000,106.0,130.0,-403.0,-1210.0,124.0,-178.0,0.0,0.0,0.0
19:32:33.754000,119.0,133.0,-348.0,-1197.0,131.0,-178.0,0.0,0.0,0.0
19:32:33.758000,119.0,133.0,-348.0,-1197.0,131.0,-178.0,0.0,0.0,0.0
19:32:33.764000,130.0,130.0,-303.0,-1194.0,149.0,-174.0,0.0,0.0,0.0
19:32:33.768000,140.0,125.0,-291.0,-1194.0,149.0,-174.0,0.0,0.0,0.0
19:32:33.773000,137.0,124.0,-319.0,-1213.0,206.0,-173.0,0.0,0.0,0.0
19:32:33.778000,126.0,123.0,-357.0,-1213.0,206.0,-173.0,0.0,0.0,0.0
19:32:33.782000,108.0,116.0,-366.0,-1219.0,268.0,-161.0,0.0,0.0,0.0
19:32:33.787000,89.0,109.0,-350.0,-1219.0,268.0,-161.0,0.0,0.0,0.0
19:32:33.792000,74.0,109.0,-333.0,-1198.0,297.0,-148.0,0.0,0.0,0.0
19:32:33.797000,58.0,107.0,-302.0,-1198.0,297.0,-148.0,0.0,0.0,0.0
19:32:33.801000,36.0,107.0,-261.0,-1183.0,305.0,-143.0,0.0,0.0,0.0
19:32:33.806000,17.0,109.0,-252.0,-1183.0,305.0,-143.0,0.0,0.0,0.0
19:32:33.811000,-1.0,116.0,-287.0,-1198.0,297.0,-136.0,0.0,0.0,0.0
19:32:33.815000,-14.0,119.0,-316.0,-1198.0,297.0,-136.0,0.0,0.0,0.0
19:32:33.820000,-36.0,123.0,-311.0,-1194.0,265.0,-122.0,0.0,0.0,0.0
19:32:33.825000,-61.0,140.0,-293.0,-1194.0,265.0,-122.0,0.0,0.0,0.0
19:32:33.829000,-91.0,164.0,-288.0,-1194.0,265.0,-122.0,0.0,0.0,0.0
19:32:33.834000,-105.0,189.0,-307.0,-1181.0,251.0,-105.0,0.0,0.0,0.0
19:32:33.839000,-115.0,215.0,-373.0,-1181.0,251.0,-105.0,0.0,0.0,0.0
19:32:33.844000,-126.0,239.0,-462.0,-1232.0,266.0,-96.0,0.0,0.0,0.0
19:32:33.848000,-114.0,253.0,-539.0,-1232.0,266.0,-96.0,0.0,0.0,0.0
19:32:33.853000,-119.0,266.0,-574.0,-1269.0,244.0,-95.0,0.0,0.0,0.0
19:32:33.858000,-95.0,278.0,-579.0,-1269.0,244.0,-95.0,0.0,0.0,0.0
19:32:33.862000,-70.0,289.0,-587.0,-1247.0,195.0,-109.0,0.0,0.0,0.0
19:32:33.867000,-43.0,290.0,-593.0,-1247.0,195.0,-109.0,0.0,0.0,0.0
19:32:33.872000,-43.0,290.0,-593.0,-1242.0,202.0,-124.0,0.0,0.0,0.0
19:32:33.876000,-24.0,296.0,-582.0,-1242.0,202.0,-124.0,0.0,0.0,0.0
19:32:33.881000,-8.0,295.0,-547.0,-1231.0,219.0,-128.0,0.0,0.0,0.0
19:32:33.886000,7.0,292.0,-514.0,-1231.0,219.0,-128.0,0.0,0.0,0.0
19:32:33.891000,24.0,293.0,-483.0,-1168.0,217.0,-139.0,0.0,0.0,0.0
19:32:33.895000,53.0,291.0,-449.0,-1168.0,217.0,-139.0,0.0,0.0,0.0
19:32:33.900000,81.0,289.0,-401.0,-1112.0,242.0,-161.0,0.0,0.0,0.0
19:32:33.905000,87.0,283.0,-349.0,-1112.0,242.0,-161.0,0.0,0.0,0.0
19:32:33.909000,87.0,284.0,-318.0,-1086.0,332.0,-189.0,0.0,0.0,0.0
19:32:33.914000,81.0,287.0,-309.0,-1086.0,332.0,-189.0,0.0,0.0,0.0
19:32:33.919000,91.0,283.0,-293.0,-1067.0,408.0,-214.0,0.0,0.0,0.0
19:32:33.923000,84.0,277.0,-263.0,-1067.0,408.0,-214.0,0.0,0.0,0.0
19:32:33.928000,76.0,276.0,-239.0,-1072.0,418.0,-242.0,0.0,0.0,0.0
19:32:33.933000,68.0,274.0,-233.0,-1072.0,418.0,-242.0,0.0,0.0,0.0
19:32:33.938000,46.0,268.0,-219.0,-1072.0,418.0,-242.0,0.0,0.0,0.0
19:32:33.942000,21.0,252.0,-203.0,-1094.0,478.0,-264.0,0.0,0.0,0.0
19:32:33.947000,-6.0,237.0,-207.0,-1094.0,478.0,-264.0,0.0,0.0,0.0
19:32:33.952000,-21.0,217.0,-233.0,-1078.0,533.0,-279.0,0.0,0.0,0.0
19:32:33.956000,-34.0,200.0,-241.0,-1078.0,533.0,-279.0,0.0,0.0,0.0
19:32:33.961000,-35.0,186.0,-197.0,-1059.0,513.0,-301.0,0.0,0.0,0.0
19:32:33.966000,-35.0,173.0,-105.0,-1059.0,513.0,-301.0,0.0,0.0,0.0
19:32:33.970000,-23.0,155.0,-44.0,-1053.0,427.0,-315.0,0.0,0.0,0.0
19:32:33.975000,-5.0,143.0,-34.0,-1053.0,427.0,-315.0,0.0,0.0,0.0
19:32:33.980000,19.0,133.0,-19.0,-1090.0,379.0,-315.0,0.0,0.0,0.0
19:32:33.985000,19.0,133.0,-19.0,-1090.0,379.0,-315.0,0.0,0.0,0.0
19:32:33.989000,42.0,124.0,3.0,-1144.0,361.0,-314.0,0.0,0.0,0.0
19:32:33.994000,60.0,116.0,1.0,-1144.0,361.0,-314.0,0.0,0.0,0.0
19:32:33.999000,72.0,117.0,-28.0,-1169.0,345.0,-309.0,0.0,0.0,0.0
19:32:34.003000,79.0,115.0,-56.0,-1169.0,345.0,-309.0,0.0,0.0,0.0
19:32:34.008000,74.0,112.0,-70.0,-1154.0,384.0,-297.0,0.0,0.0,0.0
19:32:34.013000,65.0,104.0,-93.0,-1154.0,384.0,-297.0,0.0,0.0,0.0
19:32:34.017000,62.0,95.0,-128.0,-1052.0,404.0,-284.0,0.0,0.0,0.0
19:32:34.022000,68.0,92.0,-147.0,-1052.0,404.0,-284.0,0.0,0.0,0.0
19:32:34.027000,70.0,88.0,-143.0,-928.0,407.0,-276.0,0.0,0.0,0.0
19:32:34.032000,71.0,81.0,-130.0,-928.0,407.0,-276.0,0.0,0.0,0.0
19:32:34.036000,70.0,79.0,-123.0,-881.0,474.0,-274.0,0.0,0.0,0.0
19:32:34.041000,60.0,81.0,-128.0,-881.0,474.0,-274.0,0.0,0.0,0.0
19:32:34.046000,36.0,91.0,-115.0,-881.0,474.0,-274.0,0.0,0.0,0.0
19:32:34.050000,10.0,98.0,-58.0,-900.0,585.0,-274.0,0.0,0.0,0.0
19:32:34.055000,-18.0,97.0,2.0,-916.0,640.0,-265.0,0.0,0.0,0.0
19:32:34.060000,-35.0,82.0,25.0,-916.0,640.0,-265.0,0.0,0.0,0.0
19:32:34.064000,-33.0,58.0,29.0,-916.0,640.0,-265.0,0.0,0.0,0.0
19:32:34.069000,-28.0,29.0,50.0,-906.0,597.0,-254.0,0.0,0.0,0.0
19:32:34.074000,-23.0,0.0,70.0,-906.0,597.0,-254.0,0.0,0.0,0.0
19:32:34.079000,-30.0,-30.0,88.0,-853.0,518.0,-251.0,0.0,0.0,0.0
19:32:34.083000,-39.0,-55.0,108.0,-853.0,518.0,-251.0,0.0,0.0,0.0
19:32:34.088000,-36.0,-83.0,93.0,-784.0,523.0,-244.0,0.0,0.0,0.0
19:32:34.093000,-36.0,-83.0,93.0,-784.0,523.0,-244.0,0.0,0.0,0.0
19:32:34.097000,-31.0,-98.0,36.0,-714.0,583.0,-231.0,0.0,0.0,0.0
19:32:34.102000,-28.0,-117.0,-49.0,-714.0,583.0,-231.0,0.0,0.0,0.0
19:32:34.107000,-20.0,-140.0,-153.0,-638.0,601.0,-218.0,0.0,0.0,0.0
19:32:34.111000,-31.0,-140.0,-234.0,-638.0,601.0,-218.0,0.0,0.0,0.0
19:32:34.116000,-34.0,-149.0,-235.0,-605.0,597.0,-212.0,0.0,0.0,0.0
19:32:34.121000,-39.0,-153.0,-171.0,-605.0,597.0,-212.0,0.0,0.0,0.0
19:32:34.126000,-39.0,-156.0,-170.0,-752.0,596.0,-200.0,0.0,0.0,0.0
19:32:34.130000,-60.0,-160.0,-275.0,-752.0,596.0,-200.0,0.0,0.0,0.0
19:32:34.135000,-59.0,-158.0,-318.0,-966.0,510.0,-177.0,0.0,0.0,0.0
19:32:34.140000,-35.0,-159.0,-182.0,-966.0,510.0,-177.0,0.0,0.0,0.0
19:32:34.144000,-11.0,-177.0,-46.0,-859.0,380.0,-167.0,0.0,0.0,0.0
19:32:34.148000,35.0,-180.0,-5.0,-859.0,380.0,-167.0,0.0,0.0,0.0
19:32:34.154000,78.0,-187.0,-20.0,-859.0,380.0,-167.0,0.0,0.0,0.0
19:32:34.158000,114.0,-188.0,-97.0,-650.0,393.0,-169.0,0.0,0.0,0.0
19:32:34.163000,135.0,-179.0,-128.0,-650.0,393.0,-169.0,0.0,0.0,0.0
19:32:34.168000,123.0,-158.0,-122.0,-608.0,485.0,-164.0,0.0,0.0,0.0
19:32:34.173000,92.0,-140.0,-150.0,-608.0,485.0,-164.0,0.0,0.0,0.0
19:32:34.177000,38.0,-115.0,-172.0,-590.0,566.0,-148.0,0.0,0.0,0.0
19:32:34.182000,-4.0,-67.0,-150.0,-590.0,566.0,-148.0,0.0,0.0,0.0
19:32:34.187000,-44.0,-42.0,-105.0,-524.0,616.0,-143.0,0.0,0.0,0.0
19:32:34.191000,-49.0,-21.0,-50.0,-524.0,616.0,-143.0,0.0,0.0,0.0
19:32:34.196000,-65.0,1.0,-4.0,-496.0,538.0,-161.0,0.0,0.0,0.0
19:32:34.201000,-65.0,1.0,-4.0,-496.0,538.0,-161.0,0.0,0.0,0.0
19:32:34.205000,-52.0,25.0,-23.0,-549.0,403.0,-193.0,0.0,0.0,0.0
19:32:34.210000,-35.0,38.0,-72.0,-549.0,403.0,-193.0,0.0,0.0,0.0
19:32:34.215000,-27.0,40.0,-86.0,-564.0,345.0,-227.0,0.0,0.0,0.0
19:32:34.220000,-25.0,37.0,-66.0,-564.0,345.0,-227.0,0.0,0.0,0.0
19:32:34.224000,-20.0,21.0,-59.0,-542.0,349.0,-233.0,0.0,0.0,0.0
19:32:34.229000,-11.0,0.0,-37.0,-542.0,349.0,-233.0,0.0,0.0,0.0
19:32:34.233000,-11.0,-20.0,5.0,-486.0,350.0,-204.0,0.0,0.0,0.0
19:32:34.238000,-9.0,-39.0,22.0,-486.0,350.0,-204.0,0.0,0.0,0.0
19:32:34.243000,-16.0,-56.0,17.0,-416.0,377.0,-138.0,0.0,0.0,0.0
19:32:34.248000,-32.0,-69.0,9.0,-416.0,377.0,-138.0,0.0,0.0,0.0
19:32:34.252000,-39.0,-77.0,-13.0,-384.0,425.0,-74.0,0.0,0.0,0.0
19:32:34.257000,-41.0,-79.0,-49.0,-384.0,425.0,-74.0,0.0,0.0,0.0
19:32:34.262000,-42.0,-73.0,-69.0,-423.0,424.0,-42.0,0.0,0.0,0.0
19:32:34.266000,-39.0,-61.0,-79.0,-423.0,424.0,-42.0,0.0,0.0,0.0
19:32:34.271000,-37.0,-42.0,-81.0,-423.0,424.0,-42.0,0.0,0.0,0.0
19:32:34.276000,-36.0,-20.0,-69.0,-548.0,386.0,-36.0,0.0,0.0,0.0
19:32:34.281000,-37.0,6.0,-56.0,-548.0,386.0,-36.0,0.0,0.0,0.0
19:32:34.285000,-45.0,30.0,-40.0,-692.0,376.0,-57.0,0.0,0.0,0.0
19:32:34.290000,-49.0,47.0,-34.0,-692.0,376.0,-57.0,0.0,0.0,0.0
19:32:34.295000,-57.0,61.0,-34.0,-777.0,410.0,-92.0,0.0,0.0,0.0
19:32:34.299000,-65.0,70.0,-26.0,-777.0,410.0,-92.0,0.0,0.0,0.0
19:32:34.304000,-71.0,74.0,-28.0,-766.0,414.0,-126.0,0.0,0.0,0.0
19:32:34.309000,-80.0,65.0,-39.0,-766.0,414.0,-126.0,0.0,0.0,0.0
19:32:34.314000,-80.0,65.0,-39.0,-702.0,390.0,-146.0,0.0,0.0,0.0
19:32:34.318000,-93.0,53.0,-53.0,-702.0,390.0,-146.0,0.0,0.0,0.0
19:32:34.323000,-109.0,36.0,-64.0,-657.0,406.0,-144.0,0.0,0.0,0.0
19:32:34.328000,-138.0,16.0,-71.0,-657.0,406.0,-144.0,0.0,0.0,0.0
19:32:34.332000,-174.0,-2.0,-72.0,-651.0,427.0,-126.0,0.0,0.0,0.0
19:32:34.337000,-211.0,-22.0,-72.0,-651.0,427.0,-126.0,0.0,0.0,0.0
19:32:34.342000,-245.0,-39.0,-70.0,-680.0,393.0,-103.0,0.0,0.0,0.0
19:32:34.346000,-273.0,-49.0,-58.0,-680.0,393.0,-103.0,0.0,0.0,0.0
19:32:34.351000,-296.0,-57.0,-39.0,-724.0,306.0,-86.0,0.0,0.0,0.0
19:32:34.356000,-314.0,-61.0,-16.0,-724.0,306.0,-86.0,0.0,0.0,0.0
19:32:34.361000,-322.0,-60.0,4.0,-766.0,198.0,-78.0,0.0,0.0,0.0
19:32:34.365000,-315.0,-55.0,16.0,-766.0,198.0,-78.0,0.0,0.0,0.0
19:32:34.370000,-297.0,-49.0,31.0,-790.0,58.0,-90.0,0.0,0.0,0.0
19:32:34.375000,-269.0,-46.0,49.0,-790.0,58.0,-90.0,0.0,0.0,0.0
19:32:34.379000,-238.0,-44.0,49.0,-790.0,58.0,-90.0,0.0,0.0,0.0
19:32:34.384000,-205.0,-42.0,40.0,-793.0,-87.0,-106.0,0.0,0.0,0.0
19:32:34.389000,-172.0,-44.0,17.0,-793.0,-87.0,-106.0,0.0,0.0,0.0
19:32:34.393000,-142.0,-50.0,-9.0,-771.0,-166.0,-110.0,0.0,0.0,0.0
19:32:34.398000,-121.0,-58.0,-41.0,-771.0,-166.0,-110.0,0.0,0.0,0.0
19:32:34.403000,-100.0,-70.0,-77.0,-748.0,-166.0,-107.0,0.0,0.0,0.0
19:32:34.408000,-75.0,-81.0,-123.0,-748.0,-166.0,-107.0,0.0,0.0,0.0
19:32:34.412000,-53.0,-86.0,-175.0,-761.0,-125.0,-101.0,0.0,0.0,0.0
19:32:34.417000,-36.0,-91.0,-214.0,-761.0,-125.0,-101.0,0.0,0.0,0.0
19:32:34.422000,-36.0,-91.0,-214.0,-783.0,-79.0,-87.0,0.0,0.0,0.0
19:32:34.426000,-19.0,-92.0,-227.0,-783.0,-79.0,-87.0,0.0,0.0,0.0
19:32:34.431000,-5.0,-91.0,-221.0,-779.0,-40.0,-69.0,0.0,0.0,0.0
19:32:34.436000,3.0,-82.0,-206.0,-779.0,-40.0,-69.0,0.0,0.0,0.0
19:32:34.440000,6.0,-70.0,-192.0,-774.0,0.0,-41.0,0.0,0.0,0.0
19:32:34.445000,6.0,-60.0,-184.0,-774.0,0.0,-41.0,0.0,0.0,0.0
19:32:34.450000,7.0,-47.0,-175.0,-774.0,11.0,-12.0,0.0,0.0,0.0
19:32:34.455000,12.0,-32.0,-165.0,-774.0,11.0,-12.0,0.0,0.0,0.0
19:32:34.459000,8.0,-18.0,-165.0,-793.0,18.0,1.0,0.0,0.0,0.0
19:32:34.464000,-1.0,-7.0,-184.0,-793.0,18.0,1.0,0.0,0.0,0.0
19:32:34.469000,-16.0,-2.0,-202.0,-823.0,71.0,1.0,0.0,0.0,0.0
19:32:34.473000,-37.0,0.0,-205.0,-823.0,71.0,1.0,0.0,0.0,0.0
19:32:34.478000,-54.0,0.0,-207.0,-820.0,115.0,-13.0,0.0,0.0,0.0
19:32:34.483000,-70.0,-2.0,-214.0,-820.0,115.0,-13.0,0.0,0.0,0.0
19:32:34.487000,-86.0,-5.0,-214.0,-820.0,115.0,-13.0,0.0,0.0,0.0
19:32:34.492000,-91.0,-9.0,-210.0,-792.0,130.0,-48.0,0.0,0.0,0.0
19:32:34.497000,-83.0,-14.0,-200.0,-792.0,130.0,-48.0,0.0,0.0,0.0
19:32:34.502000,-62.0,-20.0,-168.0,-767.0,122.0,-92.0,0.0,0.0,0.0
19:32:34.506000,-22.0,-28.0,-132.0,-767.0,122.0,-92.0,0.0,0.0,0.0
19:32:34.511000,20.0,-41.0,-85.0,-765.0,85.0,-136.0,0.0,0.0,0.0
19:32:34.516000,56.0,-59.0,-14.0,-765.0,85.0,-136.0,0.0,0.0,0.0
19:32:34.520000,94.0,-82.0,49.0,-801.0,52.0,-163.0,0.0,0.0,0.0
19:32:34.525000,123.0,-107.0,103.0,-801.0,52.0,-163.0,0.0,0.0,0.0
19:32:34.530000,123.0,-107.0,103.0,-842.0,52.0,-168.0,0.0,0.0,0.0
19:32:34.534000,133.0,-130.0,156.0,-842.0,52.0,-168.0,0.0,0.0,0.0
19:32:34.539000,125.0,-156.0,201.0,-864.0,103.0,-157.0,0.0,0.0,0.0
19:32:34.544000,100.0,-186.0,242.0,-864.0,103.0,-157.0,0.0,0.0,0.0
19:32:34.549000,71.0,-220.0,280.0,-857.0,158.0,-131.0,0.0,0.0,0.0
19:32:34.553000,43.0,-252.0,298.0,-857.0,158.0,-131.0,0.0,0.0,0.0
19:32:34.558000,29.0,-280.0,298.0,-819.0,143.0,-101.0,0.0,0.0,0.0
19:32:34.563000,27.0,-298.0,296.0,-819.0,143.0,-101.0,0.0,0.0,0.0
19:32:34.567000,37.0,-310.0,303.0,-795.0,77.0,-69.0,0.0,0.0,0.0
19:32:34.572000,54.0,-311.0,311.0,-795.0,77.0,-69.0,0.0,0.0,0.0
19:32:34.577000,69.0,-305.0,331.0,-820.0,64.0,-42.0,0.0,0.0,0.0
19:32:34.581000,72.0,-290.0,352.0,-820.0,64.0,-42.0,0.0,0.0,0.0
19:32:34.586000,60.0,-270.0,386.0,-852.0,150.0,-22.0,0.0,0.0,0.0
19:32:34.591000,36.0,-253.0,449.0,-852.0,150.0,-22.0,0.0,0.0,0.0
19:32:34.596000,8.0,-235.0,513.0,-852.0,150.0,-22.0,0.0,0.0,0.0
19:32:34.600000,-22.0,-218.0,585.0,-837.0,222.0,-5.0,0.0,0.0,0.0
19:32:34.605000,-51.0,-203.0,665.0,-815.0,164.0,0.0,0.0,0.0,0.0
19:32:34.610000,-72.0,-189.0,719.0,-815.0,164.0,0.0,0.0,0.0,0.0
19:32:34.614000,-93.0,-177.0,742.0,-815.0,164.0,0.0,0.0,0.0,0.0
19:32:34.619000,-115.0,-169.0,735.0,-864.0,69.0,-14.0,0.0,0.0,0.0
19:32:34.624000,-136.0,-165.0,706.0,-864.0,69.0,-14.0,0.0,0.0,0.0
19:32:34.628000,-151.0,-165.0,675.0,-930.0,47.0,-39.0,0.0,0.0,0.0
19:32:34.633000,-159.0,-170.0,649.0,-930.0,47.0,-39.0,0.0,0.0,0.0
19:32:34.638000,-158.0,-175.0,633.0,-907.0,50.0,-69.0,0.0,0.0,0.0
19:32:34.643000,-158.0,-175.0,633.0,-907.0,50.0,-69.0,0.0,0.0,0.0
19:32:34.647000,-150.0,-182.0,630.0,-809.0,48.0,-103.0,0.0,0.0,0.0
19:32:34.652000,-139.0,-191.0,642.0,-809.0,48.0,-103.0,0.0,0.0,0.0
19:32:34.657000,-130.0,-198.0,669.0,-697.0,88.0,-132.0,0.0,0.0,0.0
19:32:34.661000,-124.0,-207.0,712.0,-697.0,88.0,-132.0,0.0,0.0,0.0
19:32:34.666000,-120.0,-214.0,769.0,-595.0,142.0,-148.0,0.0,0.0,0.0
19:32:34.671000,-120.0,-217.0,829.0,-595.0,142.0,-148.0,0.0,0.0,0.0
19:32:34.675000,-112.0,-222.0,880.0,-531.0,134.0,-152.0,0.0,0.0,0.0
19:32:34.680000,-93.0,-226.0,909.0,-531.0,134.0,-152.0,0.0,0.0,0.0
19:32:34.685000,-70.0,-224.0,900.0,-564.0,117.0,-160.0,0.0,0.0,0.0
19:32:34.690000,-56.0,-218.0,860.0,-564.0,117.0,-160.0,0.0,0.0,0.0
19:32:34.694000,-54.0,-208.0,814.0,-672.0,178.0,-173.0,0.0,0.0,0.0
19:32:34.699000,-58.0,-197.0,779.0,-672.0,178.0,-173.0,0.0,0.0,0.0
19:32:34.704000,-61.0,-187.0,751.0,-672.0,178.0,-173.0,0.0,0.0,0.0
19:32:34.708000,-67.0,-181.0,728.0,-746.0,249.0,-194.0,0.0,0.0,0.0
19:32:34.713000,-80.0,-173.0,716.0,-746.0,249.0,-194.0,0.0,0.0,0.0
19:32:34.718000,-102.0,-167.0,725.0,-771.0,303.0,-218.0,0.0,0.0,0.0
19:32:34.722000,-129.0,-161.0,758.0,-794.0,350.0,-231.0,0.0,0.0,0.0
19:32:34.727000,-160.0,-155.0,809.0,-794.0,350.0,-231.0,0.0,0.0,0.0
