hh:mm:ss.ms,gyroX[mdps],gyroY[mdps],gyroZ[mdps],accX[mg],accY[mg],accZ[mg],magX[mG],magY[mG],magZ[mG]
19:32:14.923000,-254.0,79.0,144.0,-1370.0,560.0,-340.0,0.0,0.0,0.0
19:32:14.927000,-281.0,76.0,186.0,-1356.0,433.0,-357.0,0.0,0.0,0.0
19:32:14.932000,-294.0,74.0,198.0,-1356.0,433.0,-357.0,0.0,0.0,0.0
19:32:14.937000,-270.0,65.0,189.0,-1283.0,342.0,-389.0,0.0,0.0,0.0
19:32:14.941000,-252.0,32.0,146.0,-1283.0,342.0,-389.0,0.0,0.0,0.0
19:32:14.946000,-226.0,-1.0,98.0,-1181.0,314.0,-415.0,0.0,0.0,0.0
19:32:14.951000,-196.0,-42.0,59.0,-1181.0,314.0,-415.0,0.0,0.0,0.0
19:32:14.955000,-182.0,-74.0,57.0,-1085.0,347.0,-423.0,0.0,0.0,0.0
19:32:14.960000,-158.0,-95.0,86.0,-1085.0,347.0,-423.0,0.0,0.0,0.0
19:32:14.965000,-153.0,-110.0,133.0,-1034.0,329.0,-407.0,0.0,0.0,0.0
19:32:14.970000,-137.0,-123.0,169.0,-1034.0,329.0,-407.0,0.0,0.0,0.0
19:32:14.974000,-121.0,-134.0,196.0,-1020.0,270.0,-380.0,0.0,0.0,0.0
19:32:14.979000,-95.0,-144.0,190.0,-1020.0,270.0,-380.0,0.0,0.0,0.0
19:32:14.984000,-55.0,-170.0,175.0,-1020.0,270.0,-380.0,0.0,0.0,0.0
19:32:14.988000,-28.0,-177.0,188.0,-1039.0,200.0,-356.0,0.0,0.0,0.0
19:32:14.993000,7.0,-182.0,191.0,-1039.0,200.0,-356.0,0.0,0.0,0.0
19:32:14.998000,38.0,-171.0,191.0,-1083.0,192.0,-337.0,0.0,0.0,0.0
19:32:15.002000,42.0,-159.0,156.0,-1083.0,192.0,-337.0,0.0,0.0,0.0
19:32:15.007000,29.0,-147.0,93.0,-1118.0,320.0,-307.0,0.0,0.0,0.0
19:32:15.012000,62.0,-138.0,16.0,-1118.0,320.0,-307.0,0.0,0.0,0.0
19:32:15.017000,88.0,-149.0,56.0,-1205.0,356.0,-276.0,0.0,0.0,0.0
19:32:15.021000,94.0,-138.0,147.0,-1205.0,356.0,-276.0,0.0,0.0,0.0
19:32:15.026000,92.0,-107.0,140.0,-1221.0,277.0,-258.0,0.0,0.0,0.0
19:32:15.031000,92.0,-107.0,140.0,-1221.0,277.0,-258.0,0.0,0.0,0.0
19:32:15.035000,88.0,-86.0,111.0,-1071.0,353.0,-240.0,0.0,0.0,0.0
19:32:15.040000,59.0,-55.0,161.0,-1071.0,353.0,-240.0,0.0,0.0,0.0
19:32:15.045000,79.0,-38.0,240.0,-891.0,430.0,-241.0,0.0,0.0,0.0
19:32:15.049000,146.0,-32.0,228.0,-891.0,430.0,-241.0,0.0,0.0,0.0
19:32:15.054000,202.0,-27.0,149.0,-819.0,410.0,-260.0,0.0,0.0,0.0
19:32:15.059000,211.0,-30.0,39.0,-819.0,410.0,-260.0,0.0,0.0,0.0
19:32:15.064000,222.0,-56.0,-47.0,-792.0,519.0,-277.0,0.0,0.0,0.0
19:32:15.068000,205.0,-89.0,-60.0,-792.0,519.0,-277.0,0.0,0.0,0.0
19:32:15.073000,203.0,-117.0,-59.0,-719.0,659.0,-293.0,0.0,0.0,0.0
19:32:15.078000,226.0,-137.0,-38.0,-719.0,659.0,-293.0,0.0,0.0,0.0
19:32:15.082000,213.0,-127.0,10.0,-676.0,659.0,-300.0,0.0,0.0,0.0
19:32:15.087000,177.0,-124.0,34.0,-676.0,659.0,-300.0,0.0,0.0,0.0
19:32:15.091000,150.0,-130.0,64.0,-676.0,659.0,-300.0,0.0,0.0,0.0
19:32:15.096000,136.0,-128.0,94.0,-681.0,617.0,-276.0,0.0,0.0,0.0
19:32:15.101000,131.0,-119.0,99.0,-681.0,617.0,-276.0,0.0,0.0,0.0
19:32:15.106000,128.0,-134.0,127.0,-713.0,541.0,-239.0,0.0,0.0,0.0
19:32:15.111000,121.0,-154.0,192.0,-713.0,541.0,-239.0,0.0,0.0,0.0
19:32:15.115000,133.0,-175.0,254.0,-783.0,413.0,-205.0,0.0,0.0,0.0
19:32:15.120000,129.0,-205.0,327.0,-783.0,413.0,-205.0,0.0,0.0,0.0
19:32:15.125000,124.0,-234.0,348.0,-792.0,298.0,-171.0,0.0,0.0,0.0
19:32:15.129000,137.0,-254.0,274.0,-792.0,298.0,-171.0,0.0,0.0,0.0
19:32:15.134000,135.0,-278.0,165.0,-697.0,358.0,-142.0,0.0,0.0,0.0
19:32:15.139000,135.0,-278.0,165.0,-697.0,358.0,-142.0,0.0,0.0,0.0
19:32:15.143000,69.0,-292.0,98.0,-590.0,559.0,-108.0,0.0,0.0,0.0
19:32:15.148000,3.0,-290.0,30.0,-590.0,559.0,-108.0,0.0,0.0,0.0
19:32:15.153000,-56.0,-259.0,-51.0,-483.0,742.0,-103.0,0.0,0.0,0.0
19:32:15.158000,-116.0,-217.0,-102.0,-483.0,742.0,-103.0,0.0,0.0,0.0
19:32:15.162000,-165.0,-171.0,-133.0,-445.0,779.0,-132.0,0.0,0.0,0.0
19:32:15.167000,-198.0,-107.0,-168.0,-445.0,779.0,-132.0,0.0,0.0,0.0
19:32:15.172000,-200.0,-51.0,-145.0,-512.0,615.0,-167.0,0.0,0.0,0.0
19:32:15.176000,-198.0,2.0,-116.0,-512.0,615.0,-167.0,0.0,0.0,0.0
19:32:15.181000,-177.0,44.0,-93.0,-639.0,379.0,-201.0,0.0,0.0,0.0
19:32:15.186000,-147.0,68.0,-74.0,-639.0,379.0,-201.0,0.0,0.0,0.0
19:32:15.190000,-90.0,65.0,-53.0,-674.0,169.0,-208.0,0.0,0.0,0.0
19:32:15.195000,-28.0,43.0,-6.0,-674.0,169.0,-208.0,0.0,0.0,0.0
19:32:15.200000,16.0,12.0,25.0,-674.0,107.0,-208.0,0.0,0.0,0.0
19:32:15.205000,36.0,-19.0,9.0,-553.0,97.0,-180.0,0.0,0.0,0.0
19:32:15.209000,32.0,-56.0,-22.0,-553.0,97.0,-180.0,0.0,0.0,0.0
19:32:15.214000,11.0,-88.0,-80.0,-399.0,259.0,-114.0,0.0,0.0,0.0
19:32:15.219000,-23.0,-98.0,-130.0,-399.0,259.0,-114.0,0.0,0.0,0.0
19:32:15.223000,-78.0,-86.0,-125.0,-278.0,479.0,-31.0,0.0,0.0,0.0
19:32:15.228000,-109.0,-65.0,-121.0,-278.0,479.0,-31.0,0.0,0.0,0.0
19:32:15.233000,-128.0,-29.0,-137.0,-298.0,532.0,27.0,0.0,0.0,0.0
19:32:15.237000,-143.0,11.0,-115.0,-298.0,532.0,27.0,0.0,0.0,0.0
19:32:15.242000,-137.0,44.0,-93.0,-497.0,453.0,35.0,0.0,0.0,0.0
19:32:15.247000,-137.0,44.0,-93.0,-497.0,453.0,35.0,0.0,0.0,0.0
19:32:15.252000,-123.0,72.0,-56.0,-718.0,308.0,-4.0,0.0,0.0,0.0
19:32:15.256000,-94.0,83.0,-21.0,-718.0,308.0,-4.0,0.0,0.0,0.0
19:32:15.261000,-53.0,80.0,15.0,-798.0,155.0,-72.0,0.0,0.0,0.0
19:32:15.266000,-9.0,67.0,72.0,-798.0,155.0,-72.0,0.0,0.0,0.0
19:32:15.270000,16.0,48.0,116.0,-732.0,137.0,-136.0,0.0,0.0,0.0
19:32:15.275000,17.0,25.0,107.0,-732.0,137.0,-136.0,0.0,0.0,0.0
19:32:15.280000,-15.0,-2.0,66.0,-638.0,291.0,-164.0,0.0,0.0,0.0
19:32:15.284000,-60.0,-33.0,12.0,-638.0,291.0,-164.0,0.0,0.0,0.0
19:32:15.289000,-102.0,-59.0,-42.0,-568.0,400.0,-167.0,0.0,0.0,0.0
19:32:15.294000,-130.0,-79.0,-91.0,-568.0,400.0,-167.0,0.0,0.0,0.0
19:32:15.299000,-163.0,-90.0,-134.0,-597.0,372.0,-155.0,0.0,0.0,0.0
19:32:15.303000,-191.0,-96.0,-167.0,-597.0,372.0,-155.0,0.0,0.0,0.0
19:32:15.308000,-223.0,-93.0,-179.0,-741.0,289.0,-116.0,0.0,0.0,0.0
19:32:15.313000,-256.0,-83.0,-163.0,-741.0,289.0,-116.0,0.0,0.0,0.0
19:32:15.317000,-284.0,-66.0,-141.0,-886.0,159.0,-57.0,0.0,0.0,0.0
19:32:15.322000,-303.0,-48.0,-127.0,-886.0,159.0,-57.0,0.0,0.0,0.0
19:32:15.326000,-314.0,-29.0,-123.0,-886.0,159.0,-57.0,0.0,0.0,0.0
19:32:15.331000,-308.0,-15.0,-130.0,-972.0,29.0,-1.0,0.0,0.0,0.0
19:32:15.336000,-293.0,0.0,-137.0,-972.0,29.0,-1.0,0.0,0.0,0.0
19:32:15.341000,-263.0,4.0,-119.0,-974.0,-82.0,24.0,0.0,0.0,0.0
19:32:15.346000,-219.0,5.0,-110.0,-974.0,-82.0,24.0,0.0,0.0,0.0
19:32:15.350000,-174.0,1.0,-124.0,-913.0,-164.0,15.0,0.0,0.0,0.0
19:32:15.355000,-144.0,2.0,-140.0,-913.0,-164.0,15.0,0.0,0.0,0.0
19:32:15.360000,-144.0,2.0,-140.0,-829.0,-164.0,2.0,0.0,0.0,0.0
19:32:15.364000,-133.0,6.0,-153.0,-829.0,-164.0,2.0,0.0,0.0,0.0
19:32:15.369000,-130.0,11.0,-162.0,-745.0,-168.0,5.0,0.0,0.0,0.0
19:32:15.374000,-126.0,23.0,-165.0,-745.0,-168.0,5.0,0.0,0.0,0.0
19:32:15.378000,-120.0,38.0,-172.0,-728.0,-253.0,14.0,0.0,0.0,0.0
19:32:15.383000,-107.0,56.0,-199.0,-728.0,-253.0,14.0,0.0,0.0,0.0
19:32:15.388000,-93.0,71.0,-247.0,-834.0,-291.0,12.0,0.0,0.0,0.0
19:32:15.393000,-84.0,89.0,-303.0,-834.0,-291.0,12.0,0.0,0.0,0.0
19:32:15.397000,-86.0,109.0,-357.0,-978.0,-243.0,7.0,0.0,0.0,0.0
19:32:15.402000,-85.0,124.0,-403.0,-978.0,-243.0,7.0,0.0,0.0,0.0
19:32:15.407000,-74.0,129.0,-427.0,-1027.0,-215.0,7.0,0.0,0.0,0.0
19:32:15.411000,-59.0,128.0,-428.0,-1027.0,-215.0,7.0,0.0,0.0,0.0
19:32:15.416000,-42.0,117.0,-426.0,-966.0,-177.0,8.0,0.0,0.0,0.0
19:32:15.421000,-28.0,99.0,-415.0,-966.0,-177.0,8.0,0.0,0.0,0.0
19:32:15.425000,-14.0,79.0,-396.0,-966.0,-177.0,8.0,0.0,0.0,0.0
19:32:15.430000,4.0,60.0,-360.0,-839.0,-102.0,5.0,0.0,0.0,0.0
19:32:15.435000,20.0,42.0,-315.0,-839.0,-102.0,5.0,0.0,0.0,0.0
19:32:15.440000,46.0,25.0,-271.0,-726.0,-61.0,-11.0,0.0,0.0,0.0
19:32:15.444000,62.0,20.0,-233.0,-726.0,-61.0,-11.0,0.0,0.0,0.0
19:32:15.449000,68.0,23.0,-190.0,-712.0,-28.0,-51.0,0.0,0.0,0.0
19:32:15.454000,63.0,30.0,-129.0,-712.0,-28.0,-51.0,0.0,0.0,0.0
19:32:15.458000,63.0,36.0,-70.0,-771.0,7.0,-94.0,0.0,0.0,0.0
19:32:15.463000,70.0,42.0,-20.0,-771.0,7.0,-94.0,0.0,0.0,0.0
19:32:15.468000,70.0,42.0,-20.0,-811.0,-26.0,-121.0,0.0,0.0,0.0
19:32:15.472000,82.0,42.0,41.0,-811.0,-26.0,-121.0,0.0,0.0,0.0
19:32:15.477000,100.0,32.0,100.0,-834.0,-81.0,-134.0,0.0,0.0,0.0
19:32:15.482000,111.0,18.0,144.0,-834.0,-81.0,-134.0,0.0,0.0,0.0
19:32:15.487000,107.0,2.0,179.0,-862.0,-63.0,-139.0,0.0,0.0,0.0
19:32:15.491000,93.0,-19.0,202.0,-862.0,-63.0,-139.0,0.0,0.0,0.0
19:32:15.496000,72.0,-46.0,222.0,-837.0,-16.0,-136.0,0.0,0.0,0.0
19:32:15.501000,53.0,-83.0,247.0,-837.0,-16.0,-136.0,0.0,0.0,0.0
19:32:15.505000,42.0,-127.0,258.0,-754.0,18.0,-128.0,0.0,0.0,0.0
19:32:15.510000,30.0,-172.0,284.0,-754.0,18.0,-128.0,0.0,0.0,0.0
19:32:15.515000,14.0,-215.0,334.0,-673.0,44.0,-123.0,0.0,0.0,0.0
19:32:15.519000,4.0,-252.0,380.0,-673.0,44.0,-123.0,0.0,0.0,0.0
19:32:15.524000,-8.0,-283.0,434.0,-637.0,60.0,-125.0,0.0,0.0,0.0
19:32:15.529000,-26.0,-308.0,522.0,-637.0,60.0,-125.0,0.0,0.0,0.0
19:32:15.534000,-53.0,-324.0,616.0,-637.0,60.0,-125.0,0.0,0.0,0.0
19:32:15.538000,-86.0,-334.0,700.0,-653.0,88.0,-140.0,0.0,0.0,0.0
19:32:15.543000,-122.0,-345.0,785.0,-653.0,88.0,-140.0,0.0,0.0,0.0
19:32:15.548000,-150.0,-357.0,877.0,-661.0,120.0,-160.0,0.0,0.0,0.0
19:32:15.552000,-171.0,-371.0,962.0,-661.0,120.0,-160.0,0.0,0.0,0.0
19:32:15.557000,-193.0,-389.0,1059.0,-608.0,123.0,-165.0,0.0,0.0,0.0
19:32:15.562000,-217.0,-415.0,1164.0,-608.0,123.0,-165.0,0.0,0.0,0.0
19:32:15.566000,-236.0,-443.0,1276.0,-528.0,105.0,-148.0,0.0,0.0,0.0
19:32:15.571000,-249.0,-471.0,1383.0,-528.0,105.0,-148.0,0.0,0.0,0.0
19:32:15.576000,-249.0,-471.0,1383.0,-470.0,50.0,-118.0,0.0,0.0,0.0
19:32:15.581000,-252.0,-501.0,1488.0,-470.0,50.0,-118.0,0.0,0.0,0.0
19:32:15.585000,-252.0,-529.0,1585.0,-467.0,-54.0,-88.0,0.0,0.0,0.0
19:32:15.590000,-248.0,-559.0,1654.0,-467.0,-54.0,-88.0,0.0,0.0,0.0
19:32:15.595000,-249.0,-584.0,1692.0,-493.0,-142.0,-59.0,0.0,0.0,0.0
19:32:15.599000,-259.0,-605.0,1703.0,-493.0,-142.0,-59.0,0.0,0.0,0.0
19:32:15.604000,-266.0,-621.0,1695.0,-505.0,-214.0,-39.0,0.0,0.0,0.0
19:32:15.609000,-261.0,-634.0,1647.0,-505.0,-214.0,-39.0,0.0,0.0,0.0
19:32:15.613000,-247.0,-637.0,1554.0,-549.0,-258.0,-40.0,0.0,0.0,0.0
19:32:15.618000,-224.0,-630.0,1418.0,-549.0,-258.0,-40.0,0.0,0.0,0.0
19:32:15.623000,-204.0,-617.0,1266.0,-647.0,-202.0,-48.0,0.0,0.0,0.0
19:32:15.628000,-189.0,-597.0,1116.0,-647.0,-202.0,-48.0,0.0,0.0,0.0
19:32:15.632000,-179.0,-569.0,968.0,-741.0,-92.0,-46.0,0.0,0.0,0.0
19:32:15.637000,-165.0,-539.0,824.0,-741.0,-92.0,-46.0,0.0,0.0,0.0
19:32:15.642000,-142.0,-506.0,700.0,-741.0,-92.0,-46.0,0.0,0.0,0.0
19:32:15.646000,-116.0,-466.0,617.0,-782.0,-27.0,-44.0,0.0,0.0,0.0
19:32:15.651000,-94.0,-424.0,578.0,-782.0,-27.0,-44.0,0.0,0.0,0.0
19:32:15.656000,-77.0,-385.0,571.0,-786.0,-7.0,-46.0,0.0,0.0,0.0
19:32:15.660000,-65.0,-351.0,588.0,-786.0,-7.0,-46.0,0.0,0.0,0.0
19:32:15.665000,-53.0,-322.0,624.0,-807.0,22.0,-55.0,0.0,0.0,0.0
19:32:15.670000,-46.0,-297.0,669.0,-807.0,22.0,-55.0,0.0,0.0,0.0
19:32:15.675000,-46.0,-275.0,711.0,-847.0,44.0,-75.0,0.0,0.0,0.0
19:32:15.679000,-48.0,-256.0,741.0,-847.0,44.0,-75.0,0.0,0.0,0.0
19:32:15.684000,-49.0,-240.0,756.0,-877.0,43.0,-89.0,0.0,0.0,0.0
19:32:15.689000,-49.0,-240.0,756.0,-877.0,43.0,-89.0,0.0,0.0,0.0
19:32:15.693000,-53.0,-225.0,746.0,-891.0,23.0,-91.0,0.0,0.0,0.0
19:32:15.698000,-60.0,-208.0,735.0,-891.0,23.0,-91.0,0.0,0.0,0.0
19:32:15.703000,-56.0,-186.0,718.0,-922.0,-48.0,-101.0,0.0,0.0,0.0
19:32:15.707000,-43.0,-162.0,674.0,-922.0,-48.0,-101.0,0.0,0.0,0.0
19:32:15.712000,-24.0,-150.0,604.0,-1001.0,-137.0,-98.0,0.0,0.0,0.0
19:32:15.717000,-12.0,-128.0,525.0,-1001.0,-137.0,-98.0,0.0,0.0,0.0
19:32:15.722000,-9.0,-107.0,480.0,-1039.0,-184.0,-75.0,0.0,0.0,0.0
19:32:15.726000,-25.0,-94.0,497.0,-1039.0,-184.0,-75.0,0.0,0.0,0.0
19:32:15.731000,-30.0,-83.0,504.0,-1026.0,-164.0,-58.0,0.0,0.0,0.0
19:32:15.736000,-9.0,-67.0,380.0,-1026.0,-164.0,-58.0,0.0,0.0,0.0
19:32:15.740000,-1.0,-34.0,233.0,-1016.0,-108.0,-55.0,0.0,0.0,0.0
19:32:15.745000,-3.0,18.0,161.0,-1016.0,-108.0,-55.0,0.0,0.0,0.0
19:32:15.750000,-42.0,18.0,312.0,-1016.0,-108.0,-55.0,0.0,0.0,0.0
19:32:15.754000,-16.0,-14.0,294.0,-1219.0,-125.0,-22.0,0.0,0.0,0.0
19:32:15.759000,11.0,57.0,-6.0,-1219.0,-125.0,-22.0,0.0,0.0,0.0
19:32:15.764000,8.0,53.0,151.0,-1167.0,-162.0,3.0,0.0,0.0,0.0
19:32:15.769000,9.0,89.0,242.0,-1167.0,-162.0,3.0,0.0,0.0,0.0
19:32:15.773000,11.0,84.0,190.0,-710.0,-49.0,-10.0,0.0,0.0,0.0
19:32:15.778000,-29.0,107.0,121.0,-710.0,-49.0,-10.0,0.0,0.0,0.0
19:32:15.783000,-77.0,140.0,169.0,-666.0,43.0,-5.0,0.0,0.0,0.0
19:32:15.787000,-108.0,161.0,242.0,-666.0,43.0,-5.0,0.0,0.0,0.0
19:32:15.792000,-123.0,185.0,303.0,-960.0,-117.0,-17.0,0.0,0.0,0.0
19:32:15.796000,-123.0,185.0,303.0,-960.0,-117.0,-17.0,0.0,0.0,0.0
19:32:15.801000,-118.0,225.0,350.0,-1137.0,-310.0,-69.0,0.0,0.0,0.0
19:32:15.806000,-84.0,256.0,368.0,-1137.0,-310.0,-69.0,0.0,0.0,0.0
19:32:15.811000,-34.0,277.0,310.0,-1109.0,-357.0,-102.0,0.0,0.0,0.0
19:32:15.816000,18.0,282.0,226.0,-1109.0,-357.0,-102.0,0.0,0.0,0.0
19:32:15.820000,71.0,281.0,168.0,-942.0,-360.0,-77.0,0.0,0.0,0.0
19:32:15.825000,130.0,274.0,133.0,-942.0,-360.0,-77.0,0.0,0.0,0.0
19:32:15.830000,207.0,246.0,112.0,-742.0,-390.0,-26.0,0.0,0.0,0.0
19:32:15.834000,282.0,226.0,48.0,-742.0,-390.0,-26.0,0.0,0.0,0.0
19:32:15.839000,322.0,215.0,-46.0,-606.0,-377.0,12.0,0.0,0.0,0.0
19:32:15.844000,359.0,188.0,-94.0,-606.0,-377.0,12.0,0.0,0.0,0.0
19:32:15.848000,405.0,161.0,-125.0,-531.0,-286.0,22.0,0.0,0.0,0.0
19:32:15.853000,398.0,159.0,-177.0,-531.0,-286.0,22.0,0.0,0.0,0.0
19:32:15.858000,352.0,165.0,-184.0,-531.0,-286.0,22.0,0.0,0.0,0.0
19:32:15.863000,319.0,155.0,-154.0,-499.0,-149.0,12.0,0.0,0.0,0.0
19:32:15.867000,290.0,146.0,-123.0,-499.0,-149.0,12.0,0.0,0.0,0.0
19:32:15.872000,267.0,137.0,-88.0,-519.0,-24.0,-9.0,0.0,0.0,0.0
19:32:15.877000,236.0,131.0,-14.0,-519.0,-24.0,-9.0,0.0,0.0,0.0
19:32:15.881000,235.0,123.0,77.0,-523.0,0.0,-53.0,0.0,0.0,0.0
19:32:15.886000,226.0,119.0,142.0,-523.0,0.0,-53.0,0.0,0.0,0.0
19:32:15.891000,227.0,112.0,185.0,-520.0,30.0,-113.0,0.0,0.0,0.0
19:32:15.895000,246.0,113.0,183.0,-520.0,30.0,-113.0,0.0,0.0,0.0
19:32:15.900000,254.0,120.0,149.0,-615.0,186.0,-183.0,0.0,0.0,0.0
19:32:15.905000,254.0,120.0,149.0,-615.0,186.0,-183.0,0.0,0.0,0.0
19:32:15.910000,256.0,118.0,120.0,-747.0,353.0,-227.0,0.0,0.0,0.0
19:32:15.914000,258.0,116.0,126.0,-747.0,353.0,-227.0,0.0,0.0,0.0
19:32:15.919000,246.0,115.0,189.0,-829.0,397.0,-237.0,0.0,0.0,0.0
19:32:15.924000,240.0,105.0,284.0,-829.0,397.0,-237.0,0.0,0.0,0.0
19:32:15.928000,233.0,96.0,366.0,-945.0,397.0,-238.0,0.0,0.0,0.0
19:32:15.933000,214.0,90.0,410.0,-945.0,397.0,-238.0,0.0,0.0,0.0
19:32:15.938000,187.0,84.0,401.0,-1089.0,490.0,-233.0,0.0,0.0,0.0
19:32:15.942000,149.0,84.0,392.0,-1089.0,490.0,-233.0,0.0,0.0,0.0
19:32:15.947000,107.0,77.0,402.0,-1222.0,545.0,-238.0,0.0,0.0,0.0
19:32:15.952000,86.0,67.0,413.0,-1222.0,545.0,-238.0,0.0,0.0,0.0
19:32:15.957000,58.0,22.0,428.0,-1438.0,406.0,-203.0,0.0,0.0,0.0
19:32:15.961000,-35.0,49.0,359.0,-1438.0,406.0,-203.0,0.0,0.0,0.0
19:32:15.966000,-14.0,28.0,243.0,-1438.0,121.0,-143.0,0.0,0.0,0.0
19:32:15.971000,60.0,49.0,149.0,-1484.0,121.0,-143.0,0.0,0.0,0.0
19:32:15.975000,93.0,85.0,101.0,-1484.0,121.0,-143.0,0.0,0.0,0.0
19:32:15.980000,175.0,77.0,79.0,-1410.0,-184.0,-150.0,0.0,0.0,0.0
19:32:15.984000,206.0,75.0,-56.0,-1316.0,-247.0,-180.0,0.0,0.0,0.0
19:32:15.989000,316.0,62.0,-234.0,-1316.0,-247.0,-180.0,0.0,0.0,0.0
19:32:15.994000,334.0,69.0,-288.0,-1316.0,-247.0,-180.0,0.0,0.0,0.0
19:32:15.999000,223.0,126.0,-330.0,-1292.0,-54.0,-204.0,0.0,0.0,0.0
19:32:16.003000,172.0,123.0,-681.0,-1292.0,-54.0,-204.0,0.0,0.0,0.0
19:32:16.008000,287.0,141.0,-873.0,-1518.0,107.0,-266.0,0.0,0.0,0.0
19:32:16.013000,282.0,114.0,-807.0,-1518.0,107.0,-266.0,0.0,0.0,0.0
19:32:16.018000,282.0,114.0,-807.0,-1649.0,71.0,-278.0,0.0,0.0,0.0
19:32:16.022000,156.0,116.0,-718.0,-1649.0,71.0,-278.0,0.0,0.0,0.0
19:32:16.027000,131.0,109.0,-679.0,-1629.0,-99.0,-218.0,0.0,0.0,0.0
19:32:16.031000,68.0,100.0,-681.0,-1629.0,-99.0,-218.0,0.0,0.0,0.0
19:32:16.036000,24.0,100.0,-699.0,-1513.0,-338.0,-170.0,0.0,0.0,0.0
19:32:16.041000,6.0,102.0,-606.0,-1513.0,-338.0,-170.0,0.0,0.0,0.0
19:32:16.046000,18.0,108.0,-450.0,-1260.0,-577.0,-123.0,0.0,0.0,0.0
19:32:16.050000,27.0,110.0,-425.0,-1260.0,-577.0,-123.0,0.0,0.0,0.0
19:32:16.055000,39.0,121.0,-548.0,-1015.0,-628.0,-70.0,0.0,0.0,0.0
19:32:16.060000,25.0,132.0,-594.0,-1015.0,-628.0,-70.0,0.0,0.0,0.0
19:32:16.065000,20.0,140.0,-587.0,-869.0,-614.0,-30.0,0.0,0.0,0.0
19:32:16.069000,42.0,150.0,-658.0,-869.0,-614.0,-30.0,0.0,0.0,0.0
19:32:16.074000,92.0,142.0,-737.0,-852.0,-645.0,-24.0,0.0,0.0,0.0
19:32:16.079000,97.0,140.0,-756.0,-852.0,-645.0,-24.0,0.0,0.0,0.0
19:32:16.083000,144.0,135.0,-784.0,-852.0,-645.0,-24.0,0.0,0.0,0.0
19:32:16.088000,162.0,134.0,-826.0,-887.0,-609.0,-37.0,0.0,0.0,0.0
19:32:16.093000,159.0,133.0,-824.0,-887.0,-609.0,-37.0,0.0,0.0,0.0
19:32:16.097000,195.0,119.0,-784.0,-907.0,-518.0,-51.0,0.0,0.0,0.0
19:32:16.102000,194.0,119.0,-725.0,-907.0,-518.0,-51.0,0.0,0.0,0.0
19:32:16.107000,235.0,113.0,-666.0,-1000.0,-394.0,-69.0,0.0,0.0,0.0
19:32:16.112000,264.0,107.0,-665.0,-1000.0,-394.0,-69.0,0.0,0.0,0.0
19:32:16.116000,271.0,114.0,-702.0,-1137.0,-274.0,-86.0,0.0,0.0,0.0
19:32:16.121000,270.0,119.0,-725.0,-1137.0,-274.0,-86.0,0.0,0.0,0.0
19:32:16.126000,270.0,119.0,-725.0,-1214.0,-151.0,-84.0,0.0,0.0,0.0
19:32:16.130000,221.0,123.0,-697.0,-1214.0,-151.0,-84.0,0.0,0.0,0.0
19:32:16.135000,173.0,140.0,-658.0,-1240.0,-29.0,-83.0,0.0,0.0,0.0
19:32:16.140000,132.0,162.0,-634.0,-1240.0,-29.0,-83.0,0.0,0.0,0.0
19:32:16.144000,74.0,178.0,-611.0,-1277.0,7.0,-98.0,0.0,0.0,0.0
19:32:16.149000,31.0,190.0,-578.0,-1277.0,7.0,-98.0,0.0,0.0,0.0
19:32:16.154000,17.0,202.0,-558.0,-1339.0,-16.0,-127.0,0.0,0.0,0.0
19:32:16.159000,16.0,211.0,-560.0,-1339.0,-16.0,-127.0,0.0,0.0,0.0
19:32:16.163000,19.0,221.0,-577.0,-1379.0,-54.0,-163.0,0.0,0.0,0.0
19:32:16.168000,31.0,233.0,-595.0,-1379.0,-54.0,-163.0,0.0,0.0,0.0
19:32:16.173000,25.0,245.0,-571.0,-1349.0,-90.0,-183.0,0.0,0.0,0.0
19:32:16.177000,24.0,254.0,-515.0,-1349.0,-90.0,-183.0,0.0,0.0,0.0
19:32:16.182000,26.0,260.0,-418.0,-1294.0,-98.0,-205.0,0.0,0.0,0.0
19:32:16.187000,43.0,268.0,-350.0,-1294.0,-98.0,-205.0,0.0,0.0,0.0
19:32:16.191000,71.0,270.0,-337.0,-1294.0,-98.0,-205.0,0.0,0.0,0.0
19:32:16.196000,77.0,273.0,-357.0,-1279.0,-79.0,-232.0,0.0,0.0,0.0
19:32:16.201000,64.0,277.0,-407.0,-1279.0,-79.0,-232.0,0.0,0.0,0.0
19:32:16.206000,53.0,285.0,-444.0,-1312.0,-34.0,-249.0,0.0,0.0,0.0
19:32:16.210000,60.0,285.0,-461.0,-1312.0,-34.0,-249.0,0.0,0.0,0.0
19:32:16.215000,91.0,275.0,-491.0,-1351.0,25.0,-270.0,0.0,0.0,0.0
19:32:16.220000,103.0,262.0,-510.0,-1351.0,25.0,-270.0,0.0,0.0,0.0
19:32:16.224000,105.0,252.0,-475.0,-1331.0,53.0,-287.0,0.0,0.0,0.0
19:32:16.229000,107.0,238.0,-428.0,-1331.0,53.0,-287.0,0.0,0.0,0.0
19:32:16.234000,107.0,238.0,-428.0,-1302.0,41.0,-287.0,0.0,0.0,0.0
19:32:16.238000,136.0,220.0,-454.0,-1302.0,41.0,-287.0,0.0,0.0,0.0
19:32:16.243000,147.0,214.0,-485.0,-1273.0,48.0,-285.0,0.0,0.0,0.0
19:32:16.248000,162.0,206.0,-479.0,-1273.0,48.0,-285.0,0.0,0.0,0.0
19:32:16.253000,170.0,191.0,-494.0,-1241.0,84.0,-266.0,0.0,0.0,0.0
19:32:16.257000,164.0,178.0,-488.0,-1241.0,84.0,-266.0,0.0,0.0,0.0
19:32:16.262000,153.0,172.0,-476.0,-1243.0,139.0,-238.0,0.0,0.0,0.0
19:32:16.266000,112.0,176.0,-490.0,-1243.0,139.0,-238.0,0.0,0.0,0.0
19:32:16.271000,69.0,198.0,-506.0,-1234.0,205.0,-224.0,0.0,0.0,0.0
19:32:16.276000,38.0,221.0,-553.0,-1234.0,205.0,-224.0,0.0,0.0,0.0
19:32:16.281000,28.0,252.0,-579.0,-1197.0,216.0,-212.0,0.0,0.0,0.0
19:32:16.285000,6.0,284.0,-660.0,-1197.0,216.0,-212.0,0.0,0.0,0.0
19:32:16.290000,-26.0,300.0,-743.0,-1256.0,224.0,-210.0,0.0,0.0,0.0
19:32:16.295000,-25.0,310.0,-725.0,-1256.0,224.0,-210.0,0.0,0.0,0.0
19:32:16.300000,-15.0,338.0,-718.0,-1256.0,224.0,-210.0,0.0,0.0,0.0
19:32:16.304000,46.0,347.0,-748.0,-1401.0,166.0,-256.0,0.0,0.0,0.0
19:32:16.309000,55.0,317.0,-691.0,-1401.0,166.0,-256.0,0.0,0.0,0.0
19:32:16.314000,4.0,331.0,-715.0,-1428.0,160.0,-290.0,0.0,0.0,0.0
19:32:16.318000,-30.0,356.0,-854.0,-1428.0,160.0,-290.0,0.0,0.0,0.0
19:32:16.323000,-38.0,348.0,-892.0,-1353.0,266.0,-302.0,0.0,0.0,0.0
19:32:16.328000,-32.0,326.0,-748.0,-1353.0,266.0,-302.0,0.0,0.0,0.0
19:32:16.332000,33.0,310.0,-625.0,-1200.0,186.0,-322.0,0.0,0.0,0.0
19:32:16.337000,121.0,311.0,-640.0,-1200.0,186.0,-322.0,0.0,0.0,0.0
19:32:16.342000,192.0,294.0,-641.0,-1098.0,153.0,-328.0,0.0,0.0,0.0
19:32:16.347000,192.0,294.0,-641.0,-1098.0,153.0,-328.0,0.0,0.0,0.0
19:32:16.351000,256.0,262.0,-575.0,-1019.0,260.0,-310.0,0.0,0.0,0.0
19:32:16.356000,263.0,233.0,-491.0,-1019.0,260.0,-310.0,0.0,0.0,0.0
19:32:16.361000,273.0,216.0,-541.0,-980.0,348.0,-283.0,0.0,0.0,0.0
19:32:16.365000,268.0,201.0,-662.0,-980.0,348.0,-283.0,0.0,0.0,0.0
19:32:16.370000,245.0,190.0,-691.0,-1107.0,374.0,-283.0,0.0,0.0,0.0
19:32:16.375000,229.0,175.0,-659.0,-1107.0,374.0,-283.0,0.0,0.0,0.0
19:32:16.379000,205.0,164.0,-554.0,-1186.0,368.0,-297.0,0.0,0.0,0.0
19:32:16.384000,170.0,142.0,-515.0,-1186.0,368.0,-297.0,0.0,0.0,0.0
19:32:16.389000,123.0,129.0,-566.0,-1202.0,484.0,-307.0,0.0,0.0,0.0
19:32:16.394000,70.0,123.0,-602.0,-1202.0,484.0,-307.0,0.0,0.0,0.0
19:32:16.398000,28.0,113.0,-585.0,-1158.0,556.0,-313.0,0.0,0.0,0.0
19:32:16.403000,12.0,112.0,-582.0,-1158.0,556.0,-313.0,0.0,0.0,0.0
19:32:16.408000,32.0,105.0,-569.0,-1158.0,556.0,-313.0,0.0,0.0,0.0
19:32:16.412000,34.0,110.0,-508.0,-1108.0,504.0,-336.0,0.0,0.0,0.0
19:32:16.417000,32.0,115.0,-424.0,-1108.0,504.0,-336.0,0.0,0.0,0.0
19:32:16.422000,30.0,124.0,-374.0,-1131.0,503.0,-359.0,0.0,0.0,0.0
19:32:16.441000,-46.0,179.0,-268.0,-1301.0,620.0,-395.0,0.0,0.0,0.0
19:32:16.445000,-63.0,186.0,-214.0,-1301.0,620.0,-395.0,0.0,0.0,0.0
19:32:16.450000,-79.0,186.0,-145.0,-1349.0,570.0,-419.0,0.0,0.0,0.0
19:32:16.455000,-79.0,186.0,-145.0,-1349.0,570.0,-419.0,0.0,0.0,0.0
19:32:16.459000,-86.0,178.0,-100.0,-1319.0,488.0,-426.0,0.0,0.0,0.0
19:32:16.464000,-81.0,170.0,-77.0,-1319.0,488.0,-426.0,0.0,0.0,0.0
19:32:16.469000,-72.0,159.0,-94.0,-1221.0,469.0,-437.0,0.0,0.0,0.0
19:32:16.473000,-60.0,146.0,-144.0,-1221.0,469.0,-437.0,0.0,0.0,0.0
19:32:16.478000,-46.0,133.0,-223.0,-1108.0,487.0,-447.0,0.0,0.0,0.0
19:32:16.483000,-21.0,98.0,-280.0,-1108.0,487.0,-447.0,0.0,0.0,0.0
19:32:16.488000,-9.0,53.0,-236.0,-1009.0,405.0,-446.0,0.0,0.0,0.0
19:32:16.492000,-4.0,21.0,-143.0,-1009.0,405.0,-446.0,0.0,0.0,0.0
19:32:16.497000,7.0,-20.0,-145.0,-986.0,331.0,-427.0,0.0,0.0,0.0
19:32:16.502000,22.0,-53.0,-193.0,-986.0,331.0,-427.0,0.0,0.0,0.0
19:32:16.506000,34.0,-65.0,-233.0,-955.0,389.0,-413.0,0.0,0.0,0.0
19:32:16.511000,37.0,-82.0,-245.0,-955.0,389.0,-413.0,0.0,0.0,0.0
19:32:16.516000,49.0,-115.0,-207.0,-955.0,389.0,-413.0,0.0,0.0,0.0
19:32:16.520000,41.0,-130.0,-177.0,-873.0,452.0,-389.0,0.0,0.0,0.0
19:32:16.525000,8.0,-133.0,-118.0,-847.0,481.0,-341.0,0.0,0.0,0.0
19:32:16.530000,7.0,-129.0,-12.0,-847.0,481.0,-341.0,0.0,0.0,0.0
19:32:16.535000,2.0,-128.0,29.0,-847.0,481.0,-341.0,0.0,0.0,0.0
19:32:16.539000,-28.0,-128.0,-29.0,-915.0,534.0,-294.0,0.0,0.0,0.0
19:32:16.544000,-70.0,-119.0,-175.0,-915.0,534.0,-294.0,0.0,0.0,0.0
19:32:16.549000,-114.0,-113.0,-263.0,-1038.0,570.0,-246.0,0.0,0.0,0.0
19:32:16.553000,-141.0,-81.0,-193.0,-1038.0,570.0,-246.0,0.0,0.0,0.0
19:32:16.558000,-135.0,-42.0,-120.0,-962.0,554.0,-222.0,0.0,0.0,0.0
19:32:16.563000,-135.0,-42.0,-120.0,-962.0,554.0,-222.0,0.0,0.0,0.0
19:32:16.567000,-133.0,-42.0,-142.0,-772.0,547.0,-211.0,0.0,0.0,0.0
19:32:16.572000,-137.0,-60.0,-194.0,-772.0,547.0,-211.0,0.0,0.0,0.0
19:32:16.577000,-94.0,-78.0,-235.0,-702.0,477.0,-225.0,0.0,0.0,0.0
19:32:16.582000,-22.0,-94.0,-284.0,-702.0,477.0,-225.0,0.0,0.0,0.0
19:32:16.586000,52.0,-126.0,-372.0,-681.0,457.0,-268.0,0.0,0.0,0.0
19:32:16.591000,79.0,-147.0,-367.0,-681.0,457.0,-268.0,0.0,0.0,0.0
19:32:16.596000,89.0,-131.0,-342.0,-667.0,516.0,-309.0,0.0,0.0,0.0
19:32:16.600000,114.0,-137.0,-382.0,-667.0,516.0,-309.0,0.0,0.0,0.0
19:32:16.605000,179.0,-147.0,-434.0,-629.0,536.0,-344.0,0.0,0.0,0.0
19:32:16.610000,237.0,-154.0,-417.0,-629.0,536.0,-344.0,0.0,0.0,0.0
19:32:16.614000,292.0,-174.0,-303.0,-565.0,558.0,-335.0,0.0,0.0,0.0
19:32:16.619000,313.0,-213.0,-228.0,-565.0,558.0,-335.0,0.0,0.0,0.0
19:32:16.624000,324.0,-233.0,-221.0,-565.0,571.0,-304.0,0.0,0.0,0.0
19:32:16.629000,345.0,-240.0,-198.0,-537.0,571.0,-287.0,0.0,0.0,0.0
19:32:16.633000,363.0,-266.0,-141.0,-537.0,571.0,-287.0,0.0,0.0,0.0
19:32:16.637000,339.0,-280.0,-90.0,-524.0,584.0,-228.0,0.0,0.0,0.0
19:32:16.643000,310.0,-310.0,-93.0,-524.0,584.0,-228.0,0.0,0.0,0.0
19:32:16.647000,277.0,-331.0,-149.0,-460.0,634.0,-173.0,0.0,0.0,0.0
19:32:16.652000,221.0,-341.0,-175.0,-460.0,634.0,-173.0,0.0,0.0,0.0
19:32:16.657000,164.0,-345.0,-144.0,-365.0,708.0,-132.0,0.0,0.0,0.0
19:32:16.661000,87.0,-343.0,-104.0,-365.0,708.0,-132.0,0.0,0.0,0.0
19:32:16.666000,5.0,-321.0,-108.0,-317.0,730.0,-104.0,0.0,0.0,0.0
19:32:16.671000,5.0,-321.0,-108.0,-317.0,730.0,-104.0,0.0,0.0,0.0
19:32:16.676000,-50.0,-280.0,-172.0,-402.0,790.0,-110.0,0.0,0.0,0.0
19:32:16.680000,-109.0,-229.0,-231.0,-402.0,790.0,-110.0,0.0,0.0,0.0
19:32:16.685000,-165.0,-179.0,-247.0,-523.0,785.0,-133.0,0.0,0.0,0.0
19:32:16.690000,-213.0,-121.0,-233.0,-523.0,785.0,-133.0,0.0,0.0,0.0
19:32:16.694000,-227.0,-70.0,-201.0,-579.0,601.0,-161.0,0.0,0.0,0.0
19:32:16.699000,-217.0,-19.0,-170.0,-579.0,601.0,-161.0,0.0,0.0,0.0
19:32:16.704000,-185.0,19.0,-142.0,-587.0,375.0,-198.0,0.0,0.0,0.0
19:32:16.708000,-142.0,37.0,-115.0,-587.0,375.0,-198.0,0.0,0.0,0.0
19:32:16.713000,-82.0,44.0,-93.0,-520.0,222.0,-219.0,0.0,0.0,0.0
19:32:16.718000,-22.0,29.0,-80.0,-520.0,222.0,-219.0,0.0,0.0,0.0
19:32:16.723000,36.0,2.0,-71.0,-401.0,222.0,-209.0,0.0,0.0,0.0
19:32:16.727000,77.0,-29.0,-59.0,-401.0,222.0,-209.0,0.0,0.0,0.0
19:32:16.732000,100.0,-63.0,-56.0,-332.0,349.0,-172.0,0.0,0.0,0.0
19:32:16.737000,110.0,-98.0,-63.0,-332.0,349.0,-172.0,0.0,0.0,0.0
19:32:16.741000,105.0,-127.0,-73.0,-332.0,349.0,-172.0,0.0,0.0,0.0
19:32:16.746000,77.0,-149.0,-86.0,-339.0,500.0,-126.0,0.0,0.0,0.0
19:32:16.751000,44.0,-168.0,-89.0,-339.0,500.0,-126.0,0.0,0.0,0.0
19:32:16.755000,-9.0,-173.0,-73.0,-391.0,602.0,-81.0,0.0,0.0,0.0
19:32:16.760000,-75.0,-172.0,-33.0,-391.0,602.0,-81.0,0.0,0.0,0.0
19:32:16.765000,-137.0,-165.0,0.0,-474.0,627.0,-52.0,0.0,0.0,0.0
19:32:16.770000,-188.0,-154.0,30.0,-474.0,627.0,-52.0,0.0,0.0,0.0
19:32:16.774000,-230.0,-139.0,67.0,-569.0,566.0,-50.0,0.0,0.0,0.0
19:32:16.779000,-259.0,-123.0,90.0,-569.0,566.0,-50.0,0.0,0.0,0.0
19:32:16.784000,-259.0,-123.0,90.0,-653.0,466.0,-70.0,0.0,0.0,0.0
19:32:16.788000,-280.0,-105.0,98.0,-653.0,466.0,-70.0,0.0,0.0,0.0
19:32:16.793000,-286.0,-86.0,93.0,-704.0,371.0,-102.0,0.0,0.0,0.0
19:32:16.798000,-287.0,-69.0,84.0,-704.0,371.0,-102.0,0.0,0.0,0.0
19:32:16.802000,-282.0,-48.0,66.0,-729.0,303.0,-143.0,0.0,0.0,0.0
19:32:16.807000,-279.0,-26.0,32.0,-729.0,303.0,-143.0,0.0,0.0,0.0
19:32:16.812000,-272.0,-2.0,0.0,-729.0,269.0,-188.0,0.0,0.0,0.0
19:32:16.817000,-268.0,22.0,-35.0,-729.0,269.0,-188.0,0.0,0.0,0.0
19:32:16.821000,-268.0,49.0,-55.0,-711.0,246.0,-225.0,0.0,0.0,0.0
19:32:16.826000,-269.0,73.0,-55.0,-711.0,246.0,-225.0,0.0,0.0,0.0
19:32:16.831000,-254.0,91.0,-69.0,-691.0,185.0,-246.0,0.0,0.0,0.0
19:32:16.835000,-238.0,102.0,-66.0,-691.0,185.0,-246.0,0.0,0.0,0.0
19:32:16.840000,-211.0,106.0,-43.0,-663.0,70.0,-242.0,0.0,0.0,0.0
19:32:16.845000,-176.0,104.0,-11.0,-663.0,70.0,-242.0,0.0,0.0,0.0
19:32:16.849000,-134.0,98.0,13.0,-663.0,70.0,-242.0,0.0,0.0,0.0
19:32:16.854000,-87.0,86.0,25.0,-631.0,-35.0,-220.0,0.0,0.0,0.0
19:32:16.859000,-43.0,70.0,14.0,-631.0,-35.0,-220.0,0.0,0.0,0.0
19:32:16.864000,0.0,46.0,-1.0,-607.0,-57.0,-194.0,0.0,0.0,0.0
19:32:16.868000,31.0,21.0,-5.0,-607.0,-57.0,-194.0,0.0,0.0,0.0
19:32:16.873000,49.0,-7.0,-3.0,-589.0,-3.0,-164.0,0.0,0.0,0.0
19:32:16.878000,46.0,-32.0,2.0,-589.0,-3.0,-164.0,0.0,0.0,0.0
19:32:16.882000,46.0,-32.0,2.0,-589.0,75.0,-124.0,0.0,0.0,0.0
19:32:16.887000,5.0,-65.0,10.0,-589.0,75.0,-124.0,0.0,0.0,0.0
19:32:16.892000,5.0,-65.0,10.0,-587.0,108.0,-85.0,0.0,0.0,0.0
19:32:16.896000,-15.0,-76.0,16.0,-587.0,108.0,-85.0,0.0,0.0,0.0
19:32:16.901000,-29.0,-81.0,16.0,-600.0,73.0,-62.0,0.0,0.0,0.0
19:32:16.906000,-41.0,-81.0,11.0,-600.0,73.0,-62.0,0.0,0.0,0.0
19:32:16.911000,-47.0,-75.0,-1.0,-680.0,35.0,-57.0,0.0,0.0,0.0
19:32:16.915000,-52.0,-67.0,-15.0,-680.0,35.0,-57.0,0.0,0.0,0.0
19:32:16.920000,-53.0,-54.0,-35.0,-780.0,13.0,-63.0,0.0,0.0,0.0
19:32:16.925000,-51.0,-39.0,-59.0,-780.0,13.0,-63.0,0.0,0.0,0.0
19:32:16.929000,-47.0,-27.0,-80.0,-830.0,0.0,-73.0,0.0,0.0,0.0
19:32:16.934000,-43.0,-18.0,-98.0,-830.0,0.0,-73.0,0.0,0.0,0.0
19:32:16.939000,-37.0,-12.0,-107.0,-824.0,3.0,-83.0,0.0,0.0,0.0
19:32:16.943000,-33.0,-11.0,-112.0,-824.0,3.0,-83.0,0.0,0.0,0.0
19:32:16.948000,-31.0,-9.0,-118.0,-791.0,38.0,-97.0,0.0,0.0,0.0
19:32:16.953000,-31.0,-13.0,-126.0,-791.0,38.0,-97.0,0.0,0.0,0.0
19:32:16.958000,-32.0,-16.0,-139.0,-791.0,38.0,-97.0,0.0,0.0,0.0
19:32:16.962000,-39.0,-20.0,-149.0,-771.0,106.0,-123.0,0.0,0.0,0.0
19:32:16.967000,-51.0,-25.0,-146.0,-771.0,106.0,-123.0,0.0,0.0,0.0
19:32:16.972000,-65.0,-30.0,-124.0,-791.0,176.0,-161.0,0.0,0.0,0.0
19:32:16.976000,-77.0,-33.0,-80.0,-791.0,176.0,-161.0,0.0,0.0,0.0
19:32:16.981000,-85.0,-34.0,-21.0,-841.0,180.0,-193.0,0.0,0.0,0.0
19:32:16.986000,-76.0,-38.0,41.0,-841.0,180.0,-193.0,0.0,0.0,0.0
19:32:16.990000,-47.0,-47.0,93.0,-864.0,88.0,-210.0,0.0,0.0,0.0
19:32:16.995000,-7.0,-58.0,133.0,-864.0,88.0,-210.0,0.0,0.0,0.0
19:32:16.999000,-7.0,-58.0,133.0,-855.0,-11.0,-221.0,0.0,0.0,0.0
19:32:17.005000,35.0,-79.0,171.0,-855.0,-11.0,-221.0,0.0,0.0,0.0
19:32:17.009000,79.0,-112.0,210.0,-849.0,-34.0,-220.0,0.0,0.0,0.0
19:32:17.014000,118.0,-149.0,247.0,-849.0,-34.0,-220.0,0.0,0.0,0.0
19:32:17.019000,149.0,-193.0,280.0,-824.0,4.0,-205.0,0.0,0.0,0.0
19:32:17.023000,174.0,-243.0,313.0,-824.0,4.0,-205.0,0.0,0.0,0.0
19:32:17.028000,191.0,-291.0,345.0,-769.0,74.0,-183.0,0.0,0.0,0.0
19:32:17.033000,196.0,-335.0,375.0,-769.0,74.0,-183.0,0.0,0.0,0.0
19:32:17.037000,190.0,-376.0,408.0,-726.0,157.0,-150.0,0.0,0.0,0.0
19:32:17.042000,170.0,-415.0,453.0,-726.0,157.0,-150.0,0.0,0.0,0.0
19:32:17.047000,144.0,-448.0,506.0,-703.0,235.0,-110.0,0.0,0.0,0.0
19:32:17.052000,112.0,-475.0,560.0,-703.0,235.0,-110.0,0.0,0.0,0.0
19:32:17.056000,79.0,-497.0,618.0,-690.0,301.0,-86.0,0.0,0.0,0.0
19:32:17.061000,49.0,-514.0,688.0,-690.0,301.0,-86.0,0.0,0.0,0.0
19:32:17.066000,18.0,-530.0,774.0,-704.0,360.0,-80.0,0.0,0.0,0.0
19:32:17.070000,-16.0,-545.0,882.0,-704.0,360.0,-80.0,0.0,0.0,0.0
19:32:17.075000,-58.0,-561.0,1010.0,-704.0,360.0,-80.0,0.0,0.0,0.0
19:32:17.080000,-105.0,-571.0,1155.0,-730.0,408.0,-80.0,0.0,0.0,0.0
19:32:17.084000,-154.0,-585.0,1310.0,-730.0,408.0,-80.0,0.0,0.0,0.0
19:32:17.089000,-196.0,-591.0,1465.0,-711.0,411.0,-66.0,0.0,0.0,0.0
19:32:17.094000,-222.0,-595.0,1611.0,-711.0,411.0,-66.0,0.0,0.0,0.0
19:32:17.099000,-241.0,-606.0,1754.0,-641.0,329.0,-39.0,0.0,0.0,0.0
19:32:17.103000,-249.0,-616.0,1890.0,-641.0,329.0,-39.0,0.0,0.0,0.0
19:32:17.108000,-238.0,-620.0,2012.0,-591.0,160.0,-14.0,0.0,0.0,0.0
19:32:17.113000,-238.0,-620.0,2012.0,-591.0,160.0,-14.0,0.0,0.0,0.0
19:32:17.117000,-213.0,-618.0,2111.0,-608.0,-15.0,-2.0,0.0,0.0,0.0
19:32:17.121000,-188.0,-613.0,2184.0,-608.0,-15.0,-2.0,0.0,0.0,0.0
19:32:17.127000,-165.0,-607.0,2237.0,-648.0,-96.0,-7.0,0.0,0.0,0.0
19:32:17.131000,-142.0,-600.0,2270.0,-648.0,-96.0,-7.0,0.0,0.0,0.0
19:32:17.136000,-126.0,-597.0,2287.0,-642.0,-98.0,-15.0,0.0,0.0,0.0
19:32:17.141000,-114.0,-596.0,2283.0,-642.0,-98.0,-15.0,0.0,0.0,0.0
19:32:17.146000,-107.0,-600.0,2254.0,-584.0,-72.0,-9.0,0.0,0.0,0.0
19:32:17.150000,-105.0,-605.0,2198.0,-584.0,-72.0,-9.0,0.0,0.0,0.0
19:32:17.155000,-109.0,-604.0,2119.0,-523.0,-20.0,0.0,0.0,0.0,0.0
19:32:17.160000,-123.0,-597.0,2030.0,-523.0,-20.0,0.0,0.0,0.0,0.0
19:32:17.164000,-141.0,-585.0,1938.0,-534.0,34.0,5.0,0.0,0.0,0.0
19:32:17.169000,-151.0,-569.0,1847.0,-534.0,34.0,5.0,0.0,0.0,0.0
19:32:17.174000,-156.0,-548.0,1758.0,-534.0,34.0,5.0,0.0,0.0,0.0
19:32:17.178000,-160.0,-520.0,1672.0,-625.0,43.0,-3.0,0.0,0.0,0.0
19:32:17.183000,-165.0,-484.0,1593.0,-739.0,2.0,-19.0,0.0,0.0,0.0
19:32:17.188000,-172.0,-440.0,1516.0,-739.0,2.0,-19.0,0.0,0.0,0.0
19:32:17.193000,-179.0,-392.0,1419.0,-739.0,2.0,-19.0,0.0,0.0,0.0
19:32:17.197000,-193.0,-336.0,1311.0,-842.0,-38.0,-32.0,0.0,0.0,0.0
19:32:17.202000,-213.0,-272.0,1201.0,-842.0,-38.0,-32.0,0.0,0.0,0.0
19:32:17.207000,-230.0,-206.0,1096.0,-923.0,-41.0,-51.0,0.0,0.0,0.0
19:32:17.211000,-235.0,-144.0,1004.0,-923.0,-41.0,-51.0,0.0,0.0,0.0
19:32:17.216000,-226.0,-91.0,921.0,-980.0,-73.0,-71.0,0.0,0.0,0.0
19:32:17.221000,-226.0,-91.0,921.0,-980.0,-73.0,-71.0,0.0,0.0,0.0
19:32:17.225000,-205.0,-42.0,856.0,-1008.0,-174.0,-92.0,0.0,0.0,0.0
19:32:17.230000,-177.0,-7.0,808.0,-1008.0,-174.0,-92.0,0.0,0.0,0.0
19:32:17.235000,-141.0,13.0,780.0,-987.0,-284.0,-102.0,0.0,0.0,0.0
19:32:17.240000,-107.0,30.0,770.0,-987.0,-284.0,-102.0,0.0,0.0,0.0
19:32:17.244000,-62.0,38.0,773.0,-929.0,-364.0,-97.0,0.0,0.0,0.0
19:32:17.249000,-17.0,37.0,747.0,-929.0,-364.0,-97.0,0.0,0.0,0.0
19:32:17.254000,8.0,32.0,722.0,-877.0,-341.0,-96.0,0.0,0.0,0.0
19:32:17.258000,19.0,18.0,707.0,-877.0,-341.0,-96.0,0.0,0.0,0.0
19:32:17.263000,15.0,7.0,694.0,-805.0,-232.0,-99.0,0.0,0.0,0.0
19:32:17.268000,7.0,-14.0,675.0,-805.0,-232.0,-99.0,0.0,0.0,0.0
19:32:17.272000,1.0,-35.0,627.0,-714.0,-115.0,-110.0,0.0,0.0,0.0
19:32:17.277000,-21.0,-31.0,542.0,-714.0,-115.0,-110.0,0.0,0.0,0.0
19:32:17.282000,-46.0,-9.0,427.0,-714.0,-115.0,-110.0,0.0,0.0,0.0
19:32:17.287000,-79.0,-69.0,343.0,-755.0,-1.0,-98.0,0.0,0.0,0.0
19:32:17.291000,-130.0,-50.0,282.0,-755.0,-1.0,-98.0,0.0,0.0,0.0
19:32:17.296000,-222.0,-56.0,531.0,-1091.0,-49.0,-61.0,0.0,0.0,0.0
19:32:17.301000,-203.0,-82.0,522.0,-1091.0,-49.0,-61.0,0.0,0.0,0.0
19:32:17.305000,-79.0,-77.0,235.0,-1016.0,-184.0,-16.0,0.0,0.0,0.0
19:32:17.310000,-44.0,-53.0,-29.0,-1016.0,-184.0,-16.0,0.0,0.0,0.0
19:32:17.315000,-74.0,-66.0,-179.0,-522.0,-84.0,39.0,0.0,0.0,0.0
19:32:17.319000,-121.0,-43.0,-164.0,-522.0,-84.0,39.0,0.0,0.0,0.0
19:32:17.324000,-154.0,-30.0,9.0,-364.0,-76.0,122.0,0.0,0.0,0.0
19:32:17.329000,-154.0,-30.0,9.0,-364.0,-76.0,122.0,0.0,0.0,0.0
19:32:17.334000,-122.0,-19.0,184.0,-434.0,-286.0,179.0,0.0,0.0,0.0
19:32:17.338000,-52.0,3.0,195.0,-434.0,-286.0,179.0,0.0,0.0,0.0
19:32:17.343000,31.0,29.0,154.0,-537.0,-387.0,180.0,0.0,0.0,0.0
19:32:17.348000,111.0,49.0,144.0,-537.0,-387.0,180.0,0.0,0.0,0.0
19:32:17.352000,184.0,70.0,107.0,-603.0,-341.0,168.0,0.0,0.0,0.0
19:32:17.357000,237.0,79.0,12.0,-603.0,-341.0,168.0,0.0,0.0,0.0
